[{"success":true,"trial_type":"fullscreen","trial_index":0,"time_elapsed":3761,"internal_node_id":"0.0-0.0","subject_id":"60390dd01c38de312b32bbae","study_id":"6197b3f67c2b5cd3b6d9596a","session_id":"6197bc3e125b29c6858f9d16","condition":"contingent","relevant_dimensions":["wings","legs"],"bee_group":{"antennae":"X","wings":"2","pattern":"X","legs":"M"},"bonus":1.3200000000000007},{"success":true,"timeout":false,"failed_images":[],"failed_audio":[],"failed_video":[],"trial_type":"preload","trial_index":1,"time_elapsed":5366,"internal_node_id":"0.0-1.0","subject_id":"60390dd01c38de312b32bbae","study_id":"6197b3f67c2b5cd3b6d9596a","session_id":"6197bc3e125b29c6858f9d16","condition":"contingent","relevant_dimensions":["wings","legs"],"bee_group":{"antennae":"X","wings":"2","pattern":"X","legs":"M"},"bonus":1.3200000000000007},{"rt":3274.0350000094622,"stimulus":"Welcome! Press any key to begin.","response":" ","trial_type":"html-keyboard-response","trial_index":2,"time_elapsed":8641,"internal_node_id":"0.0-2.0","subject_id":"60390dd01c38de312b32bbae","study_id":"6197b3f67c2b5cd3b6d9596a","session_id":"6197bc3e125b29c6858f9d16","condition":"contingent","relevant_dimensions":["wings","legs"],"bee_group":{"antennae":"X","wings":"2","pattern":"X","legs":"M"},"bonus":1.3200000000000007},{"view_history":[{"page_index":0,"viewing_time":12305.884999921545},{"page_index":1,"viewing_time":16701.87500002794},{"page_index":2,"viewing_time":10836.134999990463},{"page_index":3,"viewing_time":21223.905000137165},{"page_index":4,"viewing_time":9423.339999979362},{"page_index":5,"viewing_time":8294.215000001714},{"page_index":6,"viewing_time":15994.424999924377},{"page_index":7,"viewing_time":12503.229999914765},{"page_index":8,"viewing_time":6515.1450000703335},{"page_index":9,"viewing_time":5071.225000079721},{"page_index":10,"viewing_time":5145.529999863356},{"page_index":11,"viewing_time":14482.0250000339},{"page_index":12,"viewing_time":10329.009999986738},{"page_index":13,"viewing_time":1872.1849999856204},{"page_index":14,"viewing_time":2080.7849999982864}],"rt":152779.23500002362,"trial_type":"instructions","trial_index":3,"time_elapsed":161421,"internal_node_id":"0.0-3.0-0.0","subject_id":"60390dd01c38de312b32bbae","study_id":"6197b3f67c2b5cd3b6d9596a","session_id":"6197bc3e125b29c6858f9d16","condition":"contingent","relevant_dimensions":["wings","legs"],"bee_group":{"antennae":"X","wings":"2","pattern":"X","legs":"M"},"bonus":1.3200000000000007},{"rt":28453.785000136122,"response":{"Q0":["Two or six legs","Stripes or spots on body","Single or double wings","Antennae or no antennae"]},"question_order":[0],"trial_type":"survey-multi-select","trial_index":4,"time_elapsed":189878,"internal_node_id":"0.0-3.0-1.0","subject_id":"60390dd01c38de312b32bbae","study_id":"6197b3f67c2b5cd3b6d9596a","session_id":"6197bc3e125b29c6858f9d16","condition":"contingent","relevant_dimensions":["wings","legs"],"bee_group":{"antennae":"X","wings":"2","pattern":"X","legs":"M"},"correct":true,"bonus":1.3200000000000007},{"rt":22081.36499999091,"response":{"Q1":"No.","Q2":"Based on the four features of the bee.","Q3":"You do not learn if it was friendly or dangerous, and do not alter your bonus."},"question_order":[0,1,2],"trial_type":"survey-multi-choice","trial_index":5,"time_elapsed":211965,"internal_node_id":"0.0-3.0-2.0","subject_id":"60390dd01c38de312b32bbae","study_id":"6197b3f67c2b5cd3b6d9596a","session_id":"6197bc3e125b29c6858f9d16","condition":"contingent","relevant_dimensions":["wings","legs"],"bee_group":{"antennae":"X","wings":"2","pattern":"X","legs":"M"},"correct":true,"bonus":1.3200000000000007},{"rt":4501.0999999940395,"stimulus":"<p>Congrats, you got everything right<br>When you're ready, click the button below to continue to the experiment.</p>","response":0,"trial_type":"html-button-response","trial_index":6,"time_elapsed":216471,"internal_node_id":"0.0-3.0-3.0","subject_id":"60390dd01c38de312b32bbae","study_id":"6197b3f67c2b5cd3b6d9596a","session_id":"6197bc3e125b29c6858f9d16","condition":"contingent","relevant_dimensions":["wings","legs"],"bee_group":{"antennae":"X","wings":"2","pattern":"X","legs":"M"},"bonus":1.3200000000000007},{"rt":4584.375000093132,"stimulus":"bees-with-color/bee-B2DF.svg","response":1,"trial_type":"image-button-response","trial_index":7,"time_elapsed":221058,"internal_node_id":"0.0-4.0-0.0","subject_id":"60390dd01c38de312b32bbae","study_id":"6197b3f67c2b5cd3b6d9596a","session_id":"6197bc3e125b29c6858f9d16","condition":"contingent","relevant_dimensions":["wings","legs"],"bee_group":{"antennae":"X","wings":"2","pattern":"X","legs":"M"},"action":"avoid","summary":"bad-avoid","bonus":1.3200000000000007},{"rt":13891.70500007458,"stimulus":"\n                    <p><b>Action: <em>avoid</em></b></p>\n                    <p>This is the bee that you just saw.</p>\n                    <img src=\"bees-with-color/bee-B2DF.svg\" width=\"200\">\n                    <p><br>Your bonus pay is unchanged, and remains at $0.54.</p>\n            ","response":0,"trial_type":"html-button-response","trial_index":8,"time_elapsed":234952,"internal_node_id":"0.0-4.0-1.0","subject_id":"60390dd01c38de312b32bbae","study_id":"6197b3f67c2b5cd3b6d9596a","session_id":"6197bc3e125b29c6858f9d16","condition":"contingent","relevant_dimensions":["wings","legs"],"bee_group":{"antennae":"X","wings":"2","pattern":"X","legs":"M"},"bonus":1.3200000000000007},{"rt":4994.259999832138,"stimulus":"bees-with-color/bee-B2DM.svg","response":1,"trial_type":"image-button-response","trial_index":9,"time_elapsed":239947,"internal_node_id":"0.0-4.0-0.1","subject_id":"60390dd01c38de312b32bbae","study_id":"6197b3f67c2b5cd3b6d9596a","session_id":"6197bc3e125b29c6858f9d16","condition":"contingent","relevant_dimensions":["wings","legs"],"bee_group":{"antennae":"X","wings":"2","pattern":"X","legs":"M"},"action":"avoid","summary":"good-avoid","bonus":1.3200000000000007},{"rt":5208.794999867678,"stimulus":"\n                    <p><b>Action: <em>avoid</em></b></p>\n                    <p>This is the bee that you just saw.</p>\n                    <img src=\"bees-with-color/bee-B2DM.svg\" width=\"200\">\n                    <p><br>Your bonus pay is unchanged, and remains at $0.54.</p>\n            ","response":0,"trial_type":"html-button-response","trial_index":10,"time_elapsed":245157,"internal_node_id":"0.0-4.0-1.1","subject_id":"60390dd01c38de312b32bbae","study_id":"6197b3f67c2b5cd3b6d9596a","session_id":"6197bc3e125b29c6858f9d16","condition":"contingent","relevant_dimensions":["wings","legs"],"bee_group":{"antennae":"X","wings":"2","pattern":"X","legs":"M"},"bonus":1.3200000000000007},{"rt":3014.1650000587106,"stimulus":"bees-with-color/bee-B1DF.svg","response":0,"trial_type":"image-button-response","trial_index":11,"time_elapsed":248173,"internal_node_id":"0.0-4.0-0.2","subject_id":"60390dd01c38de312b32bbae","study_id":"6197b3f67c2b5cd3b6d9596a","session_id":"6197bc3e125b29c6858f9d16","condition":"contingent","relevant_dimensions":["wings","legs"],"bee_group":{"antennae":"X","wings":"2","pattern":"X","legs":"M"},"action":"harvest","summary":"good-harvest","bonus":1.3200000000000007},{"rt":28363.640000112355,"stimulus":"\n                    <p><b>Action: <em>harvest</em></b></p>\n                    <p>This is the bee that you just saw.</p>\n                    <img src=\"bees-with-color/bee-B1DF.svg\" width=\"200\">\n                    <p><span class=\"greenText\"><b>Successful harvest!</b></span><br>Your pay has increased by $0.02. Your bonus pay is now $0.56.</p>\n            ","response":0,"trial_type":"html-button-response","trial_index":12,"time_elapsed":276538,"internal_node_id":"0.0-4.0-1.2","subject_id":"60390dd01c38de312b32bbae","study_id":"6197b3f67c2b5cd3b6d9596a","session_id":"6197bc3e125b29c6858f9d16","condition":"contingent","relevant_dimensions":["wings","legs"],"bee_group":{"antennae":"X","wings":"2","pattern":"X","legs":"M"},"bonus":1.3200000000000007},{"rt":16147.52500015311,"stimulus":"bees-with-color/bee-A1SF.svg","response":0,"trial_type":"image-button-response","trial_index":13,"time_elapsed":292687,"internal_node_id":"0.0-4.0-0.3","subject_id":"60390dd01c38de312b32bbae","study_id":"6197b3f67c2b5cd3b6d9596a","session_id":"6197bc3e125b29c6858f9d16","condition":"contingent","relevant_dimensions":["wings","legs"],"bee_group":{"antennae":"X","wings":"2","pattern":"X","legs":"M"},"action":"harvest","summary":"good-harvest","bonus":1.3200000000000007},{"rt":5699.740000069141,"stimulus":"\n                    <p><b>Action: <em>harvest</em></b></p>\n                    <p>This is the bee that you just saw.</p>\n                    <img src=\"bees-with-color/bee-A1SF.svg\" width=\"200\">\n                    <p><span class=\"greenText\"><b>Successful harvest!</b></span><br>Your pay has increased by $0.02. Your bonus pay is now $0.58.</p>\n            ","response":0,"trial_type":"html-button-response","trial_index":14,"time_elapsed":298388,"internal_node_id":"0.0-4.0-1.3","subject_id":"60390dd01c38de312b32bbae","study_id":"6197b3f67c2b5cd3b6d9596a","session_id":"6197bc3e125b29c6858f9d16","condition":"contingent","relevant_dimensions":["wings","legs"],"bee_group":{"antennae":"X","wings":"2","pattern":"X","legs":"M"},"bonus":1.3200000000000007},{"rt":16541.71000001952,"stimulus":"bees-with-color/bee-A1SM.svg","response":0,"trial_type":"image-button-response","trial_index":15,"time_elapsed":314931,"internal_node_id":"0.0-4.0-0.4","subject_id":"60390dd01c38de312b32bbae","study_id":"6197b3f67c2b5cd3b6d9596a","session_id":"6197bc3e125b29c6858f9d16","condition":"contingent","relevant_dimensions":["wings","legs"],"bee_group":{"antennae":"X","wings":"2","pattern":"X","legs":"M"},"action":"harvest","summary":"good-harvest","bonus":1.3200000000000007},{"rt":10723.664999939501,"stimulus":"\n                    <p><b>Action: <em>harvest</em></b></p>\n                    <p>This is the bee that you just saw.</p>\n                    <img src=\"bees-with-color/bee-A1SM.svg\" width=\"200\">\n                    <p><span class=\"greenText\"><b>Successful harvest!</b></span><br>Your pay has increased by $0.02. Your bonus pay is now $0.60.</p>\n            ","response":0,"trial_type":"html-button-response","trial_index":16,"time_elapsed":325656,"internal_node_id":"0.0-4.0-1.4","subject_id":"60390dd01c38de312b32bbae","study_id":"6197b3f67c2b5cd3b6d9596a","session_id":"6197bc3e125b29c6858f9d16","condition":"contingent","relevant_dimensions":["wings","legs"],"bee_group":{"antennae":"X","wings":"2","pattern":"X","legs":"M"},"bonus":1.3200000000000007},{"rt":16502.460000105202,"stimulus":"bees-with-color/bee-B1SM.svg","response":0,"trial_type":"image-button-response","trial_index":17,"time_elapsed":342160,"internal_node_id":"0.0-4.0-0.5","subject_id":"60390dd01c38de312b32bbae","study_id":"6197b3f67c2b5cd3b6d9596a","session_id":"6197bc3e125b29c6858f9d16","condition":"contingent","relevant_dimensions":["wings","legs"],"bee_group":{"antennae":"X","wings":"2","pattern":"X","legs":"M"},"action":"harvest","summary":"good-harvest","bonus":1.3200000000000007},{"rt":7855.835000053048,"stimulus":"\n                    <p><b>Action: <em>harvest</em></b></p>\n                    <p>This is the bee that you just saw.</p>\n                    <img src=\"bees-with-color/bee-B1SM.svg\" width=\"200\">\n                    <p><span class=\"greenText\"><b>Successful harvest!</b></span><br>Your pay has increased by $0.02. Your bonus pay is now $0.62.</p>\n            ","response":0,"trial_type":"html-button-response","trial_index":18,"time_elapsed":350018,"internal_node_id":"0.0-4.0-1.5","subject_id":"60390dd01c38de312b32bbae","study_id":"6197b3f67c2b5cd3b6d9596a","session_id":"6197bc3e125b29c6858f9d16","condition":"contingent","relevant_dimensions":["wings","legs"],"bee_group":{"antennae":"X","wings":"2","pattern":"X","legs":"M"},"bonus":1.3200000000000007},{"rt":25423.604999901727,"stimulus":"bees-with-color/bee-A2DM.svg","response":1,"trial_type":"image-button-response","trial_index":19,"time_elapsed":375443,"internal_node_id":"0.0-4.0-0.6","subject_id":"60390dd01c38de312b32bbae","study_id":"6197b3f67c2b5cd3b6d9596a","session_id":"6197bc3e125b29c6858f9d16","condition":"contingent","relevant_dimensions":["wings","legs"],"bee_group":{"antennae":"X","wings":"2","pattern":"X","legs":"M"},"action":"avoid","summary":"good-avoid","bonus":1.3200000000000007},{"rt":8513.589999871328,"stimulus":"\n                    <p><b>Action: <em>avoid</em></b></p>\n                    <p>This is the bee that you just saw.</p>\n                    <img src=\"bees-with-color/bee-A2DM.svg\" width=\"200\">\n                    <p><br>Your bonus pay is unchanged, and remains at $0.62.</p>\n            ","response":0,"trial_type":"html-button-response","trial_index":20,"time_elapsed":383958,"internal_node_id":"0.0-4.0-1.6","subject_id":"60390dd01c38de312b32bbae","study_id":"6197b3f67c2b5cd3b6d9596a","session_id":"6197bc3e125b29c6858f9d16","condition":"contingent","relevant_dimensions":["wings","legs"],"bee_group":{"antennae":"X","wings":"2","pattern":"X","legs":"M"},"bonus":1.3200000000000007},{"rt":17643.520000157878,"stimulus":"bees-with-color/bee-A2DF.svg","response":1,"trial_type":"image-button-response","trial_index":21,"time_elapsed":401603,"internal_node_id":"0.0-4.0-0.7","subject_id":"60390dd01c38de312b32bbae","study_id":"6197b3f67c2b5cd3b6d9596a","session_id":"6197bc3e125b29c6858f9d16","condition":"contingent","relevant_dimensions":["wings","legs"],"bee_group":{"antennae":"X","wings":"2","pattern":"X","legs":"M"},"action":"avoid","summary":"bad-avoid","bonus":1.3200000000000007},{"rt":2502.875000005588,"stimulus":"\n                    <p><b>Action: <em>avoid</em></b></p>\n                    <p>This is the bee that you just saw.</p>\n                    <img src=\"bees-with-color/bee-A2DF.svg\" width=\"200\">\n                    <p><br>Your bonus pay is unchanged, and remains at $0.62.</p>\n            ","response":0,"trial_type":"html-button-response","trial_index":22,"time_elapsed":404107,"internal_node_id":"0.0-4.0-1.7","subject_id":"60390dd01c38de312b32bbae","study_id":"6197b3f67c2b5cd3b6d9596a","session_id":"6197bc3e125b29c6858f9d16","condition":"contingent","relevant_dimensions":["wings","legs"],"bee_group":{"antennae":"X","wings":"2","pattern":"X","legs":"M"},"bonus":1.3200000000000007},{"rt":9450.480000115931,"stimulus":"bees-with-color/bee-A1DF.svg","response":0,"trial_type":"image-button-response","trial_index":23,"time_elapsed":413560,"internal_node_id":"0.0-4.0-0.8","subject_id":"60390dd01c38de312b32bbae","study_id":"6197b3f67c2b5cd3b6d9596a","session_id":"6197bc3e125b29c6858f9d16","condition":"contingent","relevant_dimensions":["wings","legs"],"bee_group":{"antennae":"X","wings":"2","pattern":"X","legs":"M"},"action":"harvest","summary":"good-harvest","bonus":1.3200000000000007},{"rt":17687.019999837503,"stimulus":"\n                    <p><b>Action: <em>harvest</em></b></p>\n                    <p>This is the bee that you just saw.</p>\n                    <img src=\"bees-with-color/bee-A1DF.svg\" width=\"200\">\n                    <p><span class=\"greenText\"><b>Successful harvest!</b></span><br>Your pay has increased by $0.02. Your bonus pay is now $0.64.</p>\n            ","response":0,"trial_type":"html-button-response","trial_index":24,"time_elapsed":431248,"internal_node_id":"0.0-4.0-1.8","subject_id":"60390dd01c38de312b32bbae","study_id":"6197b3f67c2b5cd3b6d9596a","session_id":"6197bc3e125b29c6858f9d16","condition":"contingent","relevant_dimensions":["wings","legs"],"bee_group":{"antennae":"X","wings":"2","pattern":"X","legs":"M"},"bonus":1.3200000000000007},{"rt":23547.25999990478,"stimulus":"bees-with-color/bee-A2SF.svg","response":0,"trial_type":"image-button-response","trial_index":25,"time_elapsed":454797,"internal_node_id":"0.0-4.0-0.9","subject_id":"60390dd01c38de312b32bbae","study_id":"6197b3f67c2b5cd3b6d9596a","session_id":"6197bc3e125b29c6858f9d16","condition":"contingent","relevant_dimensions":["wings","legs"],"bee_group":{"antennae":"X","wings":"2","pattern":"X","legs":"M"},"action":"harvest","summary":"good-harvest","bonus":1.3200000000000007},{"rt":12177.63499985449,"stimulus":"\n                    <p><b>Action: <em>harvest</em></b></p>\n                    <p>This is the bee that you just saw.</p>\n                    <img src=\"bees-with-color/bee-A2SF.svg\" width=\"200\">\n                    <p><span class=\"greenText\"><b>Successful harvest!</b></span><br>Your pay has increased by $0.02. Your bonus pay is now $0.66.</p>\n            ","response":0,"trial_type":"html-button-response","trial_index":26,"time_elapsed":466976,"internal_node_id":"0.0-4.0-1.9","subject_id":"60390dd01c38de312b32bbae","study_id":"6197b3f67c2b5cd3b6d9596a","session_id":"6197bc3e125b29c6858f9d16","condition":"contingent","relevant_dimensions":["wings","legs"],"bee_group":{"antennae":"X","wings":"2","pattern":"X","legs":"M"},"bonus":1.3200000000000007},{"rt":6769.409999949858,"stimulus":"bees-with-color/bee-B2SF.svg","response":1,"trial_type":"image-button-response","trial_index":27,"time_elapsed":473747,"internal_node_id":"0.0-4.0-0.10","subject_id":"60390dd01c38de312b32bbae","study_id":"6197b3f67c2b5cd3b6d9596a","session_id":"6197bc3e125b29c6858f9d16","condition":"contingent","relevant_dimensions":["wings","legs"],"bee_group":{"antennae":"X","wings":"2","pattern":"X","legs":"M"},"action":"avoid","summary":"bad-avoid","bonus":1.3200000000000007},{"rt":2312.6850000116974,"stimulus":"\n                    <p><b>Action: <em>avoid</em></b></p>\n                    <p>This is the bee that you just saw.</p>\n                    <img src=\"bees-with-color/bee-B2SF.svg\" width=\"200\">\n                    <p><br>Your bonus pay is unchanged, and remains at $0.66.</p>\n            ","response":0,"trial_type":"html-button-response","trial_index":28,"time_elapsed":476061,"internal_node_id":"0.0-4.0-1.10","subject_id":"60390dd01c38de312b32bbae","study_id":"6197b3f67c2b5cd3b6d9596a","session_id":"6197bc3e125b29c6858f9d16","condition":"contingent","relevant_dimensions":["wings","legs"],"bee_group":{"antennae":"X","wings":"2","pattern":"X","legs":"M"},"bonus":1.3200000000000007},{"rt":22915.745000122115,"stimulus":"bees-with-color/bee-B1DM.svg","response":1,"trial_type":"image-button-response","trial_index":29,"time_elapsed":498978,"internal_node_id":"0.0-4.0-0.11","subject_id":"60390dd01c38de312b32bbae","study_id":"6197b3f67c2b5cd3b6d9596a","session_id":"6197bc3e125b29c6858f9d16","condition":"contingent","relevant_dimensions":["wings","legs"],"bee_group":{"antennae":"X","wings":"2","pattern":"X","legs":"M"},"action":"avoid","summary":"bad-avoid","bonus":1.3200000000000007},{"rt":2365.8449999056756,"stimulus":"\n                    <p><b>Action: <em>avoid</em></b></p>\n                    <p>This is the bee that you just saw.</p>\n                    <img src=\"bees-with-color/bee-B1DM.svg\" width=\"200\">\n                    <p><br>Your bonus pay is unchanged, and remains at $0.66.</p>\n            ","response":0,"trial_type":"html-button-response","trial_index":30,"time_elapsed":501345,"internal_node_id":"0.0-4.0-1.11","subject_id":"60390dd01c38de312b32bbae","study_id":"6197b3f67c2b5cd3b6d9596a","session_id":"6197bc3e125b29c6858f9d16","condition":"contingent","relevant_dimensions":["wings","legs"],"bee_group":{"antennae":"X","wings":"2","pattern":"X","legs":"M"},"bonus":1.3200000000000007},{"rt":11367.135000182316,"stimulus":"bees-with-color/bee-B1SF.svg","response":0,"trial_type":"image-button-response","trial_index":31,"time_elapsed":512713,"internal_node_id":"0.0-4.0-0.12","subject_id":"60390dd01c38de312b32bbae","study_id":"6197b3f67c2b5cd3b6d9596a","session_id":"6197bc3e125b29c6858f9d16","condition":"contingent","relevant_dimensions":["wings","legs"],"bee_group":{"antennae":"X","wings":"2","pattern":"X","legs":"M"},"action":"harvest","summary":"good-harvest","bonus":1.3200000000000007},{"rt":2108.070000074804,"stimulus":"\n                    <p><b>Action: <em>harvest</em></b></p>\n                    <p>This is the bee that you just saw.</p>\n                    <img src=\"bees-with-color/bee-B1SF.svg\" width=\"200\">\n                    <p><span class=\"greenText\"><b>Successful harvest!</b></span><br>Your pay has increased by $0.02. Your bonus pay is now $0.68.</p>\n            ","response":0,"trial_type":"html-button-response","trial_index":32,"time_elapsed":514823,"internal_node_id":"0.0-4.0-1.12","subject_id":"60390dd01c38de312b32bbae","study_id":"6197b3f67c2b5cd3b6d9596a","session_id":"6197bc3e125b29c6858f9d16","condition":"contingent","relevant_dimensions":["wings","legs"],"bee_group":{"antennae":"X","wings":"2","pattern":"X","legs":"M"},"bonus":1.3200000000000007},{"rt":29195.42000000365,"stimulus":"bees-with-color/bee-A1DM.svg","response":1,"trial_type":"image-button-response","trial_index":33,"time_elapsed":544020,"internal_node_id":"0.0-4.0-0.13","subject_id":"60390dd01c38de312b32bbae","study_id":"6197b3f67c2b5cd3b6d9596a","session_id":"6197bc3e125b29c6858f9d16","condition":"contingent","relevant_dimensions":["wings","legs"],"bee_group":{"antennae":"X","wings":"2","pattern":"X","legs":"M"},"action":"avoid","summary":"bad-avoid","bonus":1.3200000000000007},{"rt":2773.530000122264,"stimulus":"\n                    <p><b>Action: <em>avoid</em></b></p>\n                    <p>This is the bee that you just saw.</p>\n                    <img src=\"bees-with-color/bee-A1DM.svg\" width=\"200\">\n                    <p><br>Your bonus pay is unchanged, and remains at $0.68.</p>\n            ","response":0,"trial_type":"html-button-response","trial_index":34,"time_elapsed":546795,"internal_node_id":"0.0-4.0-1.13","subject_id":"60390dd01c38de312b32bbae","study_id":"6197b3f67c2b5cd3b6d9596a","session_id":"6197bc3e125b29c6858f9d16","condition":"contingent","relevant_dimensions":["wings","legs"],"bee_group":{"antennae":"X","wings":"2","pattern":"X","legs":"M"},"bonus":1.3200000000000007},{"rt":28666.635000146925,"stimulus":"bees-with-color/bee-B2SM.svg","response":0,"trial_type":"image-button-response","trial_index":35,"time_elapsed":575463,"internal_node_id":"0.0-4.0-0.14","subject_id":"60390dd01c38de312b32bbae","study_id":"6197b3f67c2b5cd3b6d9596a","session_id":"6197bc3e125b29c6858f9d16","condition":"contingent","relevant_dimensions":["wings","legs"],"bee_group":{"antennae":"X","wings":"2","pattern":"X","legs":"M"},"action":"harvest","summary":"bad-harvest","bonus":1.3200000000000007},{"rt":9962.895000120625,"stimulus":"\n                    <p><b>Action: <em>harvest</em></b></p>\n                    <p>This is the bee that you just saw.</p>\n                    <img src=\"bees-with-color/bee-B2SM.svg\" width=\"200\">\n                    <p><span class=\"redText\">Bad choice, the bee was angry.</span><br><b>You have been stung!</b><br>Your pay has been decreased by $0.10. Your bonus pay is now $0.58.</p>\n            ","response":0,"trial_type":"html-button-response","trial_index":36,"time_elapsed":585427,"internal_node_id":"0.0-4.0-1.14","subject_id":"60390dd01c38de312b32bbae","study_id":"6197b3f67c2b5cd3b6d9596a","session_id":"6197bc3e125b29c6858f9d16","condition":"contingent","relevant_dimensions":["wings","legs"],"bee_group":{"antennae":"X","wings":"2","pattern":"X","legs":"M"},"bonus":1.3200000000000007},{"rt":16401.140000205487,"stimulus":"bees-with-color/bee-A2SM.svg","response":1,"trial_type":"image-button-response","trial_index":37,"time_elapsed":601830,"internal_node_id":"0.0-4.0-0.15","subject_id":"60390dd01c38de312b32bbae","study_id":"6197b3f67c2b5cd3b6d9596a","session_id":"6197bc3e125b29c6858f9d16","condition":"contingent","relevant_dimensions":["wings","legs"],"bee_group":{"antennae":"X","wings":"2","pattern":"X","legs":"M"},"action":"avoid","summary":"good-avoid","bonus":1.3200000000000007},{"rt":2345.46500002034,"stimulus":"\n                    <p><b>Action: <em>avoid</em></b></p>\n                    <p>This is the bee that you just saw.</p>\n                    <img src=\"bees-with-color/bee-A2SM.svg\" width=\"200\">\n                    <p><br>Your bonus pay is unchanged, and remains at $0.58.</p>\n            ","response":0,"trial_type":"html-button-response","trial_index":38,"time_elapsed":604176,"internal_node_id":"0.0-4.0-1.15","subject_id":"60390dd01c38de312b32bbae","study_id":"6197b3f67c2b5cd3b6d9596a","session_id":"6197bc3e125b29c6858f9d16","condition":"contingent","relevant_dimensions":["wings","legs"],"bee_group":{"antennae":"X","wings":"2","pattern":"X","legs":"M"},"bonus":1.3200000000000007},{"rt":7033.864999888465,"stimulus":"bees-with-color/bee-A2DM.svg","response":1,"trial_type":"image-button-response","trial_index":39,"time_elapsed":611212,"internal_node_id":"0.0-4.0-0.16","subject_id":"60390dd01c38de312b32bbae","study_id":"6197b3f67c2b5cd3b6d9596a","session_id":"6197bc3e125b29c6858f9d16","condition":"contingent","relevant_dimensions":["wings","legs"],"bee_group":{"antennae":"X","wings":"2","pattern":"X","legs":"M"},"action":"avoid","summary":"good-avoid","bonus":1.3200000000000007},{"rt":2470.140000106767,"stimulus":"\n                    <p><b>Action: <em>avoid</em></b></p>\n                    <p>This is the bee that you just saw.</p>\n                    <img src=\"bees-with-color/bee-A2DM.svg\" width=\"200\">\n                    <p><br>Your bonus pay is unchanged, and remains at $0.58.</p>\n            ","response":0,"trial_type":"html-button-response","trial_index":40,"time_elapsed":613683,"internal_node_id":"0.0-4.0-1.16","subject_id":"60390dd01c38de312b32bbae","study_id":"6197b3f67c2b5cd3b6d9596a","session_id":"6197bc3e125b29c6858f9d16","condition":"contingent","relevant_dimensions":["wings","legs"],"bee_group":{"antennae":"X","wings":"2","pattern":"X","legs":"M"},"bonus":1.3200000000000007},{"rt":7944.150000112131,"stimulus":"bees-with-color/bee-B1DM.svg","response":1,"trial_type":"image-button-response","trial_index":41,"time_elapsed":621629,"internal_node_id":"0.0-4.0-0.17","subject_id":"60390dd01c38de312b32bbae","study_id":"6197b3f67c2b5cd3b6d9596a","session_id":"6197bc3e125b29c6858f9d16","condition":"contingent","relevant_dimensions":["wings","legs"],"bee_group":{"antennae":"X","wings":"2","pattern":"X","legs":"M"},"action":"avoid","summary":"bad-avoid","bonus":1.3200000000000007},{"rt":2123.9199999254197,"stimulus":"\n                    <p><b>Action: <em>avoid</em></b></p>\n                    <p>This is the bee that you just saw.</p>\n                    <img src=\"bees-with-color/bee-B1DM.svg\" width=\"200\">\n                    <p><br>Your bonus pay is unchanged, and remains at $0.58.</p>\n            ","response":0,"trial_type":"html-button-response","trial_index":42,"time_elapsed":623754,"internal_node_id":"0.0-4.0-1.17","subject_id":"60390dd01c38de312b32bbae","study_id":"6197b3f67c2b5cd3b6d9596a","session_id":"6197bc3e125b29c6858f9d16","condition":"contingent","relevant_dimensions":["wings","legs"],"bee_group":{"antennae":"X","wings":"2","pattern":"X","legs":"M"},"bonus":1.3200000000000007},{"rt":15739.189999876544,"stimulus":"bees-with-color/bee-A1SM.svg","response":0,"trial_type":"image-button-response","trial_index":43,"time_elapsed":639495,"internal_node_id":"0.0-4.0-0.18","subject_id":"60390dd01c38de312b32bbae","study_id":"6197b3f67c2b5cd3b6d9596a","session_id":"6197bc3e125b29c6858f9d16","condition":"contingent","relevant_dimensions":["wings","legs"],"bee_group":{"antennae":"X","wings":"2","pattern":"X","legs":"M"},"action":"harvest","summary":"good-harvest","bonus":1.3200000000000007},{"rt":2745.7500000018626,"stimulus":"\n                    <p><b>Action: <em>harvest</em></b></p>\n                    <p>This is the bee that you just saw.</p>\n                    <img src=\"bees-with-color/bee-A1SM.svg\" width=\"200\">\n                    <p><span class=\"greenText\"><b>Successful harvest!</b></span><br>Your pay has increased by $0.02. Your bonus pay is now $0.60.</p>\n            ","response":0,"trial_type":"html-button-response","trial_index":44,"time_elapsed":642242,"internal_node_id":"0.0-4.0-1.18","subject_id":"60390dd01c38de312b32bbae","study_id":"6197b3f67c2b5cd3b6d9596a","session_id":"6197bc3e125b29c6858f9d16","condition":"contingent","relevant_dimensions":["wings","legs"],"bee_group":{"antennae":"X","wings":"2","pattern":"X","legs":"M"},"bonus":1.3200000000000007},{"rt":8044.590000063181,"stimulus":"bees-with-color/bee-A2DF.svg","response":1,"trial_type":"image-button-response","trial_index":45,"time_elapsed":650288,"internal_node_id":"0.0-4.0-0.19","subject_id":"60390dd01c38de312b32bbae","study_id":"6197b3f67c2b5cd3b6d9596a","session_id":"6197bc3e125b29c6858f9d16","condition":"contingent","relevant_dimensions":["wings","legs"],"bee_group":{"antennae":"X","wings":"2","pattern":"X","legs":"M"},"action":"avoid","summary":"bad-avoid","bonus":1.3200000000000007},{"rt":2491.565000033006,"stimulus":"\n                    <p><b>Action: <em>avoid</em></b></p>\n                    <p>This is the bee that you just saw.</p>\n                    <img src=\"bees-with-color/bee-A2DF.svg\" width=\"200\">\n                    <p><br>Your bonus pay is unchanged, and remains at $0.60.</p>\n            ","response":0,"trial_type":"html-button-response","trial_index":46,"time_elapsed":652781,"internal_node_id":"0.0-4.0-1.19","subject_id":"60390dd01c38de312b32bbae","study_id":"6197b3f67c2b5cd3b6d9596a","session_id":"6197bc3e125b29c6858f9d16","condition":"contingent","relevant_dimensions":["wings","legs"],"bee_group":{"antennae":"X","wings":"2","pattern":"X","legs":"M"},"bonus":1.3200000000000007},{"rt":6869.725000113249,"stimulus":"bees-with-color/bee-B1SM.svg","response":0,"trial_type":"image-button-response","trial_index":47,"time_elapsed":659652,"internal_node_id":"0.0-4.0-0.20","subject_id":"60390dd01c38de312b32bbae","study_id":"6197b3f67c2b5cd3b6d9596a","session_id":"6197bc3e125b29c6858f9d16","condition":"contingent","relevant_dimensions":["wings","legs"],"bee_group":{"antennae":"X","wings":"2","pattern":"X","legs":"M"},"action":"harvest","summary":"good-harvest","bonus":1.3200000000000007},{"rt":2544.575000181794,"stimulus":"\n                    <p><b>Action: <em>harvest</em></b></p>\n                    <p>This is the bee that you just saw.</p>\n                    <img src=\"bees-with-color/bee-B1SM.svg\" width=\"200\">\n                    <p><span class=\"greenText\"><b>Successful harvest!</b></span><br>Your pay has increased by $0.02. Your bonus pay is now $0.62.</p>\n            ","response":0,"trial_type":"html-button-response","trial_index":48,"time_elapsed":662198,"internal_node_id":"0.0-4.0-1.20","subject_id":"60390dd01c38de312b32bbae","study_id":"6197b3f67c2b5cd3b6d9596a","session_id":"6197bc3e125b29c6858f9d16","condition":"contingent","relevant_dimensions":["wings","legs"],"bee_group":{"antennae":"X","wings":"2","pattern":"X","legs":"M"},"bonus":1.3200000000000007},{"rt":8315.624999813735,"stimulus":"bees-with-color/bee-B2DM.svg","response":1,"trial_type":"image-button-response","trial_index":49,"time_elapsed":670515,"internal_node_id":"0.0-4.0-0.21","subject_id":"60390dd01c38de312b32bbae","study_id":"6197b3f67c2b5cd3b6d9596a","session_id":"6197bc3e125b29c6858f9d16","condition":"contingent","relevant_dimensions":["wings","legs"],"bee_group":{"antennae":"X","wings":"2","pattern":"X","legs":"M"},"action":"avoid","summary":"good-avoid","bonus":1.3200000000000007},{"rt":1817.174999974668,"stimulus":"\n                    <p><b>Action: <em>avoid</em></b></p>\n                    <p>This is the bee that you just saw.</p>\n                    <img src=\"bees-with-color/bee-B2DM.svg\" width=\"200\">\n                    <p><br>Your bonus pay is unchanged, and remains at $0.62.</p>\n            ","response":0,"trial_type":"html-button-response","trial_index":50,"time_elapsed":672334,"internal_node_id":"0.0-4.0-1.21","subject_id":"60390dd01c38de312b32bbae","study_id":"6197b3f67c2b5cd3b6d9596a","session_id":"6197bc3e125b29c6858f9d16","condition":"contingent","relevant_dimensions":["wings","legs"],"bee_group":{"antennae":"X","wings":"2","pattern":"X","legs":"M"},"bonus":1.3200000000000007},{"rt":12357.059999834746,"stimulus":"bees-with-color/bee-A1DF.svg","response":0,"trial_type":"image-button-response","trial_index":51,"time_elapsed":684692,"internal_node_id":"0.0-4.0-0.22","subject_id":"60390dd01c38de312b32bbae","study_id":"6197b3f67c2b5cd3b6d9596a","session_id":"6197bc3e125b29c6858f9d16","condition":"contingent","relevant_dimensions":["wings","legs"],"bee_group":{"antennae":"X","wings":"2","pattern":"X","legs":"M"},"action":"harvest","summary":"good-harvest","bonus":1.3200000000000007},{"rt":2059.7699999343604,"stimulus":"\n                    <p><b>Action: <em>harvest</em></b></p>\n                    <p>This is the bee that you just saw.</p>\n                    <img src=\"bees-with-color/bee-A1DF.svg\" width=\"200\">\n                    <p><span class=\"greenText\"><b>Successful harvest!</b></span><br>Your pay has increased by $0.02. Your bonus pay is now $0.64.</p>\n            ","response":0,"trial_type":"html-button-response","trial_index":52,"time_elapsed":686753,"internal_node_id":"0.0-4.0-1.22","subject_id":"60390dd01c38de312b32bbae","study_id":"6197b3f67c2b5cd3b6d9596a","session_id":"6197bc3e125b29c6858f9d16","condition":"contingent","relevant_dimensions":["wings","legs"],"bee_group":{"antennae":"X","wings":"2","pattern":"X","legs":"M"},"bonus":1.3200000000000007},{"rt":13083.7350001093,"stimulus":"bees-with-color/bee-B2SF.svg","response":1,"trial_type":"image-button-response","trial_index":53,"time_elapsed":699838,"internal_node_id":"0.0-4.0-0.23","subject_id":"60390dd01c38de312b32bbae","study_id":"6197b3f67c2b5cd3b6d9596a","session_id":"6197bc3e125b29c6858f9d16","condition":"contingent","relevant_dimensions":["wings","legs"],"bee_group":{"antennae":"X","wings":"2","pattern":"X","legs":"M"},"action":"avoid","summary":"bad-avoid","bonus":1.3200000000000007},{"rt":36672.50999994576,"stimulus":"\n                    <p><b>Action: <em>avoid</em></b></p>\n                    <p>This is the bee that you just saw.</p>\n                    <img src=\"bees-with-color/bee-B2SF.svg\" width=\"200\">\n                    <p><br>Your bonus pay is unchanged, and remains at $0.64.</p>\n            ","response":0,"trial_type":"html-button-response","trial_index":54,"time_elapsed":736512,"internal_node_id":"0.0-4.0-1.23","subject_id":"60390dd01c38de312b32bbae","study_id":"6197b3f67c2b5cd3b6d9596a","session_id":"6197bc3e125b29c6858f9d16","condition":"contingent","relevant_dimensions":["wings","legs"],"bee_group":{"antennae":"X","wings":"2","pattern":"X","legs":"M"},"bonus":1.3200000000000007},{"rt":8919.9250000529,"stimulus":"bees-with-color/bee-A1SF.svg","response":0,"trial_type":"image-button-response","trial_index":55,"time_elapsed":745433,"internal_node_id":"0.0-4.0-0.24","subject_id":"60390dd01c38de312b32bbae","study_id":"6197b3f67c2b5cd3b6d9596a","session_id":"6197bc3e125b29c6858f9d16","condition":"contingent","relevant_dimensions":["wings","legs"],"bee_group":{"antennae":"X","wings":"2","pattern":"X","legs":"M"},"action":"harvest","summary":"good-harvest","bonus":1.3200000000000007},{"rt":1959.4750001560897,"stimulus":"\n                    <p><b>Action: <em>harvest</em></b></p>\n                    <p>This is the bee that you just saw.</p>\n                    <img src=\"bees-with-color/bee-A1SF.svg\" width=\"200\">\n                    <p><span class=\"greenText\"><b>Successful harvest!</b></span><br>Your pay has increased by $0.02. Your bonus pay is now $0.66.</p>\n            ","response":0,"trial_type":"html-button-response","trial_index":56,"time_elapsed":747394,"internal_node_id":"0.0-4.0-1.24","subject_id":"60390dd01c38de312b32bbae","study_id":"6197b3f67c2b5cd3b6d9596a","session_id":"6197bc3e125b29c6858f9d16","condition":"contingent","relevant_dimensions":["wings","legs"],"bee_group":{"antennae":"X","wings":"2","pattern":"X","legs":"M"},"bonus":1.3200000000000007},{"rt":15089.125000173226,"stimulus":"bees-with-color/bee-A1DM.svg","response":1,"trial_type":"image-button-response","trial_index":57,"time_elapsed":762485,"internal_node_id":"0.0-4.0-0.25","subject_id":"60390dd01c38de312b32bbae","study_id":"6197b3f67c2b5cd3b6d9596a","session_id":"6197bc3e125b29c6858f9d16","condition":"contingent","relevant_dimensions":["wings","legs"],"bee_group":{"antennae":"X","wings":"2","pattern":"X","legs":"M"},"action":"avoid","summary":"bad-avoid","bonus":1.3200000000000007},{"rt":1809.7800000105053,"stimulus":"\n                    <p><b>Action: <em>avoid</em></b></p>\n                    <p>This is the bee that you just saw.</p>\n                    <img src=\"bees-with-color/bee-A1DM.svg\" width=\"200\">\n                    <p><br>Your bonus pay is unchanged, and remains at $0.66.</p>\n            ","response":0,"trial_type":"html-button-response","trial_index":58,"time_elapsed":764296,"internal_node_id":"0.0-4.0-1.25","subject_id":"60390dd01c38de312b32bbae","study_id":"6197b3f67c2b5cd3b6d9596a","session_id":"6197bc3e125b29c6858f9d16","condition":"contingent","relevant_dimensions":["wings","legs"],"bee_group":{"antennae":"X","wings":"2","pattern":"X","legs":"M"},"bonus":1.3200000000000007},{"rt":8357.93499997817,"stimulus":"bees-with-color/bee-B2SM.svg","response":1,"trial_type":"image-button-response","trial_index":59,"time_elapsed":772656,"internal_node_id":"0.0-4.0-0.26","subject_id":"60390dd01c38de312b32bbae","study_id":"6197b3f67c2b5cd3b6d9596a","session_id":"6197bc3e125b29c6858f9d16","condition":"contingent","relevant_dimensions":["wings","legs"],"bee_group":{"antennae":"X","wings":"2","pattern":"X","legs":"M"},"action":"avoid","summary":"good-avoid","bonus":1.3200000000000007},{"rt":1893.5450001154095,"stimulus":"\n                    <p><b>Action: <em>avoid</em></b></p>\n                    <p>This is the bee that you just saw.</p>\n                    <img src=\"bees-with-color/bee-B2SM.svg\" width=\"200\">\n                    <p><br>Your bonus pay is unchanged, and remains at $0.66.</p>\n            ","response":0,"trial_type":"html-button-response","trial_index":60,"time_elapsed":774550,"internal_node_id":"0.0-4.0-1.26","subject_id":"60390dd01c38de312b32bbae","study_id":"6197b3f67c2b5cd3b6d9596a","session_id":"6197bc3e125b29c6858f9d16","condition":"contingent","relevant_dimensions":["wings","legs"],"bee_group":{"antennae":"X","wings":"2","pattern":"X","legs":"M"},"bonus":1.3200000000000007},{"rt":8359.149999916553,"stimulus":"bees-with-color/bee-A2SF.svg","response":0,"trial_type":"image-button-response","trial_index":61,"time_elapsed":782910,"internal_node_id":"0.0-4.0-0.27","subject_id":"60390dd01c38de312b32bbae","study_id":"6197b3f67c2b5cd3b6d9596a","session_id":"6197bc3e125b29c6858f9d16","condition":"contingent","relevant_dimensions":["wings","legs"],"bee_group":{"antennae":"X","wings":"2","pattern":"X","legs":"M"},"action":"harvest","summary":"good-harvest","bonus":1.3200000000000007},{"rt":1739.7099998779595,"stimulus":"\n                    <p><b>Action: <em>harvest</em></b></p>\n                    <p>This is the bee that you just saw.</p>\n                    <img src=\"bees-with-color/bee-A2SF.svg\" width=\"200\">\n                    <p><span class=\"greenText\"><b>Successful harvest!</b></span><br>Your pay has increased by $0.02. Your bonus pay is now $0.68.</p>\n            ","response":0,"trial_type":"html-button-response","trial_index":62,"time_elapsed":784651,"internal_node_id":"0.0-4.0-1.27","subject_id":"60390dd01c38de312b32bbae","study_id":"6197b3f67c2b5cd3b6d9596a","session_id":"6197bc3e125b29c6858f9d16","condition":"contingent","relevant_dimensions":["wings","legs"],"bee_group":{"antennae":"X","wings":"2","pattern":"X","legs":"M"},"bonus":1.3200000000000007},{"rt":8988.665000069886,"stimulus":"bees-with-color/bee-B2DF.svg","response":1,"trial_type":"image-button-response","trial_index":63,"time_elapsed":793641,"internal_node_id":"0.0-4.0-0.28","subject_id":"60390dd01c38de312b32bbae","study_id":"6197b3f67c2b5cd3b6d9596a","session_id":"6197bc3e125b29c6858f9d16","condition":"contingent","relevant_dimensions":["wings","legs"],"bee_group":{"antennae":"X","wings":"2","pattern":"X","legs":"M"},"action":"avoid","summary":"bad-avoid","bonus":1.3200000000000007},{"rt":1840.04499996081,"stimulus":"\n                    <p><b>Action: <em>avoid</em></b></p>\n                    <p>This is the bee that you just saw.</p>\n                    <img src=\"bees-with-color/bee-B2DF.svg\" width=\"200\">\n                    <p><br>Your bonus pay is unchanged, and remains at $0.68.</p>\n            ","response":0,"trial_type":"html-button-response","trial_index":64,"time_elapsed":795483,"internal_node_id":"0.0-4.0-1.28","subject_id":"60390dd01c38de312b32bbae","study_id":"6197b3f67c2b5cd3b6d9596a","session_id":"6197bc3e125b29c6858f9d16","condition":"contingent","relevant_dimensions":["wings","legs"],"bee_group":{"antennae":"X","wings":"2","pattern":"X","legs":"M"},"bonus":1.3200000000000007},{"rt":14167.240000097081,"stimulus":"bees-with-color/bee-B1DF.svg","response":0,"trial_type":"image-button-response","trial_index":65,"time_elapsed":809651,"internal_node_id":"0.0-4.0-0.29","subject_id":"60390dd01c38de312b32bbae","study_id":"6197b3f67c2b5cd3b6d9596a","session_id":"6197bc3e125b29c6858f9d16","condition":"contingent","relevant_dimensions":["wings","legs"],"bee_group":{"antennae":"X","wings":"2","pattern":"X","legs":"M"},"action":"harvest","summary":"good-harvest","bonus":1.3200000000000007},{"rt":1937.910000095144,"stimulus":"\n                    <p><b>Action: <em>harvest</em></b></p>\n                    <p>This is the bee that you just saw.</p>\n                    <img src=\"bees-with-color/bee-B1DF.svg\" width=\"200\">\n                    <p><span class=\"greenText\"><b>Successful harvest!</b></span><br>Your pay has increased by $0.02. Your bonus pay is now $0.70.</p>\n            ","response":0,"trial_type":"html-button-response","trial_index":66,"time_elapsed":811590,"internal_node_id":"0.0-4.0-1.29","subject_id":"60390dd01c38de312b32bbae","study_id":"6197b3f67c2b5cd3b6d9596a","session_id":"6197bc3e125b29c6858f9d16","condition":"contingent","relevant_dimensions":["wings","legs"],"bee_group":{"antennae":"X","wings":"2","pattern":"X","legs":"M"},"bonus":1.3200000000000007},{"rt":5484.655000036582,"stimulus":"bees-with-color/bee-B1SF.svg","response":0,"trial_type":"image-button-response","trial_index":67,"time_elapsed":817076,"internal_node_id":"0.0-4.0-0.30","subject_id":"60390dd01c38de312b32bbae","study_id":"6197b3f67c2b5cd3b6d9596a","session_id":"6197bc3e125b29c6858f9d16","condition":"contingent","relevant_dimensions":["wings","legs"],"bee_group":{"antennae":"X","wings":"2","pattern":"X","legs":"M"},"action":"harvest","summary":"good-harvest","bonus":1.3200000000000007},{"rt":1773.604999994859,"stimulus":"\n                    <p><b>Action: <em>harvest</em></b></p>\n                    <p>This is the bee that you just saw.</p>\n                    <img src=\"bees-with-color/bee-B1SF.svg\" width=\"200\">\n                    <p><span class=\"greenText\"><b>Successful harvest!</b></span><br>Your pay has increased by $0.02. Your bonus pay is now $0.72.</p>\n            ","response":0,"trial_type":"html-button-response","trial_index":68,"time_elapsed":818851,"internal_node_id":"0.0-4.0-1.30","subject_id":"60390dd01c38de312b32bbae","study_id":"6197b3f67c2b5cd3b6d9596a","session_id":"6197bc3e125b29c6858f9d16","condition":"contingent","relevant_dimensions":["wings","legs"],"bee_group":{"antennae":"X","wings":"2","pattern":"X","legs":"M"},"bonus":1.3200000000000007},{"rt":11434.550000121817,"stimulus":"bees-with-color/bee-A2SM.svg","response":1,"trial_type":"image-button-response","trial_index":69,"time_elapsed":830287,"internal_node_id":"0.0-4.0-0.31","subject_id":"60390dd01c38de312b32bbae","study_id":"6197b3f67c2b5cd3b6d9596a","session_id":"6197bc3e125b29c6858f9d16","condition":"contingent","relevant_dimensions":["wings","legs"],"bee_group":{"antennae":"X","wings":"2","pattern":"X","legs":"M"},"action":"avoid","summary":"good-avoid","bonus":1.3200000000000007},{"rt":4040.9249998629093,"stimulus":"\n                    <p><b>Action: <em>avoid</em></b></p>\n                    <p>This is the bee that you just saw.</p>\n                    <img src=\"bees-with-color/bee-A2SM.svg\" width=\"200\">\n                    <p><br>Your bonus pay is unchanged, and remains at $0.72.</p>\n            ","response":0,"trial_type":"html-button-response","trial_index":70,"time_elapsed":834330,"internal_node_id":"0.0-4.0-1.31","subject_id":"60390dd01c38de312b32bbae","study_id":"6197b3f67c2b5cd3b6d9596a","session_id":"6197bc3e125b29c6858f9d16","condition":"contingent","relevant_dimensions":["wings","legs"],"bee_group":{"antennae":"X","wings":"2","pattern":"X","legs":"M"},"bonus":1.3200000000000007},{"rt":17224.410000024363,"stimulus":"bees-with-color/bee-B2DF.svg","response":1,"trial_type":"image-button-response","trial_index":71,"time_elapsed":851556,"internal_node_id":"0.0-4.0-0.32","subject_id":"60390dd01c38de312b32bbae","study_id":"6197b3f67c2b5cd3b6d9596a","session_id":"6197bc3e125b29c6858f9d16","condition":"contingent","relevant_dimensions":["wings","legs"],"bee_group":{"antennae":"X","wings":"2","pattern":"X","legs":"M"},"action":"avoid","summary":"bad-avoid","bonus":1.3200000000000007},{"rt":2485.839999979362,"stimulus":"\n                    <p><b>Action: <em>avoid</em></b></p>\n                    <p>This is the bee that you just saw.</p>\n                    <img src=\"bees-with-color/bee-B2DF.svg\" width=\"200\">\n                    <p><br>Your bonus pay is unchanged, and remains at $0.72.</p>\n            ","response":0,"trial_type":"html-button-response","trial_index":72,"time_elapsed":854043,"internal_node_id":"0.0-4.0-1.32","subject_id":"60390dd01c38de312b32bbae","study_id":"6197b3f67c2b5cd3b6d9596a","session_id":"6197bc3e125b29c6858f9d16","condition":"contingent","relevant_dimensions":["wings","legs"],"bee_group":{"antennae":"X","wings":"2","pattern":"X","legs":"M"},"bonus":1.3200000000000007},{"rt":6071.199999889359,"stimulus":"bees-with-color/bee-A2SM.svg","response":1,"trial_type":"image-button-response","trial_index":73,"time_elapsed":860116,"internal_node_id":"0.0-4.0-0.33","subject_id":"60390dd01c38de312b32bbae","study_id":"6197b3f67c2b5cd3b6d9596a","session_id":"6197bc3e125b29c6858f9d16","condition":"contingent","relevant_dimensions":["wings","legs"],"bee_group":{"antennae":"X","wings":"2","pattern":"X","legs":"M"},"action":"avoid","summary":"good-avoid","bonus":1.3200000000000007},{"rt":1717.9449999239296,"stimulus":"\n                    <p><b>Action: <em>avoid</em></b></p>\n                    <p>This is the bee that you just saw.</p>\n                    <img src=\"bees-with-color/bee-A2SM.svg\" width=\"200\">\n                    <p><br>Your bonus pay is unchanged, and remains at $0.72.</p>\n            ","response":0,"trial_type":"html-button-response","trial_index":74,"time_elapsed":861835,"internal_node_id":"0.0-4.0-1.33","subject_id":"60390dd01c38de312b32bbae","study_id":"6197b3f67c2b5cd3b6d9596a","session_id":"6197bc3e125b29c6858f9d16","condition":"contingent","relevant_dimensions":["wings","legs"],"bee_group":{"antennae":"X","wings":"2","pattern":"X","legs":"M"},"bonus":1.3200000000000007},{"rt":8889.384999871254,"stimulus":"bees-with-color/bee-A2DF.svg","response":1,"trial_type":"image-button-response","trial_index":75,"time_elapsed":870726,"internal_node_id":"0.0-4.0-0.34","subject_id":"60390dd01c38de312b32bbae","study_id":"6197b3f67c2b5cd3b6d9596a","session_id":"6197bc3e125b29c6858f9d16","condition":"contingent","relevant_dimensions":["wings","legs"],"bee_group":{"antennae":"X","wings":"2","pattern":"X","legs":"M"},"action":"avoid","summary":"bad-avoid","bonus":1.3200000000000007},{"rt":1731.669999891892,"stimulus":"\n                    <p><b>Action: <em>avoid</em></b></p>\n                    <p>This is the bee that you just saw.</p>\n                    <img src=\"bees-with-color/bee-A2DF.svg\" width=\"200\">\n                    <p><br>Your bonus pay is unchanged, and remains at $0.72.</p>\n            ","response":0,"trial_type":"html-button-response","trial_index":76,"time_elapsed":872459,"internal_node_id":"0.0-4.0-1.34","subject_id":"60390dd01c38de312b32bbae","study_id":"6197b3f67c2b5cd3b6d9596a","session_id":"6197bc3e125b29c6858f9d16","condition":"contingent","relevant_dimensions":["wings","legs"],"bee_group":{"antennae":"X","wings":"2","pattern":"X","legs":"M"},"bonus":1.3200000000000007},{"rt":19412.32999996282,"stimulus":"bees-with-color/bee-B1SF.svg","response":0,"trial_type":"image-button-response","trial_index":77,"time_elapsed":891873,"internal_node_id":"0.0-4.0-0.35","subject_id":"60390dd01c38de312b32bbae","study_id":"6197b3f67c2b5cd3b6d9596a","session_id":"6197bc3e125b29c6858f9d16","condition":"contingent","relevant_dimensions":["wings","legs"],"bee_group":{"antennae":"X","wings":"2","pattern":"X","legs":"M"},"action":"harvest","summary":"good-harvest","bonus":1.3200000000000007},{"rt":6244.040000019595,"stimulus":"\n                    <p><b>Action: <em>harvest</em></b></p>\n                    <p>This is the bee that you just saw.</p>\n                    <img src=\"bees-with-color/bee-B1SF.svg\" width=\"200\">\n                    <p><span class=\"greenText\"><b>Successful harvest!</b></span><br>Your pay has increased by $0.02. Your bonus pay is now $0.74.</p>\n            ","response":0,"trial_type":"html-button-response","trial_index":78,"time_elapsed":898118,"internal_node_id":"0.0-4.0-1.35","subject_id":"60390dd01c38de312b32bbae","study_id":"6197b3f67c2b5cd3b6d9596a","session_id":"6197bc3e125b29c6858f9d16","condition":"contingent","relevant_dimensions":["wings","legs"],"bee_group":{"antennae":"X","wings":"2","pattern":"X","legs":"M"},"bonus":1.3200000000000007},{"rt":40021.63999993354,"stimulus":"bees-with-color/bee-B2SF.svg","response":0,"trial_type":"image-button-response","trial_index":79,"time_elapsed":938141,"internal_node_id":"0.0-4.0-0.36","subject_id":"60390dd01c38de312b32bbae","study_id":"6197b3f67c2b5cd3b6d9596a","session_id":"6197bc3e125b29c6858f9d16","condition":"contingent","relevant_dimensions":["wings","legs"],"bee_group":{"antennae":"X","wings":"2","pattern":"X","legs":"M"},"action":"harvest","summary":"good-harvest","bonus":1.3200000000000007},{"rt":7191.265000030398,"stimulus":"\n                    <p><b>Action: <em>harvest</em></b></p>\n                    <p>This is the bee that you just saw.</p>\n                    <img src=\"bees-with-color/bee-B2SF.svg\" width=\"200\">\n                    <p><span class=\"greenText\"><b>Successful harvest!</b></span><br>Your pay has increased by $0.02. Your bonus pay is now $0.76.</p>\n            ","response":0,"trial_type":"html-button-response","trial_index":80,"time_elapsed":945334,"internal_node_id":"0.0-4.0-1.36","subject_id":"60390dd01c38de312b32bbae","study_id":"6197b3f67c2b5cd3b6d9596a","session_id":"6197bc3e125b29c6858f9d16","condition":"contingent","relevant_dimensions":["wings","legs"],"bee_group":{"antennae":"X","wings":"2","pattern":"X","legs":"M"},"bonus":1.3200000000000007},{"rt":17603.845000034198,"stimulus":"bees-with-color/bee-B1DM.svg","response":1,"trial_type":"image-button-response","trial_index":81,"time_elapsed":962939,"internal_node_id":"0.0-4.0-0.37","subject_id":"60390dd01c38de312b32bbae","study_id":"6197b3f67c2b5cd3b6d9596a","session_id":"6197bc3e125b29c6858f9d16","condition":"contingent","relevant_dimensions":["wings","legs"],"bee_group":{"antennae":"X","wings":"2","pattern":"X","legs":"M"},"action":"avoid","summary":"bad-avoid","bonus":1.3200000000000007},{"rt":1939.310000045225,"stimulus":"\n                    <p><b>Action: <em>avoid</em></b></p>\n                    <p>This is the bee that you just saw.</p>\n                    <img src=\"bees-with-color/bee-B1DM.svg\" width=\"200\">\n                    <p><br>Your bonus pay is unchanged, and remains at $0.76.</p>\n            ","response":0,"trial_type":"html-button-response","trial_index":82,"time_elapsed":964880,"internal_node_id":"0.0-4.0-1.37","subject_id":"60390dd01c38de312b32bbae","study_id":"6197b3f67c2b5cd3b6d9596a","session_id":"6197bc3e125b29c6858f9d16","condition":"contingent","relevant_dimensions":["wings","legs"],"bee_group":{"antennae":"X","wings":"2","pattern":"X","legs":"M"},"bonus":1.3200000000000007},{"rt":6859.489999944344,"stimulus":"bees-with-color/bee-B2DM.svg","response":1,"trial_type":"image-button-response","trial_index":83,"time_elapsed":971741,"internal_node_id":"0.0-4.0-0.38","subject_id":"60390dd01c38de312b32bbae","study_id":"6197b3f67c2b5cd3b6d9596a","session_id":"6197bc3e125b29c6858f9d16","condition":"contingent","relevant_dimensions":["wings","legs"],"bee_group":{"antennae":"X","wings":"2","pattern":"X","legs":"M"},"action":"avoid","summary":"good-avoid","bonus":1.3200000000000007},{"rt":1639.6699999459088,"stimulus":"\n                    <p><b>Action: <em>avoid</em></b></p>\n                    <p>This is the bee that you just saw.</p>\n                    <img src=\"bees-with-color/bee-B2DM.svg\" width=\"200\">\n                    <p><br>Your bonus pay is unchanged, and remains at $0.76.</p>\n            ","response":0,"trial_type":"html-button-response","trial_index":84,"time_elapsed":973382,"internal_node_id":"0.0-4.0-1.38","subject_id":"60390dd01c38de312b32bbae","study_id":"6197b3f67c2b5cd3b6d9596a","session_id":"6197bc3e125b29c6858f9d16","condition":"contingent","relevant_dimensions":["wings","legs"],"bee_group":{"antennae":"X","wings":"2","pattern":"X","legs":"M"},"bonus":1.3200000000000007},{"rt":12682.44000012055,"stimulus":"bees-with-color/bee-A1DF.svg","response":0,"trial_type":"image-button-response","trial_index":85,"time_elapsed":986066,"internal_node_id":"0.0-4.0-0.39","subject_id":"60390dd01c38de312b32bbae","study_id":"6197b3f67c2b5cd3b6d9596a","session_id":"6197bc3e125b29c6858f9d16","condition":"contingent","relevant_dimensions":["wings","legs"],"bee_group":{"antennae":"X","wings":"2","pattern":"X","legs":"M"},"action":"harvest","summary":"good-harvest","bonus":1.3200000000000007},{"rt":1647.984999930486,"stimulus":"\n                    <p><b>Action: <em>harvest</em></b></p>\n                    <p>This is the bee that you just saw.</p>\n                    <img src=\"bees-with-color/bee-A1DF.svg\" width=\"200\">\n                    <p><span class=\"greenText\"><b>Successful harvest!</b></span><br>Your pay has increased by $0.02. Your bonus pay is now $0.78.</p>\n            ","response":0,"trial_type":"html-button-response","trial_index":86,"time_elapsed":987715,"internal_node_id":"0.0-4.0-1.39","subject_id":"60390dd01c38de312b32bbae","study_id":"6197b3f67c2b5cd3b6d9596a","session_id":"6197bc3e125b29c6858f9d16","condition":"contingent","relevant_dimensions":["wings","legs"],"bee_group":{"antennae":"X","wings":"2","pattern":"X","legs":"M"},"bonus":1.3200000000000007},{"rt":15171.245000092313,"stimulus":"bees-with-color/bee-A1DM.svg","response":1,"trial_type":"image-button-response","trial_index":87,"time_elapsed":1002888,"internal_node_id":"0.0-4.0-0.40","subject_id":"60390dd01c38de312b32bbae","study_id":"6197b3f67c2b5cd3b6d9596a","session_id":"6197bc3e125b29c6858f9d16","condition":"contingent","relevant_dimensions":["wings","legs"],"bee_group":{"antennae":"X","wings":"2","pattern":"X","legs":"M"},"action":"avoid","summary":"bad-avoid","bonus":1.3200000000000007},{"rt":1473.729999968782,"stimulus":"\n                    <p><b>Action: <em>avoid</em></b></p>\n                    <p>This is the bee that you just saw.</p>\n                    <img src=\"bees-with-color/bee-A1DM.svg\" width=\"200\">\n                    <p><br>Your bonus pay is unchanged, and remains at $0.78.</p>\n            ","response":0,"trial_type":"html-button-response","trial_index":88,"time_elapsed":1004363,"internal_node_id":"0.0-4.0-1.40","subject_id":"60390dd01c38de312b32bbae","study_id":"6197b3f67c2b5cd3b6d9596a","session_id":"6197bc3e125b29c6858f9d16","condition":"contingent","relevant_dimensions":["wings","legs"],"bee_group":{"antennae":"X","wings":"2","pattern":"X","legs":"M"},"bonus":1.3200000000000007},{"rt":9538.74500002712,"stimulus":"bees-with-color/bee-B1DF.svg","response":0,"trial_type":"image-button-response","trial_index":89,"time_elapsed":1013903,"internal_node_id":"0.0-4.0-0.41","subject_id":"60390dd01c38de312b32bbae","study_id":"6197b3f67c2b5cd3b6d9596a","session_id":"6197bc3e125b29c6858f9d16","condition":"contingent","relevant_dimensions":["wings","legs"],"bee_group":{"antennae":"X","wings":"2","pattern":"X","legs":"M"},"action":"harvest","summary":"good-harvest","bonus":1.3200000000000007},{"rt":1777.8699998743832,"stimulus":"\n                    <p><b>Action: <em>harvest</em></b></p>\n                    <p>This is the bee that you just saw.</p>\n                    <img src=\"bees-with-color/bee-B1DF.svg\" width=\"200\">\n                    <p><span class=\"greenText\"><b>Successful harvest!</b></span><br>Your pay has increased by $0.02. Your bonus pay is now $0.80.</p>\n            ","response":0,"trial_type":"html-button-response","trial_index":90,"time_elapsed":1015682,"internal_node_id":"0.0-4.0-1.41","subject_id":"60390dd01c38de312b32bbae","study_id":"6197b3f67c2b5cd3b6d9596a","session_id":"6197bc3e125b29c6858f9d16","condition":"contingent","relevant_dimensions":["wings","legs"],"bee_group":{"antennae":"X","wings":"2","pattern":"X","legs":"M"},"bonus":1.3200000000000007},{"rt":6814.340000040829,"stimulus":"bees-with-color/bee-A2SF.svg","response":0,"trial_type":"image-button-response","trial_index":91,"time_elapsed":1022498,"internal_node_id":"0.0-4.0-0.42","subject_id":"60390dd01c38de312b32bbae","study_id":"6197b3f67c2b5cd3b6d9596a","session_id":"6197bc3e125b29c6858f9d16","condition":"contingent","relevant_dimensions":["wings","legs"],"bee_group":{"antennae":"X","wings":"2","pattern":"X","legs":"M"},"action":"harvest","summary":"good-harvest","bonus":1.3200000000000007},{"rt":1593.709999928251,"stimulus":"\n                    <p><b>Action: <em>harvest</em></b></p>\n                    <p>This is the bee that you just saw.</p>\n                    <img src=\"bees-with-color/bee-A2SF.svg\" width=\"200\">\n                    <p><span class=\"greenText\"><b>Successful harvest!</b></span><br>Your pay has increased by $0.02. Your bonus pay is now $0.82.</p>\n            ","response":0,"trial_type":"html-button-response","trial_index":92,"time_elapsed":1024093,"internal_node_id":"0.0-4.0-1.42","subject_id":"60390dd01c38de312b32bbae","study_id":"6197b3f67c2b5cd3b6d9596a","session_id":"6197bc3e125b29c6858f9d16","condition":"contingent","relevant_dimensions":["wings","legs"],"bee_group":{"antennae":"X","wings":"2","pattern":"X","legs":"M"},"bonus":1.3200000000000007},{"rt":9061.500000068918,"stimulus":"bees-with-color/bee-B1SM.svg","response":0,"trial_type":"image-button-response","trial_index":93,"time_elapsed":1033156,"internal_node_id":"0.0-4.0-0.43","subject_id":"60390dd01c38de312b32bbae","study_id":"6197b3f67c2b5cd3b6d9596a","session_id":"6197bc3e125b29c6858f9d16","condition":"contingent","relevant_dimensions":["wings","legs"],"bee_group":{"antennae":"X","wings":"2","pattern":"X","legs":"M"},"action":"harvest","summary":"good-harvest","bonus":1.3200000000000007},{"rt":1343.75,"stimulus":"\n                    <p><b>Action: <em>harvest</em></b></p>\n                    <p>This is the bee that you just saw.</p>\n                    <img src=\"bees-with-color/bee-B1SM.svg\" width=\"200\">\n                    <p><span class=\"greenText\"><b>Successful harvest!</b></span><br>Your pay has increased by $0.02. Your bonus pay is now $0.84.</p>\n            ","response":0,"trial_type":"html-button-response","trial_index":94,"time_elapsed":1034501,"internal_node_id":"0.0-4.0-1.43","subject_id":"60390dd01c38de312b32bbae","study_id":"6197b3f67c2b5cd3b6d9596a","session_id":"6197bc3e125b29c6858f9d16","condition":"contingent","relevant_dimensions":["wings","legs"],"bee_group":{"antennae":"X","wings":"2","pattern":"X","legs":"M"},"bonus":1.3200000000000007},{"rt":4588.5850000195205,"stimulus":"bees-with-color/bee-A2DM.svg","response":1,"trial_type":"image-button-response","trial_index":95,"time_elapsed":1039091,"internal_node_id":"0.0-4.0-0.44","subject_id":"60390dd01c38de312b32bbae","study_id":"6197b3f67c2b5cd3b6d9596a","session_id":"6197bc3e125b29c6858f9d16","condition":"contingent","relevant_dimensions":["wings","legs"],"bee_group":{"antennae":"X","wings":"2","pattern":"X","legs":"M"},"action":"avoid","summary":"good-avoid","bonus":1.3200000000000007},{"rt":1493.0050000548363,"stimulus":"\n                    <p><b>Action: <em>avoid</em></b></p>\n                    <p>This is the bee that you just saw.</p>\n                    <img src=\"bees-with-color/bee-A2DM.svg\" width=\"200\">\n                    <p><br>Your bonus pay is unchanged, and remains at $0.84.</p>\n            ","response":0,"trial_type":"html-button-response","trial_index":96,"time_elapsed":1040586,"internal_node_id":"0.0-4.0-1.44","subject_id":"60390dd01c38de312b32bbae","study_id":"6197b3f67c2b5cd3b6d9596a","session_id":"6197bc3e125b29c6858f9d16","condition":"contingent","relevant_dimensions":["wings","legs"],"bee_group":{"antennae":"X","wings":"2","pattern":"X","legs":"M"},"bonus":1.3200000000000007},{"rt":8915.619999868795,"stimulus":"bees-with-color/bee-B2SM.svg","response":1,"trial_type":"image-button-response","trial_index":97,"time_elapsed":1049503,"internal_node_id":"0.0-4.0-0.45","subject_id":"60390dd01c38de312b32bbae","study_id":"6197b3f67c2b5cd3b6d9596a","session_id":"6197bc3e125b29c6858f9d16","condition":"contingent","relevant_dimensions":["wings","legs"],"bee_group":{"antennae":"X","wings":"2","pattern":"X","legs":"M"},"action":"avoid","summary":"good-avoid","bonus":1.3200000000000007},{"rt":1903.344999998808,"stimulus":"\n                    <p><b>Action: <em>avoid</em></b></p>\n                    <p>This is the bee that you just saw.</p>\n                    <img src=\"bees-with-color/bee-B2SM.svg\" width=\"200\">\n                    <p><br>Your bonus pay is unchanged, and remains at $0.84.</p>\n            ","response":0,"trial_type":"html-button-response","trial_index":98,"time_elapsed":1051408,"internal_node_id":"0.0-4.0-1.45","subject_id":"60390dd01c38de312b32bbae","study_id":"6197b3f67c2b5cd3b6d9596a","session_id":"6197bc3e125b29c6858f9d16","condition":"contingent","relevant_dimensions":["wings","legs"],"bee_group":{"antennae":"X","wings":"2","pattern":"X","legs":"M"},"bonus":1.3200000000000007},{"rt":5385.005000047386,"stimulus":"bees-with-color/bee-A1SF.svg","response":0,"trial_type":"image-button-response","trial_index":99,"time_elapsed":1056795,"internal_node_id":"0.0-4.0-0.46","subject_id":"60390dd01c38de312b32bbae","study_id":"6197b3f67c2b5cd3b6d9596a","session_id":"6197bc3e125b29c6858f9d16","condition":"contingent","relevant_dimensions":["wings","legs"],"bee_group":{"antennae":"X","wings":"2","pattern":"X","legs":"M"},"action":"harvest","summary":"good-harvest","bonus":1.3200000000000007},{"rt":1544.1150001715869,"stimulus":"\n                    <p><b>Action: <em>harvest</em></b></p>\n                    <p>This is the bee that you just saw.</p>\n                    <img src=\"bees-with-color/bee-A1SF.svg\" width=\"200\">\n                    <p><span class=\"greenText\"><b>Successful harvest!</b></span><br>Your pay has increased by $0.02. Your bonus pay is now $0.86.</p>\n            ","response":0,"trial_type":"html-button-response","trial_index":100,"time_elapsed":1058340,"internal_node_id":"0.0-4.0-1.46","subject_id":"60390dd01c38de312b32bbae","study_id":"6197b3f67c2b5cd3b6d9596a","session_id":"6197bc3e125b29c6858f9d16","condition":"contingent","relevant_dimensions":["wings","legs"],"bee_group":{"antennae":"X","wings":"2","pattern":"X","legs":"M"},"bonus":1.3200000000000007},{"rt":9073.469999944791,"stimulus":"bees-with-color/bee-A1SM.svg","response":0,"trial_type":"image-button-response","trial_index":101,"time_elapsed":1067415,"internal_node_id":"0.0-4.0-0.47","subject_id":"60390dd01c38de312b32bbae","study_id":"6197b3f67c2b5cd3b6d9596a","session_id":"6197bc3e125b29c6858f9d16","condition":"contingent","relevant_dimensions":["wings","legs"],"bee_group":{"antennae":"X","wings":"2","pattern":"X","legs":"M"},"action":"harvest","summary":"good-harvest","bonus":1.3200000000000007},{"rt":1116.745000006631,"stimulus":"\n                    <p><b>Action: <em>harvest</em></b></p>\n                    <p>This is the bee that you just saw.</p>\n                    <img src=\"bees-with-color/bee-A1SM.svg\" width=\"200\">\n                    <p><span class=\"greenText\"><b>Successful harvest!</b></span><br>Your pay has increased by $0.02. Your bonus pay is now $0.88.</p>\n            ","response":0,"trial_type":"html-button-response","trial_index":102,"time_elapsed":1068533,"internal_node_id":"0.0-4.0-1.47","subject_id":"60390dd01c38de312b32bbae","study_id":"6197b3f67c2b5cd3b6d9596a","session_id":"6197bc3e125b29c6858f9d16","condition":"contingent","relevant_dimensions":["wings","legs"],"bee_group":{"antennae":"X","wings":"2","pattern":"X","legs":"M"},"bonus":1.3200000000000007},{"rt":13928.885000059381,"stimulus":"bees-with-color/bee-B1SF.svg","response":0,"trial_type":"image-button-response","trial_index":103,"time_elapsed":1082464,"internal_node_id":"0.0-4.0-0.48","subject_id":"60390dd01c38de312b32bbae","study_id":"6197b3f67c2b5cd3b6d9596a","session_id":"6197bc3e125b29c6858f9d16","condition":"contingent","relevant_dimensions":["wings","legs"],"bee_group":{"antennae":"X","wings":"2","pattern":"X","legs":"M"},"action":"harvest","summary":"good-harvest","bonus":1.3200000000000007},{"rt":1707.8050000127405,"stimulus":"\n                    <p><b>Action: <em>harvest</em></b></p>\n                    <p>This is the bee that you just saw.</p>\n                    <img src=\"bees-with-color/bee-B1SF.svg\" width=\"200\">\n                    <p><span class=\"greenText\"><b>Successful harvest!</b></span><br>Your pay has increased by $0.02. Your bonus pay is now $0.90.</p>\n            ","response":0,"trial_type":"html-button-response","trial_index":104,"time_elapsed":1084172,"internal_node_id":"0.0-4.0-1.48","subject_id":"60390dd01c38de312b32bbae","study_id":"6197b3f67c2b5cd3b6d9596a","session_id":"6197bc3e125b29c6858f9d16","condition":"contingent","relevant_dimensions":["wings","legs"],"bee_group":{"antennae":"X","wings":"2","pattern":"X","legs":"M"},"bonus":1.3200000000000007},{"rt":22768.29000003636,"stimulus":"bees-with-color/bee-B1DM.svg","response":1,"trial_type":"image-button-response","trial_index":105,"time_elapsed":1106942,"internal_node_id":"0.0-4.0-0.49","subject_id":"60390dd01c38de312b32bbae","study_id":"6197b3f67c2b5cd3b6d9596a","session_id":"6197bc3e125b29c6858f9d16","condition":"contingent","relevant_dimensions":["wings","legs"],"bee_group":{"antennae":"X","wings":"2","pattern":"X","legs":"M"},"action":"avoid","summary":"bad-avoid","bonus":1.3200000000000007},{"rt":1648.8449999596924,"stimulus":"\n                    <p><b>Action: <em>avoid</em></b></p>\n                    <p>This is the bee that you just saw.</p>\n                    <img src=\"bees-with-color/bee-B1DM.svg\" width=\"200\">\n                    <p><br>Your bonus pay is unchanged, and remains at $0.90.</p>\n            ","response":0,"trial_type":"html-button-response","trial_index":106,"time_elapsed":1108592,"internal_node_id":"0.0-4.0-1.49","subject_id":"60390dd01c38de312b32bbae","study_id":"6197b3f67c2b5cd3b6d9596a","session_id":"6197bc3e125b29c6858f9d16","condition":"contingent","relevant_dimensions":["wings","legs"],"bee_group":{"antennae":"X","wings":"2","pattern":"X","legs":"M"},"bonus":1.3200000000000007},{"rt":11464.440000010654,"stimulus":"bees-with-color/bee-B2DF.svg","response":1,"trial_type":"image-button-response","trial_index":107,"time_elapsed":1120058,"internal_node_id":"0.0-4.0-0.50","subject_id":"60390dd01c38de312b32bbae","study_id":"6197b3f67c2b5cd3b6d9596a","session_id":"6197bc3e125b29c6858f9d16","condition":"contingent","relevant_dimensions":["wings","legs"],"bee_group":{"antennae":"X","wings":"2","pattern":"X","legs":"M"},"action":"avoid","summary":"bad-avoid","bonus":1.3200000000000007},{"rt":1725.9850001428276,"stimulus":"\n                    <p><b>Action: <em>avoid</em></b></p>\n                    <p>This is the bee that you just saw.</p>\n                    <img src=\"bees-with-color/bee-B2DF.svg\" width=\"200\">\n                    <p><br>Your bonus pay is unchanged, and remains at $0.90.</p>\n            ","response":0,"trial_type":"html-button-response","trial_index":108,"time_elapsed":1121785,"internal_node_id":"0.0-4.0-1.50","subject_id":"60390dd01c38de312b32bbae","study_id":"6197b3f67c2b5cd3b6d9596a","session_id":"6197bc3e125b29c6858f9d16","condition":"contingent","relevant_dimensions":["wings","legs"],"bee_group":{"antennae":"X","wings":"2","pattern":"X","legs":"M"},"bonus":1.3200000000000007},{"rt":7060.460000066087,"stimulus":"bees-with-color/bee-A2DF.svg","response":1,"trial_type":"image-button-response","trial_index":109,"time_elapsed":1128847,"internal_node_id":"0.0-4.0-0.51","subject_id":"60390dd01c38de312b32bbae","study_id":"6197b3f67c2b5cd3b6d9596a","session_id":"6197bc3e125b29c6858f9d16","condition":"contingent","relevant_dimensions":["wings","legs"],"bee_group":{"antennae":"X","wings":"2","pattern":"X","legs":"M"},"action":"avoid","summary":"bad-avoid","bonus":1.3200000000000007},{"rt":1532.9700000584126,"stimulus":"\n                    <p><b>Action: <em>avoid</em></b></p>\n                    <p>This is the bee that you just saw.</p>\n                    <img src=\"bees-with-color/bee-A2DF.svg\" width=\"200\">\n                    <p><br>Your bonus pay is unchanged, and remains at $0.90.</p>\n            ","response":0,"trial_type":"html-button-response","trial_index":110,"time_elapsed":1130381,"internal_node_id":"0.0-4.0-1.51","subject_id":"60390dd01c38de312b32bbae","study_id":"6197b3f67c2b5cd3b6d9596a","session_id":"6197bc3e125b29c6858f9d16","condition":"contingent","relevant_dimensions":["wings","legs"],"bee_group":{"antennae":"X","wings":"2","pattern":"X","legs":"M"},"bonus":1.3200000000000007},{"rt":5345.405000029132,"stimulus":"bees-with-color/bee-A1SF.svg","response":0,"trial_type":"image-button-response","trial_index":111,"time_elapsed":1135728,"internal_node_id":"0.0-4.0-0.52","subject_id":"60390dd01c38de312b32bbae","study_id":"6197b3f67c2b5cd3b6d9596a","session_id":"6197bc3e125b29c6858f9d16","condition":"contingent","relevant_dimensions":["wings","legs"],"bee_group":{"antennae":"X","wings":"2","pattern":"X","legs":"M"},"action":"harvest","summary":"good-harvest","bonus":1.3200000000000007},{"rt":1330.6499999016523,"stimulus":"\n                    <p><b>Action: <em>harvest</em></b></p>\n                    <p>This is the bee that you just saw.</p>\n                    <img src=\"bees-with-color/bee-A1SF.svg\" width=\"200\">\n                    <p><span class=\"greenText\"><b>Successful harvest!</b></span><br>Your pay has increased by $0.02. Your bonus pay is now $0.92.</p>\n            ","response":0,"trial_type":"html-button-response","trial_index":112,"time_elapsed":1137060,"internal_node_id":"0.0-4.0-1.52","subject_id":"60390dd01c38de312b32bbae","study_id":"6197b3f67c2b5cd3b6d9596a","session_id":"6197bc3e125b29c6858f9d16","condition":"contingent","relevant_dimensions":["wings","legs"],"bee_group":{"antennae":"X","wings":"2","pattern":"X","legs":"M"},"bonus":1.3200000000000007},{"rt":15577.65999995172,"stimulus":"bees-with-color/bee-A2SM.svg","response":1,"trial_type":"image-button-response","trial_index":113,"time_elapsed":1152639,"internal_node_id":"0.0-4.0-0.53","subject_id":"60390dd01c38de312b32bbae","study_id":"6197b3f67c2b5cd3b6d9596a","session_id":"6197bc3e125b29c6858f9d16","condition":"contingent","relevant_dimensions":["wings","legs"],"bee_group":{"antennae":"X","wings":"2","pattern":"X","legs":"M"},"action":"avoid","summary":"good-avoid","bonus":1.3200000000000007},{"rt":1188.6850001756102,"stimulus":"\n                    <p><b>Action: <em>avoid</em></b></p>\n                    <p>This is the bee that you just saw.</p>\n                    <img src=\"bees-with-color/bee-A2SM.svg\" width=\"200\">\n                    <p><br>Your bonus pay is unchanged, and remains at $0.92.</p>\n            ","response":0,"trial_type":"html-button-response","trial_index":114,"time_elapsed":1153829,"internal_node_id":"0.0-4.0-1.53","subject_id":"60390dd01c38de312b32bbae","study_id":"6197b3f67c2b5cd3b6d9596a","session_id":"6197bc3e125b29c6858f9d16","condition":"contingent","relevant_dimensions":["wings","legs"],"bee_group":{"antennae":"X","wings":"2","pattern":"X","legs":"M"},"bonus":1.3200000000000007},{"rt":18083.455000072718,"stimulus":"bees-with-color/bee-A2SF.svg","response":0,"trial_type":"image-button-response","trial_index":115,"time_elapsed":1171914,"internal_node_id":"0.0-4.0-0.54","subject_id":"60390dd01c38de312b32bbae","study_id":"6197b3f67c2b5cd3b6d9596a","session_id":"6197bc3e125b29c6858f9d16","condition":"contingent","relevant_dimensions":["wings","legs"],"bee_group":{"antennae":"X","wings":"2","pattern":"X","legs":"M"},"action":"harvest","summary":"good-harvest","bonus":1.3200000000000007},{"rt":1330.9599999338388,"stimulus":"\n                    <p><b>Action: <em>harvest</em></b></p>\n                    <p>This is the bee that you just saw.</p>\n                    <img src=\"bees-with-color/bee-A2SF.svg\" width=\"200\">\n                    <p><span class=\"greenText\"><b>Successful harvest!</b></span><br>Your pay has increased by $0.02. Your bonus pay is now $0.94.</p>\n            ","response":0,"trial_type":"html-button-response","trial_index":116,"time_elapsed":1173246,"internal_node_id":"0.0-4.0-1.54","subject_id":"60390dd01c38de312b32bbae","study_id":"6197b3f67c2b5cd3b6d9596a","session_id":"6197bc3e125b29c6858f9d16","condition":"contingent","relevant_dimensions":["wings","legs"],"bee_group":{"antennae":"X","wings":"2","pattern":"X","legs":"M"},"bonus":1.3200000000000007},{"rt":6734.519999939948,"stimulus":"bees-with-color/bee-A2DM.svg","response":1,"trial_type":"image-button-response","trial_index":117,"time_elapsed":1179982,"internal_node_id":"0.0-4.0-0.55","subject_id":"60390dd01c38de312b32bbae","study_id":"6197b3f67c2b5cd3b6d9596a","session_id":"6197bc3e125b29c6858f9d16","condition":"contingent","relevant_dimensions":["wings","legs"],"bee_group":{"antennae":"X","wings":"2","pattern":"X","legs":"M"},"action":"avoid","summary":"good-avoid","bonus":1.3200000000000007},{"rt":1580.0850000232458,"stimulus":"\n                    <p><b>Action: <em>avoid</em></b></p>\n                    <p>This is the bee that you just saw.</p>\n                    <img src=\"bees-with-color/bee-A2DM.svg\" width=\"200\">\n                    <p><br>Your bonus pay is unchanged, and remains at $0.94.</p>\n            ","response":0,"trial_type":"html-button-response","trial_index":118,"time_elapsed":1181563,"internal_node_id":"0.0-4.0-1.55","subject_id":"60390dd01c38de312b32bbae","study_id":"6197b3f67c2b5cd3b6d9596a","session_id":"6197bc3e125b29c6858f9d16","condition":"contingent","relevant_dimensions":["wings","legs"],"bee_group":{"antennae":"X","wings":"2","pattern":"X","legs":"M"},"bonus":1.3200000000000007},{"rt":8387.305000098422,"stimulus":"bees-with-color/bee-B2DM.svg","response":1,"trial_type":"image-button-response","trial_index":119,"time_elapsed":1189952,"internal_node_id":"0.0-4.0-0.56","subject_id":"60390dd01c38de312b32bbae","study_id":"6197b3f67c2b5cd3b6d9596a","session_id":"6197bc3e125b29c6858f9d16","condition":"contingent","relevant_dimensions":["wings","legs"],"bee_group":{"antennae":"X","wings":"2","pattern":"X","legs":"M"},"action":"avoid","summary":"good-avoid","bonus":1.3200000000000007},{"rt":1989.765000063926,"stimulus":"\n                    <p><b>Action: <em>avoid</em></b></p>\n                    <p>This is the bee that you just saw.</p>\n                    <img src=\"bees-with-color/bee-B2DM.svg\" width=\"200\">\n                    <p><br>Your bonus pay is unchanged, and remains at $0.94.</p>\n            ","response":0,"trial_type":"html-button-response","trial_index":120,"time_elapsed":1191943,"internal_node_id":"0.0-4.0-1.56","subject_id":"60390dd01c38de312b32bbae","study_id":"6197b3f67c2b5cd3b6d9596a","session_id":"6197bc3e125b29c6858f9d16","condition":"contingent","relevant_dimensions":["wings","legs"],"bee_group":{"antennae":"X","wings":"2","pattern":"X","legs":"M"},"bonus":1.3200000000000007},{"rt":13322.225000010803,"stimulus":"bees-with-color/bee-B2SM.svg","response":1,"trial_type":"image-button-response","trial_index":121,"time_elapsed":1205268,"internal_node_id":"0.0-4.0-0.57","subject_id":"60390dd01c38de312b32bbae","study_id":"6197b3f67c2b5cd3b6d9596a","session_id":"6197bc3e125b29c6858f9d16","condition":"contingent","relevant_dimensions":["wings","legs"],"bee_group":{"antennae":"X","wings":"2","pattern":"X","legs":"M"},"action":"avoid","summary":"good-avoid","bonus":1.3200000000000007},{"rt":1809.9700000602752,"stimulus":"\n                    <p><b>Action: <em>avoid</em></b></p>\n                    <p>This is the bee that you just saw.</p>\n                    <img src=\"bees-with-color/bee-B2SM.svg\" width=\"200\">\n                    <p><br>Your bonus pay is unchanged, and remains at $0.94.</p>\n            ","response":0,"trial_type":"html-button-response","trial_index":122,"time_elapsed":1207079,"internal_node_id":"0.0-4.0-1.57","subject_id":"60390dd01c38de312b32bbae","study_id":"6197b3f67c2b5cd3b6d9596a","session_id":"6197bc3e125b29c6858f9d16","condition":"contingent","relevant_dimensions":["wings","legs"],"bee_group":{"antennae":"X","wings":"2","pattern":"X","legs":"M"},"bonus":1.3200000000000007},{"rt":33506.31499988958,"stimulus":"bees-with-color/bee-B1SM.svg","response":0,"trial_type":"image-button-response","trial_index":123,"time_elapsed":1240587,"internal_node_id":"0.0-4.0-0.58","subject_id":"60390dd01c38de312b32bbae","study_id":"6197b3f67c2b5cd3b6d9596a","session_id":"6197bc3e125b29c6858f9d16","condition":"contingent","relevant_dimensions":["wings","legs"],"bee_group":{"antennae":"X","wings":"2","pattern":"X","legs":"M"},"action":"harvest","summary":"good-harvest","bonus":1.3200000000000007},{"rt":1949.6199998538941,"stimulus":"\n                    <p><b>Action: <em>harvest</em></b></p>\n                    <p>This is the bee that you just saw.</p>\n                    <img src=\"bees-with-color/bee-B1SM.svg\" width=\"200\">\n                    <p><span class=\"greenText\"><b>Successful harvest!</b></span><br>Your pay has increased by $0.02. Your bonus pay is now $0.96.</p>\n            ","response":0,"trial_type":"html-button-response","trial_index":124,"time_elapsed":1242538,"internal_node_id":"0.0-4.0-1.58","subject_id":"60390dd01c38de312b32bbae","study_id":"6197b3f67c2b5cd3b6d9596a","session_id":"6197bc3e125b29c6858f9d16","condition":"contingent","relevant_dimensions":["wings","legs"],"bee_group":{"antennae":"X","wings":"2","pattern":"X","legs":"M"},"bonus":1.3200000000000007},{"rt":10913.835000013933,"stimulus":"bees-with-color/bee-A1SM.svg","response":0,"trial_type":"image-button-response","trial_index":125,"time_elapsed":1253453,"internal_node_id":"0.0-4.0-0.59","subject_id":"60390dd01c38de312b32bbae","study_id":"6197b3f67c2b5cd3b6d9596a","session_id":"6197bc3e125b29c6858f9d16","condition":"contingent","relevant_dimensions":["wings","legs"],"bee_group":{"antennae":"X","wings":"2","pattern":"X","legs":"M"},"action":"harvest","summary":"good-harvest","bonus":1.3200000000000007},{"rt":1554.4549999758601,"stimulus":"\n                    <p><b>Action: <em>harvest</em></b></p>\n                    <p>This is the bee that you just saw.</p>\n                    <img src=\"bees-with-color/bee-A1SM.svg\" width=\"200\">\n                    <p><span class=\"greenText\"><b>Successful harvest!</b></span><br>Your pay has increased by $0.02. Your bonus pay is now $0.98.</p>\n            ","response":0,"trial_type":"html-button-response","trial_index":126,"time_elapsed":1255009,"internal_node_id":"0.0-4.0-1.59","subject_id":"60390dd01c38de312b32bbae","study_id":"6197b3f67c2b5cd3b6d9596a","session_id":"6197bc3e125b29c6858f9d16","condition":"contingent","relevant_dimensions":["wings","legs"],"bee_group":{"antennae":"X","wings":"2","pattern":"X","legs":"M"},"bonus":1.3200000000000007},{"rt":5371.42000021413,"stimulus":"bees-with-color/bee-B1DF.svg","response":0,"trial_type":"image-button-response","trial_index":127,"time_elapsed":1260382,"internal_node_id":"0.0-4.0-0.60","subject_id":"60390dd01c38de312b32bbae","study_id":"6197b3f67c2b5cd3b6d9596a","session_id":"6197bc3e125b29c6858f9d16","condition":"contingent","relevant_dimensions":["wings","legs"],"bee_group":{"antennae":"X","wings":"2","pattern":"X","legs":"M"},"action":"harvest","summary":"good-harvest","bonus":1.3200000000000007},{"rt":1762.1049999725074,"stimulus":"\n                    <p><b>Action: <em>harvest</em></b></p>\n                    <p>This is the bee that you just saw.</p>\n                    <img src=\"bees-with-color/bee-B1DF.svg\" width=\"200\">\n                    <p><span class=\"greenText\"><b>Successful harvest!</b></span><br>Your pay has increased by $0.02. Your bonus pay is now $1.00.</p>\n            ","response":0,"trial_type":"html-button-response","trial_index":128,"time_elapsed":1262145,"internal_node_id":"0.0-4.0-1.60","subject_id":"60390dd01c38de312b32bbae","study_id":"6197b3f67c2b5cd3b6d9596a","session_id":"6197bc3e125b29c6858f9d16","condition":"contingent","relevant_dimensions":["wings","legs"],"bee_group":{"antennae":"X","wings":"2","pattern":"X","legs":"M"},"bonus":1.3200000000000007},{"rt":6439.710000064224,"stimulus":"bees-with-color/bee-A1DF.svg","response":0,"trial_type":"image-button-response","trial_index":129,"time_elapsed":1268586,"internal_node_id":"0.0-4.0-0.61","subject_id":"60390dd01c38de312b32bbae","study_id":"6197b3f67c2b5cd3b6d9596a","session_id":"6197bc3e125b29c6858f9d16","condition":"contingent","relevant_dimensions":["wings","legs"],"bee_group":{"antennae":"X","wings":"2","pattern":"X","legs":"M"},"action":"harvest","summary":"good-harvest","bonus":1.3200000000000007},{"rt":1938.7050000950694,"stimulus":"\n                    <p><b>Action: <em>harvest</em></b></p>\n                    <p>This is the bee that you just saw.</p>\n                    <img src=\"bees-with-color/bee-A1DF.svg\" width=\"200\">\n                    <p><span class=\"greenText\"><b>Successful harvest!</b></span><br>Your pay has increased by $0.02. Your bonus pay is now $1.02.</p>\n            ","response":0,"trial_type":"html-button-response","trial_index":130,"time_elapsed":1270526,"internal_node_id":"0.0-4.0-1.61","subject_id":"60390dd01c38de312b32bbae","study_id":"6197b3f67c2b5cd3b6d9596a","session_id":"6197bc3e125b29c6858f9d16","condition":"contingent","relevant_dimensions":["wings","legs"],"bee_group":{"antennae":"X","wings":"2","pattern":"X","legs":"M"},"bonus":1.3200000000000007},{"rt":13516.294999979436,"stimulus":"bees-with-color/bee-A1DM.svg","response":1,"trial_type":"image-button-response","trial_index":131,"time_elapsed":1284044,"internal_node_id":"0.0-4.0-0.62","subject_id":"60390dd01c38de312b32bbae","study_id":"6197b3f67c2b5cd3b6d9596a","session_id":"6197bc3e125b29c6858f9d16","condition":"contingent","relevant_dimensions":["wings","legs"],"bee_group":{"antennae":"X","wings":"2","pattern":"X","legs":"M"},"action":"avoid","summary":"bad-avoid","bonus":1.3200000000000007},{"rt":1490.8799999393523,"stimulus":"\n                    <p><b>Action: <em>avoid</em></b></p>\n                    <p>This is the bee that you just saw.</p>\n                    <img src=\"bees-with-color/bee-A1DM.svg\" width=\"200\">\n                    <p><br>Your bonus pay is unchanged, and remains at $1.02.</p>\n            ","response":0,"trial_type":"html-button-response","trial_index":132,"time_elapsed":1285536,"internal_node_id":"0.0-4.0-1.62","subject_id":"60390dd01c38de312b32bbae","study_id":"6197b3f67c2b5cd3b6d9596a","session_id":"6197bc3e125b29c6858f9d16","condition":"contingent","relevant_dimensions":["wings","legs"],"bee_group":{"antennae":"X","wings":"2","pattern":"X","legs":"M"},"bonus":1.3200000000000007},{"rt":20642.65999989584,"stimulus":"bees-with-color/bee-B2SF.svg","response":1,"trial_type":"image-button-response","trial_index":133,"time_elapsed":1306180,"internal_node_id":"0.0-4.0-0.63","subject_id":"60390dd01c38de312b32bbae","study_id":"6197b3f67c2b5cd3b6d9596a","session_id":"6197bc3e125b29c6858f9d16","condition":"contingent","relevant_dimensions":["wings","legs"],"bee_group":{"antennae":"X","wings":"2","pattern":"X","legs":"M"},"action":"avoid","summary":"bad-avoid","bonus":1.3200000000000007},{"rt":2280.4749999195337,"stimulus":"\n                    <p><b>Action: <em>avoid</em></b></p>\n                    <p>This is the bee that you just saw.</p>\n                    <img src=\"bees-with-color/bee-B2SF.svg\" width=\"200\">\n                    <p><br>Your bonus pay is unchanged, and remains at $1.02.</p>\n            ","response":0,"trial_type":"html-button-response","trial_index":134,"time_elapsed":1308462,"internal_node_id":"0.0-4.0-1.63","subject_id":"60390dd01c38de312b32bbae","study_id":"6197b3f67c2b5cd3b6d9596a","session_id":"6197bc3e125b29c6858f9d16","condition":"contingent","relevant_dimensions":["wings","legs"],"bee_group":{"antennae":"X","wings":"2","pattern":"X","legs":"M"},"bonus":1.3200000000000007},{"rt":7610.510000027716,"stimulus":"You have completed the first part of this experiment.<br><br>You will now begin a shorter second part, in which you will receive no feedback.<br>The same rules regarding bonus pay apply.<br><br>Press any key to begin.","response":"0","trial_type":"html-keyboard-response","trial_index":135,"time_elapsed":1316075,"internal_node_id":"0.0-5.0","subject_id":"60390dd01c38de312b32bbae","study_id":"6197b3f67c2b5cd3b6d9596a","session_id":"6197bc3e125b29c6858f9d16","condition":"contingent","relevant_dimensions":["wings","legs"],"bee_group":{"antennae":"X","wings":"2","pattern":"X","legs":"M"},"bonus":1.3200000000000007},{"rt":9214.520000154153,"stimulus":"bees-with-color/bee-A1DF.svg","response":0,"trial_type":"image-button-response","trial_index":136,"time_elapsed":1325315,"internal_node_id":"0.0-6.0-0.0","subject_id":"60390dd01c38de312b32bbae","study_id":"6197b3f67c2b5cd3b6d9596a","session_id":"6197bc3e125b29c6858f9d16","condition":"contingent","relevant_dimensions":["wings","legs"],"bee_group":{"antennae":"X","wings":"2","pattern":"X","legs":"M"},"bonus":1.3200000000000007},{"rt":8803.125000093132,"stimulus":"bees-with-color/bee-B2SF.svg","response":0,"trial_type":"image-button-response","trial_index":137,"time_elapsed":1334120,"internal_node_id":"0.0-6.0-0.1","subject_id":"60390dd01c38de312b32bbae","study_id":"6197b3f67c2b5cd3b6d9596a","session_id":"6197bc3e125b29c6858f9d16","condition":"contingent","relevant_dimensions":["wings","legs"],"bee_group":{"antennae":"X","wings":"2","pattern":"X","legs":"M"},"bonus":1.3200000000000007},{"rt":10117.000000085682,"stimulus":"bees-with-color/bee-A1DM.svg","response":0,"trial_type":"image-button-response","trial_index":138,"time_elapsed":1344239,"internal_node_id":"0.0-6.0-0.2","subject_id":"60390dd01c38de312b32bbae","study_id":"6197b3f67c2b5cd3b6d9596a","session_id":"6197bc3e125b29c6858f9d16","condition":"contingent","relevant_dimensions":["wings","legs"],"bee_group":{"antennae":"X","wings":"2","pattern":"X","legs":"M"},"bonus":1.3200000000000007},{"rt":7980.059999972582,"stimulus":"bees-with-color/bee-A2SM.svg","response":1,"trial_type":"image-button-response","trial_index":139,"time_elapsed":1352221,"internal_node_id":"0.0-6.0-0.3","subject_id":"60390dd01c38de312b32bbae","study_id":"6197b3f67c2b5cd3b6d9596a","session_id":"6197bc3e125b29c6858f9d16","condition":"contingent","relevant_dimensions":["wings","legs"],"bee_group":{"antennae":"X","wings":"2","pattern":"X","legs":"M"},"bonus":1.3200000000000007},{"rt":6023.820000002161,"stimulus":"bees-with-color/bee-B1DF.svg","response":0,"trial_type":"image-button-response","trial_index":140,"time_elapsed":1358247,"internal_node_id":"0.0-6.0-0.4","subject_id":"60390dd01c38de312b32bbae","study_id":"6197b3f67c2b5cd3b6d9596a","session_id":"6197bc3e125b29c6858f9d16","condition":"contingent","relevant_dimensions":["wings","legs"],"bee_group":{"antennae":"X","wings":"2","pattern":"X","legs":"M"},"bonus":1.3200000000000007},{"rt":7608.3499998785555,"stimulus":"bees-with-color/bee-A2DF.svg","response":1,"trial_type":"image-button-response","trial_index":141,"time_elapsed":1365858,"internal_node_id":"0.0-6.0-0.5","subject_id":"60390dd01c38de312b32bbae","study_id":"6197b3f67c2b5cd3b6d9596a","session_id":"6197bc3e125b29c6858f9d16","condition":"contingent","relevant_dimensions":["wings","legs"],"bee_group":{"antennae":"X","wings":"2","pattern":"X","legs":"M"},"bonus":1.3200000000000007},{"rt":8621.515000006184,"stimulus":"bees-with-color/bee-B2DF.svg","response":1,"trial_type":"image-button-response","trial_index":142,"time_elapsed":1374481,"internal_node_id":"0.0-6.0-0.6","subject_id":"60390dd01c38de312b32bbae","study_id":"6197b3f67c2b5cd3b6d9596a","session_id":"6197bc3e125b29c6858f9d16","condition":"contingent","relevant_dimensions":["wings","legs"],"bee_group":{"antennae":"X","wings":"2","pattern":"X","legs":"M"},"bonus":1.3200000000000007},{"rt":8108.424999983981,"stimulus":"bees-with-color/bee-B2SM.svg","response":1,"trial_type":"image-button-response","trial_index":143,"time_elapsed":1382592,"internal_node_id":"0.0-6.0-0.7","subject_id":"60390dd01c38de312b32bbae","study_id":"6197b3f67c2b5cd3b6d9596a","session_id":"6197bc3e125b29c6858f9d16","condition":"contingent","relevant_dimensions":["wings","legs"],"bee_group":{"antennae":"X","wings":"2","pattern":"X","legs":"M"},"bonus":1.3200000000000007},{"rt":12699.470000108704,"stimulus":"bees-with-color/bee-B1SF.svg","response":1,"trial_type":"image-button-response","trial_index":144,"time_elapsed":1395293,"internal_node_id":"0.0-6.0-0.8","subject_id":"60390dd01c38de312b32bbae","study_id":"6197b3f67c2b5cd3b6d9596a","session_id":"6197bc3e125b29c6858f9d16","condition":"contingent","relevant_dimensions":["wings","legs"],"bee_group":{"antennae":"X","wings":"2","pattern":"X","legs":"M"},"bonus":1.3200000000000007},{"rt":10752.120000077412,"stimulus":"bees-with-color/bee-B1SM.svg","response":0,"trial_type":"image-button-response","trial_index":145,"time_elapsed":1406047,"internal_node_id":"0.0-6.0-0.9","subject_id":"60390dd01c38de312b32bbae","study_id":"6197b3f67c2b5cd3b6d9596a","session_id":"6197bc3e125b29c6858f9d16","condition":"contingent","relevant_dimensions":["wings","legs"],"bee_group":{"antennae":"X","wings":"2","pattern":"X","legs":"M"},"bonus":1.3200000000000007},{"rt":7462.065000087023,"stimulus":"bees-with-color/bee-A2SF.svg","response":0,"trial_type":"image-button-response","trial_index":146,"time_elapsed":1413511,"internal_node_id":"0.0-6.0-0.10","subject_id":"60390dd01c38de312b32bbae","study_id":"6197b3f67c2b5cd3b6d9596a","session_id":"6197bc3e125b29c6858f9d16","condition":"contingent","relevant_dimensions":["wings","legs"],"bee_group":{"antennae":"X","wings":"2","pattern":"X","legs":"M"},"bonus":1.3200000000000007},{"rt":5793.874999973923,"stimulus":"bees-with-color/bee-A2DM.svg","response":1,"trial_type":"image-button-response","trial_index":147,"time_elapsed":1419307,"internal_node_id":"0.0-6.0-0.11","subject_id":"60390dd01c38de312b32bbae","study_id":"6197b3f67c2b5cd3b6d9596a","session_id":"6197bc3e125b29c6858f9d16","condition":"contingent","relevant_dimensions":["wings","legs"],"bee_group":{"antennae":"X","wings":"2","pattern":"X","legs":"M"},"bonus":1.3200000000000007},{"rt":14789.639999857172,"stimulus":"bees-with-color/bee-A1SM.svg","response":0,"trial_type":"image-button-response","trial_index":148,"time_elapsed":1434098,"internal_node_id":"0.0-6.0-0.12","subject_id":"60390dd01c38de312b32bbae","study_id":"6197b3f67c2b5cd3b6d9596a","session_id":"6197bc3e125b29c6858f9d16","condition":"contingent","relevant_dimensions":["wings","legs"],"bee_group":{"antennae":"X","wings":"2","pattern":"X","legs":"M"},"bonus":1.3200000000000007},{"rt":7540.264999959618,"stimulus":"bees-with-color/bee-B1DM.svg","response":1,"trial_type":"image-button-response","trial_index":149,"time_elapsed":1441640,"internal_node_id":"0.0-6.0-0.13","subject_id":"60390dd01c38de312b32bbae","study_id":"6197b3f67c2b5cd3b6d9596a","session_id":"6197bc3e125b29c6858f9d16","condition":"contingent","relevant_dimensions":["wings","legs"],"bee_group":{"antennae":"X","wings":"2","pattern":"X","legs":"M"},"bonus":1.3200000000000007},{"rt":3971.679999958724,"stimulus":"bees-with-color/bee-B2DM.svg","response":1,"trial_type":"image-button-response","trial_index":150,"time_elapsed":1445614,"internal_node_id":"0.0-6.0-0.14","subject_id":"60390dd01c38de312b32bbae","study_id":"6197b3f67c2b5cd3b6d9596a","session_id":"6197bc3e125b29c6858f9d16","condition":"contingent","relevant_dimensions":["wings","legs"],"bee_group":{"antennae":"X","wings":"2","pattern":"X","legs":"M"},"bonus":1.3200000000000007},{"rt":4030.860000057146,"stimulus":"bees-with-color/bee-A1SF.svg","response":0,"trial_type":"image-button-response","trial_index":151,"time_elapsed":1449646,"internal_node_id":"0.0-6.0-0.15","subject_id":"60390dd01c38de312b32bbae","study_id":"6197b3f67c2b5cd3b6d9596a","session_id":"6197bc3e125b29c6858f9d16","condition":"contingent","relevant_dimensions":["wings","legs"],"bee_group":{"antennae":"X","wings":"2","pattern":"X","legs":"M"},"bonus":1.3200000000000007},{"rt":13089.059999911115,"stimulus":"bees-with-color/bee-B1DM.svg","response":1,"trial_type":"image-button-response","trial_index":152,"time_elapsed":1462737,"internal_node_id":"0.0-6.0-0.16","subject_id":"60390dd01c38de312b32bbae","study_id":"6197b3f67c2b5cd3b6d9596a","session_id":"6197bc3e125b29c6858f9d16","condition":"contingent","relevant_dimensions":["wings","legs"],"bee_group":{"antennae":"X","wings":"2","pattern":"X","legs":"M"},"bonus":1.3200000000000007},{"rt":9596.314999973401,"stimulus":"bees-with-color/bee-B2SM.svg","response":1,"trial_type":"image-button-response","trial_index":153,"time_elapsed":1472336,"internal_node_id":"0.0-6.0-0.17","subject_id":"60390dd01c38de312b32bbae","study_id":"6197b3f67c2b5cd3b6d9596a","session_id":"6197bc3e125b29c6858f9d16","condition":"contingent","relevant_dimensions":["wings","legs"],"bee_group":{"antennae":"X","wings":"2","pattern":"X","legs":"M"},"bonus":1.3200000000000007},{"rt":10109.14000007324,"stimulus":"bees-with-color/bee-A1SM.svg","response":0,"trial_type":"image-button-response","trial_index":154,"time_elapsed":1482447,"internal_node_id":"0.0-6.0-0.18","subject_id":"60390dd01c38de312b32bbae","study_id":"6197b3f67c2b5cd3b6d9596a","session_id":"6197bc3e125b29c6858f9d16","condition":"contingent","relevant_dimensions":["wings","legs"],"bee_group":{"antennae":"X","wings":"2","pattern":"X","legs":"M"},"bonus":1.3200000000000007},{"rt":6209.98500008136,"stimulus":"bees-with-color/bee-B1DF.svg","response":0,"trial_type":"image-button-response","trial_index":155,"time_elapsed":1488659,"internal_node_id":"0.0-6.0-0.19","subject_id":"60390dd01c38de312b32bbae","study_id":"6197b3f67c2b5cd3b6d9596a","session_id":"6197bc3e125b29c6858f9d16","condition":"contingent","relevant_dimensions":["wings","legs"],"bee_group":{"antennae":"X","wings":"2","pattern":"X","legs":"M"},"bonus":1.3200000000000007},{"rt":5924.24500011839,"stimulus":"bees-with-color/bee-A2DF.svg","response":1,"trial_type":"image-button-response","trial_index":156,"time_elapsed":1494585,"internal_node_id":"0.0-6.0-0.20","subject_id":"60390dd01c38de312b32bbae","study_id":"6197b3f67c2b5cd3b6d9596a","session_id":"6197bc3e125b29c6858f9d16","condition":"contingent","relevant_dimensions":["wings","legs"],"bee_group":{"antennae":"X","wings":"2","pattern":"X","legs":"M"},"bonus":1.3200000000000007},{"rt":4058.35000006482,"stimulus":"bees-with-color/bee-B2DM.svg","response":1,"trial_type":"image-button-response","trial_index":157,"time_elapsed":1498645,"internal_node_id":"0.0-6.0-0.21","subject_id":"60390dd01c38de312b32bbae","study_id":"6197b3f67c2b5cd3b6d9596a","session_id":"6197bc3e125b29c6858f9d16","condition":"contingent","relevant_dimensions":["wings","legs"],"bee_group":{"antennae":"X","wings":"2","pattern":"X","legs":"M"},"bonus":1.3200000000000007},{"rt":9016.000000061467,"stimulus":"bees-with-color/bee-A1DF.svg","response":0,"trial_type":"image-button-response","trial_index":158,"time_elapsed":1507662,"internal_node_id":"0.0-6.0-0.22","subject_id":"60390dd01c38de312b32bbae","study_id":"6197b3f67c2b5cd3b6d9596a","session_id":"6197bc3e125b29c6858f9d16","condition":"contingent","relevant_dimensions":["wings","legs"],"bee_group":{"antennae":"X","wings":"2","pattern":"X","legs":"M"},"bonus":1.3200000000000007},{"rt":21645.51499998197,"stimulus":"bees-with-color/bee-B1SM.svg","response":0,"trial_type":"image-button-response","trial_index":159,"time_elapsed":1529310,"internal_node_id":"0.0-6.0-0.23","subject_id":"60390dd01c38de312b32bbae","study_id":"6197b3f67c2b5cd3b6d9596a","session_id":"6197bc3e125b29c6858f9d16","condition":"contingent","relevant_dimensions":["wings","legs"],"bee_group":{"antennae":"X","wings":"2","pattern":"X","legs":"M"},"bonus":1.3200000000000007},{"rt":6068.209999939427,"stimulus":"bees-with-color/bee-B2DF.svg","response":1,"trial_type":"image-button-response","trial_index":160,"time_elapsed":1535380,"internal_node_id":"0.0-6.0-0.24","subject_id":"60390dd01c38de312b32bbae","study_id":"6197b3f67c2b5cd3b6d9596a","session_id":"6197bc3e125b29c6858f9d16","condition":"contingent","relevant_dimensions":["wings","legs"],"bee_group":{"antennae":"X","wings":"2","pattern":"X","legs":"M"},"bonus":1.3200000000000007},{"rt":4519.219999900088,"stimulus":"bees-with-color/bee-A2DM.svg","response":1,"trial_type":"image-button-response","trial_index":161,"time_elapsed":1539901,"internal_node_id":"0.0-6.0-0.25","subject_id":"60390dd01c38de312b32bbae","study_id":"6197b3f67c2b5cd3b6d9596a","session_id":"6197bc3e125b29c6858f9d16","condition":"contingent","relevant_dimensions":["wings","legs"],"bee_group":{"antennae":"X","wings":"2","pattern":"X","legs":"M"},"bonus":1.3200000000000007},{"rt":4285.110000055283,"stimulus":"bees-with-color/bee-A1SF.svg","response":0,"trial_type":"image-button-response","trial_index":162,"time_elapsed":1544187,"internal_node_id":"0.0-6.0-0.26","subject_id":"60390dd01c38de312b32bbae","study_id":"6197b3f67c2b5cd3b6d9596a","session_id":"6197bc3e125b29c6858f9d16","condition":"contingent","relevant_dimensions":["wings","legs"],"bee_group":{"antennae":"X","wings":"2","pattern":"X","legs":"M"},"bonus":1.3200000000000007},{"rt":6534.724999917671,"stimulus":"bees-with-color/bee-B2SF.svg","response":0,"trial_type":"image-button-response","trial_index":163,"time_elapsed":1550724,"internal_node_id":"0.0-6.0-0.27","subject_id":"60390dd01c38de312b32bbae","study_id":"6197b3f67c2b5cd3b6d9596a","session_id":"6197bc3e125b29c6858f9d16","condition":"contingent","relevant_dimensions":["wings","legs"],"bee_group":{"antennae":"X","wings":"2","pattern":"X","legs":"M"},"bonus":1.3200000000000007},{"rt":11198.080000001937,"stimulus":"bees-with-color/bee-A2SF.svg","response":0,"trial_type":"image-button-response","trial_index":164,"time_elapsed":1561923,"internal_node_id":"0.0-6.0-0.28","subject_id":"60390dd01c38de312b32bbae","study_id":"6197b3f67c2b5cd3b6d9596a","session_id":"6197bc3e125b29c6858f9d16","condition":"contingent","relevant_dimensions":["wings","legs"],"bee_group":{"antennae":"X","wings":"2","pattern":"X","legs":"M"},"bonus":1.3200000000000007},{"rt":7643.455000128597,"stimulus":"bees-with-color/