[{"success":true,"trial_type":"fullscreen","trial_index":0,"time_elapsed":3636,"internal_node_id":"0.0-0.0","subject_id":"613ecc6237e3e4dd76a14605","study_id":"6197b3f67c2b5cd3b6d9596a","session_id":"619be58fbbc1af5d3a131951","condition":"contingent","relevant_dimensions":["antennae","wings"],"bee_group":{"antennae":"A","wings":"2","pattern":"X","legs":"X"},"bonus":0.04000000000000051},{"success":true,"timeout":false,"failed_images":[],"failed_audio":[],"failed_video":[],"trial_type":"preload","trial_index":1,"time_elapsed":5730,"internal_node_id":"0.0-1.0","subject_id":"613ecc6237e3e4dd76a14605","study_id":"6197b3f67c2b5cd3b6d9596a","session_id":"619be58fbbc1af5d3a131951","condition":"contingent","relevant_dimensions":["antennae","wings"],"bee_group":{"antennae":"A","wings":"2","pattern":"X","legs":"X"},"bonus":0.04000000000000051},{"rt":4444.899999999441,"stimulus":"Welcome! Press any key to begin.","response":" ","trial_type":"html-keyboard-response","trial_index":2,"time_elapsed":10176,"internal_node_id":"0.0-2.0","subject_id":"613ecc6237e3e4dd76a14605","study_id":"6197b3f67c2b5cd3b6d9596a","session_id":"619be58fbbc1af5d3a131951","condition":"contingent","relevant_dimensions":["antennae","wings"],"bee_group":{"antennae":"A","wings":"2","pattern":"X","legs":"X"},"bonus":0.04000000000000051},{"view_history":[{"page_index":0,"viewing_time":5176.5},{"page_index":1,"viewing_time":19662.700000000186},{"page_index":2,"viewing_time":18548.89999999944},{"page_index":3,"viewing_time":22038.5},{"page_index":4,"viewing_time":7368.700000000186},{"page_index":5,"viewing_time":5170.299999999814},{"page_index":6,"viewing_time":2700.2000000001863},{"page_index":5,"viewing_time":1249.9000000003725},{"page_index":4,"viewing_time":849.3999999994412},{"page_index":3,"viewing_time":1779},{"page_index":2,"viewing_time":2833.800000000745},{"page_index":1,"viewing_time":11271.299999999814},{"page_index":2,"viewing_time":23102.200000000186},{"page_index":3,"viewing_time":30180.5},{"page_index":4,"viewing_time":2816.5999999996275},{"page_index":5,"viewing_time":4752.200000000186},{"page_index":6,"viewing_time":10487.299999999814},{"page_index":7,"viewing_time":19375.400000000373},{"page_index":8,"viewing_time":11475.899999999441},{"page_index":7,"viewing_time":3799.9000000003725},{"page_index":8,"viewing_time":2115.399999999441},{"page_index":9,"viewing_time":6882.9000000003725},{"page_index":10,"viewing_time":6437.5999999996275},{"page_index":11,"viewing_time":9715.900000000373},{"page_index":12,"viewing_time":9051.5},{"page_index":13,"viewing_time":28024.599999999627},{"page_index":14,"viewing_time":3178.9000000003725}],"rt":270046.5999999996,"trial_type":"instructions","trial_index":3,"time_elapsed":280231,"internal_node_id":"0.0-3.0-0.0","subject_id":"613ecc6237e3e4dd76a14605","study_id":"6197b3f67c2b5cd3b6d9596a","session_id":"619be58fbbc1af5d3a131951","condition":"contingent","relevant_dimensions":["antennae","wings"],"bee_group":{"antennae":"A","wings":"2","pattern":"X","legs":"X"},"bonus":0.04000000000000051},{"rt":17006.60000000056,"response":{"Q0":["Two or six legs","Single or double wings","Antennae or no antennae"]},"question_order":[0],"trial_type":"survey-multi-select","trial_index":4,"time_elapsed":297251,"internal_node_id":"0.0-3.0-1.0","subject_id":"613ecc6237e3e4dd76a14605","study_id":"6197b3f67c2b5cd3b6d9596a","session_id":"619be58fbbc1af5d3a131951","condition":"contingent","relevant_dimensions":["antennae","wings"],"bee_group":{"antennae":"A","wings":"2","pattern":"X","legs":"X"},"correct":false,"bonus":0.04000000000000051},{"rt":29936.200000000186,"response":{"Q1":"No.","Q2":"Based on the four features of the bee.","Q3":"You do not learn if it was friendly or dangerous, and do not alter your bonus."},"question_order":[0,1,2],"trial_type":"survey-multi-choice","trial_index":5,"time_elapsed":327199,"internal_node_id":"0.0-3.0-2.0","subject_id":"613ecc6237e3e4dd76a14605","study_id":"6197b3f67c2b5cd3b6d9596a","session_id":"619be58fbbc1af5d3a131951","condition":"contingent","relevant_dimensions":["antennae","wings"],"bee_group":{"antennae":"A","wings":"2","pattern":"X","legs":"X"},"correct":true,"bonus":0.04000000000000051},{"rt":4879.5,"stimulus":"<p>You did not answer all comprehension questions correctly.<br>Press <b>continue</b> to review the instructions again.</p>","response":0,"trial_type":"html-button-response","trial_index":6,"time_elapsed":332082,"internal_node_id":"0.0-3.0-3.0","subject_id":"613ecc6237e3e4dd76a14605","study_id":"6197b3f67c2b5cd3b6d9596a","session_id":"619be58fbbc1af5d3a131951","condition":"contingent","relevant_dimensions":["antennae","wings"],"bee_group":{"antennae":"A","wings":"2","pattern":"X","legs":"X"},"bonus":0.04000000000000051},{"view_history":[{"page_index":0,"viewing_time":2427.199999999255},{"page_index":1,"viewing_time":11960.900000000373},{"page_index":2,"viewing_time":5586.9000000003725},{"page_index":3,"viewing_time":5455.399999999441},{"page_index":4,"viewing_time":9791.900000000373},{"page_index":5,"viewing_time":5281.5},{"page_index":6,"viewing_time":7543.799999999814},{"page_index":7,"viewing_time":2430.2000000001863},{"page_index":6,"viewing_time":1371.2999999998137},{"page_index":7,"viewing_time":1030.4000000003725},{"page_index":8,"viewing_time":423.69999999925494},{"page_index":9,"viewing_time":359.70000000018626},{"page_index":10,"viewing_time":455.40000000037253},{"page_index":11,"viewing_time":2947},{"page_index":12,"viewing_time":1797.5999999996275},{"page_index":11,"viewing_time":9711.200000000186},{"page_index":12,"viewing_time":2901.4000000003725},{"page_index":13,"viewing_time":1314.199999999255},{"page_index":14,"viewing_time":770}],"rt":73560.19999999925,"trial_type":"instructions","trial_index":7,"time_elapsed":405649,"internal_node_id":"0.0-3.0-4.0-0.0","subject_id":"613ecc6237e3e4dd76a14605","study_id":"6197b3f67c2b5cd3b6d9596a","session_id":"619be58fbbc1af5d3a131951","condition":"contingent","relevant_dimensions":["antennae","wings"],"bee_group":{"antennae":"A","wings":"2","pattern":"X","legs":"X"},"bonus":0.04000000000000051},{"rt":64497.299999999814,"response":{"Q0":["Two or six legs","Stripes or spots on body","Single or double wings","Antennae or no antennae"]},"question_order":[0],"trial_type":"survey-multi-select","trial_index":8,"time_elapsed":470157,"internal_node_id":"0.0-3.0-4.0-1.0","subject_id":"613ecc6237e3e4dd76a14605","study_id":"6197b3f67c2b5cd3b6d9596a","session_id":"619be58fbbc1af5d3a131951","condition":"contingent","relevant_dimensions":["antennae","wings"],"bee_group":{"antennae":"A","wings":"2","pattern":"X","legs":"X"},"correct":true,"bonus":0.04000000000000051},{"rt":26035.10000000056,"response":{"Q1":"No.","Q2":"Based on the four features of the bee.","Q3":"You do not learn if it was friendly or dangerous, and do not alter your bonus."},"question_order":[0,1,2],"trial_type":"survey-multi-choice","trial_index":9,"time_elapsed":496196,"internal_node_id":"0.0-3.0-4.0-2.0","subject_id":"613ecc6237e3e4dd76a14605","study_id":"6197b3f67c2b5cd3b6d9596a","session_id":"619be58fbbc1af5d3a131951","condition":"contingent","relevant_dimensions":["antennae","wings"],"bee_group":{"antennae":"A","wings":"2","pattern":"X","legs":"X"},"correct":true,"bonus":0.04000000000000051},{"rt":3781.7000000001863,"stimulus":"<p>Congrats, you got everything right<br>When you're ready, click the button below to continue to the experiment.</p>","response":0,"trial_type":"html-button-response","trial_index":10,"time_elapsed":499981,"internal_node_id":"0.0-3.0-4.0-3.0","subject_id":"613ecc6237e3e4dd76a14605","study_id":"6197b3f67c2b5cd3b6d9596a","session_id":"619be58fbbc1af5d3a131951","condition":"contingent","relevant_dimensions":["antennae","wings"],"bee_group":{"antennae":"A","wings":"2","pattern":"X","legs":"X"},"bonus":0.04000000000000051},{"rt":7593.600000000559,"stimulus":"bees-with-color/bee-B1SM.svg","response":0,"trial_type":"image-button-response","trial_index":11,"time_elapsed":507581,"internal_node_id":"0.0-4.0-0.0","subject_id":"613ecc6237e3e4dd76a14605","study_id":"6197b3f67c2b5cd3b6d9596a","session_id":"619be58fbbc1af5d3a131951","condition":"contingent","relevant_dimensions":["antennae","wings"],"bee_group":{"antennae":"A","wings":"2","pattern":"X","legs":"X"},"action":"harvest","summary":"good-harvest","bonus":0.04000000000000051},{"rt":33194.299999999814,"stimulus":"\n                    <p><b>Action: <em>harvest</em></b></p>\n                    <p>This is the bee that you just saw.</p>\n                    <img src=\"bees-with-color/bee-B1SM.svg\" width=\"200\">\n                    <p><span class=\"greenText\"><b>Successful harvest!</b></span><br>Your pay has increased by $0.02. Your bonus pay is now $0.56.</p>\n            ","response":0,"trial_type":"html-button-response","trial_index":12,"time_elapsed":540781,"internal_node_id":"0.0-4.0-1.0","subject_id":"613ecc6237e3e4dd76a14605","study_id":"6197b3f67c2b5cd3b6d9596a","session_id":"619be58fbbc1af5d3a131951","condition":"contingent","relevant_dimensions":["antennae","wings"],"bee_group":{"antennae":"A","wings":"2","pattern":"X","legs":"X"},"bonus":0.04000000000000051},{"rt":2273,"stimulus":"bees-with-color/bee-A1SM.svg","response":0,"trial_type":"image-button-response","trial_index":13,"time_elapsed":543059,"internal_node_id":"0.0-4.0-0.1","subject_id":"613ecc6237e3e4dd76a14605","study_id":"6197b3f67c2b5cd3b6d9596a","session_id":"619be58fbbc1af5d3a131951","condition":"contingent","relevant_dimensions":["antennae","wings"],"bee_group":{"antennae":"A","wings":"2","pattern":"X","legs":"X"},"action":"harvest","summary":"good-harvest","bonus":0.04000000000000051},{"rt":4113.4000000003725,"stimulus":"\n                    <p><b>Action: <em>harvest</em></b></p>\n                    <p>This is the bee that you just saw.</p>\n                    <img src=\"bees-with-color/bee-A1SM.svg\" width=\"200\">\n                    <p><span class=\"greenText\"><b>Successful harvest!</b></span><br>Your pay has increased by $0.02. Your bonus pay is now $0.58.</p>\n            ","response":0,"trial_type":"html-button-response","trial_index":14,"time_elapsed":547176,"internal_node_id":"0.0-4.0-1.1","subject_id":"613ecc6237e3e4dd76a14605","study_id":"6197b3f67c2b5cd3b6d9596a","session_id":"619be58fbbc1af5d3a131951","condition":"contingent","relevant_dimensions":["antennae","wings"],"bee_group":{"antennae":"A","wings":"2","pattern":"X","legs":"X"},"bonus":0.04000000000000051},{"rt":2636.399999999441,"stimulus":"bees-with-color/bee-A1DF.svg","response":1,"trial_type":"image-button-response","trial_index":15,"time_elapsed":549818,"internal_node_id":"0.0-4.0-0.2","subject_id":"613ecc6237e3e4dd76a14605","study_id":"6197b3f67c2b5cd3b6d9596a","session_id":"619be58fbbc1af5d3a131951","condition":"contingent","relevant_dimensions":["antennae","wings"],"bee_group":{"antennae":"A","wings":"2","pattern":"X","legs":"X"},"action":"avoid","summary":"bad-avoid","bonus":0.04000000000000051},{"rt":3892.5,"stimulus":"\n                    <p><b>Action: <em>avoid</em></b></p>\n                    <p>This is the bee that you just saw.</p>\n                    <img src=\"bees-with-color/bee-A1DF.svg\" width=\"200\">\n                    <p><br>Your bonus pay is unchanged, and remains at $0.58.</p>\n            ","response":0,"trial_type":"html-button-response","trial_index":16,"time_elapsed":553714,"internal_node_id":"0.0-4.0-1.2","subject_id":"613ecc6237e3e4dd76a14605","study_id":"6197b3f67c2b5cd3b6d9596a","session_id":"619be58fbbc1af5d3a131951","condition":"contingent","relevant_dimensions":["antennae","wings"],"bee_group":{"antennae":"A","wings":"2","pattern":"X","legs":"X"},"bonus":0.04000000000000051},{"rt":6242.4000000003725,"stimulus":"bees-with-color/bee-A2SF.svg","response":1,"trial_type":"image-button-response","trial_index":17,"time_elapsed":559960,"internal_node_id":"0.0-4.0-0.3","subject_id":"613ecc6237e3e4dd76a14605","study_id":"6197b3f67c2b5cd3b6d9596a","session_id":"619be58fbbc1af5d3a131951","condition":"contingent","relevant_dimensions":["antennae","wings"],"bee_group":{"antennae":"A","wings":"2","pattern":"X","legs":"X"},"action":"avoid","summary":"good-avoid","bonus":0.04000000000000051},{"rt":1881.8999999994412,"stimulus":"\n                    <p><b>Action: <em>avoid</em></b></p>\n                    <p>This is the bee that you just saw.</p>\n                    <img src=\"bees-with-color/bee-A2SF.svg\" width=\"200\">\n                    <p><br>Your bonus pay is unchanged, and remains at $0.58.</p>\n            ","response":0,"trial_type":"html-button-response","trial_index":18,"time_elapsed":561846,"internal_node_id":"0.0-4.0-1.3","subject_id":"613ecc6237e3e4dd76a14605","study_id":"6197b3f67c2b5cd3b6d9596a","session_id":"619be58fbbc1af5d3a131951","condition":"contingent","relevant_dimensions":["antennae","wings"],"bee_group":{"antennae":"A","wings":"2","pattern":"X","legs":"X"},"bonus":0.04000000000000051},{"rt":1676,"stimulus":"bees-with-color/bee-B1DF.svg","response":1,"trial_type":"image-button-response","trial_index":19,"time_elapsed":563525,"internal_node_id":"0.0-4.0-0.4","subject_id":"613ecc6237e3e4dd76a14605","study_id":"6197b3f67c2b5cd3b6d9596a","session_id":"619be58fbbc1af5d3a131951","condition":"contingent","relevant_dimensions":["antennae","wings"],"bee_group":{"antennae":"A","wings":"2","pattern":"X","legs":"X"},"action":"avoid","summary":"bad-avoid","bonus":0.04000000000000051},{"rt":1112.1000000005588,"stimulus":"\n                    <p><b>Action: <em>avoid</em></b></p>\n                    <p>This is the bee that you just saw.</p>\n                    <img src=\"bees-with-color/bee-B1DF.svg\" width=\"200\">\n                    <p><br>Your bonus pay is unchanged, and remains at $0.58.</p>\n            ","response":0,"trial_type":"html-button-response","trial_index":20,"time_elapsed":564640,"internal_node_id":"0.0-4.0-1.4","subject_id":"613ecc6237e3e4dd76a14605","study_id":"6197b3f67c2b5cd3b6d9596a","session_id":"619be58fbbc1af5d3a131951","condition":"contingent","relevant_dimensions":["antennae","wings"],"bee_group":{"antennae":"A","wings":"2","pattern":"X","legs":"X"},"bonus":0.04000000000000051},{"rt":1651.5,"stimulus":"bees-with-color/bee-B2SM.svg","response":1,"trial_type":"image-button-response","trial_index":21,"time_elapsed":566294,"internal_node_id":"0.0-4.0-0.5","subject_id":"613ecc6237e3e4dd76a14605","study_id":"6197b3f67c2b5cd3b6d9596a","session_id":"619be58fbbc1af5d3a131951","condition":"contingent","relevant_dimensions":["antennae","wings"],"bee_group":{"antennae":"A","wings":"2","pattern":"X","legs":"X"},"action":"avoid","summary":"bad-avoid","bonus":0.04000000000000051},{"rt":1068.9000000003725,"stimulus":"\n                    <p><b>Action: <em>avoid</em></b></p>\n                    <p>This is the bee that you just saw.</p>\n                    <img src=\"bees-with-color/bee-B2SM.svg\" width=\"200\">\n                    <p><br>Your bonus pay is unchanged, and remains at $0.58.</p>\n            ","response":0,"trial_type":"html-button-response","trial_index":22,"time_elapsed":567365,"internal_node_id":"0.0-4.0-1.5","subject_id":"613ecc6237e3e4dd76a14605","study_id":"6197b3f67c2b5cd3b6d9596a","session_id":"619be58fbbc1af5d3a131951","condition":"contingent","relevant_dimensions":["antennae","wings"],"bee_group":{"antennae":"A","wings":"2","pattern":"X","legs":"X"},"bonus":0.04000000000000051},{"rt":5233.700000000186,"stimulus":"bees-with-color/bee-A2DF.svg","response":0,"trial_type":"image-button-response","trial_index":23,"time_elapsed":572602,"internal_node_id":"0.0-4.0-0.6","subject_id":"613ecc6237e3e4dd76a14605","study_id":"6197b3f67c2b5cd3b6d9596a","session_id":"619be58fbbc1af5d3a131951","condition":"contingent","relevant_dimensions":["antennae","wings"],"bee_group":{"antennae":"A","wings":"2","pattern":"X","legs":"X"},"action":"harvest","summary":"bad-harvest","bonus":0.04000000000000051},{"rt":7360.299999999814,"stimulus":"\n                    <p><b>Action: <em>harvest</em></b></p>\n                    <p>This is the bee that you just saw.</p>\n                    <img src=\"bees-with-color/bee-A2DF.svg\" width=\"200\">\n                    <p><span class=\"redText\">Bad choice, the bee was angry.</span><br><b>You have been stung!</b><br>Your pay has been decreased by $0.10. Your bonus pay is now $0.48.</p>\n            ","response":0,"trial_type":"html-button-response","trial_index":24,"time_elapsed":579966,"internal_node_id":"0.0-4.0-1.6","subject_id":"613ecc6237e3e4dd76a14605","study_id":"6197b3f67c2b5cd3b6d9596a","session_id":"619be58fbbc1af5d3a131951","condition":"contingent","relevant_dimensions":["antennae","wings"],"bee_group":{"antennae":"A","wings":"2","pattern":"X","legs":"X"},"bonus":0.04000000000000051},{"rt":2333.0999999996275,"stimulus":"bees-with-color/bee-B1SF.svg","response":0,"trial_type":"image-button-response","trial_index":25,"time_elapsed":582303,"internal_node_id":"0.0-4.0-0.7","subject_id":"613ecc6237e3e4dd76a14605","study_id":"6197b3f67c2b5cd3b6d9596a","session_id":"619be58fbbc1af5d3a131951","condition":"contingent","relevant_dimensions":["antennae","wings"],"bee_group":{"antennae":"A","wings":"2","pattern":"X","legs":"X"},"action":"harvest","summary":"good-harvest","bonus":0.04000000000000051},{"rt":4950.9000000003725,"stimulus":"\n                    <p><b>Action: <em>harvest</em></b></p>\n                    <p>This is the bee that you just saw.</p>\n                    <img src=\"bees-with-color/bee-B1SF.svg\" width=\"200\">\n                    <p><span class=\"greenText\"><b>Successful harvest!</b></span><br>Your pay has increased by $0.02. Your bonus pay is now $0.50.</p>\n            ","response":0,"trial_type":"html-button-response","trial_index":26,"time_elapsed":587256,"internal_node_id":"0.0-4.0-1.7","subject_id":"613ecc6237e3e4dd76a14605","study_id":"6197b3f67c2b5cd3b6d9596a","session_id":"619be58fbbc1af5d3a131951","condition":"contingent","relevant_dimensions":["antennae","wings"],"bee_group":{"antennae":"A","wings":"2","pattern":"X","legs":"X"},"bonus":0.04000000000000051},{"rt":1925.0999999996275,"stimulus":"bees-with-color/bee-B1DM.svg","response":1,"trial_type":"image-button-response","trial_index":27,"time_elapsed":589184,"internal_node_id":"0.0-4.0-0.8","subject_id":"613ecc6237e3e4dd76a14605","study_id":"6197b3f67c2b5cd3b6d9596a","session_id":"619be58fbbc1af5d3a131951","condition":"contingent","relevant_dimensions":["antennae","wings"],"bee_group":{"antennae":"A","wings":"2","pattern":"X","legs":"X"},"action":"avoid","summary":"bad-avoid","bonus":0.04000000000000051},{"rt":925.8000000007451,"stimulus":"\n                    <p><b>Action: <em>avoid</em></b></p>\n                    <p>This is the bee that you just saw.</p>\n                    <img src=\"bees-with-color/bee-B1DM.svg\" width=\"200\">\n                    <p><br>Your bonus pay is unchanged, and remains at $0.50.</p>\n            ","response":0,"trial_type":"html-button-response","trial_index":28,"time_elapsed":590112,"internal_node_id":"0.0-4.0-1.8","subject_id":"613ecc6237e3e4dd76a14605","study_id":"6197b3f67c2b5cd3b6d9596a","session_id":"619be58fbbc1af5d3a131951","condition":"contingent","relevant_dimensions":["antennae","wings"],"bee_group":{"antennae":"A","wings":"2","pattern":"X","legs":"X"},"bonus":0.04000000000000051},{"rt":2059.2000000001863,"stimulus":"bees-with-color/bee-B2SF.svg","response":0,"trial_type":"image-button-response","trial_index":29,"time_elapsed":592174,"internal_node_id":"0.0-4.0-0.9","subject_id":"613ecc6237e3e4dd76a14605","study_id":"6197b3f67c2b5cd3b6d9596a","session_id":"619be58fbbc1af5d3a131951","condition":"contingent","relevant_dimensions":["antennae","wings"],"bee_group":{"antennae":"A","wings":"2","pattern":"X","legs":"X"},"action":"harvest","summary":"good-harvest","bonus":0.04000000000000051},{"rt":4493.799999999814,"stimulus":"\n                    <p><b>Action: <em>harvest</em></b></p>\n                    <p>This is the bee that you just saw.</p>\n                    <img src=\"bees-with-color/bee-B2SF.svg\" width=\"200\">\n                    <p><span class=\"greenText\"><b>Successful harvest!</b></span><br>Your pay has increased by $0.02. Your bonus pay is now $0.52.</p>\n            ","response":0,"trial_type":"html-button-response","trial_index":30,"time_elapsed":596670,"internal_node_id":"0.0-4.0-1.9","subject_id":"613ecc6237e3e4dd76a14605","study_id":"6197b3f67c2b5cd3b6d9596a","session_id":"619be58fbbc1af5d3a131951","condition":"contingent","relevant_dimensions":["antennae","wings"],"bee_group":{"antennae":"A","wings":"2","pattern":"X","legs":"X"},"bonus":0.04000000000000051},{"rt":1532.2000000001863,"stimulus":"bees-with-color/bee-B2DM.svg","response":1,"trial_type":"image-button-response","trial_index":31,"time_elapsed":598204,"internal_node_id":"0.0-4.0-0.10","subject_id":"613ecc6237e3e4dd76a14605","study_id":"6197b3f67c2b5cd3b6d9596a","session_id":"619be58fbbc1af5d3a131951","condition":"contingent","relevant_dimensions":["antennae","wings"],"bee_group":{"antennae":"A","wings":"2","pattern":"X","legs":"X"},"action":"avoid","summary":"bad-avoid","bonus":0.04000000000000051},{"rt":1200.2000000001863,"stimulus":"\n                    <p><b>Action: <em>avoid</em></b></p>\n                    <p>This is the bee that you just saw.</p>\n                    <img src=\"bees-with-color/bee-B2DM.svg\" width=\"200\">\n                    <p><br>Your bonus pay is unchanged, and remains at $0.52.</p>\n            ","response":0,"trial_type":"html-button-response","trial_index":32,"time_elapsed":599407,"internal_node_id":"0.0-4.0-1.10","subject_id":"613ecc6237e3e4dd76a14605","study_id":"6197b3f67c2b5cd3b6d9596a","session_id":"619be58fbbc1af5d3a131951","condition":"contingent","relevant_dimensions":["antennae","wings"],"bee_group":{"antennae":"A","wings":"2","pattern":"X","legs":"X"},"bonus":0.04000000000000051},{"rt":1116.7000000001863,"stimulus":"bees-with-color/bee-A1DM.svg","response":1,"trial_type":"image-button-response","trial_index":33,"time_elapsed":600526,"internal_node_id":"0.0-4.0-0.11","subject_id":"613ecc6237e3e4dd76a14605","study_id":"6197b3f67c2b5cd3b6d9596a","session_id":"619be58fbbc1af5d3a131951","condition":"contingent","relevant_dimensions":["antennae","wings"],"bee_group":{"antennae":"A","wings":"2","pattern":"X","legs":"X"},"action":"avoid","summary":"bad-avoid","bonus":0.04000000000000051},{"rt":1132.7000000001863,"stimulus":"\n                    <p><b>Action: <em>avoid</em></b></p>\n                    <p>This is the bee that you just saw.</p>\n                    <img src=\"bees-with-color/bee-A1DM.svg\" width=\"200\">\n                    <p><br>Your bonus pay is unchanged, and remains at $0.52.</p>\n            ","response":0,"trial_type":"html-button-response","trial_index":34,"time_elapsed":601661,"internal_node_id":"0.0-4.0-1.11","subject_id":"613ecc6237e3e4dd76a14605","study_id":"6197b3f67c2b5cd3b6d9596a","session_id":"619be58fbbc1af5d3a131951","condition":"contingent","relevant_dimensions":["antennae","wings"],"bee_group":{"antennae":"A","wings":"2","pattern":"X","legs":"X"},"bonus":0.04000000000000051},{"rt":1161.2999999998137,"stimulus":"bees-with-color/bee-A2DM.svg","response":1,"trial_type":"image-button-response","trial_index":35,"time_elapsed":602824,"internal_node_id":"0.0-4.0-0.12","subject_id":"613ecc6237e3e4dd76a14605","study_id":"6197b3f67c2b5cd3b6d9596a","session_id":"619be58fbbc1af5d3a131951","condition":"contingent","relevant_dimensions":["antennae","wings"],"bee_group":{"antennae":"A","wings":"2","pattern":"X","legs":"X"},"action":"avoid","summary":"good-avoid","bonus":0.04000000000000051},{"rt":1212.7999999998137,"stimulus":"\n                    <p><b>Action: <em>avoid</em></b></p>\n                    <p>This is the bee that you just saw.</p>\n                    <img src=\"bees-with-color/bee-A2DM.svg\" width=\"200\">\n                    <p><br>Your bonus pay is unchanged, and remains at $0.52.</p>\n            ","response":0,"trial_type":"html-button-response","trial_index":36,"time_elapsed":604038,"internal_node_id":"0.0-4.0-1.12","subject_id":"613ecc6237e3e4dd76a14605","study_id":"6197b3f67c2b5cd3b6d9596a","session_id":"619be58fbbc1af5d3a131951","condition":"contingent","relevant_dimensions":["antennae","wings"],"bee_group":{"antennae":"A","wings":"2","pattern":"X","legs":"X"},"bonus":0.04000000000000051},{"rt":1500.300000000745,"stimulus":"bees-with-color/bee-A2SM.svg","response":0,"trial_type":"image-button-response","trial_index":37,"time_elapsed":605541,"internal_node_id":"0.0-4.0-0.13","subject_id":"613ecc6237e3e4dd76a14605","study_id":"6197b3f67c2b5cd3b6d9596a","session_id":"619be58fbbc1af5d3a131951","condition":"contingent","relevant_dimensions":["antennae","wings"],"bee_group":{"antennae":"A","wings":"2","pattern":"X","legs":"X"},"action":"harvest","summary":"bad-harvest","bonus":0.04000000000000051},{"rt":11149,"stimulus":"\n                    <p><b>Action: <em>harvest</em></b></p>\n                    <p>This is the bee that you just saw.</p>\n                    <img src=\"bees-with-color/bee-A2SM.svg\" width=\"200\">\n                    <p><span class=\"redText\">Bad choice, the bee was angry.</span><br><b>You have been stung!</b><br>Your pay has been decreased by $0.10. Your bonus pay is now $0.42.</p>\n            ","response":0,"trial_type":"html-button-response","trial_index":38,"time_elapsed":616693,"internal_node_id":"0.0-4.0-1.13","subject_id":"613ecc6237e3e4dd76a14605","study_id":"6197b3f67c2b5cd3b6d9596a","session_id":"619be58fbbc1af5d3a131951","condition":"contingent","relevant_dimensions":["antennae","wings"],"bee_group":{"antennae":"A","wings":"2","pattern":"X","legs":"X"},"bonus":0.04000000000000051},{"rt":9581.100000000559,"stimulus":"bees-with-color/bee-B2DF.svg","response":0,"trial_type":"image-button-response","trial_index":39,"time_elapsed":626278,"internal_node_id":"0.0-4.0-0.14","subject_id":"613ecc6237e3e4dd76a14605","study_id":"6197b3f67c2b5cd3b6d9596a","session_id":"619be58fbbc1af5d3a131951","condition":"contingent","relevant_dimensions":["antennae","wings"],"bee_group":{"antennae":"A","wings":"2","pattern":"X","legs":"X"},"action":"harvest","summary":"good-harvest","bonus":0.04000000000000051},{"rt":10883,"stimulus":"\n                    <p><b>Action: <em>harvest</em></b></p>\n                    <p>This is the bee that you just saw.</p>\n                    <img src=\"bees-with-color/bee-B2DF.svg\" width=\"200\">\n                    <p><span class=\"greenText\"><b>Successful harvest!</b></span><br>Your pay has increased by $0.02. Your bonus pay is now $0.44.</p>\n            ","response":0,"trial_type":"html-button-response","trial_index":40,"time_elapsed":637164,"internal_node_id":"0.0-4.0-1.14","subject_id":"613ecc6237e3e4dd76a14605","study_id":"6197b3f67c2b5cd3b6d9596a","session_id":"619be58fbbc1af5d3a131951","condition":"contingent","relevant_dimensions":["antennae","wings"],"bee_group":{"antennae":"A","wings":"2","pattern":"X","legs":"X"},"bonus":0.04000000000000051},{"rt":1930.7000000001863,"stimulus":"bees-with-color/bee-A1SF.svg","response":0,"trial_type":"image-button-response","trial_index":41,"time_elapsed":639097,"internal_node_id":"0.0-4.0-0.15","subject_id":"613ecc6237e3e4dd76a14605","study_id":"6197b3f67c2b5cd3b6d9596a","session_id":"619be58fbbc1af5d3a131951","condition":"contingent","relevant_dimensions":["antennae","wings"],"bee_group":{"antennae":"A","wings":"2","pattern":"X","legs":"X"},"action":"harvest","summary":"good-harvest","bonus":0.04000000000000051},{"rt":1799.9000000003725,"stimulus":"\n                    <p><b>Action: <em>harvest</em></b></p>\n                    <p>This is the bee that you just saw.</p>\n                    <img src=\"bees-with-color/bee-A1SF.svg\" width=\"200\">\n                    <p><span class=\"greenText\"><b>Successful harvest!</b></span><br>Your pay has increased by $0.02. Your bonus pay is now $0.46.</p>\n            ","response":0,"trial_type":"html-button-response","trial_index":42,"time_elapsed":640900,"internal_node_id":"0.0-4.0-1.15","subject_id":"613ecc6237e3e4dd76a14605","study_id":"6197b3f67c2b5cd3b6d9596a","session_id":"619be58fbbc1af5d3a131951","condition":"contingent","relevant_dimensions":["antennae","wings"],"bee_group":{"antennae":"A","wings":"2","pattern":"X","legs":"X"},"bonus":0.04000000000000051},{"rt":2020.5,"stimulus":"bees-with-color/bee-B2SF.svg","response":1,"trial_type":"image-button-response","trial_index":43,"time_elapsed":642922,"internal_node_id":"0.0-4.0-0.16","subject_id":"613ecc6237e3e4dd76a14605","study_id":"6197b3f67c2b5cd3b6d9596a","session_id":"619be58fbbc1af5d3a131951","condition":"contingent","relevant_dimensions":["antennae","wings"],"bee_group":{"antennae":"A","wings":"2","pattern":"X","legs":"X"},"action":"avoid","summary":"bad-avoid","bonus":0.04000000000000051},{"rt":1128,"stimulus":"\n                    <p><b>Action: <em>avoid</em></b></p>\n                    <p>This is the bee that you just saw.</p>\n                    <img src=\"bees-with-color/bee-B2SF.svg\" width=\"200\">\n                    <p><br>Your bonus pay is unchanged, and remains at $0.46.</p>\n            ","response":0,"trial_type":"html-button-response","trial_index":44,"time_elapsed":644053,"internal_node_id":"0.0-4.0-1.16","subject_id":"613ecc6237e3e4dd76a14605","study_id":"6197b3f67c2b5cd3b6d9596a","session_id":"619be58fbbc1af5d3a131951","condition":"contingent","relevant_dimensions":["antennae","wings"],"bee_group":{"antennae":"A","wings":"2","pattern":"X","legs":"X"},"bonus":0.04000000000000051},{"rt":3377.699999999255,"stimulus":"bees-with-color/bee-B1DM.svg","response":1,"trial_type":"image-button-response","trial_index":45,"time_elapsed":647433,"internal_node_id":"0.0-4.0-0.17","subject_id":"613ecc6237e3e4dd76a14605","study_id":"6197b3f67c2b5cd3b6d9596a","session_id":"619be58fbbc1af5d3a131951","condition":"contingent","relevant_dimensions":["antennae","wings"],"bee_group":{"antennae":"A","wings":"2","pattern":"X","legs":"X"},"action":"avoid","summary":"bad-avoid","bonus":0.04000000000000051},{"rt":1408.6000000005588,"stimulus":"\n                    <p><b>Action: <em>avoid</em></b></p>\n                    <p>This is the bee that you just saw.</p>\n                    <img src=\"bees-with-color/bee-B1DM.svg\" width=\"200\">\n                    <p><br>Your bonus pay is unchanged, and remains at $0.46.</p>\n            ","response":0,"trial_type":"html-button-response","trial_index":46,"time_elapsed":648845,"internal_node_id":"0.0-4.0-1.17","subject_id":"613ecc6237e3e4dd76a14605","study_id":"6197b3f67c2b5cd3b6d9596a","session_id":"619be58fbbc1af5d3a131951","condition":"contingent","relevant_dimensions":["antennae","wings"],"bee_group":{"antennae":"A","wings":"2","pattern":"X","legs":"X"},"bonus":0.04000000000000051},{"rt":2228.0999999996275,"stimulus":"bees-with-color/bee-B1SF.svg","response":0,"trial_type":"image-button-response","trial_index":47,"time_elapsed":651076,"internal_node_id":"0.0-4.0-0.18","subject_id":"613ecc6237e3e4dd76a14605","study_id":"6197b3f67c2b5cd3b6d9596a","session_id":"619be58fbbc1af5d3a131951","condition":"contingent","relevant_dimensions":["antennae","wings"],"bee_group":{"antennae":"A","wings":"2","pattern":"X","legs":"X"},"action":"harvest","summary":"good-harvest","bonus":0.04000000000000051},{"rt":2160.100000000559,"stimulus":"\n                    <p><b>Action: <em>harvest</em></b></p>\n                    <p>This is the bee that you just saw.</p>\n                    <img src=\"bees-with-color/bee-B1SF.svg\" width=\"200\">\n                    <p><span class=\"greenText\"><b>Successful harvest!</b></span><br>Your pay has increased by $0.02. Your bonus pay is now $0.48.</p>\n            ","response":0,"trial_type":"html-button-response","trial_index":48,"time_elapsed":653238,"internal_node_id":"0.0-4.0-1.18","subject_id":"613ecc6237e3e4dd76a14605","study_id":"6197b3f67c2b5cd3b6d9596a","session_id":"619be58fbbc1af5d3a131951","condition":"contingent","relevant_dimensions":["antennae","wings"],"bee_group":{"antennae":"A","wings":"2","pattern":"X","legs":"X"},"bonus":0.04000000000000051},{"rt":1598.5,"stimulus":"bees-with-color/bee-B2SM.svg","response":1,"trial_type":"image-button-response","trial_index":49,"time_elapsed":654838,"internal_node_id":"0.0-4.0-0.19","subject_id":"613ecc6237e3e4dd76a14605","study_id":"6197b3f67c2b5cd3b6d9596a","session_id":"619be58fbbc1af5d3a131951","condition":"contingent","relevant_dimensions":["antennae","wings"],"bee_group":{"antennae":"A","wings":"2","pattern":"X","legs":"X"},"action":"avoid","summary":"bad-avoid","bonus":0.04000000000000051},{"rt":3132.5,"stimulus":"\n                    <p><b>Action: <em>avoid</em></b></p>\n                    <p>This is the bee that you just saw.</p>\n                    <img src=\"bees-with-color/bee-B2SM.svg\" width=\"200\">\n                    <p><br>Your bonus pay is unchanged, and remains at $0.48.</p>\n            ","response":0,"trial_type":"html-button-response","trial_index":50,"time_elapsed":657973,"internal_node_id":"0.0-4.0-1.19","subject_id":"613ecc6237e3e4dd76a14605","study_id":"6197b3f67c2b5cd3b6d9596a","session_id":"619be58fbbc1af5d3a131951","condition":"contingent","relevant_dimensions":["antennae","wings"],"bee_group":{"antennae":"A","wings":"2","pattern":"X","legs":"X"},"bonus":0.04000000000000051},{"rt":2766.600000000559,"stimulus":"bees-with-color/bee-B2DF.svg","response":0,"trial_type":"image-button-response","trial_index":51,"time_elapsed":660742,"internal_node_id":"0.0-4.0-0.20","subject_id":"613ecc6237e3e4dd76a14605","study_id":"6197b3f67c2b5cd3b6d9596a","session_id":"619be58fbbc1af5d3a131951","condition":"contingent","relevant_dimensions":["antennae","wings"],"bee_group":{"antennae":"A","wings":"2","pattern":"X","legs":"X"},"action":"harvest","summary":"good-harvest","bonus":0.04000000000000051},{"rt":1428.0999999996275,"stimulus":"\n                    <p><b>Action: <em>harvest</em></b></p>\n                    <p>This is the bee that you just saw.</p>\n                    <img src=\"bees-with-color/bee-B2DF.svg\" width=\"200\">\n                    <p><span class=\"greenText\"><b>Successful harvest!</b></span><br>Your pay has increased by $0.02. Your bonus pay is now $0.50.</p>\n            ","response":0,"trial_type":"html-button-response","trial_index":52,"time_elapsed":662173,"internal_node_id":"0.0-4.0-1.20","subject_id":"613ecc6237e3e4dd76a14605","study_id":"6197b3f67c2b5cd3b6d9596a","session_id":"619be58fbbc1af5d3a131951","condition":"contingent","relevant_dimensions":["antennae","wings"],"bee_group":{"antennae":"A","wings":"2","pattern":"X","legs":"X"},"bonus":0.04000000000000051},{"rt":2693,"stimulus":"bees-with-color/bee-A2SM.svg","response":1,"trial_type":"image-button-response","trial_index":53,"time_elapsed":664868,"internal_node_id":"0.0-4.0-0.21","subject_id":"613ecc6237e3e4dd76a14605","study_id":"6197b3f67c2b5cd3b6d9596a","session_id":"619be58fbbc1af5d3a131951","condition":"contingent","relevant_dimensions":["antennae","wings"],"bee_group":{"antennae":"A","wings":"2","pattern":"X","legs":"X"},"action":"avoid","summary":"good-avoid","bonus":0.04000000000000051},{"rt":949.1999999992549,"stimulus":"\n                    <p><b>Action: <em>avoid</em></b></p>\n                    <p>This is the bee that you just saw.</p>\n                    <img src=\"bees-with-color/bee-A2SM.svg\" width=\"200\">\n                    <p><br>Your bonus pay is unchanged, and remains at $0.50.</p>\n            ","response":0,"trial_type":"html-button-response","trial_index":54,"time_elapsed":665819,"internal_node_id":"0.0-4.0-1.21","subject_id":"613ecc6237e3e4dd76a14605","study_id":"6197b3f67c2b5cd3b6d9596a","session_id":"619be58fbbc1af5d3a131951","condition":"contingent","relevant_dimensions":["antennae","wings"],"bee_group":{"antennae":"A","wings":"2","pattern":"X","legs":"X"},"bonus":0.04000000000000051},{"rt":2691.7000000001863,"stimulus":"bees-with-color/bee-A2DM.svg","response":1,"trial_type":"image-button-response","trial_index":55,"time_elapsed":668513,"internal_node_id":"0.0-4.0-0.22","subject_id":"613ecc6237e3e4dd76a14605","study_id":"6197b3f67c2b5cd3b6d9596a","session_id":"619be58fbbc1af5d3a131951","condition":"contingent","relevant_dimensions":["antennae","wings"],"bee_group":{"antennae":"A","wings":"2","pattern":"X","legs":"X"},"action":"avoid","summary":"good-avoid","bonus":0.04000000000000051},{"rt":1104.199999999255,"stimulus":"\n                    <p><b>Action: <em>avoid</em></b></p>\n                    <p>This is the bee that you just saw.</p>\n                    <img src=\"bees-with-color/bee-A2DM.svg\" width=\"200\">\n                    <p><br>Your bonus pay is unchanged, and remains at $0.50.</p>\n            ","response":0,"trial_type":"html-button-response","trial_index":56,"time_elapsed":669619,"internal_node_id":"0.0-4.0-1.22","subject_id":"613ecc6237e3e4dd76a14605","study_id":"6197b3f67c2b5cd3b6d9596a","session_id":"619be58fbbc1af5d3a131951","condition":"contingent","relevant_dimensions":["antennae","wings"],"bee_group":{"antennae":"A","wings":"2","pattern":"X","legs":"X"},"bonus":0.04000000000000051},{"rt":2125.100000000559,"stimulus":"bees-with-color/bee-B2DM.svg","response":1,"trial_type":"image-button-response","trial_index":57,"time_elapsed":671747,"internal_node_id":"0.0-4.0-0.23","subject_id":"613ecc6237e3e4dd76a14605","study_id":"6197b3f67c2b5cd3b6d9596a","session_id":"619be58fbbc1af5d3a131951","condition":"contingent","relevant_dimensions":["antennae","wings"],"bee_group":{"antennae":"A","wings":"2","pattern":"X","legs":"X"},"action":"avoid","summary":"bad-avoid","bonus":0.04000000000000051},{"rt":1056.199999999255,"stimulus":"\n                    <p><b>Action: <em>avoid</em></b></p>\n                    <p>This is the bee that you just saw.</p>\n                    <img src=\"bees-with-color/bee-B2DM.svg\" width=\"200\">\n                    <p><br>Your bonus pay is unchanged, and remains at $0.50.</p>\n            ","response":0,"trial_type":"html-button-response","trial_index":58,"time_elapsed":672805,"internal_node_id":"0.0-4.0-1.23","subject_id":"613ecc6237e3e4dd76a14605","study_id":"6197b3f67c2b5cd3b6d9596a","session_id":"619be58fbbc1af5d3a131951","condition":"contingent","relevant_dimensions":["antennae","wings"],"bee_group":{"antennae":"A","wings":"2","pattern":"X","legs":"X"},"bonus":0.04000000000000051},{"rt":2331.899999999441,"stimulus":"bees-with-color/bee-A1DF.svg","response":1,"trial_type":"image-button-response","trial_index":59,"time_elapsed":675139,"internal_node_id":"0.0-4.0-0.24","subject_id":"613ecc6237e3e4dd76a14605","study_id":"6197b3f67c2b5cd3b6d9596a","session_id":"619be58fbbc1af5d3a131951","condition":"contingent","relevant_dimensions":["antennae","wings"],"bee_group":{"antennae":"A","wings":"2","pattern":"X","legs":"X"},"action":"avoid","summary":"bad-avoid","bonus":0.04000000000000051},{"rt":1054.2000000001863,"stimulus":"\n                    <p><b>Action: <em>avoid</em></b></p>\n                    <p>This is the bee that you just saw.</p>\n                    <img src=\"bees-with-color/bee-A1DF.svg\" width=\"200\">\n                    <p><br>Your bonus pay is unchanged, and remains at $0.50.</p>\n            ","response":0,"trial_type":"html-button-response","trial_index":60,"time_elapsed":676200,"internal_node_id":"0.0-4.0-1.24","subject_id":"613ecc6237e3e4dd76a14605","study_id":"6197b3f67c2b5cd3b6d9596a","session_id":"619be58fbbc1af5d3a131951","condition":"contingent","relevant_dimensions":["antennae","wings"],"bee_group":{"antennae":"A","wings":"2","pattern":"X","legs":"X"},"bonus":0.04000000000000051},{"rt":3305.2000000001863,"stimulus":"bees-with-color/bee-A1SF.svg","response":0,"trial_type":"image-button-response","trial_index":61,"time_elapsed":679507,"internal_node_id":"0.0-4.0-0.25","subject_id":"613ecc6237e3e4dd76a14605","study_id":"6197b3f67c2b5cd3b6d9596a","session_id":"619be58fbbc1af5d3a131951","condition":"contingent","relevant_dimensions":["antennae","wings"],"bee_group":{"antennae":"A","wings":"2","pattern":"X","legs":"X"},"action":"harvest","summary":"good-harvest","bonus":0.04000000000000051},{"rt":1352.7000000001863,"stimulus":"\n                    <p><b>Action: <em>harvest</em></b></p>\n                    <p>This is the bee that you just saw.</p>\n                    <img src=\"bees-with-color/bee-A1SF.svg\" width=\"200\">\n                    <p><span class=\"greenText\"><b>Successful harvest!</b></span><br>Your pay has increased by $0.02. Your bonus pay is now $0.52.</p>\n            ","response":0,"trial_type":"html-button-response","trial_index":62,"time_elapsed":680862,"internal_node_id":"0.0-4.0-1.25","subject_id":"613ecc6237e3e4dd76a14605","study_id":"6197b3f67c2b5cd3b6d9596a","session_id":"619be58fbbc1af5d3a131951","condition":"contingent","relevant_dimensions":["antennae","wings"],"bee_group":{"antennae":"A","wings":"2","pattern":"X","legs":"X"},"bonus":0.04000000000000051},{"rt":5083.700000000186,"stimulus":"bees-with-color/bee-A1SM.svg","response":0,"trial_type":"image-button-response","trial_index":63,"time_elapsed":685949,"internal_node_id":"0.0-4.0-0.26","subject_id":"613ecc6237e3e4dd76a14605","study_id":"6197b3f67c2b5cd3b6d9596a","session_id":"619be58fbbc1af5d3a131951","condition":"contingent","relevant_dimensions":["antennae","wings"],"bee_group":{"antennae":"A","wings":"2","pattern":"X","legs":"X"},"action":"harvest","summary":"good-harvest","bonus":0.04000000000000051},{"rt":4981.899999999441,"stimulus":"\n                    <p><b>Action: <em>harvest</em></b></p>\n                    <p>This is the bee that you just saw.</p>\n                    <img src=\"bees-with-color/bee-A1SM.svg\" width=\"200\">\n                    <p><span class=\"greenText\"><b>Successful harvest!</b></span><br>Your pay has increased by $0.02. Your bonus pay is now $0.54.</p>\n            ","response":0,"trial_type":"html-button-response","trial_index":64,"time_elapsed":690934,"internal_node_id":"0.0-4.0-1.26","subject_id":"613ecc6237e3e4dd76a14605","study_id":"6197b3f67c2b5cd3b6d9596a","session_id":"619be58fbbc1af5d3a131951","condition":"contingent","relevant_dimensions":["antennae","wings"],"bee_group":{"antennae":"A","wings":"2","pattern":"X","legs":"X"},"bonus":0.04000000000000051},{"rt":2901.2000000001863,"stimulus":"bees-with-color/bee-B1DF.svg","response":1,"trial_type":"image-button-response","trial_index":65,"time_elapsed":693837,"internal_node_id":"0.0-4.0-0.27","subject_id":"613ecc6237e3e4dd76a14605","study_id":"6197b3f67c2b5cd3b6d9596a","session_id":"619be58fbbc1af5d3a131951","condition":"contingent","relevant_dimensions":["antennae","wings"],"bee_group":{"antennae":"A","wings":"2","pattern":"X","legs":"X"},"action":"avoid","summary":"bad-avoid","bonus":0.04000000000000051},{"rt":981.2000000001863,"stimulus":"\n                    <p><b>Action: <em>avoid</em></b></p>\n                    <p>This is the bee that you just saw.</p>\n                    <img src=\"bees-with-color/bee-B1DF.svg\" width=\"200\">\n                    <p><br>Your bonus pay is unchanged, and remains at $0.54.</p>\n            ","response":0,"trial_type":"html-button-response","trial_index":66,"time_elapsed":694820,"internal_node_id":"0.0-4.0-1.27","subject_id":"613ecc6237e3e4dd76a14605","study_id":"6197b3f67c2b5cd3b6d9596a","session_id":"619be58fbbc1af5d3a131951","condition":"contingent","relevant_dimensions":["antennae","wings"],"bee_group":{"antennae":"A","wings":"2","pattern":"X","legs":"X"},"bonus":0.04000000000000051},{"rt":2823.100000000559,"stimulus":"bees-with-color/bee-A2SF.svg","response":1,"trial_type":"image-button-response","trial_index":67,"time_elapsed":697644,"internal_node_id":"0.0-4.0-0.28","subject_id":"613ecc6237e3e4dd76a14605","study_id":"6197b3f67c2b5cd3b6d9596a","session_id":"619be58fbbc1af5d3a131951","condition":"contingent","relevant_dimensions":["antennae","wings"],"bee_group":{"antennae":"A","wings":"2","pattern":"X","legs":"X"},"action":"avoid","summary":"good-avoid","bonus":0.04000000000000051},{"rt":1005.5999999996275,"stimulus":"\n                    <p><b>Action: <em>avoid</em></b></p>\n                    <p>This is the bee that you just saw.</p>\n                    <img src=\"bees-with-color/bee-A2SF.svg\" width=\"200\">\n                    <p><br>Your bonus pay is unchanged, and remains at $0.54.</p>\n            ","response":0,"trial_type":"html-button-response","trial_index":68,"time_elapsed":698651,"internal_node_id":"0.0-4.0-1.28","subject_id":"613ecc6237e3e4dd76a14605","study_id":"6197b3f67c2b5cd3b6d9596a","session_id":"619be58fbbc1af5d3a131951","condition":"contingent","relevant_dimensions":["antennae","wings"],"bee_group":{"antennae":"A","wings":"2","pattern":"X","legs":"X"},"bonus":0.04000000000000051},{"rt":2368.100000000559,"stimulus":"bees-with-color/bee-B1SM.svg","response":1,"trial_type":"image-button-response","trial_index":69,"time_elapsed":701022,"internal_node_id":"0.0-4.0-0.29","subject_id":"613ecc6237e3e4dd76a14605","study_id":"6197b3f67c2b5cd3b6d9596a","session_id":"619be58fbbc1af5d3a131951","condition":"contingent","relevant_dimensions":["antennae","wings"],"bee_group":{"antennae":"A","wings":"2","pattern":"X","legs":"X"},"action":"avoid","summary":"bad-avoid","bonus":0.04000000000000051},{"rt":1157.7000000001863,"stimulus":"\n                    <p><b>Action: <em>avoid</em></b></p>\n                    <p>This is the bee that you just saw.</p>\n                    <img src=\"bees-with-color/bee-B1SM.svg\" width=\"200\">\n                    <p><br>Your bonus pay is unchanged, and remains at $0.54.</p>\n            ","response":0,"trial_type":"html-button-response","trial_index":70,"time_elapsed":702182,"internal_node_id":"0.0-4.0-1.29","subject_id":"613ecc6237e3e4dd76a14605","study_id":"6197b3f67c2b5cd3b6d9596a","session_id":"619be58fbbc1af5d3a131951","condition":"contingent","relevant_dimensions":["antennae","wings"],"bee_group":{"antennae":"A","wings":"2","pattern":"X","legs":"X"},"bonus":0.04000000000000051},{"rt":2997.2000000001863,"stimulus":"bees-with-color/bee-A1DM.svg","response":1,"trial_type":"image-button-response","trial_index":71,"time_elapsed":705181,"internal_node_id":"0.0-4.0-0.30","subject_id":"613ecc6237e3e4dd76a14605","study_id":"6197b3f67c2b5cd3b6d9596a","session_id":"619be58fbbc1af5d3a131951","condition":"contingent","relevant_dimensions":["antennae","wings"],"bee_group":{"antennae":"A","wings":"2","pattern":"X","legs":"X"},"action":"avoid","summary":"bad-avoid","bonus":0.04000000000000051},{"rt":1428.3999999994412,"stimulus":"\n                    <p><b>Action: <em>avoid</em></b></p>\n                    <p>This is the bee that you just saw.</p>\n                    <img src=\"bees-with-color/bee-A1DM.svg\" width=\"200\">\n                    <p><br>Your bonus pay is unchanged, and remains at $0.54.</p>\n            ","response":0,"trial_type":"html-button-response","trial_index":72,"time_elapsed":706611,"internal_node_id":"0.0-4.0-1.30","subject_id":"613ecc6237e3e4dd76a14605","study_id":"6197b3f67c2b5cd3b6d9596a","session_id":"619be58fbbc1af5d3a131951","condition":"contingent","relevant_dimensions":["antennae","wings"],"bee_group":{"antennae":"A","wings":"2","pattern":"X","legs":"X"},"bonus":0.04000000000000051},{"rt":2219.800000000745,"stimulus":"bees-with-color/bee-A2DF.svg","response":0,"trial_type":"image-button-response","trial_index":73,"time_elapsed":708833,"internal_node_id":"0.0-4.0-0.31","subject_id":"613ecc6237e3e4dd76a14605","study_id":"6197b3f67c2b5cd3b6d9596a","session_id":"619be58fbbc1af5d3a131951","condition":"contingent","relevant_dimensions":["antennae","wings"],"bee_group":{"antennae":"A","wings":"2","pattern":"X","legs":"X"},"action":"harvest","summary":"bad-harvest","bonus":0.04000000000000051},{"rt":4337.200000000186,"stimulus":"\n                    <p><b>Action: <em>harvest</em></b></p>\n                    <p>This is the bee that you just saw.</p>\n                    <img src=\"bees-with-color/bee-A2DF.svg\" width=\"200\">\n                    <p><span class=\"redText\">Bad choice, the bee was angry.</span><br><b>You have been stung!</b><br>Your pay has been decreased by $0.10. Your bonus pay is now $0.44.</p>\n            ","response":0,"trial_type":"html-button-response","trial_index":74,"time_elapsed":713173,"internal_node_id":"0.0-4.0-1.31","subject_id":"613ecc6237e3e4dd76a14605","study_id":"6197b3f67c2b5cd3b6d9596a","session_id":"619be58fbbc1af5d3a131951","condition":"contingent","relevant_dimensions":["antennae","wings"],"bee_group":{"antennae":"A","wings":"2","pattern":"X","legs":"X"},"bonus":0.04000000000000051},{"rt":4100.5999999996275,"stimulus":"bees-with-color/bee-B1DM.svg","response":0,"trial_type":"image-button-response","trial_index":75,"time_elapsed":717276,"internal_node_id":"0.0-4.0-0.32","subject_id":"613ecc6237e3e4dd76a14605","study_id":"6197b3f67c2b5cd3b6d9596a","session_id":"619be58fbbc1af5d3a131951","condition":"contingent","relevant_dimensions":["antennae","wings"],"bee_group":{"antennae":"A","wings":"2","pattern":"X","legs":"X"},"action":"harvest","summary":"good-harvest","bonus":0.04000000000000051},{"rt":7738.4000000003725,"stimulus":"\n                    <p><b>Action: <em>harvest</em></b></p>\n                    <p>This is the bee that you just saw.</p>\n                    <img src=\"bees-with-color/bee-B1DM.svg\" width=\"200\">\n                    <p><span class=\"greenText\"><b>Successful harvest!</b></span><br>Your pay has increased by $0.02. Your bonus pay is now $0.46.</p>\n            ","response":0,"trial_type":"html-button-response","trial_index":76,"time_elapsed":725016,"internal_node_id":"0.0-4.0-1.32","subject_id":"613ecc6237e3e4dd76a14605","study_id":"6197b3f67c2b5cd3b6d9596a","session_id":"619be58fbbc1af5d3a131951","condition":"contingent","relevant_dimensions":["antennae","wings"],"bee_group":{"antennae":"A","wings":"2","pattern":"X","legs":"X"},"bonus":0.04000000000000051},{"rt":4181.5,"stimulus":"bees-with-color/bee-A2SM.svg","response":0,"trial_type":"image-button-response","trial_index":77,"time_elapsed":729202,"internal_node_id":"0.0-4.0-0.33","subject_id":"613ecc6237e3e4dd76a14605","study_id":"6197b3f67c2b5cd3b6d9596a","session_id":"619be58fbbc1af5d3a131951","condition":"contingent","relevant_dimensions":["antennae","wings"],"bee_group":{"antennae":"A","wings":"2","pattern":"X","legs":"X"},"action":"harvest","summary":"bad-harvest","bonus":0.04000000000000051},{"rt":1886.6000000005588,"stimulus":"\n                    <p><b>Action: <em>harvest</em></b></p>\n                    <p>This is the bee that you just saw.</p>\n                    <img src=\"bees-with-color/bee-A2SM.svg\" width=\"200\">\n                    <p><span class=\"redText\">Bad choice, the bee was angry.</span><br><b>You have been stung!</b><br>Your pay has been decreased by $0.10. Your bonus pay is now $0.36.</p>\n            ","response":0,"trial_type":"html-button-response","trial_index":78,"time_elapsed":731092,"internal_node_id":"0.0-4.0-1.33","subject_id":"613ecc6237e3e4dd76a14605","study_id":"6197b3f67c2b5cd3b6d9596a","session_id":"619be58fbbc1af5d3a131951","condition":"contingent","relevant_dimensions":["antennae","wings"],"bee_group":{"antennae":"A","wings":"2","pattern":"X","legs":"X"},"bonus":0.04000000000000051},{"rt":6721.5,"stimulus":"bees-with-color/bee-A1SM.svg","response":0,"trial_type":"image-button-response","trial_index":79,"time_elapsed":737816,"internal_node_id":"0.0-4.0-0.34","subject_id":"613ecc6237e3e4dd76a14605","study_id":"6197b3f67c2b5cd3b6d9596a","session_id":"619be58fbbc1af5d3a131951","condition":"contingent","relevant_dimensions":["antennae","wings"],"bee_group":{"antennae":"A","wings":"2","pattern":"X","legs":"X"},"action":"harvest","summary":"good-harvest","bonus":0.04000000000000051},{"rt":5563.5,"stimulus":"\n                    <p><b>Action: <em>harvest</em></b></p>\n                    <p>This is the bee that you just saw.</p>\n                    <img src=\"bees-with-color/bee-A1SM.svg\" width=\"200\">\n                    <p><span class=\"greenText\"><b>Successful harvest!</b></span><br>Your pay has increased by $0.02. Your bonus pay is now $0.38.</p>\n            ","response":0,"trial_type":"html-button-response","trial_index":80,"time_elapsed":743383,"internal_node_id":"0.0-4.0-1.34","subject_id":"613ecc6237e3e4dd76a14605","study_id":"6197b3f67c2b5cd3b6d9596a","session_id":"619be58fbbc1af5d3a131951","condition":"contingent","relevant_dimensions":["antennae","wings"],"bee_group":{"antennae":"A","wings":"2","pattern":"X","legs":"X"},"bonus":0.04000000000000051},{"rt":2232.4000000003725,"stimulus":"bees-with-color/bee-B2SM.svg","response":1,"trial_type":"image-button-response","trial_index":81,"time_elapsed":745620,"internal_node_id":"0.0-4.0-0.35","subject_id":"613ecc6237e3e4dd76a14605","study_id":"6197b3f67c2b5cd3b6d9596a","session_id":"619be58fbbc1af5d3a131951","condition":"contingent","relevant_dimensions":["antennae","wings"],"bee_group":{"antennae":"A","wings":"2","pattern":"X","legs":"X"},"action":"avoid","summary":"bad-avoid","bonus":0.04000000000000051},{"rt":1113.5999999996275,"stimulus":"\n                    <p><b>Action: <em>avoid</em></b></p>\n                    <p>This is the bee that you just saw.</p>\n                    <img src=\"bees-with-color/bee-B2SM.svg\" width=\"200\">\n                    <p><br>Your bonus pay is unchanged, and remains at $0.38.</p>\n            ","response":0,"trial_type":"html-button-response","trial_index":82,"time_elapsed":746735,"internal_node_id":"0.0-4.0-1.35","subject_id":"613ecc6237e3e4dd76a14605","study_id":"6197b3f67c2b5cd3b6d9596a","session_id":"619be58fbbc1af5d3a131951","condition":"contingent","relevant_dimensions":["antennae","wings"],"bee_group":{"antennae":"A","wings":"2","pattern":"X","legs":"X"},"bonus":0.04000000000000051},{"rt":2698.9000000003725,"stimulus":"bees-with-color/bee-B2DF.svg","response":0,"trial_type":"image-button-response","trial_index":83,"time_elapsed":749436,"internal_node_id":"0.0-4.0-0.36","subject_id":"613ecc6237e3e4dd76a14605","study_id":"6197b3f67c2b5cd3b6d9596a","session_id":"619be58fbbc1af5d3a131951","condition":"contingent","relevant_dimensions":["antennae","wings"],"bee_group":{"antennae":"A","wings":"2","pattern":"X","legs":"X"},"action":"harvest","summary":"good-harvest","bonus":0.04000000000000051},{"rt":1343.800000000745,"stimulus":"\n                    <p><b>Action: <em>harvest</em></b></p>\n                    <p>This is the bee that you just saw.</p>\n                    <img src=\"bees-with-color/bee-B2DF.svg\" width=\"200\">\n                    <p><span class=\"greenText\"><b>Successful harvest!</b></span><br>Your pay has increased by $0.02. Your bonus pay is now $0.40.</p>\n            ","response":0,"trial_type":"html-button-response","trial_index":84,"time_elapsed":750783,"internal_node_id":"0.0-4.0-1.36","subject_id":"613ecc6237e3e4dd76a14605","study_id":"6197b3f67c2b5cd3b6d9596a","session_id":"619be58fbbc1af5d3a131951","condition":"contingent","relevant_dimensions":["antennae","wings"],"bee_group":{"antennae":"A","wings":"2","pattern":"X","legs":"X"},"bonus":0.04000000000000051},{"rt":1644.300000000745,"stimulus":"bees-with-color/bee-B1SF.svg","response":0,"trial_type":"image-button-response","trial_index":85,"time_elapsed":752429,"internal_node_id":"0.0-4.0-0.37","subject_id":"613ecc6237e3e4dd76a14605","study_id":"6197b3f67c2b5cd3b6d9596a","session_id":"619be58fbbc1af5d3a131951","condition":"contingent","relevant_dimensions":["antennae","wings"],"bee_group":{"antennae":"A","wings":"2","pattern":"X","legs":"X"},"action":"harvest","summary":"good-harvest","bonus":0.04000000000000051},{"rt":1141,"stimulus":"\n                    <p><b>Action: <em>harvest</em></b></p>\n                    <p>This is the bee that you just saw.</p>\n                    <img src=\"bees-with-color/bee-B1SF.svg\" width=\"200\">\n                    <p><span class=\"greenText\"><b>Successful harvest!</b></span><br>Your pay has increased by $0.02. Your bonus pay is now $0.42.</p>\n            ","response":0,"trial_type":"html-button-response","trial_index":86,"time_elapsed":753572,"internal_node_id":"0.0-4.0-1.37","subject_id":"613ecc6237e3e4dd76a14605","study_id":"6197b3f67c2b5cd3b6d9596a","session_id":"619be58fbbc1af5d3a131951","condition":"contingent","relevant_dimensions":["antennae","wings"],"bee_group":{"antennae":"A","wings":"2","pattern":"X","legs":"X"},"bonus":0.04000000000000051},{"rt":2023.7999999998137,"stimulus":"bees-with-color/bee-A2DM.svg","response":0,"trial_type":"image-button-response","trial_index":87,"time_elapsed":755598,"internal_node_id":"0.0-4.0-0.38","subject_id":"613ecc6237e3e4dd76a14605","study_id":"6197b3f67c2b5cd3b6d9596a","session_id":"619be58fbbc1af5d3a131951","condition":"contingent","relevant_dimensions":["antennae","wings"],"bee_group":{"antennae":"A","wings":"2","pattern":"X","legs":"X"},"action":"harvest","summary":"bad-harvest","bonus":0.04000000000000051},{"rt":1477.5,"stimulus":"\n                    <p><b>Action: <em>harvest</em></b></p>\n                    <p>This is the bee that you just saw.</p>\n                    <img src=\"bees-with-color/bee-A2DM.svg\" width=\"200\">\n                    <p><span class=\"redText\">Bad choice, the bee was angry.</span><br><b>You have been stung!</b><br>Your pay has been decreased by $0.10. Your bonus pay is now $0.32.</p>\n            ","response":0,"trial_type":"html-button-response","trial_index":88,"time_elapsed":757077,"internal_node_id":"0.0-4.0-1.38","subject_id":"613ecc6237e3e4dd76a14605","study_id":"6197b3f67c2b5cd3b6d9596a","session_id":"619be58fbbc1af5d3a131951","condition":"contingent","relevant_dimensions":["antennae","wings"],"bee_group":{"antennae":"A","wings":"2","pattern":"X","legs":"X"},"bonus":0.04000000000000051},{"rt":1704.4000000003725,"stimulus":"bees-with-color/bee-B1DF.svg","response":0,"trial_type":"image-button-response","trial_index":89,"time_elapsed":758784,"internal_node_id":"0.0-4.0-0.39","subject_id":"613ecc6237e3e4dd76a14605","study_id":"6197b3f67c2b5cd3b6d9596a","session_id":"619be58fbbc1af5d3a131951","condition":"contingent","relevant_dimensions":["antennae","wings"],"bee_group":{"antennae":"A","wings":"2","pattern":"X","legs":"X"},"action":"harvest","summary":"good-harvest","bonus":0.04000000000000051},{"rt":1307.3999999994412,"stimulus":"\n                    <p><b>Action: <em>harvest</em></b></p>\n                    <p>This is the bee that you just saw.</p>\n                    <img src=\"bees-with-color/bee-B1DF.svg\" width=\"200\">\n                    <p><span class=\"greenText\"><b>Successful harvest!</b></span><br>Your pay has increased by $0.02. Your bonus pay is now $0.34.</p>\n            ","response":0,"trial_type":"html-button-response","trial_index":90,"time_elapsed":760094,"internal_node_id":"0.0-4.0-1.39","subject_id":"613ecc6237e3e4dd76a14605","study_id":"6197b3f67c2b5cd3b6d9596a","session_id":"619be58fbbc1af5d3a131951","condition":"contingent","relevant_dimensions":["antennae","wings"],"bee_group":{"antennae":"A","wings":"2","pattern":"X","legs":"X"},"bonus":0.04000000000000051},{"rt":5373.899999999441,"stimulus":"bees-with-color/bee-B2SF.svg","response":1,"trial_type":"image-button-response","trial_index":91,"time_elapsed":765470,"internal_node_id":"0.0-4.0-0.40","subject_id":"613ecc6237e3e4dd76a14605","study_id":"6197b3f67c2b5cd3b6d9596a","session_id":"619be58fbbc1af5d3a131951","condition":"contingent","relevant_dimensions":["antennae","wings"],"bee_group":{"antennae":"A","wings":"2","pattern":"X","legs":"X"},"action":"avoid","summary":"bad-avoid","bonus":0.04000000000000051},{"rt":1479.0999999996275,"stimulus":"\n                    <p><b>Action: <em>avoid</em></b></p>\n                    <p>This is the bee that you just saw.</p>\n                    <img src=\"bees-with-color/bee-B2SF.svg\" width=\"200\">\n                    <p><br>Your bonus pay is unchanged, and remains at $0.34.</p>\n            ","response":0,"trial_type":"html-button-response","trial_index":92,"time_elapsed":766951,"internal_node_id":"0.0-4.0-1.40","subject_id":"613ecc6237e3e4dd76a14605","study_id":"6197b3f67c2b5cd3b6d9596a","session_id":"619be58fbbc1af5d3a131951","condition":"contingent","relevant_dimensions":["antennae","wings"],"bee_group":{"antennae":"A","wings":"2","pattern":"X","legs":"X"},"bonus":0.04000000000000051},{"rt":7466.800000000745,"stimulus":"bees-with-color/bee-A2SF.svg","response":1,"trial_type":"image-button-response","trial_index":93,"time_elapsed":774420,"internal_node_id":"0.0-4.0-0.41","subject_id":"613ecc6237e3e4dd76a14605","study_id":"6197b3f67c2b5cd3b6d9596a","session_id":"619be58fbbc1af5d3a131951","condition":"contingent","relevant_dimensions":["antennae","wings"],"bee_group":{"antennae":"A","wings":"2","pattern":"X","legs":"X"},"action":"avoid","summary":"good-avoid","bonus":0.04000000000000051},{"rt":1058,"stimulus":"\n                    <p><b>Action: <em>avoid</em></b></p>\n                    <p>This is the bee that you just saw.</p>\n                    <img src=\"bees-with-color/bee-A2SF.svg\" width=\"200\">\n                    <p><br>Your bonus pay is unchanged, and remains at $0.34.</p>\n            ","response":0,"trial_type":"html-button-response","trial_index":94,"time_elapsed":775479,"internal_node_id":"0.0-4.0-1.41","subject_id":"613ecc6237e3e4dd76a14605","study_id":"6197b3f67c2b5cd3b6d9596a","session_id":"619be58fbbc1af5d3a131951","condition":"contingent","relevant_dimensions":["antennae","wings"],"bee_group":{"antennae":"A","wings":"2","pattern":"X","legs":"X"},"bonus":0.04000000000000051},{"rt":1747.800000000745,"stimulus":"bees-with-color/bee-A1SF.svg","response":0,"trial_type":"image-button-response","trial_index":95,"time_elapsed":777229,"internal_node_id":"0.0-4.0-0.42","subject_id":"613ecc6237e3e4dd76a14605","study_id":"6197b3f67c2b5cd3b6d9596a","session_id":"619be58fbbc1af5d3a131951","condition":"contingent","relevant_dimensions":["antennae","wings"],"bee_group":{"antennae":"A","wings":"2","pattern":"X","legs":"X"},"action":"harvest","summary":"good-harvest","bonus":0.04000000000000051},{"rt":980.4000000003725,"stimulus":"\n                    <p><b>Action: <em>harvest</em></b></p>\n                    <p>This is the bee that you just saw.</p>\n                    <img src=\"bees-with-color/bee-A1SF.svg\" width=\"200\">\n                    <p><span class=\"greenText\"><b>Successful harvest!</b></span><br>Your pay has increased by $0.02. Your bonus pay is now $0.36.</p>\n            ","response":0,"trial_type":"html-button-response","trial_index":96,"time_elapsed":778212,"internal_node_id":"0.0-4.0-1.42","subject_id":"613ecc6237e3e4dd76a14605","study_id":"6197b3f67c2b5cd3b6d9596a","session_id":"619be58fbbc1af5d3a131951","condition":"contingent","relevant_dimensions":["antennae","wings"],"bee_group":{"antennae":"A","wings":"2","pattern":"X","legs":"X"},"bonus":0.04000000000000051},{"rt":2903.699999999255,"stimulus":"bees-with-color/bee-B2DM.svg","response":0,"trial_type":"image-button-response","trial_index":97,"time_elapsed":781118,"internal_node_id":"0.0-4.0-0.43","subject_id":"613ecc6237e3e4dd76a14605","study_id":"6197b3f67c2b5cd3b6d9596a","session_id":"619be58fbbc1af5d3a131951","condition":"contingent","relevant_dimensions":["antennae","wings"],"bee_group":{"antennae":"A","wings":"2","pattern":"X","legs":"X"},"action":"harvest","summary":"good-harvest","bonus":0.04000000000000051},{"rt":1021,"stimulus":"\n                    <p><b>Action: <em>harvest</em></b></p>\n                    <p>This is the bee that you just saw.</p>\n                    <img src=\"bees-with-color/bee-B2DM.svg\" width=\"200\">\n                    <p><span class=\"greenText\"><b>Successful harvest!</b></span><br>Your pay has increased by $0.02. Your bonus pay is now $0.38.</p>\n            ","response":0,"trial_type":"html-button-response","trial_index":98,"time_elapsed":782141,"internal_node_id":"0.0-4.0-1.43","subject_id":"613ecc6237e3e4dd76a14605","study_id":"6197b3f67c2b5cd3b6d9596a","session_id":"619be58fbbc1af5d3a131951","condition":"contingent","relevant_dimensions":["antennae","wings"],"bee_group":{"antennae":"A","wings":"2","pattern":"X","legs":"X"},"bonus":0.04000000000000051},{"rt":5096,"stimulus":"bees-with-color/bee-A2DF.svg","response":0,"trial_type":"image-button-response","trial_index":99,"time_elapsed":787239,"internal_node_id":"0.0-4.0-0.44","subject_id":"613ecc6237e3e4dd76a14605","study_id":"6197b3f67c2b5cd3b6d9596a","session_id":"619be58fbbc1af5d3a131951","condition":"contingent","relevant_dimensions":["antennae","wings"],"bee_group":{"antennae":"A","wings":"2","pattern":"X","legs":"X"},"action":"harvest","summary":"bad-harvest","bonus":0.04000000000000051},{"rt":1388.5,"stimulus":"\n                    <p><b>Action: <em>harvest</em></b></p>\n                    <p>This is the bee that you just saw.</p>\n                    <img src=\"bees-with-color/bee-A2DF.svg\" width=\"200\">\n                    <p><span class=\"redText\">Bad choice, the bee was angry.</span><br><b>You have been stung!</b><br>Your pay has been decreased by $0.10. Your bonus pay is now $0.28.</p>\n            ","response":0,"trial_type":"html-button-response","trial_index":100,"time_elapsed":788631,"internal_node_id":"0.0-4.0-1.44","subject_id":"613ecc6237e3e4dd76a14605","study_id":"6197b3f67c2b5cd3b6d9596a","session_id":"619be58fbbc1af5d3a131951","condition":"contingent","relevant_dimensions":["antennae","wings"],"bee_group":{"antennae":"A","wings":"2","pattern":"X","legs":"X"},"bonus":0.04000000000000051},{"rt":1658.2999999998137,"stimulus":"bees-with-color/bee-A1DF.svg","response":0,"trial_type":"image-button-response","trial_index":101,"time_elapsed":790292,"internal_node_id":"0.0-4.0-0.45","subject_id":"613ecc6237e3e4dd76a14605","study_id":"6197b3f67c2b5cd3b6d9596a","session_id":"619be58fbbc1af5d3a131951","condition":"contingent","relevant_dimensions":["antennae","wings"],"bee_group":{"antennae":"A","wings":"2","pattern":"X","legs":"X"},"action":"harvest","summary":"good-harvest","bonus":0.04000000000000051},{"rt":1347.8999999994412,"stimulus":"\n                    <p><b>Action: <em>harvest</em></b></p>\n                    <p>This is the bee that you just saw.</p>\n                    <img src=\"bees-with-color/bee-A1DF.svg\" width=\"200\">\n                    <p><span class=\"greenText\"><b>Successful harvest!</b></span><br>Your pay has increased by $0.02. Your bonus pay is now $0.30.</p>\n            ","response":0,"trial_type":"html-button-response","trial_index":102,"time_elapsed":791642,"internal_node_id":"0.0-4.0-1.45","subject_id":"613ecc6237e3e4dd76a14605","study_id":"6197b3f67c2b5cd3b6d9596a","session_id":"619be58fbbc1af5d3a131951","condition":"contingent","relevant_dimensions":["antennae","wings"],"bee_group":{"antennae":"A","wings":"2","pattern":"X","legs":"X"},"bonus":0.04000000000000051},{"rt":4486,"stimulus":"bees-with-color/bee-A1DM.svg","response":1,"trial_type":"image-button-response","trial_index":103,"time_elapsed":796132,"internal_node_id":"0.0-4.0-0.46","subject_id":"613ecc6237e3e4dd76a14605","study_id":"6197b3f67c2b5cd3b6d9596a","session_id":"619be58fbbc1af5d3a131951","condition":"contingent","relevant_dimensions":["antennae","wings"],"bee_group":{"antennae":"A","wings":"2","pattern":"X","legs":"X"},"action":"avoid","summary":"bad-avoid","bonus":0.04000000000000051},{"rt":2999.0999999996275,"stimulus":"\n                    <p><b>Action: <em>avoid</em></b></p>\n                    <p>This is the bee that you just saw.</p>\n                    <img src=\"bees-with-color/bee-A1DM.svg\" width=\"200\">\n                    <p><br>Your bonus pay is unchanged, and remains at $0.30.</p>\n            ","response":0,"trial_type":"html-button-response","trial_index":104,"time_elapsed":799136,"internal_node_id":"0.0-4.0-1.46","subject_id":"613ecc6237e3e4dd76a14605","study_id":"6197b3f67c2b5cd3b6d9596a","session_id":"619be58fbbc1af5d3a131951","condition":"contingent","relevant_dimensions":["antennae","wings"],"bee_group":{"antennae":"A","wings":"2","pattern":"X","legs":"X"},"bonus":0.04000000000000051},{"rt":3102.899999999441,"stimulus":"bees-with-color/bee-B1SM.svg","response":1,"trial_type":"image-button-response","trial_index":105,"time_elapsed":802241,"internal_node_id":"0.0-4.0-0.47","subject_id":"613ecc6237e3e4dd76a14605","study_id":"6197b3f67c2b5cd3b6d9596a","session_id":"619be58fbbc1af5d3a131951","condition":"contingent","relevant_dimensions":["antennae","wings"],"bee_group":{"antennae":"A","wings":"2","pattern":"X","legs":"X"},"action":"avoid","summary":"bad-avoid","bonus":0.04000000000000051},{"rt":909,"stimulus":"\n                    <p><b>Action: <em>avoid</em></b></p>\n                    <p>This is the bee that you just saw.</p>\n                    <img src=\"bees-with-color/bee-B1SM.svg\" width=\"200\">\n                    <p><br>Your bonus pay is unchanged, and remains at $0.30.</p>\n            ","response":0,"trial_type":"html-button-response","trial_index":106,"time_elapsed":803153,"internal_node_id":"0.0-4.0-1.47","subject_id":"613ecc6237e3e4dd76a14605","study_id":"6197b3f67c2b5cd3b6d9596a","session_id":"619be58fbbc1af5d3a131951","condition":"contingent","relevant_dimensions":["antennae","wings"],"bee_group":{"antennae":"A","wings":"2","pattern":"X","legs":"X"},"bonus":0.04000000000000051},{"rt":5382.799999999814,"stimulus":"bees-with-color/bee-A2DM.svg","response":1,"trial_type":"image-button-response","trial_index":107,"time_elapsed":808538,"internal_node_id":"0.0-4.0-0.48","subject_id":"613ecc6237e3e4dd76a14605","study_id":"6197b3f67c2b5cd3b6d9596a","session_id":"619be58fbbc1af5d3a131951","condition":"contingent","relevant_dimensions":["antennae","wings"],"bee_group":{"antennae":"A","wings":"2","pattern":"X","legs":"X"},"action":"avoid","summary":"good-avoid","bonus":0.04000000000000051},{"rt":1036.7000000001863,"stimulus":"\n                    <p><b>Action: <em>avoid</em></b></p>\n                    <p>This is the bee that you just saw.</p>\n                    <img src=\"bees-with-color/bee-A2DM.svg\" width=\"200\">\n                    <p><br>Your bonus pay is unchanged, and remains at $0.30.</p>\n            ","response":0,"trial_type":"html-button-response","trial_index":108,"time_elapsed":809576,"internal_node_id":"0.0-4.0-1.48","subject_id":"613ecc6237e3e4dd76a14605","study_id":"6197b3f67c2b5cd3b6d9596a","session_id":"619be58fbbc1af5d3a131951","condition":"contingent","relevant_dimensions":["antennae","wings"],"bee_group":{"antennae":"A","wings":"2","pattern":"X","legs":"X"},"bonus":0.04000000000000051},{"rt":1694,"stimulus":"bees-with-color/bee-A1SM.svg","response":1,"trial_type":"image-button-response","trial_index":109,"time_elapsed":811272,"internal_node_id":"0.0-4.0-0.49","subject_id":"613ecc6237e3e4dd76a14605","study_id":"6197b3f67c2b5cd3b6d9596a","session_id":"619be58fbbc1af5d3a131951","condition":"contingent","relevant_dimensions":["antennae","wings"],"bee_group":{"antennae":"A","wings":"2","pattern":"X","legs":"X"},"action":"avoid","summary":"bad-avoid","bonus":0.04000000000000051},{"rt":956.2000000001863,"stimulus":"\n                    <p><b>Action: <em>avoid</em></b></p>\n                    <p>This is the bee that you just saw.</p>\n                    <img src=\"bees-with-color/bee-A1SM.svg\" width=\"200\">\n                    <p><br>Your bonus pay is unchanged, and remains at $0.30.</p>\n            ","response":0,"trial_type":"html-button-response","trial_index":110,"time_elapsed":812230,"internal_node_id":"0.0-4.0-1.49","subject_id":"613ecc6237e3e4dd76a14605","study_id":"6197b3f67c2b5cd3b6d9596a","session_id":"619be58fbbc1af5d3a131951","condition":"contingent","relevant_dimensions":["antennae","wings"],"bee_group":{"antennae":"A","wings":"2","pattern":"X","legs":"X"},"bonus":0.04000000000000051},{"rt":3843.4000000003725,"stimulus":"bees-with-color/bee-A1DF.svg","response":0,"trial_type":"image-button-response","trial_index":111,"time_elapsed":816075,"internal_node_id":"0.0-4.0-0.50","subject_id":"613ecc6237e3e4dd76a14605","study_id":"6197b3f67c2b5cd3b6d9596a","session_id":"619be58fbbc1af5d3a131951","condition":"contingent","relevant_dimensions":["antennae","wings"],"bee_group":{"antennae":"A","wings":"2","pattern":"X","legs":"X"},"action":"harvest","summary":"good-harvest","bonus":0.04000000000000051},{"rt":1519.2000000001863,"stimulus":"\n                    <p><b>Action: <em>harvest</em></b></p>\n                    <p>This is the bee that you just saw.</p>\n                    <img src=\"bees-with-color/bee-A1DF.svg\" width=\"200\">\n                    <p><span class=\"greenText\"><b>Successful harvest!</b></span><br>Your pay has increased by $0.02. Your bonus pay is now $0.32.</p>\n            ","response":0,"trial_type":"html-button-response","trial_index":112,"time_elapsed":817596,"internal_node_id":"0.0-4.0-1.50","subject_id":"613ecc6237e3e4dd76a14605","study_id":"6197b3f67c2b5cd3b6d9596a","session_id":"619be58fbbc1af5d3a131951","condition":"contingent","relevant_dimensions":["antennae","wings"],"bee_group":{"antennae":"A","wings":"2","pattern":"X","legs":"X"},"bonus":0.04000000000000051},{"rt":2838.0999999996275,"stimulus":"bees-with-color/bee-B2DM.svg","response":1,"trial_type":"image-button-response","trial_index":113,"time_elapsed":820436,"internal_node_id":"0.0-4.0-0.51","subject_id":"613ecc6237e3e4dd76a14605","study_id":"6197b3f67c2b5cd3b6d9596a","session_id":"619be58fbbc1af5d3a131951","condition":"contingent","relevant_dimensions":["antennae","wings"],"bee_group":{"antennae":"A","wings":"2","pattern":"X","legs":"X"},"action":"avoid","summary":"bad-avoid","bonus":0.04000000000000051},{"rt":1068.7000000001863,"stimulus":"\n                    <p><b>Action: <em>avoid</em></b></p>\n                    <p>This is the bee that you just saw.</p>\n                    <img src=\"bees-with-color/bee-B2DM.svg\" width=\"200\">\n                    <p><br>Your bonus pay is unchanged, and remains at $0.32.</p>\n            ","response":0,"trial_type":"html-button-response","trial_index":114,"time_elapsed":821507,"internal_node_id":"0.0-4.0-1.51","subject_id":"613ecc6237e3e4dd76a14605","study_id":"6197b3f67c2b5cd3b6d9596a","session_id":"619be58fbbc1af5d3a131951","condition":"contingent","relevant_dimensions":["antennae","wings"],"bee_group":{"antennae":"A","wings":"2","pattern":"X","legs":"X"},"bonus":0.04000000000000051},{"rt":1844.7999999998137,"stimulus":"bees-with-color/bee-A2DF.svg","response":0,"trial_type":"image-button-response","trial_index":115,"time_elapsed":823353,"internal_node_id":"0.0-4.0-0.52","subject_id":"613ecc6237e3e4dd76a14605","study_id":"6197b3f67c2b5cd3b6d9596a","session_id":"619be58fbbc1af5d3a131951","condition":"contingent","relevant_dimensions":["antennae","wings"],"bee_group":{"antennae":"A","wings":"2","pattern":"X","legs":"X"},"action":"harvest","summary":"bad-harvest","bonus":0.04000000000000051},{"rt":1272.2000000001863,"stimulus":"\n                    <p><b>Action: <em>harvest</em></b></p>\n                    <p>This is the bee that you just saw.</p>\n                    <img src=\"bees-with-color/bee-A2DF.svg\" width=\"200\">\n                    <p><span class=\"redText\">Bad choice, the bee was angry.</span><br><b>You have been stung!</b><br>Your pay has been decreased by $0.10. Your bonus pay is now $0.22.</p>\n            ","response":0,"trial_type":"html-button-response","trial_index":116,"time_elapsed":824628,"internal_node_id":"0.0-4.0-1.52","subject_id":"613ecc6237e3e4dd76a14605","study_id":"6197b3f67c2b5cd3b6d9596a","session_id":"619be58fbbc1af5d3a131951","condition":"contingent","relevant_dimensions":["antennae","wings"],"bee_group":{"antennae":"A","wings":"2","pattern":"X","legs":"X"},"bonus":0.04000000000000051},{"rt":1306.699999999255,"stimulus":"bees-with-color/bee-A1DM.svg","response":1,"trial_type":"image-button-response","trial_index":117,"time_elapsed":825937,"internal_node_id":"0.0-4.0-0.53","subject_id":"613ecc6237e3e4dd76a14605","study_id":"6197b3f67c2b5cd3b6d9596a","session_id":"619be58fbbc1af5d3a131951","condition":"contingent","relevant_dimensions":["antennae","wings"],"bee_group":{"antennae":"A","wings":"2","pattern":"X","legs":"X"},"action":"avoid","summary":"bad-avoid","bonus":0.04000000000000051},{"rt":1732.5,"stimulus":"\n                    <p><b>Action: <em>avoid</em></b></p>\n                    <p>This is the bee that you just saw.</p>\n                    <img src=\"bees-with-color/bee-A1DM.svg\" width=\"200\">\n                    <p><br>Your bonus pay is unchanged, and remains at $0.22.</p>\n            ","response":0,"trial_type":"html-button-response","trial_index":118,"time_elapsed":827672,"internal_node_id":"0.0-4.0-1.53","subject_id":"613ecc6237e3e4dd76a14605","study_id":"6197b3f67c2b5cd3b6d9596a","session_id":"619be58fbbc1af5d3a131951","condition":"contingent","relevant_dimensions":["antennae","wings"],"bee_group":{"antennae":"A","wings":"2","pattern":"X","legs":"X"},"bonus":0.04000000000000051},{"rt":1433.300000000745,"stimulus":"bees-with-color/bee-A1SF.svg","response":0,"trial_type":"image-button-response","trial_index":119,"time_elapsed":829108,"internal_node_id":"0.0-4.0-0.54","subject_id":"613ecc6237e3e4dd76a14605","study_id":"6197b3f67c2b5cd3b6d9596a","session_id":"619be58fbbc1af5d3a131951","condition":"contingent","relevant_dimensions":["antennae","wings"],"bee_group":{"antennae":"A","wings":"2","pattern":"X","legs":"X"},"action":"harvest","summary":"good-harvest","bonus":0.04000000000000051},{"rt":1147.2000000001863,"stimulus":"\n                    <p><b>Action: <em>harvest</em></b></p>\n                    <p>This is the bee that you just saw.</p>\n                    <img src=\"bees-with-color/bee-A1SF.svg\" width=\"200\">\n                    <p><span class=\"greenText\"><b>Successful harvest!</b></span><br>Your pay has increased by $0.02. Your bonus pay is now $0.24.</p>\n            ","response":0,"trial_type":"html-button-response","trial_index":120,"time_elapsed":830257,"internal_node_id":"0.0-4.0-1.54","subject_id":"613ecc6237e3e4dd76a14605","study_id":"6197b3f67c2b5cd3b6d9596a","session_id":"619be58fbbc1af5d3a131951","condition":"contingent","relevant_dimensions":["antennae","wings"],"bee_group":{"antennae":"A","wings":"2","pattern":"X","legs":"X"},"bonus":0.04000000000000051},{"rt":2077,"stimulus":"bees-with-color/bee-B1SF.svg","response":0,"trial_type":"image-button-response","trial_index":121,"time_elapsed":832336,"internal_node_id":"0.0-4.0-0.55","subject_id":"613ecc6237e3e4dd76a14605","study_id":"6197b3f67c2b5cd3b6d9596a","session_id":"619be58fbbc1af5d3a131951","condition":"contingent","relevant_dimensions":["antennae","wings"],"bee_group":{"antennae":"A","wings":"2","pattern":"X","legs":"X"},"action":"harvest","summary":"good-harvest","bonus":0.04000000000000051},{"rt":1183.2999999998137,"stimulus":"\n                    <p><b>Action: <em>harvest</em></b></p>\n                    <p>This is the bee that you just saw.</p>\n                    <img src=\"bees-with-color/bee-B1SF.svg\" width=\"200\">\n                    <p><span class=\"greenText\"><b>Successful harvest!</b></span><br>Your pay has increased by $0.02. Your bonus pay is now $0.26.</p>\n            ","response":0,"trial_type":"html-button-response","trial_index":122,"time_elapsed":833522,"internal_node_id":"0.0-4.0-1.55","subject_id":"613ecc6237e3e4dd76a14605","study_id":"6197b3f67c2b5cd3b6d9596a","session_id":"619be58fbbc1af5d3a131951","condition":"contingent","relevant_dimensions":["antennae","wings"],"bee_group":{"antennae":"A","wings":"2","pattern":"X","legs":"X"},"bonus":0.04000000000000051},{"rt":1444.2999999998137,"stimulus":"bees-with-color/bee-B1DF.svg","response":1,"trial_type":"image-button-response","trial_index":123,"time_elapsed":834968,"internal_node_id":"0.0-4.0-0.56","subject_id":"613ecc6237e3e4dd76a14605","study_id":"6197b3f67c2b5cd3b6d9596a","session_id":"619be58fbbc1af5d3a131951","condition":"contingent","relevant_dimensions":["antennae","wings"],"bee_group":{"antennae":"A","wings":"2","pattern":"X","legs":"X"},"action":"avoid","summary":"bad-avoid","bonus":0.04000000000000051},{"rt":2036.800000000745,"stimulus":"\n                    <p><b>Action: <em>avoid</em></b></p>\n                    <p>This is the bee that you just saw.</p>\n                    <img src=\"bees-with-color/bee-B1DF.svg\" width=\"200\">\n                    <p><br>Your bonus pay is unchanged, and remains at $0.26.</p>\n            ","response":0,"trial_type":"html-button-response","trial_index":124,"time_elapsed":837007,"internal_node_id":"0.0-4.0-1.56","subject_id":"613ecc6237e3e4dd76a14605","study_id":"6197b3f67c2b5cd3b6d9596a","session_id":"619be58fbbc1af5d3a131951","condition":"contingent","relevant_dimensions":["antennae","wings"],"bee_group":{"antennae":"A","wings":"2","pattern":"X","legs":"X"},"bonus":0.04000000000000051},{"rt":1112.800000000745,"stimulus":"bees-with-color/bee-B2DF.svg","response":1,"trial_type":"image-button-response","trial_index":125,"time_elapsed":838121,"internal_node_id":"0.0-4.0-0.57","subject_id":"613ecc6237e3e4dd76a14605","study_id":"6197b3f67c2b5cd3b6d9596a","session_id":"619be58fbbc1af5d3a131951","condition":"contingent","relevant_dimensions":["antennae","wings"],"bee_group":{"antennae":"A","wings":"2","pattern":"X","legs":"X"},"action":"avoid","summary":"bad-avoid","bonus":0.04000000000000051},{"rt":957.1000000005588,"stimulus":"\n                    <p><b>Action: <em>avoid</em></b></p>\n                    <p>This is the bee that you just saw.</p>\n                    <img src=\"bees-with-color/bee-B2DF.svg\" width=\"200\">\n                    <p><br>Your bonus pay is unchanged, and remains at $0.26.</p>\n            ","response":0,"trial_type":"html-button-response","trial_index":126,"time_elapsed":839081,"internal_node_id":"0.0-4.0-1.57","subject_id":"613ecc6237e3e4dd76a14605","study_id":"6197b3f67c2b5cd3b6d9596a","session_id":"619be58fbbc1af5d3a131951","condition":"contingent","relevant_dimensions":["antennae","wings"],"bee_group":{"antennae":"A","wings":"2","pattern":"X","legs":"X"},"bonus":0.04000000000000051},{"rt":1899.699999999255,"stimulus":"bees-with-color/bee-B1DM.svg","response":1,"trial_type":"image-button-response","trial_index":127,"time_elapsed":840982,"internal_node_id":"0.0-4.0-0.58","subject_id":"613ecc6237e3e4dd76a14605","study_id":"6197b3f67c2b5cd3b6d9596a","session_id":"619be58fbbc1af5d3a131951","condition":"contingent","relevant_dimensions":["antennae","wings"],"bee_group":{"antennae":"A","wings":"2","pattern":"X","legs":"X"},"action":"avoid","summary":"bad-avoid","bonus":0.04000000000000051},{"rt":1000.8000000007451,"stimulus":"\n                    <p><b>Action: <em>avoid</em></b></p>\n                    <p>This is the bee that you just saw.</p>\n                    <img src=\"bees-with-color/bee-B1DM.svg\" width=\"200\">\n                    <p><br>Your bonus pay is unchanged, and remains at $0.26.</p>\n            ","response":0,"trial_type":"html-button-response","trial_index":128,"time_elapsed":841985,"internal_node_id":"0.0-4.0-1.58","subject_id":"613ecc6237e3e4dd76a14605","study_id":"6197b3f67c2b5cd3b6d9596a","session_id":"619be58fbbc1af5d3a131951","condition":"contingent","relevant_dimensions":["antennae","wings"],"bee_group":{"antennae":"A","wings":"2","pattern":"X","legs":"X"},"bonus":0.04000000000000051},{"rt":1332.0999999996275,"stimulus":"bees-with-color/bee-A2SM.svg","response":1,"trial_type":"image-button-response","trial_index":129,"time_elapsed":843320,"internal_node_id":"0.0-4.0-0.59","subject_id":"613ecc6237e3e4dd76a14605","study_id":"6197b3f67c2b5cd3b6d9596a","session_id":"619be58fbbc1af5d3a131951","condition":"contingent","relevant_dimensions":["antennae","wings"],"bee_group":{"antennae":"A","wings":"2","pattern":"X","legs":"X"},"action":"avoid","summary":"good-avoid","bonus":0.04000000000000051},{"rt":988.2000000001863,"stimulus":"\n                    <p><b>Action: <em>avoid</em></b></p>\n                    <p>This is the bee that you just saw.</p>\n                    <img src=\"bees-with-color/bee-A2SM.svg\" width=\"200\">\n                    <p><br>Your bonus pay is unchanged, and remains at $0.26.</p>\n            ","response":0,"trial_type":"html-button-response","trial_index":130,"time_elapsed":844310,"internal_node_id":"0.0-4.0-1.59","subject_id":"613ecc6237e3e4dd76a14605","study_id":"6197b3f67c2b5cd3b6d9596a","session_id":"619be58fbbc1af5d3a131951","condition":"contingent","relevant_dimensions":["antennae","wings"],"bee_group":{"antennae":"A","wings":"2","pattern":"X","legs":"X"},"bonus":0.04000000000000051},{"rt":1310.2000000001863,"stimulus":"bees-with-color/bee-B1SM.svg","response":0,"trial_type":"image-button-response","trial_index":131,"time_elapsed":845621,"internal_node_id":"0.0-4.0-0.60","subject_id":"613ecc6237e3e4dd76a14605","study_id":"6197b3f67c2b5cd3b6d9596a","session_id":"619be58fbbc1af5d3a131951","condition":"contingent","relevant_dimensions":["antennae","wings"],"bee_group":{"antennae":"A","wings":"2","pattern":"X","legs":"X"},"action":"harvest","summary":"good-harvest","bonus":0.04000000000000051},{"rt":1191.8999999994412,"stimulus":"\n                    <p><b>Action: <em>harvest</em></b></p>\n                    <p>This is the bee that you just saw.</p>\n                    <img src=\"bees-with-color/bee-B1SM.svg\" width=\"200\">\n                    <p><span class=\"greenText\"><b>Successful harvest!</b></span><br>Your pay has increased by $0.02. Your bonus pay is now $0.28.</p>\n            ","response":0,"trial_type":"html-button-response","trial_index":132,"time_elapsed":846815,"internal_node_id":"0.0-4.0-1.60","subject_id":"613ecc6237e3e4dd76a14605","study_id":"6197b3f67c2b5cd3b6d9596a","session_id":"619be58fbbc1af5d3a131951","condition":"contingent","relevant_dimensions":["antennae","wings"],"bee_group":{"antennae":"A","wings":"2","pattern":"X","legs":"X"},"bonus":0.04000000000000051},{"rt":2124.7000000001863,"stimulus":"bees-with-color/bee-A2SF.svg","response":1,"trial_type":"image-button-response","trial_index":133,"time_elapsed":848941,"internal_node_id":"0.0-4.0-0.61","subject_id":"613ecc6237e3e4dd76a14605","study_id":"6197b3f67c2b5cd3b6d9596a","session_id":"619be58fbbc1af5d3a131951","condition":"contingent","relevant_dimensions":["antennae","wings"],"bee_group":{"antennae":"A","wings":"2","pattern":"X","legs":"X"},"action":"avoid","summary":"good-avoid","bonus":0.04000000000000051},{"rt":1311.1000000005588,"stimulus":"\n                    <p><b>Action: <em>avoid</em></b></p>\n                    <p>This is the bee that you just saw.</p>\n                    <img src=\"bees-with-color/bee-A2SF.svg\" width=\"200\">\n                    <p><br>Your bonus pay is unchanged, and remains at $0.28.</p>\n            ","response":0,"trial_type":"html-button-response","trial_index":134,"time_elapsed":850254,"internal_node_id":"0.0-4.0-1.61","subject_id":"613ecc6237e3e4dd76a14605","study_id":"6197b3f67c2b5cd3b6d9596a","session_id":"619be58fbbc1af5d3a131951","condition":"contingent","relevant_dimensions":["antennae","wings"],"bee_group":{"antennae":"A","wings":"2","pattern":"X","legs":"X"},"bonus":0.04000000000000051},{"rt":1939.1000000005588,"stimulus":"bees-with-color/bee-B2SM.svg","response":1,"trial_type":"image-button-response","trial_index":135,"time_elapsed":852195,"internal_node_id":"0.0-4.0-0.62","subject_id":"613ecc6237e3e4dd76a14605","study_id":"6197b3f67c2b5cd3b6d9596a","session_id":"619be58fbbc1af5d3a131951","condition":"contingent","relevant_dimensions":["antennae","wings"],"bee_group":{"antennae":"A","wings":"2","pattern":"X","legs":"X"},"action":"avoid","summary":"bad-avoid","bonus":0.04000000000000051},{"rt":933.2000000001863,"stimulus":"\n                    <p><b>Action: <em>avoid</em></b></p>\n                    <p>This is the bee that you just saw.</p>\n                    <img src=\"bees-with-color/bee-B2SM.svg\" width=\"200\">\n                    <p><br>Your bonus pay is unchanged, and remains at $0.28.</p>\n            ","response":0,"trial_type":"html-button-response","trial_index":136,"time_elapsed":853130,"internal_node_id":"0.0-4.0-1.62","subject_id":"613ecc6237e3e4dd76a14605","study_id":"6197b3f67c2b5cd3b6d9596a","session_id":"619be58fbbc1af5d3a131951","condition":"contingent","relevant_dimensions":["antennae","wings"],"bee_group":{"antennae":"A","wings":"2","pattern":"X","legs":"X"},"bonus":0.04000000000000051},{"rt":1601.2000000001863,"stimulus":"bees-with-color/bee-B2SF.svg","response":1,"trial_type":"image-button-response","trial_index":137,"time_elapsed":854733,"internal_node_id":"0.0-4.0-0.63","subject_id":"613ecc6237e3e4dd76a14605","study_id":"6197b3f67c2b5cd3b6d9596a","session_id":"619be58fbbc1af5d3a131951","condition":"contingent","relevant_dimensions":["antennae","wings"],"bee_group":{"antennae":"A","wings":"2","pattern":"X","legs":"X"},"action":"avoid","summary":"bad-avoid","bonus":0.04000000000000051},{"rt":1212.7000000001863,"stimulus":"\n                    <p><b>Action: <em>avoid</em></b></p>\n                    <p>This is the bee that you just saw.</p>\n                    <img src=\"bees-with-color/bee-B2SF.svg\" width=\"200\">\n                    <p><br>Your bonus pay is unchanged, and remains at $0.28.</p>\n            ","response":0,"trial_type":"html-button-response","trial_index":138,"time_elapsed":855947,"internal_node_id":"0.0-4.0-1.63","subject_id":"613ecc6237e3e4dd76a14605","study_id":"6197b3f67c2b5cd3b6d9596a","session_id":"619be58fbbc1af5d3a131951","condition":"contingent","relevant_dimensions":["antennae","wings"],"bee_group":{"antennae":"A","wings":"2","pattern":"X","legs":"X"},"bonus":0.04000000000000051},{"rt":8755.900000000373,"stimulus":"You have completed the first part of this experiment.<br><br>You will now begin a shorter second part, in which you will receive no feedback.<br>The same rules regarding bonus pay apply.<br><br>Press any key to begin.","response":" ","trial_type":"html-keyboard-response","trial_index":139,"time_elapsed":864706,"internal_node_id":"0.0-5.0","subject_id":"613ecc6237e3e4dd76a14605","study_id":"6197b3f67c2b5cd3b6d9596a","session_id":"619be58fbbc1af5d3a131951","condition":"contingent","relevant_dimensions":["antennae","wings"],"bee_group":{"antennae":"A","wings":"2","pattern":"X","legs":"X"},"bonus":0.04000000000000051},{"rt":4244,"stimulus":"bees-with-color/bee-A2DF.svg","response":0,"trial_type":"image-button-response","trial_index":140,"time_elapsed":868953,"internal_node_id":"0.0-6.0-0.0","subject_id":"613ecc6237e3e4dd76a14605","study_id":"6197b3f67c2b5cd3b6d9596a","session_id":"619be58fbbc1af5d3a131951","condition":"contingent","relevant_dimensions":["antennae","wings"],"bee_group":{"antennae":"A","wings":"2","pattern":"X","legs":"X"},"bonus":0.04000000000000051},{"rt":3557.2000000001863,"stimulus":"bees-with-color/bee-A2SM.svg","response":1,"trial_type":"image-button-response","trial_index":141,"time_elapsed":872514,"internal_node_id":"0.0-6.0-0.1","subject_id":"613ecc6237e3e4dd76a14605","study_id":"6197b3f67c2b5cd3b6d9596a","session_id":"619be58fbbc1af5d3a131951","condition":"contingent","relevant_dimensions":["antennae","wings"],"bee_group":{"antennae":"A","wings":"2","pattern":"X","legs":"X"},"bonus":0.04000000000000051},{"rt":1037.199999999255,"stimulus":"bees-with-color/bee-A1DF.svg","response":1,"trial_type":"image-button-response","trial_index":142,"time_elapsed":873552,"internal_node_id":"0.0-6.0-0.2","subject_id":"613ecc6237e3e4dd76a14605","study_id":"6197b3f67c2b5cd3b6d9596a","session_id":"619be58fbbc1af5d3a131951","condition":"contingent","relevant_dimensions":["antennae","wings"],"bee_group":{"antennae":"A","wings":"2","pattern":"X","legs":"X"},"bonus":0.04000000000000051},{"rt":1560.4000000003725,"stimulus":"bees-with-color/bee-B2SF.svg","response":1,"trial_type":"image-button-response","trial_index":143,"time_elapsed":875116,"internal_node_id":"0.0-6.0-0.3","subject_id":"613ecc6237e3e4dd76a14605","study_id":"6197b3f67c2b5cd3b6d9596a","session_id":"619be58fbbc1af5d3a131951","condition":"contingent","relevant_dimensions":["antennae","wings"],"bee_group":{"antennae":"A","wings":"2","pattern":"X","legs":"X"},"bonus":0.04000000000000051},{"rt":1379.0999999996275,"stimulus":"bees-with-color/bee-A1DM.svg","response":0,"trial_type":"image-button-response","trial_index":144,"time_elapsed":876497,"internal_node_id":"0.0-6.0-0.4","subject_id":"613ecc6237e3e4dd76a14605","study_id":"6197b3f67c2b5cd3b6d9596a","session_id":"619be58fbbc1af5d3a131951","condition":"contingent","relevant_dimensions":["antennae","wings"],"bee_group":{"antennae":"A","wings":"2","pattern":"X","legs":"X"},"bonus":0.04000000000000051},{"rt":1516,"stimulus":"bees-with-color/bee-B1SM.svg","response":1,"trial_type":"image-button-response","trial_index":145,"time_elapsed":878015,"internal_node_id":"0.0-6.0-0.5","subject_id":"613ecc6237e3e4dd76a14605","study_id":"6197b3f67c2b5cd3b6d9596a","session_id":"619be58fbbc1af5d3a131951","condition":"contingent","relevant_dimensions":["antennae","wings"],"bee_group":{"antennae":"A","wings":"2","pattern":"X","legs":"X"},"bonus":0.04000000000000051},{"rt":661.5999999996275,"stimulus":"bees-with-color/bee-B1DF.svg","response":1,"trial_type":"image-button-response","trial_index":146,"time_elapsed":878679,"internal_node_id":"0.0-6.0-0.6","subject_id":"613ecc6237e3e4dd76a14605","study_id":"6197b3f67c2b5cd3b6d9596a","session_id":"619be58fbbc1af5d3a131951","condition":"contingent","relevant_dimensions":["antennae","wings"],"bee_group":{"antennae":"A","wings":"2","pattern":"X","legs":"X"},"bonus":0.04000000000000051},{"rt":1904.2999999998137,"stimulus":"bees-with-color/bee-B2DF.svg","response":0,"trial_type":"image-button-response","trial_index":147,"time_elapsed":880585,"internal_node_id":"0.0-6.0-0.7","subject_id":"613ecc6237e3e4dd76a14605","study_id":"6197b3f67c2b5cd3b6d9596a","session_id":"619be58fbbc1af5d3a131951","condition":"contingent","relevant_dimensions":["antennae","wings"],"bee_group":{"antennae":"A","wings":"2","pattern":"X","legs":"X"},"bonus":0.04000000000000051},{"rt":4741.200000000186,"stimulus":"bees-with-color/bee-B2SM.svg","response":1,"trial_type":"image-button-response","trial_index":148,"time_elapsed":885329,"internal_node_id":"0.0-6.0-0.8","subject_id":"613ecc6237e3e4dd76a14605","study_id":"6197b3f67c2b5cd3b6d9596a","session_id":"619be58fbbc1af5d3a131951","condition":"contingent","relevant_dimensions":["antennae","wings"],"bee_group":{"antennae":"A","wings":"2","pattern":"X","legs":"X"},"bonus":0.04000000000000051},{"rt":1635.2000000001863,"stimulus":"bees-with-color/bee-B1SF.svg","response":0,"trial_type":"image-button-response","trial_index":149,"time_elapsed":886966,"internal_node_id":"0.0-6.0-0.9","subject_id":"613ecc6237e3e4dd76a14605","study_id":"6197b3f67c2b5cd3b6d9596a","session_id":"619be58fbbc1af5d3a131951","condition":"contingent","relevant_dimensions":["antennae","wings"],"bee_group":{"antennae":"A","wings":"2","pattern":"X","legs":"X"},"bonus":0.04000000000000051},{"rt":2136.5999999996275,"stimulus":"bees-with-color/bee-A1SM.svg","response":1,"trial_type":"image-button-response","trial_index":150,"time_elapsed":889104,"internal_node_id":"0.0-6.0-0.10","subject_id":"613ecc6237e3e4dd76a14605","study_id":"6197b3f67c2b5cd3b6d9596a","session_id":"619be58fbbc1af5d3a131951","condition":"contingent","relevant_dimensions":["antennae","wings"],"bee_group":{"antennae":"A","wings":"2","pattern":"X","legs":"X"},"bonus":0.04000000000000051},{"rt":2032.5,"stimulus":"bees-with-color/bee-A2SF.svg","response":1,"trial_type":"image-button-response","trial_index":151,"time_elapsed":891138,"internal_node_id":"0.0-6.0-0.11","subject_id":"613ecc6237e3e4dd76a14605","study_id":"6197b3f67c2b5cd3b6d9596a","session_id":"619be58fbbc1af5d3a131951","condition":"contingent","relevant_dimensions":["antennae","wings"],"bee_group":{"antennae":"A","wings":"2","pattern":"X","legs":"X"},"bonus":0.04000000000000051},{"rt":2509.5,"stimulus":"bees-with-color/bee-A2DM.svg","response":1,"trial_type":"image-button-response","trial_index":152,"time_elapsed":893649,"internal_node_id":"0.0-6.0-0.12","subject_id":"613ecc6237e3e4dd76a14605","study_id":"6197b3f67c2b5cd3b6d9596a","session_id":"619be58fbbc1af5d3a131951","condition":"contingent","relevant_dimensions":["antennae","wings"],"bee_group":{"antennae":"A","wings":"2","pattern":"X","legs":"X"},"bonus":0.04000000000000051},{"rt":1043.5,"stimulus":"bees-with-color/bee-B2DM.svg","response":1,"trial_type":"image-button-response","trial_index":153,"time_elapsed":894694,"internal_node_id":"0.0-6.0-0.13","subject_id":"613ecc6237e3e4dd76a14605","study_id":"6197b3f67c2b5cd3b6d9596a","session_id":"619be58fbbc1af5d3a131951","condition":"contingent","relevant_dimensions":["antennae","wings"],"bee_group":{"antennae":"A","wings":"2","pattern":"X","legs":"X"},"bonus":0.04000000000000051},{"rt":1049.4000000003725,"stimulus":"bees-with-color/bee-A1SF.svg","response":0,"trial_type":"image-button-response","trial_index":154,"time_elapsed":895745,"internal_node_id":"0.0-6.0-0.14","subject_id":"613ecc6237e3e4dd76a14605","study_id":"6197b3f67c2b5cd3b6d9596a","session_id":"619be58fbbc1af5d3a131951","condition":"contingent","relevant_dimensions":["antennae","wings"],"bee_group":{"antennae":"A","wings":"2","pattern":"X","legs":"X"},"bonus":0.04000000000000051},{"rt":797.7000000001863,"stimulus":"bees-with-color/bee-B1DM.svg","response":1,"trial_type":"image-button-response","trial_index":155,"time_elapsed":896545,"internal_node_id":"0.0-6.0-0.15","subject_id":"613ecc6237e3e4dd76a14605","study_id":"6197b3f67c2b5cd3b6d9596a","session_id":"619be58fbbc1af5d3a131951","condition":"contingent","relevant_dimensions":["antennae","wings"],"bee_group":{"antennae":"A","wings":"2","pattern":"X","legs":"X"},"bonus":0.04000000000000051},{"rt":725.8999999994412,"stimulus":"bees-with-color/bee-B1DM.svg","response":1,"trial_type":"image-button-response","trial_index":156,"time_elapsed":897273,"internal_node_id":"0.0-6.0-0.16","subject_id":"613ecc6237e3e4dd76a14605","study_id":"6197b3f67c2b5cd3b6d9596a","session_id":"619be58fbbc1af5d3a131951","condition":"contingent","relevant_dimensions":["antennae","wings"],"bee_group":{"antennae":"A","wings":"2","pattern":"X","legs":"X"},"bonus":0.04000000000000051},{"rt":1042.6000000005588,"stimulus":"bees-with-color/bee-A1SF.svg","response":0,"trial_type":"image-button-response","trial_index":157,"time_elapsed":898319,"internal_node_id":"0.0-6.0-0.17","subject_id":"613ecc6237e3e4dd76a14605","study_id":"6197b3f67c2b5cd3b6d9596a","session_id":"619be58fbbc1af5d3a131951","condition":"contingent","relevant_dimensions":["antennae","wings"],"bee_group":{"antennae":"A","wings":"2","pattern":"X","legs":"X"},"bonus":0.04000000000000051},{"rt":793.7000000001863,"stimulus":"bees-with-color/bee-A1DM.svg","response":1,"trial_type":"image-button-response","trial_index":158,"time_elapsed":899114,"internal_node_id":"0.0-6.0-0.18","subject_id":"613ecc6237e3e4dd76a14605","study_id":"6197b3f67c2b5cd3b6d9596a","session_id":"619be58fbbc1af5d3a131951","condition":"contingent","relevant_dimensions":["antennae","wings"],"bee_group":{"antennae":"A","wings":"2","pattern":"X","legs":"X"},"bonus":0.04000000000000051},{"rt":1948.2999999998137,"stimulus":"bees-with-color/bee-A2DM.svg","response":0,"trial_type":"image-button-response","trial_index":159,"time_elapsed":901064,"internal_node_id":"0.0-6.0-0.19","subject_id":"613ecc6237e3e4dd76a14605","study_id":"6197b3f67c2b5cd3b6d9596a","session_id":"619be58fbbc1af5d3a131951","condition":"contingent","relevant_dimensions":["antennae","wings"],"bee_group":{"antennae":"A","wings":"2","pattern":"X","legs":"X"},"bonus":0.04000000000000051},{"rt":1269.7000000001863,"stimulus":"bees-with-color/bee-A2DF.svg","response":0,"trial_type":"image-button-response",