[{"success":true,"trial_type":"fullscreen","trial_index":0,"time_elapsed":13334,"internal_node_id":"0.0-0.0","subject_id":"581ccd016c73180001fa5b2a","study_id":"6197b3f67c2b5cd3b6d9596a","session_id":"619bfbddab222963d9e7efd5","condition":"full-information","relevant_dimensions":["antennae","pattern"],"bee_group":{"antennae":"B","wings":"X","pattern":"S","legs":"X"},"bonus":1.300000000000001},{"success":true,"timeout":false,"failed_images":[],"failed_audio":[],"failed_video":[],"trial_type":"preload","trial_index":1,"time_elapsed":14755,"internal_node_id":"0.0-1.0","subject_id":"581ccd016c73180001fa5b2a","study_id":"6197b3f67c2b5cd3b6d9596a","session_id":"619bfbddab222963d9e7efd5","condition":"full-information","relevant_dimensions":["antennae","pattern"],"bee_group":{"antennae":"B","wings":"X","pattern":"S","legs":"X"},"bonus":1.300000000000001},{"rt":1808,"stimulus":"Welcome! Press any key to begin.","response":" ","trial_type":"html-keyboard-response","trial_index":2,"time_elapsed":16564,"internal_node_id":"0.0-2.0","subject_id":"581ccd016c73180001fa5b2a","study_id":"6197b3f67c2b5cd3b6d9596a","session_id":"619bfbddab222963d9e7efd5","condition":"full-information","relevant_dimensions":["antennae","pattern"],"bee_group":{"antennae":"B","wings":"X","pattern":"S","legs":"X"},"bonus":1.300000000000001},{"view_history":[{"page_index":0,"viewing_time":4067.7999999523163},{"page_index":1,"viewing_time":11492.200000047684},{"page_index":2,"viewing_time":23430.299999952316},{"page_index":3,"viewing_time":16407.89999985695},{"page_index":4,"viewing_time":8104.100000143051},{"page_index":5,"viewing_time":13759.5},{"page_index":6,"viewing_time":10920.700000047684},{"page_index":7,"viewing_time":16079.899999856949},{"page_index":8,"viewing_time":10079.400000095367},{"page_index":9,"viewing_time":10096.599999904633},{"page_index":10,"viewing_time":20408},{"page_index":11,"viewing_time":9255.900000095367},{"page_index":12,"viewing_time":19311.89999985695},{"page_index":13,"viewing_time":1464},{"page_index":14,"viewing_time":2280.2000000476837}],"rt":177158.69999980927,"trial_type":"instructions","trial_index":3,"time_elapsed":193719,"internal_node_id":"0.0-3.0-0.0","subject_id":"581ccd016c73180001fa5b2a","study_id":"6197b3f67c2b5cd3b6d9596a","session_id":"619bfbddab222963d9e7efd5","condition":"full-information","relevant_dimensions":["antennae","pattern"],"bee_group":{"antennae":"B","wings":"X","pattern":"S","legs":"X"},"bonus":1.300000000000001},{"rt":14972.400000095367,"response":{"Q0":["Two or six legs","Stripes or spots on body","Single or double wings","Antennae or no antennae"]},"question_order":[0],"trial_type":"survey-multi-select","trial_index":4,"time_elapsed":208695,"internal_node_id":"0.0-3.0-1.0","subject_id":"581ccd016c73180001fa5b2a","study_id":"6197b3f67c2b5cd3b6d9596a","session_id":"619bfbddab222963d9e7efd5","condition":"full-information","relevant_dimensions":["antennae","pattern"],"bee_group":{"antennae":"B","wings":"X","pattern":"S","legs":"X"},"correct":true,"bonus":1.300000000000001},{"rt":16077.399999856949,"response":{"Q1":"No.","Q2":"Based on the four features of the bee.","Q3":"You learn if it was friendly or dangerous, but do not alter your bonus."},"question_order":[0,1,2],"trial_type":"survey-multi-choice","trial_index":5,"time_elapsed":224775,"internal_node_id":"0.0-3.0-2.0","subject_id":"581ccd016c73180001fa5b2a","study_id":"6197b3f67c2b5cd3b6d9596a","session_id":"619bfbddab222963d9e7efd5","condition":"full-information","relevant_dimensions":["antennae","pattern"],"bee_group":{"antennae":"B","wings":"X","pattern":"S","legs":"X"},"correct":true,"bonus":1.300000000000001},{"rt":2573.4000000953674,"stimulus":"<p>Congrats, you got everything right<br>When you're ready, click the button below to continue to the experiment.</p>","response":0,"trial_type":"html-button-response","trial_index":6,"time_elapsed":227350,"internal_node_id":"0.0-3.0-3.0","subject_id":"581ccd016c73180001fa5b2a","study_id":"6197b3f67c2b5cd3b6d9596a","session_id":"619bfbddab222963d9e7efd5","condition":"full-information","relevant_dimensions":["antennae","pattern"],"bee_group":{"antennae":"B","wings":"X","pattern":"S","legs":"X"},"bonus":1.300000000000001},{"rt":2141,"stimulus":"bees-with-color/bee-B2SM.svg","response":1,"trial_type":"image-button-response","trial_index":7,"time_elapsed":229494,"internal_node_id":"0.0-4.0-0.0","subject_id":"581ccd016c73180001fa5b2a","study_id":"6197b3f67c2b5cd3b6d9596a","session_id":"619bfbddab222963d9e7efd5","condition":"full-information","relevant_dimensions":["antennae","pattern"],"bee_group":{"antennae":"B","wings":"X","pattern":"S","legs":"X"},"action":"avoid","summary":"good-avoid","bonus":1.300000000000001},{"rt":28756.200000047684,"stimulus":"\n                    <p><b>Action: <em>avoid</em></b></p>\n                    <p>This is the bee that you just saw.</p>\n                    <img src=\"bees-with-color/bee-B2SM.svg\" width=\"200\">\n                    <p><span class=\"greenText\">Good choice!</span>  This bee would have stung you.<br>Your bonus pay is unchanged, and remains at $0.54.</p>\n            ","response":0,"trial_type":"html-button-response","trial_index":8,"time_elapsed":258252,"internal_node_id":"0.0-4.0-1.0","subject_id":"581ccd016c73180001fa5b2a","study_id":"6197b3f67c2b5cd3b6d9596a","session_id":"619bfbddab222963d9e7efd5","condition":"full-information","relevant_dimensions":["antennae","pattern"],"bee_group":{"antennae":"B","wings":"X","pattern":"S","legs":"X"},"bonus":1.300000000000001},{"rt":2599.4000000953674,"stimulus":"bees-with-color/bee-A2SM.svg","response":1,"trial_type":"image-button-response","trial_index":9,"time_elapsed":260853,"internal_node_id":"0.0-4.0-0.1","subject_id":"581ccd016c73180001fa5b2a","study_id":"6197b3f67c2b5cd3b6d9596a","session_id":"619bfbddab222963d9e7efd5","condition":"full-information","relevant_dimensions":["antennae","pattern"],"bee_group":{"antennae":"B","wings":"X","pattern":"S","legs":"X"},"action":"avoid","summary":"bad-avoid","bonus":1.300000000000001},{"rt":22901,"stimulus":"\n                    <p><b>Action: <em>avoid</em></b></p>\n                    <p>This is the bee that you just saw.</p>\n                    <img src=\"bees-with-color/bee-A2SM.svg\" width=\"200\">\n                    <p><span class=\"redText\">Bad choice,</span> the bee was friendly.<br>Your bonus pay is unchanged, and remains at $0.54.</p>\n            ","response":0,"trial_type":"html-button-response","trial_index":10,"time_elapsed":283756,"internal_node_id":"0.0-4.0-1.1","subject_id":"581ccd016c73180001fa5b2a","study_id":"6197b3f67c2b5cd3b6d9596a","session_id":"619bfbddab222963d9e7efd5","condition":"full-information","relevant_dimensions":["antennae","pattern"],"bee_group":{"antennae":"B","wings":"X","pattern":"S","legs":"X"},"bonus":1.300000000000001},{"rt":6247.299999952316,"stimulus":"bees-with-color/bee-B1DM.svg","response":0,"trial_type":"image-button-response","trial_index":11,"time_elapsed":290005,"internal_node_id":"0.0-4.0-0.2","subject_id":"581ccd016c73180001fa5b2a","study_id":"6197b3f67c2b5cd3b6d9596a","session_id":"619bfbddab222963d9e7efd5","condition":"full-information","relevant_dimensions":["antennae","pattern"],"bee_group":{"antennae":"B","wings":"X","pattern":"S","legs":"X"},"action":"harvest","summary":"good-harvest","bonus":1.300000000000001},{"rt":24116.900000095367,"stimulus":"\n                    <p><b>Action: <em>harvest</em></b></p>\n                    <p>This is the bee that you just saw.</p>\n                    <img src=\"bees-with-color/bee-B1DM.svg\" width=\"200\">\n                    <p><span class=\"greenText\"><b>Successful harvest!</b></span><br>Your pay has increased by $0.02. Your bonus pay is now $0.56.</p>\n            ","response":0,"trial_type":"html-button-response","trial_index":12,"time_elapsed":314123,"internal_node_id":"0.0-4.0-1.2","subject_id":"581ccd016c73180001fa5b2a","study_id":"6197b3f67c2b5cd3b6d9596a","session_id":"619bfbddab222963d9e7efd5","condition":"full-information","relevant_dimensions":["antennae","pattern"],"bee_group":{"antennae":"B","wings":"X","pattern":"S","legs":"X"},"bonus":1.300000000000001},{"rt":2766.7000000476837,"stimulus":"bees-with-color/bee-A1DF.svg","response":1,"trial_type":"image-button-response","trial_index":13,"time_elapsed":316891,"internal_node_id":"0.0-4.0-0.3","subject_id":"581ccd016c73180001fa5b2a","study_id":"6197b3f67c2b5cd3b6d9596a","session_id":"619bfbddab222963d9e7efd5","condition":"full-information","relevant_dimensions":["antennae","pattern"],"bee_group":{"antennae":"B","wings":"X","pattern":"S","legs":"X"},"action":"avoid","summary":"bad-avoid","bonus":1.300000000000001},{"rt":44631.699999809265,"stimulus":"\n                    <p><b>Action: <em>avoid</em></b></p>\n                    <p>This is the bee that you just saw.</p>\n                    <img src=\"bees-with-color/bee-A1DF.svg\" width=\"200\">\n                    <p><span class=\"redText\">Bad choice,</span> the bee was friendly.<br>Your bonus pay is unchanged, and remains at $0.56.</p>\n            ","response":0,"trial_type":"html-button-response","trial_index":14,"time_elapsed":361522,"internal_node_id":"0.0-4.0-1.3","subject_id":"581ccd016c73180001fa5b2a","study_id":"6197b3f67c2b5cd3b6d9596a","session_id":"619bfbddab222963d9e7efd5","condition":"full-information","relevant_dimensions":["antennae","pattern"],"bee_group":{"antennae":"B","wings":"X","pattern":"S","legs":"X"},"bonus":1.300000000000001},{"rt":13334.5,"stimulus":"bees-with-color/bee-A1SM.svg","response":1,"trial_type":"image-button-response","trial_index":15,"time_elapsed":374858,"internal_node_id":"0.0-4.0-0.4","subject_id":"581ccd016c73180001fa5b2a","study_id":"6197b3f67c2b5cd3b6d9596a","session_id":"619bfbddab222963d9e7efd5","condition":"full-information","relevant_dimensions":["antennae","pattern"],"bee_group":{"antennae":"B","wings":"X","pattern":"S","legs":"X"},"action":"avoid","summary":"bad-avoid","bonus":1.300000000000001},{"rt":32669.799999952316,"stimulus":"\n                    <p><b>Action: <em>avoid</em></b></p>\n                    <p>This is the bee that you just saw.</p>\n                    <img src=\"bees-with-color/bee-A1SM.svg\" width=\"200\">\n                    <p><span class=\"redText\">Bad choice,</span> the bee was friendly.<br>Your bonus pay is unchanged, and remains at $0.56.</p>\n            ","response":0,"trial_type":"html-button-response","trial_index":16,"time_elapsed":407529,"internal_node_id":"0.0-4.0-1.4","subject_id":"581ccd016c73180001fa5b2a","study_id":"6197b3f67c2b5cd3b6d9596a","session_id":"619bfbddab222963d9e7efd5","condition":"full-information","relevant_dimensions":["antennae","pattern"],"bee_group":{"antennae":"B","wings":"X","pattern":"S","legs":"X"},"bonus":1.300000000000001},{"rt":9900.799999952316,"stimulus":"bees-with-color/bee-B1SM.svg","response":0,"trial_type":"image-button-response","trial_index":17,"time_elapsed":417432,"internal_node_id":"0.0-4.0-0.5","subject_id":"581ccd016c73180001fa5b2a","study_id":"6197b3f67c2b5cd3b6d9596a","session_id":"619bfbddab222963d9e7efd5","condition":"full-information","relevant_dimensions":["antennae","pattern"],"bee_group":{"antennae":"B","wings":"X","pattern":"S","legs":"X"},"action":"harvest","summary":"bad-harvest","bonus":1.300000000000001},{"rt":35046.799999952316,"stimulus":"\n                    <p><b>Action: <em>harvest</em></b></p>\n                    <p>This is the bee that you just saw.</p>\n                    <img src=\"bees-with-color/bee-B1SM.svg\" width=\"200\">\n                    <p><span class=\"redText\">Bad choice, the bee was angry.</span><br><b>You have been stung!</b><br>Your pay has been decreased by $0.10. Your bonus pay is now $0.46.</p>\n            ","response":0,"trial_type":"html-button-response","trial_index":18,"time_elapsed":452479,"internal_node_id":"0.0-4.0-1.5","subject_id":"581ccd016c73180001fa5b2a","study_id":"6197b3f67c2b5cd3b6d9596a","session_id":"619bfbddab222963d9e7efd5","condition":"full-information","relevant_dimensions":["antennae","pattern"],"bee_group":{"antennae":"B","wings":"X","pattern":"S","legs":"X"},"bonus":1.300000000000001},{"rt":2095.600000143051,"stimulus":"bees-with-color/bee-A1DM.svg","response":0,"trial_type":"image-button-response","trial_index":19,"time_elapsed":454576,"internal_node_id":"0.0-4.0-0.6","subject_id":"581ccd016c73180001fa5b2a","study_id":"6197b3f67c2b5cd3b6d9596a","session_id":"619bfbddab222963d9e7efd5","condition":"full-information","relevant_dimensions":["antennae","pattern"],"bee_group":{"antennae":"B","wings":"X","pattern":"S","legs":"X"},"action":"harvest","summary":"good-harvest","bonus":1.300000000000001},{"rt":8574.100000143051,"stimulus":"\n                    <p><b>Action: <em>harvest</em></b></p>\n                    <p>This is the bee that you just saw.</p>\n                    <img src=\"bees-with-color/bee-A1DM.svg\" width=\"200\">\n                    <p><span class=\"greenText\"><b>Successful harvest!</b></span><br>Your pay has increased by $0.02. Your bonus pay is now $0.48.</p>\n            ","response":0,"trial_type":"html-button-response","trial_index":20,"time_elapsed":463152,"internal_node_id":"0.0-4.0-1.6","subject_id":"581ccd016c73180001fa5b2a","study_id":"6197b3f67c2b5cd3b6d9596a","session_id":"619bfbddab222963d9e7efd5","condition":"full-information","relevant_dimensions":["antennae","pattern"],"bee_group":{"antennae":"B","wings":"X","pattern":"S","legs":"X"},"bonus":1.300000000000001},{"rt":8453.400000095367,"stimulus":"bees-with-color/bee-A1SF.svg","response":0,"trial_type":"image-button-response","trial_index":21,"time_elapsed":471608,"internal_node_id":"0.0-4.0-0.7","subject_id":"581ccd016c73180001fa5b2a","study_id":"6197b3f67c2b5cd3b6d9596a","session_id":"619bfbddab222963d9e7efd5","condition":"full-information","relevant_dimensions":["antennae","pattern"],"bee_group":{"antennae":"B","wings":"X","pattern":"S","legs":"X"},"action":"harvest","summary":"good-harvest","bonus":1.300000000000001},{"rt":3645.899999856949,"stimulus":"\n                    <p><b>Action: <em>harvest</em></b></p>\n                    <p>This is the bee that you just saw.</p>\n                    <img src=\"bees-with-color/bee-A1SF.svg\" width=\"200\">\n                    <p><span class=\"greenText\"><b>Successful harvest!</b></span><br>Your pay has increased by $0.02. Your bonus pay is now $0.50.</p>\n            ","response":0,"trial_type":"html-button-response","trial_index":22,"time_elapsed":475256,"internal_node_id":"0.0-4.0-1.7","subject_id":"581ccd016c73180001fa5b2a","study_id":"6197b3f67c2b5cd3b6d9596a","session_id":"619bfbddab222963d9e7efd5","condition":"full-information","relevant_dimensions":["antennae","pattern"],"bee_group":{"antennae":"B","wings":"X","pattern":"S","legs":"X"},"bonus":1.300000000000001},{"rt":5901.599999904633,"stimulus":"bees-with-color/bee-B2SF.svg","response":1,"trial_type":"image-button-response","trial_index":23,"time_elapsed":481160,"internal_node_id":"0.0-4.0-0.8","subject_id":"581ccd016c73180001fa5b2a","study_id":"6197b3f67c2b5cd3b6d9596a","session_id":"619bfbddab222963d9e7efd5","condition":"full-information","relevant_dimensions":["antennae","pattern"],"bee_group":{"antennae":"B","wings":"X","pattern":"S","legs":"X"},"action":"avoid","summary":"good-avoid","bonus":1.300000000000001},{"rt":38205.89999985695,"stimulus":"\n                    <p><b>Action: <em>avoid</em></b></p>\n                    <p>This is the bee that you just saw.</p>\n                    <img src=\"bees-with-color/bee-B2SF.svg\" width=\"200\">\n                    <p><span class=\"greenText\">Good choice!</span>  This bee would have stung you.<br>Your bonus pay is unchanged, and remains at $0.50.</p>\n            ","response":0,"trial_type":"html-button-response","trial_index":24,"time_elapsed":519367,"internal_node_id":"0.0-4.0-1.8","subject_id":"581ccd016c73180001fa5b2a","study_id":"6197b3f67c2b5cd3b6d9596a","session_id":"619bfbddab222963d9e7efd5","condition":"full-information","relevant_dimensions":["antennae","pattern"],"bee_group":{"antennae":"B","wings":"X","pattern":"S","legs":"X"},"bonus":1.300000000000001},{"rt":27301.5,"stimulus":"bees-with-color/bee-B2DF.svg","response":0,"trial_type":"image-button-response","trial_index":25,"time_elapsed":546670,"internal_node_id":"0.0-4.0-0.9","subject_id":"581ccd016c73180001fa5b2a","study_id":"6197b3f67c2b5cd3b6d9596a","session_id":"619bfbddab222963d9e7efd5","condition":"full-information","relevant_dimensions":["antennae","pattern"],"bee_group":{"antennae":"B","wings":"X","pattern":"S","legs":"X"},"action":"harvest","summary":"good-harvest","bonus":1.300000000000001},{"rt":3412.5,"stimulus":"\n                    <p><b>Action: <em>harvest</em></b></p>\n                    <p>This is the bee that you just saw.</p>\n                    <img src=\"bees-with-color/bee-B2DF.svg\" width=\"200\">\n                    <p><span class=\"greenText\"><b>Successful harvest!</b></span><br>Your pay has increased by $0.02. Your bonus pay is now $0.52.</p>\n            ","response":0,"trial_type":"html-button-response","trial_index":26,"time_elapsed":550085,"internal_node_id":"0.0-4.0-1.9","subject_id":"581ccd016c73180001fa5b2a","study_id":"6197b3f67c2b5cd3b6d9596a","session_id":"619bfbddab222963d9e7efd5","condition":"full-information","relevant_dimensions":["antennae","pattern"],"bee_group":{"antennae":"B","wings":"X","pattern":"S","legs":"X"},"bonus":1.300000000000001},{"rt":2919.2999999523163,"stimulus":"bees-with-color/bee-A2DF.svg","response":0,"trial_type":"image-button-response","trial_index":27,"time_elapsed":553006,"internal_node_id":"0.0-4.0-0.10","subject_id":"581ccd016c73180001fa5b2a","study_id":"6197b3f67c2b5cd3b6d9596a","session_id":"619bfbddab222963d9e7efd5","condition":"full-information","relevant_dimensions":["antennae","pattern"],"bee_group":{"antennae":"B","wings":"X","pattern":"S","legs":"X"},"action":"harvest","summary":"good-harvest","bonus":1.300000000000001},{"rt":5125.400000095367,"stimulus":"\n                    <p><b>Action: <em>harvest</em></b></p>\n                    <p>This is the bee that you just saw.</p>\n                    <img src=\"bees-with-color/bee-A2DF.svg\" width=\"200\">\n                    <p><span class=\"greenText\"><b>Successful harvest!</b></span><br>Your pay has increased by $0.02. Your bonus pay is now $0.54.</p>\n            ","response":0,"trial_type":"html-button-response","trial_index":28,"time_elapsed":558134,"internal_node_id":"0.0-4.0-1.10","subject_id":"581ccd016c73180001fa5b2a","study_id":"6197b3f67c2b5cd3b6d9596a","session_id":"619bfbddab222963d9e7efd5","condition":"full-information","relevant_dimensions":["antennae","pattern"],"bee_group":{"antennae":"B","wings":"X","pattern":"S","legs":"X"},"bonus":1.300000000000001},{"rt":12940.799999952316,"stimulus":"bees-with-color/bee-A2SF.svg","response":1,"trial_type":"image-button-response","trial_index":29,"time_elapsed":571076,"internal_node_id":"0.0-4.0-0.11","subject_id":"581ccd016c73180001fa5b2a","study_id":"6197b3f67c2b5cd3b6d9596a","session_id":"619bfbddab222963d9e7efd5","condition":"full-information","relevant_dimensions":["antennae","pattern"],"bee_group":{"antennae":"B","wings":"X","pattern":"S","legs":"X"},"action":"avoid","summary":"bad-avoid","bonus":1.300000000000001},{"rt":4455.5,"stimulus":"\n                    <p><b>Action: <em>avoid</em></b></p>\n                    <p>This is the bee that you just saw.</p>\n                    <img src=\"bees-with-color/bee-A2SF.svg\" width=\"200\">\n                    <p><span class=\"redText\">Bad choice,</span> the bee was friendly.<br>Your bonus pay is unchanged, and remains at $0.54.</p>\n            ","response":0,"trial_type":"html-button-response","trial_index":30,"time_elapsed":575534,"internal_node_id":"0.0-4.0-1.11","subject_id":"581ccd016c73180001fa5b2a","study_id":"6197b3f67c2b5cd3b6d9596a","session_id":"619bfbddab222963d9e7efd5","condition":"full-information","relevant_dimensions":["antennae","pattern"],"bee_group":{"antennae":"B","wings":"X","pattern":"S","legs":"X"},"bonus":1.300000000000001},{"rt":2661.4000000953674,"stimulus":"bees-with-color/bee-B2DM.svg","response":0,"trial_type":"image-button-response","trial_index":31,"time_elapsed":578197,"internal_node_id":"0.0-4.0-0.12","subject_id":"581ccd016c73180001fa5b2a","study_id":"6197b3f67c2b5cd3b6d9596a","session_id":"619bfbddab222963d9e7efd5","condition":"full-information","relevant_dimensions":["antennae","pattern"],"bee_group":{"antennae":"B","wings":"X","pattern":"S","legs":"X"},"action":"harvest","summary":"good-harvest","bonus":1.300000000000001},{"rt":2629.7999999523163,"stimulus":"\n                    <p><b>Action: <em>harvest</em></b></p>\n                    <p>This is the bee that you just saw.</p>\n                    <img src=\"bees-with-color/bee-B2DM.svg\" width=\"200\">\n                    <p><span class=\"greenText\"><b>Successful harvest!</b></span><br>Your pay has increased by $0.02. Your bonus pay is now $0.56.</p>\n            ","response":0,"trial_type":"html-button-response","trial_index":32,"time_elapsed":580829,"internal_node_id":"0.0-4.0-1.12","subject_id":"581ccd016c73180001fa5b2a","study_id":"6197b3f67c2b5cd3b6d9596a","session_id":"619bfbddab222963d9e7efd5","condition":"full-information","relevant_dimensions":["antennae","pattern"],"bee_group":{"antennae":"B","wings":"X","pattern":"S","legs":"X"},"bonus":1.300000000000001},{"rt":6134.099999904633,"stimulus":"bees-with-color/bee-B1DF.svg","response":0,"trial_type":"image-button-response","trial_index":33,"time_elapsed":586965,"internal_node_id":"0.0-4.0-0.13","subject_id":"581ccd016c73180001fa5b2a","study_id":"6197b3f67c2b5cd3b6d9596a","session_id":"619bfbddab222963d9e7efd5","condition":"full-information","relevant_dimensions":["antennae","pattern"],"bee_group":{"antennae":"B","wings":"X","pattern":"S","legs":"X"},"action":"harvest","summary":"good-harvest","bonus":1.300000000000001},{"rt":1470.2000000476837,"stimulus":"\n                    <p><b>Action: <em>harvest</em></b></p>\n                    <p>This is the bee that you just saw.</p>\n                    <img src=\"bees-with-color/bee-B1DF.svg\" width=\"200\">\n                    <p><span class=\"greenText\"><b>Successful harvest!</b></span><br>Your pay has increased by $0.02. Your bonus pay is now $0.58.</p>\n            ","response":0,"trial_type":"html-button-response","trial_index":34,"time_elapsed":588437,"internal_node_id":"0.0-4.0-1.13","subject_id":"581ccd016c73180001fa5b2a","study_id":"6197b3f67c2b5cd3b6d9596a","session_id":"619bfbddab222963d9e7efd5","condition":"full-information","relevant_dimensions":["antennae","pattern"],"bee_group":{"antennae":"B","wings":"X","pattern":"S","legs":"X"},"bonus":1.300000000000001},{"rt":2334.0999999046326,"stimulus":"bees-with-color/bee-A2DM.svg","response":0,"trial_type":"image-button-response","trial_index":35,"time_elapsed":590773,"internal_node_id":"0.0-4.0-0.14","subject_id":"581ccd016c73180001fa5b2a","study_id":"6197b3f67c2b5cd3b6d9596a","session_id":"619bfbddab222963d9e7efd5","condition":"full-information","relevant_dimensions":["antennae","pattern"],"bee_group":{"antennae":"B","wings":"X","pattern":"S","legs":"X"},"action":"harvest","summary":"good-harvest","bonus":1.300000000000001},{"rt":1262.2000000476837,"stimulus":"\n                    <p><b>Action: <em>harvest</em></b></p>\n                    <p>This is the bee that you just saw.</p>\n                    <img src=\"bees-with-color/bee-A2DM.svg\" width=\"200\">\n                    <p><span class=\"greenText\"><b>Successful harvest!</b></span><br>Your pay has increased by $0.02. Your bonus pay is now $0.60.</p>\n            ","response":0,"trial_type":"html-button-response","trial_index":36,"time_elapsed":592037,"internal_node_id":"0.0-4.0-1.14","subject_id":"581ccd016c73180001fa5b2a","study_id":"6197b3f67c2b5cd3b6d9596a","session_id":"619bfbddab222963d9e7efd5","condition":"full-information","relevant_dimensions":["antennae","pattern"],"bee_group":{"antennae":"B","wings":"X","pattern":"S","legs":"X"},"bonus":1.300000000000001},{"rt":7086.099999904633,"stimulus":"bees-with-color/bee-B1SF.svg","response":1,"trial_type":"image-button-response","trial_index":37,"time_elapsed":599125,"internal_node_id":"0.0-4.0-0.15","subject_id":"581ccd016c73180001fa5b2a","study_id":"6197b3f67c2b5cd3b6d9596a","session_id":"619bfbddab222963d9e7efd5","condition":"full-information","relevant_dimensions":["antennae","pattern"],"bee_group":{"antennae":"B","wings":"X","pattern":"S","legs":"X"},"action":"avoid","summary":"good-avoid","bonus":1.300000000000001},{"rt":19190.099999904633,"stimulus":"\n                    <p><b>Action: <em>avoid</em></b></p>\n                    <p>This is the bee that you just saw.</p>\n                    <img src=\"bees-with-color/bee-B1SF.svg\" width=\"200\">\n                    <p><span class=\"greenText\">Good choice!</span>  This bee would have stung you.<br>Your bonus pay is unchanged, and remains at $0.60.</p>\n            ","response":0,"trial_type":"html-button-response","trial_index":38,"time_elapsed":618316,"internal_node_id":"0.0-4.0-1.15","subject_id":"581ccd016c73180001fa5b2a","study_id":"6197b3f67c2b5cd3b6d9596a","session_id":"619bfbddab222963d9e7efd5","condition":"full-information","relevant_dimensions":["antennae","pattern"],"bee_group":{"antennae":"B","wings":"X","pattern":"S","legs":"X"},"bonus":1.300000000000001},{"rt":5278.099999904633,"stimulus":"bees-with-color/bee-A2SM.svg","response":1,"trial_type":"image-button-response","trial_index":39,"time_elapsed":623596,"internal_node_id":"0.0-4.0-0.16","subject_id":"581ccd016c73180001fa5b2a","study_id":"6197b3f67c2b5cd3b6d9596a","session_id":"619bfbddab222963d9e7efd5","condition":"full-information","relevant_dimensions":["antennae","pattern"],"bee_group":{"antennae":"B","wings":"X","pattern":"S","legs":"X"},"action":"avoid","summary":"bad-avoid","bonus":1.300000000000001},{"rt":2469.9000000953674,"stimulus":"\n                    <p><b>Action: <em>avoid</em></b></p>\n                    <p>This is the bee that you just saw.</p>\n                    <img src=\"bees-with-color/bee-A2SM.svg\" width=\"200\">\n                    <p><span class=\"redText\">Bad choice,</span> the bee was friendly.<br>Your bonus pay is unchanged, and remains at $0.60.</p>\n            ","response":0,"trial_type":"html-button-response","trial_index":40,"time_elapsed":626068,"internal_node_id":"0.0-4.0-1.16","subject_id":"581ccd016c73180001fa5b2a","study_id":"6197b3f67c2b5cd3b6d9596a","session_id":"619bfbddab222963d9e7efd5","condition":"full-information","relevant_dimensions":["antennae","pattern"],"bee_group":{"antennae":"B","wings":"X","pattern":"S","legs":"X"},"bonus":1.300000000000001},{"rt":6013.699999809265,"stimulus":"bees-with-color/bee-B1SM.svg","response":1,"trial_type":"image-button-response","trial_index":41,"time_elapsed":632084,"internal_node_id":"0.0-4.0-0.17","subject_id":"581ccd016c73180001fa5b2a","study_id":"6197b3f67c2b5cd3b6d9596a","session_id":"619bfbddab222963d9e7efd5","condition":"full-information","relevant_dimensions":["antennae","pattern"],"bee_group":{"antennae":"B","wings":"X","pattern":"S","legs":"X"},"action":"avoid","summary":"good-avoid","bonus":1.300000000000001},{"rt":11446.100000143051,"stimulus":"\n                    <p><b>Action: <em>avoid</em></b></p>\n                    <p>This is the bee that you just saw.</p>\n                    <img src=\"bees-with-color/bee-B1SM.svg\" width=\"200\">\n                    <p><span class=\"greenText\">Good choice!</span>  This bee would have stung you.<br>Your bonus pay is unchanged, and remains at $0.60.</p>\n            ","response":0,"trial_type":"html-button-response","trial_index":42,"time_elapsed":643532,"internal_node_id":"0.0-4.0-1.17","subject_id":"581ccd016c73180001fa5b2a","study_id":"6197b3f67c2b5cd3b6d9596a","session_id":"619bfbddab222963d9e7efd5","condition":"full-information","relevant_dimensions":["antennae","pattern"],"bee_group":{"antennae":"B","wings":"X","pattern":"S","legs":"X"},"bonus":1.300000000000001},{"rt":8213.5,"stimulus":"bees-with-color/bee-B1SF.svg","response":0,"trial_type":"image-button-response","trial_index":43,"time_elapsed":651747,"internal_node_id":"0.0-4.0-0.18","subject_id":"581ccd016c73180001fa5b2a","study_id":"6197b3f67c2b5cd3b6d9596a","session_id":"619bfbddab222963d9e7efd5","condition":"full-information","relevant_dimensions":["antennae","pattern"],"bee_group":{"antennae":"B","wings":"X","pattern":"S","legs":"X"},"action":"harvest","summary":"bad-harvest","bonus":1.300000000000001},{"rt":1485.8999998569489,"stimulus":"\n                    <p><b>Action: <em>harvest</em></b></p>\n                    <p>This is the bee that you just saw.</p>\n                    <img src=\"bees-with-color/bee-B1SF.svg\" width=\"200\">\n                    <p><span class=\"redText\">Bad choice, the bee was angry.</span><br><b>You have been stung!</b><br>Your pay has been decreased by $0.10. Your bonus pay is now $0.50.</p>\n            ","response":0,"trial_type":"html-button-response","trial_index":44,"time_elapsed":653235,"internal_node_id":"0.0-4.0-1.18","subject_id":"581ccd016c73180001fa5b2a","study_id":"6197b3f67c2b5cd3b6d9596a","session_id":"619bfbddab222963d9e7efd5","condition":"full-information","relevant_dimensions":["antennae","pattern"],"bee_group":{"antennae":"B","wings":"X","pattern":"S","legs":"X"},"bonus":1.300000000000001},{"rt":1821.7999999523163,"stimulus":"bees-with-color/bee-A2DM.svg","response":0,"trial_type":"image-button-response","trial_index":45,"time_elapsed":655059,"internal_node_id":"0.0-4.0-0.19","subject_id":"581ccd016c73180001fa5b2a","study_id":"6197b3f67c2b5cd3b6d9596a","session_id":"619bfbddab222963d9e7efd5","condition":"full-information","relevant_dimensions":["antennae","pattern"],"bee_group":{"antennae":"B","wings":"X","pattern":"S","legs":"X"},"action":"harvest","summary":"good-harvest","bonus":1.300000000000001},{"rt":821.8999998569489,"stimulus":"\n                    <p><b>Action: <em>harvest</em></b></p>\n                    <p>This is the bee that you just saw.</p>\n                    <img src=\"bees-with-color/bee-A2DM.svg\" width=\"200\">\n                    <p><span class=\"greenText\"><b>Successful harvest!</b></span><br>Your pay has increased by $0.02. Your bonus pay is now $0.52.</p>\n            ","response":0,"trial_type":"html-button-response","trial_index":46,"time_elapsed":655883,"internal_node_id":"0.0-4.0-1.19","subject_id":"581ccd016c73180001fa5b2a","study_id":"6197b3f67c2b5cd3b6d9596a","session_id":"619bfbddab222963d9e7efd5","condition":"full-information","relevant_dimensions":["antennae","pattern"],"bee_group":{"antennae":"B","wings":"X","pattern":"S","legs":"X"},"bonus":1.300000000000001},{"rt":1012.8999998569489,"stimulus":"bees-with-color/bee-B1DF.svg","response":0,"trial_type":"image-button-response","trial_index":47,"time_elapsed":656898,"internal_node_id":"0.0-4.0-0.20","subject_id":"581ccd016c73180001fa5b2a","study_id":"6197b3f67c2b5cd3b6d9596a","session_id":"619bfbddab222963d9e7efd5","condition":"full-information","relevant_dimensions":["antennae","pattern"],"bee_group":{"antennae":"B","wings":"X","pattern":"S","legs":"X"},"action":"harvest","summary":"good-harvest","bonus":1.300000000000001},{"rt":591.5999999046326,"stimulus":"\n                    <p><b>Action: <em>harvest</em></b></p>\n                    <p>This is the bee that you just saw.</p>\n                    <img src=\"bees-with-color/bee-B1DF.svg\" width=\"200\">\n                    <p><span class=\"greenText\"><b>Successful harvest!</b></span><br>Your pay has increased by $0.02. Your bonus pay is now $0.54.</p>\n            ","response":0,"trial_type":"html-button-response","trial_index":48,"time_elapsed":657491,"internal_node_id":"0.0-4.0-1.20","subject_id":"581ccd016c73180001fa5b2a","study_id":"6197b3f67c2b5cd3b6d9596a","session_id":"619bfbddab222963d9e7efd5","condition":"full-information","relevant_dimensions":["antennae","pattern"],"bee_group":{"antennae":"B","wings":"X","pattern":"S","legs":"X"},"bonus":1.300000000000001},{"rt":1046,"stimulus":"bees-with-color/bee-B2DF.svg","response":0,"trial_type":"image-button-response","trial_index":49,"time_elapsed":658539,"internal_node_id":"0.0-4.0-0.21","subject_id":"581ccd016c73180001fa5b2a","study_id":"6197b3f67c2b5cd3b6d9596a","session_id":"619bfbddab222963d9e7efd5","condition":"full-information","relevant_dimensions":["antennae","pattern"],"bee_group":{"antennae":"B","wings":"X","pattern":"S","legs":"X"},"action":"harvest","summary":"good-harvest","bonus":1.300000000000001},{"rt":573.7999999523163,"stimulus":"\n                    <p><b>Action: <em>harvest</em></b></p>\n                    <p>This is the bee that you just saw.</p>\n                    <img src=\"bees-with-color/bee-B2DF.svg\" width=\"200\">\n                    <p><span class=\"greenText\"><b>Successful harvest!</b></span><br>Your pay has increased by $0.02. Your bonus pay is now $0.56.</p>\n            ","response":0,"trial_type":"html-button-response","trial_index":50,"time_elapsed":659115,"internal_node_id":"0.0-4.0-1.21","subject_id":"581ccd016c73180001fa5b2a","study_id":"6197b3f67c2b5cd3b6d9596a","session_id":"619bfbddab222963d9e7efd5","condition":"full-information","relevant_dimensions":["antennae","pattern"],"bee_group":{"antennae":"B","wings":"X","pattern":"S","legs":"X"},"bonus":1.300000000000001},{"rt":1349.9000000953674,"stimulus":"bees-with-color/bee-A2SF.svg","response":1,"trial_type":"image-button-response","trial_index":51,"time_elapsed":660467,"internal_node_id":"0.0-4.0-0.22","subject_id":"581ccd016c73180001fa5b2a","study_id":"6197b3f67c2b5cd3b6d9596a","session_id":"619bfbddab222963d9e7efd5","condition":"full-information","relevant_dimensions":["antennae","pattern"],"bee_group":{"antennae":"B","wings":"X","pattern":"S","legs":"X"},"action":"avoid","summary":"bad-avoid","bonus":1.300000000000001},{"rt":805.9000000953674,"stimulus":"\n                    <p><b>Action: <em>avoid</em></b></p>\n                    <p>This is the bee that you just saw.</p>\n                    <img src=\"bees-with-color/bee-A2SF.svg\" width=\"200\">\n                    <p><span class=\"redText\">Bad choice,</span> the bee was friendly.<br>Your bonus pay is unchanged, and remains at $0.56.</p>\n            ","response":0,"trial_type":"html-button-response","trial_index":52,"time_elapsed":661275,"internal_node_id":"0.0-4.0-1.22","subject_id":"581ccd016c73180001fa5b2a","study_id":"6197b3f67c2b5cd3b6d9596a","session_id":"619bfbddab222963d9e7efd5","condition":"full-information","relevant_dimensions":["antennae","pattern"],"bee_group":{"antennae":"B","wings":"X","pattern":"S","legs":"X"},"bonus":1.300000000000001},{"rt":886,"stimulus":"bees-with-color/bee-A1DF.svg","response":0,"trial_type":"image-button-response","trial_index":53,"time_elapsed":662163,"internal_node_id":"0.0-4.0-0.23","subject_id":"581ccd016c73180001fa5b2a","study_id":"6197b3f67c2b5cd3b6d9596a","session_id":"619bfbddab222963d9e7efd5","condition":"full-information","relevant_dimensions":["antennae","pattern"],"bee_group":{"antennae":"B","wings":"X","pattern":"S","legs":"X"},"action":"harvest","summary":"good-harvest","bonus":1.300000000000001},{"rt":774.0999999046326,"stimulus":"\n                    <p><b>Action: <em>harvest</em></b></p>\n                    <p>This is the bee that you just saw.</p>\n                    <img src=\"bees-with-color/bee-A1DF.svg\" width=\"200\">\n                    <p><span class=\"greenText\"><b>Successful harvest!</b></span><br>Your pay has increased by $0.02. Your bonus pay is now $0.58.</p>\n            ","response":0,"trial_type":"html-button-response","trial_index":54,"time_elapsed":662939,"internal_node_id":"0.0-4.0-1.23","subject_id":"581ccd016c73180001fa5b2a","study_id":"6197b3f67c2b5cd3b6d9596a","session_id":"619bfbddab222963d9e7efd5","condition":"full-information","relevant_dimensions":["antennae","pattern"],"bee_group":{"antennae":"B","wings":"X","pattern":"S","legs":"X"},"bonus":1.300000000000001},{"rt":1469.9000000953674,"stimulus":"bees-with-color/bee-B2SM.svg","response":1,"trial_type":"image-button-response","trial_index":55,"time_elapsed":664411,"internal_node_id":"0.0-4.0-0.24","subject_id":"581ccd016c73180001fa5b2a","study_id":"6197b3f67c2b5cd3b6d9596a","session_id":"619bfbddab222963d9e7efd5","condition":"full-information","relevant_dimensions":["antennae","pattern"],"bee_group":{"antennae":"B","wings":"X","pattern":"S","legs":"X"},"action":"avoid","summary":"good-avoid","bonus":1.300000000000001},{"rt":1565.0999999046326,"stimulus":"\n                    <p><b>Action: <em>avoid</em></b></p>\n                    <p>This is the bee that you just saw.</p>\n                    <img src=\"bees-with-color/bee-B2SM.svg\" width=\"200\">\n                    <p><span class=\"greenText\">Good choice!</span>  This bee would have stung you.<br>Your bonus pay is unchanged, and remains at $0.58.</p>\n            ","response":0,"trial_type":"html-button-response","trial_index":56,"time_elapsed":665978,"internal_node_id":"0.0-4.0-1.24","subject_id":"581ccd016c73180001fa5b2a","study_id":"6197b3f67c2b5cd3b6d9596a","session_id":"619bfbddab222963d9e7efd5","condition":"full-information","relevant_dimensions":["antennae","pattern"],"bee_group":{"antennae":"B","wings":"X","pattern":"S","legs":"X"},"bonus":1.300000000000001},{"rt":1423.2000000476837,"stimulus":"bees-with-color/bee-B1DM.svg","response":0,"trial_type":"image-button-response","trial_index":57,"time_elapsed":667403,"internal_node_id":"0.0-4.0-0.25","subject_id":"581ccd016c73180001fa5b2a","study_id":"6197b3f67c2b5cd3b6d9596a","session_id":"619bfbddab222963d9e7efd5","condition":"full-information","relevant_dimensions":["antennae","pattern"],"bee_group":{"antennae":"B","wings":"X","pattern":"S","legs":"X"},"action":"harvest","summary":"good-harvest","bonus":1.300000000000001},{"rt":725.2000000476837,"stimulus":"\n                    <p><b>Action: <em>harvest</em></b></p>\n                    <p>This is the bee that you just saw.</p>\n                    <img src=\"bees-with-color/bee-B1DM.svg\" width=\"200\">\n                    <p><span class=\"greenText\"><b>Successful harvest!</b></span><br>Your pay has increased by $0.02. Your bonus pay is now $0.60.</p>\n            ","response":0,"trial_type":"html-button-response","trial_index":58,"time_elapsed":668131,"internal_node_id":"0.0-4.0-1.25","subject_id":"581ccd016c73180001fa5b2a","study_id":"6197b3f67c2b5cd3b6d9596a","session_id":"619bfbddab222963d9e7efd5","condition":"full-information","relevant_dimensions":["antennae","pattern"],"bee_group":{"antennae":"B","wings":"X","pattern":"S","legs":"X"},"bonus":1.300000000000001},{"rt":1414,"stimulus":"bees-with-color/bee-A1SF.svg","response":1,"trial_type":"image-button-response","trial_index":59,"time_elapsed":669547,"internal_node_id":"0.0-4.0-0.26","subject_id":"581ccd016c73180001fa5b2a","study_id":"6197b3f67c2b5cd3b6d9596a","session_id":"619bfbddab222963d9e7efd5","condition":"full-information","relevant_dimensions":["antennae","pattern"],"bee_group":{"antennae":"B","wings":"X","pattern":"S","legs":"X"},"action":"avoid","summary":"bad-avoid","bonus":1.300000000000001},{"rt":805.6999998092651,"stimulus":"\n                    <p><b>Action: <em>avoid</em></b></p>\n                    <p>This is the bee that you just saw.</p>\n                    <img src=\"bees-with-color/bee-A1SF.svg\" width=\"200\">\n                    <p><span class=\"redText\">Bad choice,</span> the bee was friendly.<br>Your bonus pay is unchanged, and remains at $0.60.</p>\n            ","response":0,"trial_type":"html-button-response","trial_index":60,"time_elapsed":670355,"internal_node_id":"0.0-4.0-1.26","subject_id":"581ccd016c73180001fa5b2a","study_id":"6197b3f67c2b5cd3b6d9596a","session_id":"619bfbddab222963d9e7efd5","condition":"full-information","relevant_dimensions":["antennae","pattern"],"bee_group":{"antennae":"B","wings":"X","pattern":"S","legs":"X"},"bonus":1.300000000000001},{"rt":1709.7999999523163,"stimulus":"bees-with-color/bee-B2SF.svg","response":1,"trial_type":"image-button-response","trial_index":61,"time_elapsed":672067,"internal_node_id":"0.0-4.0-0.27","subject_id":"581ccd016c73180001fa5b2a","study_id":"6197b3f67c2b5cd3b6d9596a","session_id":"619bfbddab222963d9e7efd5","condition":"full-information","relevant_dimensions":["antennae","pattern"],"bee_group":{"antennae":"B","wings":"X","pattern":"S","legs":"X"},"action":"avoid","summary":"good-avoid","bonus":1.300000000000001},{"rt":9606,"stimulus":"\n                    <p><b>Action: <em>avoid</em></b></p>\n                    <p>This is the bee that you just saw.</p>\n                    <img src=\"bees-with-color/bee-B2SF.svg\" width=\"200\">\n                    <p><span class=\"greenText\">Good choice!</span>  This bee would have stung you.<br>Your bonus pay is unchanged, and remains at $0.60.</p>\n            ","response":0,"trial_type":"html-button-response","trial_index":62,"time_elapsed":681674,"internal_node_id":"0.0-4.0-1.27","subject_id":"581ccd016c73180001fa5b2a","study_id":"6197b3f67c2b5cd3b6d9596a","session_id":"619bfbddab222963d9e7efd5","condition":"full-information","relevant_dimensions":["antennae","pattern"],"bee_group":{"antennae":"B","wings":"X","pattern":"S","legs":"X"},"bonus":1.300000000000001},{"rt":1869.2999999523163,"stimulus":"bees-with-color/bee-A1SM.svg","response":1,"trial_type":"image-button-response","trial_index":63,"time_elapsed":683545,"internal_node_id":"0.0-4.0-0.28","subject_id":"581ccd016c73180001fa5b2a","study_id":"6197b3f67c2b5cd3b6d9596a","session_id":"619bfbddab222963d9e7efd5","condition":"full-information","relevant_dimensions":["antennae","pattern"],"bee_group":{"antennae":"B","wings":"X","pattern":"S","legs":"X"},"action":"avoid","summary":"bad-avoid","bonus":1.300000000000001},{"rt":799.9000000953674,"stimulus":"\n                    <p><b>Action: <em>avoid</em></b></p>\n                    <p>This is the bee that you just saw.</p>\n                    <img src=\"bees-with-color/bee-A1SM.svg\" width=\"200\">\n                    <p><span class=\"redText\">Bad choice,</span> the bee was friendly.<br>Your bonus pay is unchanged, and remains at $0.60.</p>\n            ","response":0,"trial_type":"html-button-response","trial_index":64,"time_elapsed":684346,"internal_node_id":"0.0-4.0-1.28","subject_id":"581ccd016c73180001fa5b2a","study_id":"6197b3f67c2b5cd3b6d9596a","session_id":"619bfbddab222963d9e7efd5","condition":"full-information","relevant_dimensions":["antennae","pattern"],"bee_group":{"antennae":"B","wings":"X","pattern":"S","legs":"X"},"bonus":1.300000000000001},{"rt":990.5,"stimulus":"bees-with-color/bee-A1DM.svg","response":0,"trial_type":"image-button-response","trial_index":65,"time_elapsed":685338,"internal_node_id":"0.0-4.0-0.29","subject_id":"581ccd016c73180001fa5b2a","study_id":"6197b3f67c2b5cd3b6d9596a","session_id":"619bfbddab222963d9e7efd5","condition":"full-information","relevant_dimensions":["antennae","pattern"],"bee_group":{"antennae":"B","wings":"X","pattern":"S","legs":"X"},"action":"harvest","summary":"good-harvest","bonus":1.300000000000001},{"rt":798.2999999523163,"stimulus":"\n                    <p><b>Action: <em>harvest</em></b></p>\n                    <p>This is the bee that you just saw.</p>\n                    <img src=\"bees-with-color/bee-A1DM.svg\" width=\"200\">\n                    <p><span class=\"greenText\"><b>Successful harvest!</b></span><br>Your pay has increased by $0.02. Your bonus pay is now $0.62.</p>\n            ","response":0,"trial_type":"html-button-response","trial_index":66,"time_elapsed":686139,"internal_node_id":"0.0-4.0-1.29","subject_id":"581ccd016c73180001fa5b2a","study_id":"6197b3f67c2b5cd3b6d9596a","session_id":"619bfbddab222963d9e7efd5","condition":"full-information","relevant_dimensions":["antennae","pattern"],"bee_group":{"antennae":"B","wings":"X","pattern":"S","legs":"X"},"bonus":1.300000000000001},{"rt":734.1999998092651,"stimulus":"bees-with-color/bee-A2DF.svg","response":0,"trial_type":"image-button-response","trial_index":67,"time_elapsed":686874,"internal_node_id":"0.0-4.0-0.30","subject_id":"581ccd016c73180001fa5b2a","study_id":"6197b3f67c2b5cd3b6d9596a","session_id":"619bfbddab222963d9e7efd5","condition":"full-information","relevant_dimensions":["antennae","pattern"],"bee_group":{"antennae":"B","wings":"X","pattern":"S","legs":"X"},"action":"harvest","summary":"good-harvest","bonus":1.300000000000001},{"rt":622.2999999523163,"stimulus":"\n                    <p><b>Action: <em>harvest</em></b></p>\n                    <p>This is the bee that you just saw.</p>\n                    <img src=\"bees-with-color/bee-A2DF.svg\" width=\"200\">\n                    <p><span class=\"greenText\"><b>Successful harvest!</b></span><br>Your pay has increased by $0.02. Your bonus pay is now $0.64.</p>\n            ","response":0,"trial_type":"html-button-response","trial_index":68,"time_elapsed":687498,"internal_node_id":"0.0-4.0-1.30","subject_id":"581ccd016c73180001fa5b2a","study_id":"6197b3f67c2b5cd3b6d9596a","session_id":"619bfbddab222963d9e7efd5","condition":"full-information","relevant_dimensions":["antennae","pattern"],"bee_group":{"antennae":"B","wings":"X","pattern":"S","legs":"X"},"bonus":1.300000000000001},{"rt":798.2999999523163,"stimulus":"bees-with-color/bee-B2DM.svg","response":0,"trial_type":"image-button-response","trial_index":69,"time_elapsed":688298,"internal_node_id":"0.0-4.0-0.31","subject_id":"581ccd016c73180001fa5b2a","study_id":"6197b3f67c2b5cd3b6d9596a","session_id":"619bfbddab222963d9e7efd5","condition":"full-information","relevant_dimensions":["antennae","pattern"],"bee_group":{"antennae":"B","wings":"X","pattern":"S","legs":"X"},"action":"harvest","summary":"good-harvest","bonus":1.300000000000001},{"rt":806.0999999046326,"stimulus":"\n                    <p><b>Action: <em>harvest</em></b></p>\n                    <p>This is the bee that you just saw.</p>\n                    <img src=\"bees-with-color/bee-B2DM.svg\" width=\"200\">\n                    <p><span class=\"greenText\"><b>Successful harvest!</b></span><br>Your pay has increased by $0.02. Your bonus pay is now $0.66.</p>\n            ","response":0,"trial_type":"html-button-response","trial_index":70,"time_elapsed":689106,"internal_node_id":"0.0-4.0-1.31","subject_id":"581ccd016c73180001fa5b2a","study_id":"6197b3f67c2b5cd3b6d9596a","session_id":"619bfbddab222963d9e7efd5","condition":"full-information","relevant_dimensions":["antennae","pattern"],"bee_group":{"antennae":"B","wings":"X","pattern":"S","legs":"X"},"bonus":1.300000000000001},{"rt":942.5,"stimulus":"bees-with-color/bee-B1DF.svg","response":0,"trial_type":"image-button-response","trial_index":71,"time_elapsed":690050,"internal_node_id":"0.0-4.0-0.32","subject_id":"581ccd016c73180001fa5b2a","study_id":"6197b3f67c2b5cd3b6d9596a","session_id":"619bfbddab222963d9e7efd5","condition":"full-information","relevant_dimensions":["antennae","pattern"],"bee_group":{"antennae":"B","wings":"X","pattern":"S","legs":"X"},"action":"harvest","summary":"good-harvest","bonus":1.300000000000001},{"rt":606.1999998092651,"stimulus":"\n                    <p><b>Action: <em>harvest</em></b></p>\n                    <p>This is the bee that you just saw.</p>\n                    <img src=\"bees-with-color/bee-B1DF.svg\" width=\"200\">\n                    <p><span class=\"greenText\"><b>Successful harvest!</b></span><br>Your pay has increased by $0.02. Your bonus pay is now $0.68.</p>\n            ","response":0,"trial_type":"html-button-response","trial_index":72,"time_elapsed":690658,"internal_node_id":"0.0-4.0-1.32","subject_id":"581ccd016c73180001fa5b2a","study_id":"6197b3f67c2b5cd3b6d9596a","session_id":"619bfbddab222963d9e7efd5","condition":"full-information","relevant_dimensions":["antennae","pattern"],"bee_group":{"antennae":"B","wings":"X","pattern":"S","legs":"X"},"bonus":1.300000000000001},{"rt":1622.4000000953674,"stimulus":"bees-with-color/bee-B1SM.svg","response":1,"trial_type":"image-button-response","trial_index":73,"time_elapsed":692282,"internal_node_id":"0.0-4.0-0.33","subject_id":"581ccd016c73180001fa5b2a","study_id":"6197b3f67c2b5cd3b6d9596a","session_id":"619bfbddab222963d9e7efd5","condition":"full-information","relevant_dimensions":["antennae","pattern"],"bee_group":{"antennae":"B","wings":"X","pattern":"S","legs":"X"},"action":"avoid","summary":"good-avoid","bonus":1.300000000000001},{"rt":1950.2000000476837,"stimulus":"\n                    <p><b>Action: <em>avoid</em></b></p>\n                    <p>This is the bee that you just saw.</p>\n                    <img src=\"bees-with-color/bee-B1SM.svg\" width=\"200\">\n                    <p><span class=\"greenText\">Good choice!</span>  This bee would have stung you.<br>Your bonus pay is unchanged, and remains at $0.68.</p>\n            ","response":0,"trial_type":"html-button-response","trial_index":74,"time_elapsed":694234,"internal_node_id":"0.0-4.0-1.33","subject_id":"581ccd016c73180001fa5b2a","study_id":"6197b3f67c2b5cd3b6d9596a","session_id":"619bfbddab222963d9e7efd5","condition":"full-information","relevant_dimensions":["antennae","pattern"],"bee_group":{"antennae":"B","wings":"X","pattern":"S","legs":"X"},"bonus":1.300000000000001},{"rt":1118.2000000476837,"stimulus":"bees-with-color/bee-B1DM.svg","response":0,"trial_type":"image-button-response","trial_index":75,"time_elapsed":695354,"internal_node_id":"0.0-4.0-0.34","subject_id":"581ccd016c73180001fa5b2a","study_id":"6197b3f67c2b5cd3b6d9596a","session_id":"619bfbddab222963d9e7efd5","condition":"full-information","relevant_dimensions":["antennae","pattern"],"bee_group":{"antennae":"B","wings":"X","pattern":"S","legs":"X"},"action":"harvest","summary":"good-harvest","bonus":1.300000000000001},{"rt":853.8999998569489,"stimulus":"\n                    <p><b>Action: <em>harvest</em></b></p>\n                    <p>This is the bee that you just saw.</p>\n                    <img src=\"bees-with-color/bee-B1DM.svg\" width=\"200\">\n                    <p><span class=\"greenText\"><b>Successful harvest!</b></span><br>Your pay has increased by $0.02. Your bonus pay is now $0.70.</p>\n            ","response":0,"trial_type":"html-button-response","trial_index":76,"time_elapsed":696210,"internal_node_id":"0.0-4.0-1.34","subject_id":"581ccd016c73180001fa5b2a","study_id":"6197b3f67c2b5cd3b6d9596a","session_id":"619bfbddab222963d9e7efd5","condition":"full-information","relevant_dimensions":["antennae","pattern"],"bee_group":{"antennae":"B","wings":"X","pattern":"S","legs":"X"},"bonus":1.300000000000001},{"rt":1069.7000000476837,"stimulus":"bees-with-color/bee-A2SF.svg","response":1,"trial_type":"image-button-response","trial_index":77,"time_elapsed":697281,"internal_node_id":"0.0-4.0-0.35","subject_id":"581ccd016c73180001fa5b2a","study_id":"6197b3f67c2b5cd3b6d9596a","session_id":"619bfbddab222963d9e7efd5","condition":"full-information","relevant_dimensions":["antennae","pattern"],"bee_group":{"antennae":"B","wings":"X","pattern":"S","legs":"X"},"action":"avoid","summary":"bad-avoid","bonus":1.300000000000001},{"rt":751,"stimulus":"\n                    <p><b>Action: <em>avoid</em></b></p>\n                    <p>This is the bee that you just saw.</p>\n                    <img src=\"bees-with-color/bee-A2SF.svg\" width=\"200\">\n                    <p><span class=\"redText\">Bad choice,</span> the bee was friendly.<br>Your bonus pay is unchanged, and remains at $0.70.</p>\n            ","response":0,"trial_type":"html-button-response","trial_index":78,"time_elapsed":698034,"internal_node_id":"0.0-4.0-1.35","subject_id":"581ccd016c73180001fa5b2a","study_id":"6197b3f67c2b5cd3b6d9596a","session_id":"619bfbddab222963d9e7efd5","condition":"full-information","relevant_dimensions":["antennae","pattern"],"bee_group":{"antennae":"B","wings":"X","pattern":"S","legs":"X"},"bonus":1.300000000000001},{"rt":1342.3999998569489,"stimulus":"bees-with-color/bee-A1SF.svg","response":1,"trial_type":"image-button-response","trial_index":79,"time_elapsed":699378,"internal_node_id":"0.0-4.0-0.36","subject_id":"581ccd016c73180001fa5b2a","study_id":"6197b3f67c2b5cd3b6d9596a","session_id":"619bfbddab222963d9e7efd5","condition":"full-information","relevant_dimensions":["antennae","pattern"],"bee_group":{"antennae":"B","wings":"X","pattern":"S","legs":"X"},"action":"avoid","summary":"bad-avoid","bonus":1.300000000000001},{"rt":717.8000001907349,"stimulus":"\n                    <p><b>Action: <em>avoid</em></b></p>\n                    <p>This is the bee that you just saw.</p>\n                    <img src=\"bees-with-color/bee-A1SF.svg\" width=\"200\">\n                    <p><span class=\"redText\">Bad choice,</span> the bee was friendly.<br>Your bonus pay is unchanged, and remains at $0.70.</p>\n            ","response":0,"trial_type":"html-button-response","trial_index":80,"time_elapsed":700098,"internal_node_id":"0.0-4.0-1.36","subject_id":"581ccd016c73180001fa5b2a","study_id":"6197b3f67c2b5cd3b6d9596a","session_id":"619bfbddab222963d9e7efd5","condition":"full-information","relevant_dimensions":["antennae","pattern"],"bee_group":{"antennae":"B","wings":"X","pattern":"S","legs":"X"},"bonus":1.300000000000001},{"rt":1038.5,"stimulus":"bees-with-color/bee-B2DM.svg","response":0,"trial_type":"image-button-response","trial_index":81,"time_elapsed":701138,"internal_node_id":"0.0-4.0-0.37","subject_id":"581ccd016c73180001fa5b2a","study_id":"6197b3f67c2b5cd3b6d9596a","session_id":"619bfbddab222963d9e7efd5","condition":"full-information","relevant_dimensions":["antennae","pattern"],"bee_group":{"antennae":"B","wings":"X","pattern":"S","legs":"X"},"action":"harvest","summary":"good-harvest","bonus":1.300000000000001},{"rt":598,"stimulus":"\n                    <p><b>Action: <em>harvest</em></b></p>\n                    <p>This is the bee that you just saw.</p>\n                    <img src=\"bees-with-color/bee-B2DM.svg\" width=\"200\">\n                    <p><span class=\"greenText\"><b>Successful harvest!</b></span><br>Your pay has increased by $0.02. Your bonus pay is now $0.72.</p>\n            ","response":0,"trial_type":"html-button-response","trial_index":82,"time_elapsed":701738,"internal_node_id":"0.0-4.0-1.37","subject_id":"581ccd016c73180001fa5b2a","study_id":"6197b3f67c2b5cd3b6d9596a","session_id":"619bfbddab222963d9e7efd5","condition":"full-information","relevant_dimensions":["antennae","pattern"],"bee_group":{"antennae":"B","wings":"X","pattern":"S","legs":"X"},"bonus":1.300000000000001},{"rt":862.3999998569489,"stimulus":"bees-with-color/bee-B2SF.svg","response":1,"trial_type":"image-button-response","trial_index":83,"time_elapsed":702602,"internal_node_id":"0.0-4.0-0.38","subject_id":"581ccd016c73180001fa5b2a","study_id":"6197b3f67c2b5cd3b6d9596a","session_id":"619bfbddab222963d9e7efd5","condition":"full-information","relevant_dimensions":["antennae","pattern"],"bee_group":{"antennae":"B","wings":"X","pattern":"S","legs":"X"},"action":"avoid","summary":"good-avoid","bonus":1.300000000000001},{"rt":1445.8999998569489,"stimulus":"\n                    <p><b>Action: <em>avoid</em></b></p>\n                    <p>This is the bee that you just saw.</p>\n                    <img src=\"bees-with-color/bee-B2SF.svg\" width=\"200\">\n                    <p><span class=\"greenText\">Good choice!</span>  This bee would have stung you.<br>Your bonus pay is unchanged, and remains at $0.72.</p>\n            ","response":0,"trial_type":"html-button-response","trial_index":84,"time_elapsed":704050,"internal_node_id":"0.0-4.0-1.38","subject_id":"581ccd016c73180001fa5b2a","study_id":"6197b3f67c2b5cd3b6d9596a","session_id":"619bfbddab222963d9e7efd5","condition":"full-information","relevant_dimensions":["antennae","pattern"],"bee_group":{"antennae":"B","wings":"X","pattern":"S","legs":"X"},"bonus":1.300000000000001},{"rt":1166.2999999523163,"stimulus":"bees-with-color/bee-A1SM.svg","response":1,"trial_type":"image-button-response","trial_index":85,"time_elapsed":705218,"internal_node_id":"0.0-4.0-0.39","subject_id":"581ccd016c73180001fa5b2a","study_id":"6197b3f67c2b5cd3b6d9596a","session_id":"619bfbddab222963d9e7efd5","condition":"full-information","relevant_dimensions":["antennae","pattern"],"bee_group":{"antennae":"B","wings":"X","pattern":"S","legs":"X"},"action":"avoid","summary":"bad-avoid","bonus":1.300000000000001},{"rt":621.8999998569489,"stimulus":"\n                    <p><b>Action: <em>avoid</em></b></p>\n                    <p>This is the bee that you just saw.</p>\n                    <img src=\"bees-with-color/bee-A1SM.svg\" width=\"200\">\n                    <p><span class=\"redText\">Bad choice,</span> the bee was friendly.<br>Your bonus pay is unchanged, and remains at $0.72.</p>\n            ","response":0,"trial_type":"html-button-response","trial_index":86,"time_elapsed":705842,"internal_node_id":"0.0-4.0-1.39","subject_id":"581ccd016c73180001fa5b2a","study_id":"6197b3f67c2b5cd3b6d9596a","session_id":"619bfbddab222963d9e7efd5","condition":"full-information","relevant_dimensions":["antennae","pattern"],"bee_group":{"antennae":"B","wings":"X","pattern":"S","legs":"X"},"bonus":1.300000000000001},{"rt":886.2999999523163,"stimulus":"bees-with-color/bee-B2DF.svg","response":0,"trial_type":"image-button-response","trial_index":87,"time_elapsed":706730,"internal_node_id":"0.0-4.0-0.40","subject_id":"581ccd016c73180001fa5b2a","study_id":"6197b3f67c2b5cd3b6d9596a","session_id":"619bfbddab222963d9e7efd5","condition":"full-information","relevant_dimensions":["antennae","pattern"],"bee_group":{"antennae":"B","wings":"X","pattern":"S","legs":"X"},"action":"harvest","summary":"good-harvest","bonus":1.300000000000001},{"rt":773.8000001907349,"stimulus":"\n                    <p><b>Action: <em>harvest</em></b></p>\n                    <p>This is the bee that you just saw.</p>\n                    <img src=\"bees-with-color/bee-B2DF.svg\" width=\"200\">\n                    <p><span class=\"greenText\"><b>Successful harvest!</b></span><br>Your pay has increased by $0.02. Your bonus pay is now $0.74.</p>\n            ","response":0,"trial_type":"html-button-response","trial_index":88,"time_elapsed":707506,"internal_node_id":"0.0-4.0-1.40","subject_id":"581ccd016c73180001fa5b2a","study_id":"6197b3f67c2b5cd3b6d9596a","session_id":"619bfbddab222963d9e7efd5","condition":"full-information","relevant_dimensions":["antennae","pattern"],"bee_group":{"antennae":"B","wings":"X","pattern":"S","legs":"X"},"bonus":1.300000000000001},{"rt":1086.2999999523163,"stimulus":"bees-with-color/bee-B2SM.svg","response":1,"trial_type":"image-button-response","trial_index":89,"time_elapsed":708594,"internal_node_id":"0.0-4.0-0.41","subject_id":"581ccd016c73180001fa5b2a","study_id":"6197b3f67c2b5cd3b6d9596a","session_id":"619bfbddab222963d9e7efd5","condition":"full-information","relevant_dimensions":["antennae","pattern"],"bee_group":{"antennae":"B","wings":"X","pattern":"S","legs":"X"},"action":"avoid","summary":"good-avoid","bonus":1.300000000000001},{"rt":885.2999999523163,"stimulus":"\n                    <p><b>Action: <em>avoid</em></b></p>\n                    <p>This is the bee that you just saw.</p>\n                    <img src=\"bees-with-color/bee-B2SM.svg\" width=\"200\">\n                    <p><span class=\"greenText\">Good choice!</span>  This bee would have stung you.<br>Your bonus pay is unchanged, and remains at $0.74.</p>\n            ","response":0,"trial_type":"html-button-response","trial_index":90,"time_elapsed":709482,"internal_node_id":"0.0-4.0-1.41","subject_id":"581ccd016c73180001fa5b2a","study_id":"6197b3f67c2b5cd3b6d9596a","session_id":"619bfbddab222963d9e7efd5","condition":"full-information","relevant_dimensions":["antennae","pattern"],"bee_group":{"antennae":"B","wings":"X","pattern":"S","legs":"X"},"bonus":1.300000000000001},{"rt":1158.1999998092651,"stimulus":"bees-with-color/bee-A2DF.svg","response":0,"trial_type":"image-button-response","trial_index":91,"time_elapsed":710642,"internal_node_id":"0.0-4.0-0.42","subject_id":"581ccd016c73180001fa5b2a","study_id":"6197b3f67c2b5cd3b6d9596a","session_id":"619bfbddab222963d9e7efd5","condition":"full-information","relevant_dimensions":["antennae","pattern"],"bee_group":{"antennae":"B","wings":"X","pattern":"S","legs":"X"},"action":"harvest","summary":"good-harvest","bonus":1.300000000000001},{"rt":645.8999998569489,"stimulus":"\n                    <p><b>Action: <em>harvest</em></b></p>\n                    <p>This is the bee that you just saw.</p>\n                    <img src=\"bees-with-color/bee-A2DF.svg\" width=\"200\">\n                    <p><span class=\"greenText\"><b>Successful harvest!</b></span><br>Your pay has increased by $0.02. Your bonus pay is now $0.76.</p>\n            ","response":0,"trial_type":"html-button-response","trial_index":92,"time_elapsed":711290,"internal_node_id":"0.0-4.0-1.42","subject_id":"581ccd016c73180001fa5b2a","study_id":"6197b3f67c2b5cd3b6d9596a","session_id":"619bfbddab222963d9e7efd5","condition":"full-information","relevant_dimensions":["antennae","pattern"],"bee_group":{"antennae":"B","wings":"X","pattern":"S","legs":"X"},"bonus":1.300000000000001},{"rt":942.0999999046326,"stimulus":"bees-with-color/bee-A2DM.svg","response":0,"trial_type":"image-button-response","trial_index":93,"time_elapsed":712234,"internal_node_id":"0.0-4.0-0.43","subject_id":"581ccd016c73180001fa5b2a","study_id":"6197b3f67c2b5cd3b6d9596a","session_id":"619bfbddab222963d9e7efd5","condition":"full-information","relevant_dimensions":["antennae","pattern"],"bee_group":{"antennae":"B","wings":"X","pattern":"S","legs":"X"},"action":"harvest","summary":"good-harvest","bonus":1.300000000000001},{"rt":614.0999999046326,"stimulus":"\n                    <p><b>Action: <em>harvest</em></b></p>\n                    <p>This is the bee that you just saw.</p>\n                    <img src=\"bees-with-color/bee-A2DM.svg\" width=\"200\">\n                    <p><span class=\"greenText\"><b>Successful harvest!</b></span><br>Your pay has increased by $0.02. Your bonus pay is now $0.78.</p>\n            ","response":0,"trial_type":"html-button-response","trial_index":94,"time_elapsed":712850,"internal_node_id":"0.0-4.0-1.43","subject_id":"581ccd016c73180001fa5b2a","study_id":"6197b3f67c2b5cd3b6d9596a","session_id":"619bfbddab222963d9e7efd5","condition":"full-information","relevant_dimensions":["antennae","pattern"],"bee_group":{"antennae":"B","wings":"X","pattern":"S","legs":"X"},"bonus":1.300000000000001},{"rt":741.6000001430511,"stimulus":"bees-with-color/bee-A1DM.svg","response":0,"trial_type":"image-button-response","trial_index":95,"time_elapsed":713593,"internal_node_id":"0.0-4.0-0.44","subject_id":"581ccd016c73180001fa5b2a","study_id":"6197b3f67c2b5cd3b6d9596a","session_id":"619bfbddab222963d9e7efd5","condition":"full-information","relevant_dimensions":["antennae","pattern"],"bee_group":{"antennae":"B","wings":"X","pattern":"S","legs":"X"},"action":"harvest","summary":"good-harvest","bonus":1.300000000000001},{"rt":566.5999999046326,"stimulus":"\n                    <p><b>Action: <em>harvest</em></b></p>\n                    <p>This is the bee that you just saw.</p>\n                    <img src=\"bees-with-color/bee-A1DM.svg\" width=\"200\">\n                    <p><span class=\"greenText\"><b>Successful harvest!</b></span><br>Your pay has increased by $0.02. Your bonus pay is now $0.80.</p>\n            ","response":0,"trial_type":"html-button-response","trial_index":96,"time_elapsed":714162,"internal_node_id":"0.0-4.0-1.44","subject_id":"581ccd016c73180001fa5b2a","study_id":"6197b3f67c2b5cd3b6d9596a","session_id":"619bfbddab222963d9e7efd5","condition":"full-information","relevant_dimensions":["antennae","pattern"],"bee_group":{"antennae":"B","wings":"X","pattern":"S","legs":"X"},"bonus":1.300000000000001},{"rt":749.6000001430511,"stimulus":"bees-with-color/bee-A1DF.svg","response":0,"trial_type":"image-button-response","trial_index":97,"time_elapsed":714913,"internal_node_id":"0.0-4.0-0.45","subject_id":"581ccd016c73180001fa5b2a","study_id":"6197b3f67c2b5cd3b6d9596a","session_id":"619bfbddab222963d9e7efd5","condition":"full-information","relevant_dimensions":["antennae","pattern"],"bee_group":{"antennae":"B","wings":"X","pattern":"S","legs":"X"},"action":"harvest","summary":"good-harvest","bonus":1.300000000000001},{"rt":625.1000001430511,"stimulus":"\n                    <p><b>Action: <em>harvest</em></b></p>\n                    <p>This is the bee that you just saw.</p>\n                    <img src=\"bees-with-color/bee-A1DF.svg\" width=\"200\">\n                    <p><span class=\"greenText\"><b>Successful harvest!</b></span><br>Your pay has increased by $0.02. Your bonus pay is now $0.82.</p>\n            ","response":0,"trial_type":"html-button-response","trial_index":98,"time_elapsed":715539,"internal_node_id":"0.0-4.0-1.45","subject_id":"581ccd016c73180001fa5b2a","study_id":"6197b3f67c2b5cd3b6d9596a","session_id":"619bfbddab222963d9e7efd5","condition":"full-information","relevant_dimensions":["antennae","pattern"],"bee_group":{"antennae":"B","wings":"X","pattern":"S","legs":"X"},"bonus":1.300000000000001},{"rt":910.3000001907349,"stimulus":"bees-with-color/bee-A2SM.svg","response":1,"trial_type":"image-button-response","trial_index":99,"time_elapsed":716451,"internal_node_id":"0.0-4.0-0.46","subject_id":"581ccd016c73180001fa5b2a","study_id":"6197b3f67c2b5cd3b6d9596a","session_id":"619bfbddab222963d9e7efd5","condition":"full-information","relevant_dimensions":["antennae","pattern"],"bee_group":{"antennae":"B","wings":"X","pattern":"S","legs":"X"},"action":"avoid","summary":"bad-avoid","bonus":1.300000000000001},{"rt":757.0999999046326,"stimulus":"\n                    <p><b>Action: <em>avoid</em></b></p>\n                    <p>This is the bee that you just saw.</p>\n                    <img src=\"bees-with-color/bee-A2SM.svg\" width=\"200\">\n                    <p><span class=\"redText\">Bad choice,</span> the bee was friendly.<br>Your bonus pay is unchanged, and remains at $0.82.</p>\n            ","response":0,"trial_type":"html-button-response","trial_index":100,"time_elapsed":717210,"internal_node_id":"0.0-4.0-1.46","subject_id":"581ccd016c73180001fa5b2a","study_id":"6197b3f67c2b5cd3b6d9596a","session_id":"619bfbddab222963d9e7efd5","condition":"full-information","relevant_dimensions":["antennae","pattern"],"bee_group":{"antennae":"B","wings":"X","pattern":"S","legs":"X"},"bonus":1.300000000000001},{"rt":758,"stimulus":"bees-with-color/bee-B1SF.svg","response":1,"trial_type":"image-button-response","trial_index":101,"time_elapsed":717970,"internal_node_id":"0.0-4.0-0.47","subject_id":"581ccd016c73180001fa5b2a","study_id":"6197b3f67c2b5cd3b6d9596a","session_id":"619bfbddab222963d9e7efd5","condition":"full-information","relevant_dimensions":["antennae","pattern"],"bee_group":{"antennae":"B","wings":"X","pattern":"S","legs":"X"},"action":"avoid","summary":"good-avoid","bonus":1.300000000000001},{"rt":941.6999998092651,"stimulus":"\n                    <p><b>Action: <em>avoid</em></b></p>\n                    <p>This is the bee that you just saw.</p>\n                    <img src=\"bees-with-color/bee-B1SF.svg\" width=\"200\">\n                    <p><span class=\"greenText\">Good choice!</span>  This bee would have stung you.<br>Your bonus pay is unchanged, and remains at $0.82.</p>\n            ","response":0,"trial_type":"html-button-response","trial_index":102,"time_elapsed":718914,"internal_node_id":"0.0-4.0-1.47","subject_id":"581ccd016c73180001fa5b2a","study_id":"6197b3f67c2b5cd3b6d9596a","session_id":"619bfbddab222963d9e7efd5","condition":"full-information","relevant_dimensions":["antennae","pattern"],"bee_group":{"antennae":"B","wings":"X","pattern":"S","legs":"X"},"bonus":1.300000000000001},{"rt":790.1000001430511,"stimulus":"bees-with-color/bee-B2DM.svg","response":0,"trial_type":"image-button-response","trial_index":103,"time_elapsed":719706,"internal_node_id":"0.0-4.0-0.48","subject_id":"581ccd016c73180001fa5b2a","study_id":"6197b3f67c2b5cd3b6d9596a","session_id":"619bfbddab222963d9e7efd5","condition":"full-information","relevant_dimensions":["antennae","pattern"],"bee_group":{"antennae":"B","wings":"X","pattern":"S","legs":"X"},"action":"harvest","summary":"good-harvest","bonus":1.300000000000001},{"rt":773.7000000476837,"stimulus":"\n                    <p><b>Action: <em>harvest</em></b></p>\n                    <p>This is the bee that you just saw.</p>\n                    <img src=\"bees-with-color/bee-B2DM.svg\" width=\"200\">\n                    <p><span class=\"greenText\"><b>Successful harvest!</b></span><br>Your pay has increased by $0.02. Your bonus pay is now $0.84.</p>\n            ","response":0,"trial_type":"html-button-response","trial_index":104,"time_elapsed":720482,"internal_node_id":"0.0-4.0-1.48","subject_id":"581ccd016c73180001fa5b2a","study_id":"6197b3f67c2b5cd3b6d9596a","session_id":"619bfbddab222963d9e7efd5","condition":"full-information","relevant_dimensions":["antennae","pattern"],"bee_group":{"antennae":"B","wings":"X","pattern":"S","legs":"X"},"bonus":1.300000000000001},{"rt":1590.2999999523163,"stimulus":"bees-with-color/bee-B1DF.svg","response":0,"trial_type":"image-button-response","trial_index":105,"time_elapsed":722074,"internal_node_id":"0.0-4.0-0.49","subject_id":"581ccd016c73180001fa5b2a","study_id":"6197b3f67c2b5cd3b6d9596a","session_id":"619bfbddab222963d9e7efd5","condition":"full-information","relevant_dimensions":["antennae","pattern"],"bee_group":{"antennae":"B","wings":"X","pattern":"S","legs":"X"},"action":"harvest","summary":"good-harvest","bonus":1.300000000000001},{"rt":589.5999999046326,"stimulus":"\n                    <p><b>Action: <em>harvest</em></b></p>\n                    <p>This is the bee that you just saw.</p>\n                    <img src=\"bees-with-color/bee-B1DF.svg\" width=\"200\">\n                    <p><span class=\"greenText\"><b>Successful harvest!</b></span><br>Your pay has increased by $0.02. Your bonus pay is now $0.86.</p>\n            ","response":0,"trial_type":"html-button-response","trial_index":106,"time_elapsed":722666,"internal_node_id":"0.0-4.0-1.49","subject_id":"581ccd016c73180001fa5b2a","study_id":"6197b3f67c2b5cd3b6d9596a","session_id":"619bfbddab222963d9e7efd5","condition":"full-information","relevant_dimensions":["antennae","pattern"],"bee_group":{"antennae":"B","wings":"X","pattern":"S","legs":"X"},"bonus":1.300000000000001},{"rt":798,"stimulus":"bees-with-color/bee-B1SM.svg","response":1,"trial_type":"image-button-response","trial_index":107,"time_elapsed":723466,"internal_node_id":"0.0-4.0-0.50","subject_id":"581ccd016c73180001fa5b2a","study_id":"6197b3f67c2b5cd3b6d9596a","session_id":"619bfbddab222963d9e7efd5","condition":"full-information","relevant_dimensions":["antennae","pattern"],"bee_group":{"antennae":"B","wings":"X","pattern":"S","legs":"X"},"action":"avoid","summary":"good-avoid","bonus":1.300000000000001},{"rt":1485.6000001430511,"stimulus":"\n                    <p><b>Action: <em>avoid</em></b></p>\n                    <p>This is the bee that you just saw.</p>\n                    <img src=\"bees-with-color/bee-B1SM.svg\" width=\"200\">\n                    <p><span class=\"greenText\">Good choice!</span>  This bee would have stung you.<br>Your bonus pay is unchanged, and remains at $0.86.</p>\n            ","response":0,"trial_type":"html-button-response","trial_index":108,"time_elapsed":724953,"internal_node_id":"0.0-4.0-1.50","subject_id":"581ccd016c73180001fa5b2a","study_id":"6197b3f67c2b5cd3b6d9596a","session_id":"619bfbddab222963d9e7efd5","condition":"full-information","relevant_dimensions":["antennae","pattern"],"bee_group":{"antennae":"B","wings":"X","pattern":"S","legs":"X"},"bonus":1.300000000000001},{"rt":766.5,"stimulus":"bees-with-color/bee-A2DM.svg","response":0,"trial_type":"image-button-response","trial_index":109,"time_elapsed":725721,"internal_node_id":"0.0-4.0-0.51","subject_id":"581ccd016c73180001fa5b2a","study_id":"6197b3f67c2b5cd3b6d9596a","session_id":"619bfbddab222963d9e7efd5","condition":"full-information","relevant_dimensions":["antennae","pattern"],"bee_group":{"antennae":"B","wings":"X","pattern":"S","legs":"X"},"action":"harvest","summary":"good-harvest","bonus":1.300000000000001},{"rt":614.0999999046326,"stimulus":"\n                    <p><b>Action: <em>harvest</em></b></p>\n                    <p>This is the bee that you just saw.</p>\n                    <img src=\"bees-with-color/bee-A2DM.svg\" width=\"200\">\n                    <p><span class=\"greenText\"><b>Successful harvest!</b></span><br>Your pay has increased by $0.02. Your bonus pay is now $0.88.</p>\n            ","response":0,"trial_type":"html-button-response","trial_index":110,"time_elapsed":726337,"internal_node_id":"0.0-4.0-1.51","subject_id":"581ccd016c73180001fa5b2a","study_id":"6197b3f67c2b5cd3b6d9596a","session_id":"619bfbddab222963d9e7efd5","condition":"full-information","relevant_dimensions":["antennae","pattern"],"bee_group":{"antennae":"B","wings":"X","pattern":"S","legs":"X"},"bonus":1.300000000000001},{"rt":1221.7000000476837,"stimulus":"bees-with-color/bee-B2SM.svg","response":1,"trial_type":"image-button-response","trial_index":111,"time_elapsed":727560,"internal_node_id":"0.0-4.0-0.52","subject_id":"581ccd016c73180001fa5b2a","study_id":"6197b3f67c2b5cd3b6d9596a","session_id":"619bfbddab222963d9e7efd5","condition":"full-information","relevant_dimensions":["antennae","pattern"],"bee_group":{"antennae":"B","wings":"X","pattern":"S","legs":"X"},"action":"avoid","summary":"good-avoid","bonus":1.300000000000001},{"rt":1111.2999999523163,"stimulus":"\n                    <p><b>Action: <em>avoid</em></b></p>\n                    <p>This is the bee that you just saw.</p>\n                    <img src=\"bees-with-color/bee-B2SM.svg\" width=\"200\">\n                    <p><span class=\"greenText\">Good choice!</span>  This bee would have stung you.<br>Your bonus pay is unchanged, and remains at $0.88.</p>\n            ","response":0,"trial_type":"html-button-response","trial_index":112,"time_elapsed":728673,"internal_node_id":"0.0-4.0-1.52","subject_id":"581ccd016c73180001fa5b2a","study_id":"6197b3f67c2b5cd3b6d9596a","session_id":"619bfbddab222963d9e7efd5","condition":"full-information","relevant_dimensions":["antennae","pattern"],"bee_group":{"antennae":"B","wings":"X","pattern":"S","legs":"X"},"bonus":1.300000000000001},{"rt":750.6999998092651,"stimulus":"bees-with-color/bee-B2DF.svg","response":0,"trial_type":"image-button-response","trial_index":113,"time_elapsed":729425,"internal_node_id":"0.0-4.0-0.53","subject_id":"581ccd016c73180001fa5b2a","study_id":"6197b3f67c2b5cd3b6d9596a","session_id":"619bfbddab222963d9e7efd5","condition":"full-information","relevant_dimensions":["antennae","pattern"],"bee_group":{"antennae":"B","wings":"X","pattern":"S","legs":"X"},"action":"harvest","summary":"good-harvest","bonus":1.300000000000001},{"rt":590,"stimulus":"\n                    <p><b>Action: <em>harvest</em></b></p>\n                    <p>This is the bee that you just saw.</p>\n                    <img src=\"bees-with-color/bee-B2DF.svg\" width=\"200\">\n                    <p><span class=\"greenText\"><b>Successful harvest!</b></span><br>Your pay has increased by $0.02. Your bonus pay is now $0.90.</p>\n            ","response":0,"trial_type":"html-button-response","trial_index":114,"time_elapsed":730017,"internal_node_id":"0.0-4.0-1.53","subject_id":"581ccd016c73180001fa5b2a","study_id":"6197b3f67c2b5cd3b6d9596a","session_id":"619bfbddab222963d9e7efd5","condition":"full-information","relevant_dimensions":["antennae","pattern"],"bee_group":{"antennae":"B","wings":"X","pattern":"S","legs":"X"},"bonus":1.300000000000001},{"rt":927,"stimulus":"bees-with-color/bee-A2SF.svg","response":1,"trial_type":"image-button-response","trial_index":115,"time_elapsed":730945,"internal_node_id":"0.0-4.0-0.54","subject_id":"581ccd016c73180001fa5b2a","study_id":"6197b3f67c2b5cd3b6d9596a","session_id":"619bfbddab222963d9e7efd5","condition":"full-information","relevant_dimensions":["antennae","pattern"],"bee_group":{"antennae":"B","wings":"X","pattern":"S","legs":"X"},"action":"avoid","summary":"bad-avoid","bonus":1.300000000000001},{"rt":566.5,"stimulus":"\n                    <p><b>Action: <em>avoid</em></b></p>\n                    <p>This is the bee that you just saw.</p>\n                    <img src=\"bees-with-color/bee-A2SF.svg\" width=\"200\">\n                    <p><span class=\"redText\">Bad choice,</span> the bee was friendly.<br>Your bonus pay is unchanged, and remains at $0.90.</p>\n            ","response":0,"trial_type":"html-button-response","trial_index":116,"time_elapsed":731513,"internal_node_id":"0.0-4.0-1.54","subject_id":"581ccd016c73180001fa5b2a","study_id":"6197b3f67c2b5cd3b6d9596a","session_id":"619bfbddab222963d9e7efd5","condition":"full-information","relevant_dimensions":["antennae","pattern"],"bee_group":{"antennae":"B","wings":"X","pattern":"S","legs":"X"},"bonus":1.300000000000001},{"rt":782.1000001430511,"stimulus":"bees-with-color/bee-A1DM.svg","response":0,"trial_type":"image-button-response","trial_index":117,"time_elapsed":732297,"internal_node_id":"0.0-4.0-0.55","subject_id":"581ccd016c73180001fa5b2a","study_id":"6197b3f67c2b5cd3b6d9596a","session_id":"619bfbddab222963d9e7efd5","condition":"full-information","relevant_dimensions":["antennae","pattern"],"bee_group":{"antennae":"B","wings":"X","pattern":"S","legs":"X"},"action":"harvest","summary":"good-harvest","bonus":1.300000000000001},{"rt":566.4000000953674,"stimulus":"\n                    <p><b>Action: <em>harvest</em></b></p>\n                    <p>This is the bee that you just saw.</p>\n                    <img src=\"bees-with-color/bee-A1DM.svg\" width=\"200\">\n                    <p><span class=\"greenText\"><b>Successful harvest!</b></span><br>Your pay has increased by $0.02. Your bonus pay is now $0.92.</p>\n            ","response":0,"trial_type":"html-button-response","trial_index":118,"time_elapsed":732865,"internal_node_id":"0.0-4.0-1.55","subject_id":"581ccd016c73180001fa5b2a","study_id":"6197b3f67c2b5cd3b6d9596a","session_id":"619bfbddab222963d9e7efd5","condition":"full-information","relevant_dimensions":["antennae","pattern"],"bee_group":{"antennae":"B","wings":"X","pattern":"S","legs":"X"},"bonus":1.300000000000001},{"rt":1030.2999999523163,"stimulus":"bees-with-color/bee-A1DF.svg","response":0,"trial_type":"image-button-response","trial_index":119,"time_elapsed":733897,"internal_node_id":"0.0-4.0-0.56","subject_id":"581ccd016c73180001fa5b2a","study_id":"6197b3f67c2b5cd3b6d9596a","session_id":"619bfbddab222963d9e7efd5","condition":"full-information","relevant_dimensions":["antennae","pattern"],"bee_group":{"antennae":"B","wings":"X","pattern":"S","legs":"X"},"action":"harvest","summary":"good-harvest","bonus":1.300000000000001},{"rt":614,"stimulus":"\n                    <p><b>Action: <em>harvest</em></b></p>\n                    <p>This is the bee that you just saw.</p>\n                    <img src=\"bees-with-color/bee-A1DF.svg\" width=\"200\">\n                    <p><span class=\"greenText\"><b>Successful harvest!</b></span><br>Your pay has increased by $0.02. Your bonus pay is now $0.94.</p>\n            ","response":0,"trial_type":"html-button-response","trial_index":120,"time_elapsed":734513,"internal_node_id":"0.0-4.0-1.56","subject_id":"581ccd016c73180001fa5b2a","study_id":"6197b3f67c2b5cd3b6d9596a","session_id":"619bfbddab222963d9e7efd5","condition":"full-information","relevant_dimensions":["antennae","pattern"],"bee_group":{"antennae":"B","wings":"X","pattern":"S","legs":"X"},"bonus":1.300000000000001},{"rt":686.2999999523163,"stimulus":"bees-with-color/bee-A2DF.svg","response":0,"trial_type":"image-button-response","trial_index":121,"time_elapsed":735201,"internal_node_id":"0.0-4.0-0.57","subject_id":"581ccd016c73180001fa5b2a","study_id":"6197b3f67c2b5cd3b6d9596a","session_id":"619bfbddab222963d9e7efd5","condition":"full-information","relevant_dimensions":["antennae","pattern"],"bee_group":{"antennae":"B","wings":"X","pattern":"S","legs":"X"},"action":"harvest","summary":"good-harvest","bonus":1.300000000000001},{"rt":550.0999999046326,"stimulus":"\n                    <p><b>Action: <em>harvest</em></b></p>\n                    <p>This is the bee that you just saw.</p>\n                    <img src=\"bees-with-color/bee-A2DF.svg\" width=\"200\">\n                    <p><span class=\"greenText\"><b>Successful harvest!</b></span><br>Your pay has increased by $0.02. Your bonus pay is now $0.96.</p>\n            ","response":0,"trial_type":"html-button-response","trial_index":122,"time_elapsed":735753,"internal_node_id":"0.0-4.0-1.57","subject_id":"581ccd016c73180001fa5b2a","study_id":"6197b3f67c2b5cd3b6d9596a","session_id":"619bfbddab222963d9e7efd5","condition":"full-information","relevant_dimensions":["antennae","pattern"],"bee_group":{"antennae":"B","wings":"X","pattern":"S","legs":"X"},"bonus":1.300000000000001},{"rt":1342.8999998569489,"stimulus":"bees-with-color/bee-A1SM.svg","response":1,"trial_type":"image-button-response","trial_index":123,"time_elapsed":737097,"internal_node_id":"0.0-4.0-0.58","subject_id":"581ccd016c73180001fa5b2a","study_id":"6197b3f67c2b5cd3b6d9596a","session_id":"619bfbddab222963d9e7efd5","condition":"full-information","relevant_dimensions":["antennae","pattern"],"bee_group":{"antennae":"B","wings":"X","pattern":"S","legs":"X"},"action":"avoid","summary":"bad-avoid","bonus":1.300000000000001},{"rt":574,"stimulus":"\n                    <p><b>Action: <em>avoid</em></b></p>\n                    <p>This is the bee that you just saw.</p>\n                    <img src=\"bees-with-color/bee-A1SM.svg\" width=\"200\">\n                    <p><span class=\"redText\">Bad choice,</span> the bee was friendly.<br>Your bonus pay is unchanged, and remains at $0.96.</p>\n            ","response":0,"trial_type":"html-button-response","trial_index":124,"time_elapsed":737673,"internal_node_id":"0.0-4.0-1.58","subject_id":"581ccd016c73180001fa5b2a","study_id":"6197b3f67c2b5cd3b6d9596a","session_id":"619bfbddab222963d9e7efd5","condition":"full-information","relevant_dimensions":["antennae","pattern"],"bee_group":{"antennae":"B","wings":"X","pattern":"S","legs":"X"},"bonus":1.300000000000001},{"rt":950.2999999523163,"stimulus":"bees-with-color/bee-A2SM.svg","response":1,"trial_type":"image-button-response","trial_index":125,"time_elapsed":738625,"internal_node_id":"0.0-4.0-0.59","subject_id":"581ccd016c73180001fa5b2a","study_id":"6197b3f67c2b5cd3b6d9596a","session_id":"619bfbddab222963d9e7efd5","condition":"full-information","relevant_dimensions":["antennae","pattern"],"bee_group":{"antennae":"B","wings":"X","pattern":"S","legs":"X"},"action":"avoid","summary":"bad-avoid","bonus":1.300000000000001},{"rt":726.2000000476837,"stimulus":"\n                    <p><b>Action: <em>avoid</em></b></p>\n                    <p>This is the bee that you just saw.</p>\n                    <img src=\"bees-with-color/bee-A2SM.svg\" width=\"200\">\n                    <p><span class=\"redText\">Bad choice,</span> the bee was friendly.<br>Your bonus pay is unchanged, and remains at $0.96.</p>\n            ","response":0,"trial_type":"html-button-response","trial_index":126,"time_elapsed":739353,"internal_node_id":"0.0-4.0-1.59","subject_id":"581ccd016c73180001fa5b2a","study_id":"6197b3f67c2b5cd3b6d9596a","session_id":"619bfbddab222963d9e7efd5","condition":"full-information","relevant_dimensions":["antennae","pattern"],"bee_group":{"antennae":"B","wings":"X","pattern":"S","legs":"X"},"bonus":1.300000000000001},{"rt":862.5,"stimulus":"bees-with-color/bee-A1SF.svg","response":1,"trial_type":"image-button-response","trial_index":127,"time_elapsed":740217,"internal_node_id":"0.0-4.0-0.60","subject_id":"581ccd016c73180001fa5b2a","study_id":"6197b3f67c2b5cd3b6d9596a","session_id":"619bfbddab222963d9e7efd5","condition":"full-information","relevant_dimensions":["antennae","pattern"],"bee_group":{"antennae":"B","wings":"X","pattern":"S","legs":"X"},"action":"avoid","summary":"bad-avoid","bonus":1.300000000000001},{"rt":1102,"stimulus":"\n                    <p><b>Action: <em>avoid</em></b></p>\n                    <p>This is the bee that you just saw.</p>\n                    <img src=\"bees-with-color/bee-A1SF.svg\" width=\"200\">\n                    <p><span class=\"redText\">Bad choice,</span> the bee was friendly.<br>Your bonus pay is unchanged, and remains at $0.96.</p>\n            ","response":0,"trial_type":"html-button-response","trial_index":128,"time_elapsed":741321,"internal_node_id":"0.0-4.0-1.60","subject_id":"581ccd016c73180001fa5b2a","study_id":"6197b3f67c2b5cd3b6d9596a","session_id":"619bfbddab222963d9e7efd5","condition":"full-information","relevant_dimensions":["antennae","pattern"],"bee_group":{"antennae":"B","wings":"X","pattern":"S","legs":"X"},"bonus":1.300000000000001},{"rt":790.2999999523163,"stimulus":"bees-with-color/bee-B1SF.svg","response":1,"trial_type":"image-button-response","trial_index":129,"time_elapsed":742113,"internal_node_id":"0.0-4.0-0.61","subject_id":"581ccd016c73180001fa5b2a","study_id":"6197b3f67c2b5cd3b6d9596a","session_id":"619bfbddab222963d9e7efd5","condition":"full-information","relevant_dimensions":["antennae","pattern"],"bee_group":{"antennae":"B","wings":"X","pattern":"S","legs":"X"},"action":"avoid","summary":"good-avoid","bonus":1.300000000000001},{"rt":3045.899999856949,"stimulus":"\n                    <p><b>Action: <em>avoid</em></b></p>\n                    <p>This is the bee that you just saw.</p>\n                    <img src=\"bees-with-color/bee-B1SF.svg\" width=\"200\">\n                    <p><span class=\"greenText\">Good choice!</span>  This bee would have stung you.<br>Your bonus pay is unchanged, and remains at $0.96.</p>\n            ","response":0,"trial_type":"html-button-response","trial_index":130,"time_elapsed":745161,"internal_node_id":"0.0-4.0-1.61","subject_id":"581ccd016c73180001fa5b2a","study_id":"6197b3f67c2b5cd3b6d9596a","session_id":"619bfbddab222963d9e7efd5","condition":"full-information","relevant_dimensions":["antennae","pattern"],"bee_group":{"antennae":"B","wings":"X","pattern":"S","legs":"X"},"bonus":1.300000000000001},{"rt":1166.2000000476837,"stimulus":"bees-with-color/bee-B2SF.svg","response":1,"trial_type":"image-button-response","trial_index":131,"time_elapsed":746329,"internal_node_id":"0.0-4.0-0.62","subject_id":"581ccd016c73180001fa5b2a","study_id":"6197b3f67c2b5cd3b6d9596a","session_id":"619bfbddab222963d9e7efd5","condition":"full-information","relevant_dimensions":["antennae","pattern"],"bee_group":{"antennae":"B","wings":"X","pattern":"S","legs":"X"},"action":"avoid","summary":"good-avoid","bonus":1.300000000000001},{"rt":789.7999999523163,"stimulus":"\n                    <p><b>Action: <em>avoid</em></b></p>\n                    <p>This is the bee that you just saw.</p>\n                    <img src=\"bees-with-color/bee-B2SF.svg\" width=\"200\">\n                    <p><span class=\"greenText\">Good choice!</span>  This bee would have stung you.<br>Your bonus pay is unchanged, and remains at $0.96.</p>\n            ","response":0,"trial_type":"html-button-response","trial_index":132,"time_elapsed":747121,"internal_node_id":"0.0-4.0-1.62","subject_id":"581ccd016c73180001fa5b2a","study_id":"6197b3f67c2b5cd3b6d9596a","session_id":"619bfbddab222963d9e7efd5","condition":"full-information","relevant_dimensions":["antennae","pattern"],"bee_group":{"antennae":"B","wings":"X","pattern":"S","legs":"X"},"bonus":1.300000000000001},{"rt":766.0999999046326,"stimulus":"bees-with-color/bee-B1DM.svg","response":0,"trial_type":"image-button-response","trial_index":133,"time_elapsed":747889,"internal_node_id":"0.0-4.0-0.63","subject_id":"581ccd016c73180001fa5b2a","study_id":"6197b3f67c2b5cd3b6d9596a","session_id":"619bfbddab222963d9e7efd5","condition":"full-information","relevant_dimensions":["antennae","pattern"],"bee_group":{"antennae":"B","wings":"X","pattern":"S","legs":"X"},"action":"harvest","summary":"good-harvest","bonus":1.300000000000001},{"rt":1726,"stimulus":"\n                    <p><b>Action: <em>harvest</em></b></p>\n                    <p>This is the bee that you just saw.</p>\n                    <img src=\"bees-with-color/bee-B1DM.svg\" width=\"200\">\n                    <p><span class=\"greenText\"><b>Successful harvest!</b></span><br>Your pay has increased by $0.02. Your bonus pay is now $0.98.</p>\n            ","response":0,"trial_type":"html-button-response","trial_index":134,"time_elapsed":749617,"internal_node_id":"0.0-4.0-1.63","subject_id":"581ccd016c73180001fa5b2a","study_id":"6197b3f67c2b5cd3b6d9596a","session_id":"619bfbddab222963d9e7efd5","condition":"full-information","relevant_dimensions":["antennae","pattern"],"bee_group":{"antennae":"B","wings":"X","pattern":"S","legs":"X"},"bonus":1.300000000000001},{"rt":5498.899999856949,"stimulus":"You have completed the first part of this experiment.<br><br>You will now begin a shorter second part, in which you will receive no feedback.<br>The same rules regarding bonus pay apply.<br><br>Press any key to begin.","response":"p","trial_type":"html-keyboard-response","trial_index":135,"time_elapsed":755117,"internal_node_id":"0.0-5.0","subject_id":"581ccd016c73180001fa5b2a","study_id":"6197b3f67c2b5cd3b6d9596a","session_id":"619bfbddab222963d9e7efd5","condition":"full-information","relevant_dimensions":["antennae","pattern"],"bee_group":{"antennae":"B","wings":"X","pattern":"S","legs":"X"},"bonus":1.300000000000001},{"rt":1667.0999999046326,"stimulus":"bees-with-color/bee-A1SM.svg","response":1,"trial_type":"image-button-response","trial_index":136,"time_elapsed":756793,"internal_node_id":"0.0-6.0-0.0","subject_id":"581ccd016c73180001fa5b2a","study_id":"6197b3f67c2b5cd3b6d9596a","session_id":"619bfbddab222963d9e7efd5","condition":"full-information","relevant_dimensions":["antennae","pattern"],"bee_group":{"antennae":"B","wings":"X","pattern":"S","legs":"X"},"bonus":1.300000000000001},{"rt":1132.5999999046326,"stimulus":"bees-with-color/bee-B1SF.svg","response":1,"trial_type":"image-button-response","trial_index":137,"time_elapsed":757928,"internal_node_id":"0.0-6.0-0.1","subject_id":"581ccd016c73180001fa5b2a","study_id":"6197b3f67c2b5cd3b6d9596a","session_id":"619bfbddab222963d9e7efd5","condition":"full-information","relevant_dimensions":["antennae","pattern"],"bee_group":{"antennae":"B","wings":"X","pattern":"S","legs":"X"},"bonus":1.300000000000001},{"rt":886.5999999046326,"stimulus":"bees-with-color/bee-A2DF.svg","response":0,"trial_type":"image-button-response","trial_index":138,"time_elapsed":758817,"internal_node_id":"0.0-6.0-0.2","subject_id":"581ccd016c73180001fa5b2a","study_id":"6197b3f67c2b5cd3b6d9596a","session_id":"619bfbddab222963d9e7efd5","condition":"full-information","relevant_dimensions":["antennae","pattern"],"bee_group":{"antennae":"B","wings":"X","pattern":"S","legs":"X"},"bonus":1.300000000000001},{"rt":572.6000001430511,"stimulus":"bees-with-color/bee-B1DF.svg","response":0,"trial_type":"image-button-response","trial_index":139,"time_elapsed":759392,"internal_node_id":"0.0-6.0-0.3","subject_id":"581ccd016c73180001fa5b2a","study_id":"6197b3f67c2b5cd3b6d9596a","session_id":"619bfbddab222963d9e7efd5","condition":"full-information","relevant_dimensions":["antennae","pattern"],"bee_group":{"antennae":"B","wings":"X","pattern":"S","legs":"X"},"bonus":1.300000000000001},{"rt":838.2999999523163,"stimulus":"bees-with-color/bee-A1SF.svg","response":1,"trial_type":"image-button-response","trial_index":140,"time_elapsed":760232,"internal_node_id":"0.0-6.0-0.4","subject_id":"581ccd016c73180001fa5b2a","study_id":"6197b3f67c2b5cd3b6d9596a","session_id":"619bfbddab222963d9e7efd5","condition":"full-information","relevant_dimensions":["antennae","pattern"],"bee_group":{"antennae":"B","wings":"X","pattern":"S","legs":"X"},"bonus":1.300000000000001},{"rt":621.9000000953674,"stimulus":"bees-with-color/bee-B2DM.svg","response":0,"trial_type":"image-button-response","trial_index":141,"time_elapsed":760856,"internal_node_id":"0.0-6.0-0.5","subject_id":"581ccd016c73180001fa5b2a","study_id":"6197b3f67c2b5cd3b6d9596a","session_id":"619bfbddab222963d9e7efd5","condition":"full-information","relevant_dimensions":["antennae","pattern"],"bee_group":{"antennae":"B","wings":"X","pattern":"S","legs":"X"},"bonus":1.300000000000001},{"rt":734.2999999523163,"stimulus":"bees-with-color/bee-B2SF.svg","response":1,"trial_type":"image-button-response","trial_index":142,"time_elapsed":761593,"internal_node_id":"0.0-6.0-0.6","subject_id":"581ccd016c73180001fa5b2a","study_id":"6197b3f67c2b5cd3b6d9596a","session_id":"619bfbddab222963d9e7efd5","condition":"full-information","relevant_dimensions":["antennae","pattern"],"bee_group":{"antennae":"B","wings":"X","pattern":"S","legs":"X"},"bonus":1.300000000000001},{"rt":620.4000000953674,"stimulus":"bees-with-color/bee-A1DM.svg","response":0,"trial_type":"image-button-response","trial_index":143,"time_elapsed":762216,"internal_node_id":"0.0-6.0-0.7","subject_id":"581ccd016c73180001fa5b2a","study_id":"6197b3f67c2b5cd3b6d9596a","session_id":"619bfbddab222963d9e7efd5","condition":"full-information","relevant_dimensions":["antennae","pattern"],"bee_group":{"antennae":"B","wings":"X","pattern":"S","legs":"X"},"bonus":1.300000000000001},{"rt":878.3000001907349,"stimulus":"bees-with-color/bee-B1SM.svg","response":1,"trial_type":"image-button-response","trial_index":144,"time_elapsed":763096,"internal_node_id":"0.0-6.0-0.8","subject_id":"581ccd016c73180001fa5b2a","study_id":"6197b3f67c2b5cd3b6d9596a","session_id":"619bfbddab222963d9e7efd5","condition":"full-information","relevant_dimensions":["antennae","pattern"],"bee_group":{"antennae":"B","wings":"X","pattern":"S","legs":"X"},"bonus":1.300000000000001},{"rt":1471.1000001430511,"stimulus":"bees-with-color/bee-B1DM.svg","response":0,"trial_type":"image-button-response","trial_index":145,"time_elapsed":764569,"internal_node_id":"0.0-6.0-0.9","subject_id":"581ccd016c73180001fa5b2a","study_id":"6197b3f67c2b5cd3b6d9596a","session_id":"619bfbddab222963d9e7efd5","condition":"full-information","relevant_dimensions":["antennae","pattern"],"bee_group":{"antennae":"B","wings":"X","pattern":"S","legs":"X"},"bonus":1.300000000000001},{"rt":485.5,"stimulus":"bees-with-color/bee-B2DF.svg","response":0,"trial_type":"image-button-response","trial_index":146,"time_elapsed":765056,"internal_node_id":"0.0-6.0-0.10","subject_id":"581ccd016c73180001fa5b2a","study_id":"6197b3f67c2b5cd3b6d9596a","session_id":"619bfbddab222963d9e7efd5","condition":"full-information","relevant_dimensions":["antennae","pattern"],"bee_group":{"antennae":"B","wings":"X","pattern":"S","legs":"X"},"bonus":1.300000000000001},{"rt":477.90000009536743,"stimulus":"bees-with-color/bee-A1DF.svg","response":0,"trial_type":"image-button-response","trial_index":147,"time_elapsed":765536,"internal_node_id":"0.0-6.0-0.11","subject_id":"581ccd016c73180001fa5b2a","study_id":"6197b3f67c2b5cd3b6d9596a","session_id":"619bfbddab222963d9e7efd5","condition":"full-information","relevant_dimensions":["antennae","pattern"],"bee_group":{"antennae":"B","wings":"X","pattern":"S","legs":"X"},"bonus":1.300000000000001},{"rt":845.5,"stimulus":"bees-with-color/bee-A2SM.svg","response":1,"trial_type":"image-button-response","trial_index":148,"time_elapsed":766384,"internal_node_id":"0.0-6.0-0.12","subject_id":"581ccd016c73180001fa5b2a","study_id":"6197b3f67c2b5cd3b6d9596a","session_id":"619bfbddab222963d9e7efd5","condition":"full-information","relevant_dimensions":["antennae","pattern"],"bee_group":{"antennae":"B","wings":"X","pattern":"S","legs":"X"},"bonus":1.300000000000001},{"rt":637.2999999523163,"stimulus":"bees-with-color/bee-A2SF.svg","response":1,"trial_type":"image-button-response","trial_index":149,"time_elapsed":767024,"internal_node_id":"0.0-6.0-0.13","subject_id":"581ccd016c73180001fa5b2a","study_id":"6197b3f67c2b5cd3b6d9596a","session_id":"619bfbddab222963d9e7efd5","condition":"full-information","relevant_dimensions":["antennae","pattern"],"bee_group":{"antennae":"B","wings":"X","pattern":"S","legs":"X"},"bonus":1.300000000000001},{"rt":685.5999999046326,"stimulus":"bees-with-color/bee-B2SM.svg","response":1,"trial_type":"image-button-response","trial_index":150,"time_elapsed":767712,"internal_node_id":"0.0-6.0-0.14","subject_id":"581ccd016c73180001fa5b2a","study_id":"6197b3f67c2b5cd3b6d9596a","session_id":"619bfbddab222963d9e7efd5","condition":"full-information","relevant_dimensions":["antennae","pattern"],"bee_group":{"antennae":"B","wings":"X","pattern":"S","legs":"X"},"bonus":1.300000000000001},{"rt":701.5,"stimulus":"bees-with-color/bee-A2DM.svg","response":0,"trial_type":"image-button-response","trial_index":151,"time_elapsed":768416,"internal_node_id":"0.0-6.0-0.15","subject_id":"581ccd016c73180001fa5b2a","study_id":"6197b3f67c2b5cd3b6d9596a","session_id":"619bfbddab222963d9e7efd5","condition":"full-information","relevant_dimensions":["antennae","pattern"],"bee_group":{"antennae":"B","wings":"X","pattern":"S","legs":"X"},"bonus":1.300000000000001},{"rt":429.7999999523163,"stimulus":"bees-with-color/bee-A1DM.svg","response":0,"trial_type":"image-button-response","trial_index":152,"time_elapsed":768848,"internal_node_id":"0.0-6.0-0.16","subject_id":"581ccd016c73180001fa5b2a","study_id":"6197b3f67c2b5cd3b6d9596a","session_id":"619bfbddab222963d9e7efd5","condition":"full-information","relevant_dimensions":["antennae","pattern"],"bee_group":{"antennae":"B","wings":"X","pattern":"S","legs":"X"},"bonus":1.300000000000001},{"rt":573.9000000953674,"stimulus":"bees-with-color/bee-B2DF.svg","response":0,"trial_type":"image-button-response","trial_index":153,"time_elapsed":769424,"internal_node_id":"0.0-6.0-0.17","subject_id":"581ccd016c73180001fa5b2a","study_id":"6197b3f67c2b5cd3b6d9596a","session_id":"619bfbddab222963d9e7efd5","condition":"full-information","relevant_dimensions":["antennae","pattern"],"bee_group":{"antennae":"B","wings":"X","pattern":"S","legs":"X"},"bonus":1.300000000000001},{"rt":790.2000000476837,"stimulus":"bees-with-color/bee-B1SM.svg","response":1,"trial_type":"image-button-response","trial_index":154,"time_elapsed":770216,"internal_node_id":"0.0-6.0-0.18","subject_id":"581ccd016c73180001fa5b2a","study_id":"6197b3f67c2b5cd3b6d9596a","session_id":"619bfbddab222963d9e7efd5","condition":"full-information","relevant_dimensions":["antennae","pattern"],"bee_group":{"antennae":"B","wings":"X","pattern":"S","legs":"X"},"bonus":1.300000000000001},{"rt":750.2999999523163,"stimulus":"bees-with-color/bee-A1DF.svg","response":0,"trial_type":"image-button-response","trial_index":155,"time_elapsed":770969,"internal_node_id":"0.0-6.0-0.19","subject_id":"581ccd016c73180001fa5b2a","study_id":"6197b3f67c2b5cd3b6d9596a","session_id":"619bfbddab222963d9e7efd5","condition":"full-information","relevant_dimensions":["antennae","pattern"],"bee_group":{"antennae":"B","wings":"X","pattern":"S","legs":"X"},"bonus":1.300000000000001},{"rt":749.3999998569489,"stimulus":"bees-with-color/bee-A2SM.svg","response":1,"trial_type":"image-button-response","trial_index":156,"time_elapsed":771720,"internal_node_id":"0.0-6.0-0.20","subject_id":"581ccd016c73180001fa5b2a","study_id":"6197b3f67c2b5cd3b6d9596a","session_id":"619bfbddab222963d9e7efd5","condition":"full-information","relevant_dimensions":["antennae","pattern"],"bee_group":{"antennae":"B","wings":"X","pattern":"S","legs":"X"},"bonus":1.300000000000001},{"rt":765.7999999523163,"stimulus":"bees-with-color/bee-A1SF.svg","response":1,"trial_type":"image-button-res