[{"success":true,"trial_type":"fullscreen","trial_index":0,"time_elapsed":3314,"internal_node_id":"0.0-0.0","subject_id":"5f731eeb424c7804f2ff2936","study_id":"6197b3f67c2b5cd3b6d9596a","session_id":"619bfe1d48350b3a33ff5fa2","condition":"contingent","relevant_dimensions":["antennae","pattern"],"bee_group":{"antennae":"A","wings":"X","pattern":"S","legs":"X"},"bonus":0.6000000000000012},{"success":true,"timeout":false,"failed_images":[],"failed_audio":[],"failed_video":[],"trial_type":"preload","trial_index":1,"time_elapsed":5693,"internal_node_id":"0.0-1.0","subject_id":"5f731eeb424c7804f2ff2936","study_id":"6197b3f67c2b5cd3b6d9596a","session_id":"619bfe1d48350b3a33ff5fa2","condition":"contingent","relevant_dimensions":["antennae","pattern"],"bee_group":{"antennae":"A","wings":"X","pattern":"S","legs":"X"},"bonus":0.6000000000000012},{"rt":1378.6999999284744,"stimulus":"Welcome! Press any key to begin.","response":"enter","trial_type":"html-keyboard-response","trial_index":2,"time_elapsed":7073,"internal_node_id":"0.0-2.0","subject_id":"5f731eeb424c7804f2ff2936","study_id":"6197b3f67c2b5cd3b6d9596a","session_id":"619bfe1d48350b3a33ff5fa2","condition":"contingent","relevant_dimensions":["antennae","pattern"],"bee_group":{"antennae":"A","wings":"X","pattern":"S","legs":"X"},"bonus":0.6000000000000012},{"view_history":[{"page_index":0,"viewing_time":2374.9000000953674},{"page_index":1,"viewing_time":8732.099999904633},{"page_index":2,"viewing_time":7147.600000023842},{"page_index":3,"viewing_time":7432},{"page_index":4,"viewing_time":2864.100000023842},{"page_index":5,"viewing_time":2716},{"page_index":6,"viewing_time":5499.899999976158},{"page_index":7,"viewing_time":3603.8000000715256},{"page_index":8,"viewing_time":2216.1999999284744},{"page_index":9,"viewing_time":4936},{"page_index":10,"viewing_time":1732.1000000238419},{"page_index":11,"viewing_time":4799.899999976158},{"page_index":12,"viewing_time":5460.100000023842},{"page_index":13,"viewing_time":1576},{"page_index":14,"viewing_time":1311.8999999761581}],"rt":62402.90000009537,"trial_type":"instructions","trial_index":3,"time_elapsed":69475,"internal_node_id":"0.0-3.0-0.0","subject_id":"5f731eeb424c7804f2ff2936","study_id":"6197b3f67c2b5cd3b6d9596a","session_id":"619bfe1d48350b3a33ff5fa2","condition":"contingent","relevant_dimensions":["antennae","pattern"],"bee_group":{"antennae":"A","wings":"X","pattern":"S","legs":"X"},"bonus":0.6000000000000012},{"rt":11345.699999928474,"response":{"Q0":["Two or six legs","Stripes or spots on body","Single or double wings","Antennae or no antennae"]},"question_order":[0],"trial_type":"survey-multi-select","trial_index":4,"time_elapsed":80824,"internal_node_id":"0.0-3.0-1.0","subject_id":"5f731eeb424c7804f2ff2936","study_id":"6197b3f67c2b5cd3b6d9596a","session_id":"619bfe1d48350b3a33ff5fa2","condition":"contingent","relevant_dimensions":["antennae","pattern"],"bee_group":{"antennae":"A","wings":"X","pattern":"S","legs":"X"},"correct":true,"bonus":0.6000000000000012},{"rt":13166.200000047684,"response":{"Q1":"No.","Q2":"Based on the four features of the bee.","Q3":"You do not learn if it was friendly or dangerous, and do not alter your bonus."},"question_order":[0,1,2],"trial_type":"survey-multi-choice","trial_index":5,"time_elapsed":93991,"internal_node_id":"0.0-3.0-2.0","subject_id":"5f731eeb424c7804f2ff2936","study_id":"6197b3f67c2b5cd3b6d9596a","session_id":"619bfe1d48350b3a33ff5fa2","condition":"contingent","relevant_dimensions":["antennae","pattern"],"bee_group":{"antennae":"A","wings":"X","pattern":"S","legs":"X"},"correct":true,"bonus":0.6000000000000012},{"rt":2006.6000000238419,"stimulus":"<p>Congrats, you got everything right<br>When you're ready, click the button below to continue to the experiment.</p>","response":0,"trial_type":"html-button-response","trial_index":6,"time_elapsed":95999,"internal_node_id":"0.0-3.0-3.0","subject_id":"5f731eeb424c7804f2ff2936","study_id":"6197b3f67c2b5cd3b6d9596a","session_id":"619bfe1d48350b3a33ff5fa2","condition":"contingent","relevant_dimensions":["antennae","pattern"],"bee_group":{"antennae":"A","wings":"X","pattern":"S","legs":"X"},"bonus":0.6000000000000012},{"rt":16482.299999952316,"stimulus":"bees-with-color/bee-A1DM.svg","response":0,"trial_type":"image-button-response","trial_index":7,"time_elapsed":112484,"internal_node_id":"0.0-4.0-0.0","subject_id":"5f731eeb424c7804f2ff2936","study_id":"6197b3f67c2b5cd3b6d9596a","session_id":"619bfe1d48350b3a33ff5fa2","condition":"contingent","relevant_dimensions":["antennae","pattern"],"bee_group":{"antennae":"A","wings":"X","pattern":"S","legs":"X"},"action":"harvest","summary":"good-harvest","bonus":0.6000000000000012},{"rt":6109.199999928474,"stimulus":"\n                    <p><b>Action: <em>harvest</em></b></p>\n                    <p>This is the bee that you just saw.</p>\n                    <img src=\"bees-with-color/bee-A1DM.svg\" width=\"200\">\n                    <p><span class=\"greenText\"><b>Successful harvest!</b></span><br>Your pay has increased by $0.02. Your bonus pay is now $0.56.</p>\n            ","response":0,"trial_type":"html-button-response","trial_index":8,"time_elapsed":118596,"internal_node_id":"0.0-4.0-1.0","subject_id":"5f731eeb424c7804f2ff2936","study_id":"6197b3f67c2b5cd3b6d9596a","session_id":"619bfe1d48350b3a33ff5fa2","condition":"contingent","relevant_dimensions":["antennae","pattern"],"bee_group":{"antennae":"A","wings":"X","pattern":"S","legs":"X"},"bonus":0.6000000000000012},{"rt":18190.200000047684,"stimulus":"bees-with-color/bee-B1SM.svg","response":0,"trial_type":"image-button-response","trial_index":9,"time_elapsed":136788,"internal_node_id":"0.0-4.0-0.1","subject_id":"5f731eeb424c7804f2ff2936","study_id":"6197b3f67c2b5cd3b6d9596a","session_id":"619bfe1d48350b3a33ff5fa2","condition":"contingent","relevant_dimensions":["antennae","pattern"],"bee_group":{"antennae":"A","wings":"X","pattern":"S","legs":"X"},"action":"harvest","summary":"good-harvest","bonus":0.6000000000000012},{"rt":4502.700000047684,"stimulus":"\n                    <p><b>Action: <em>harvest</em></b></p>\n                    <p>This is the bee that you just saw.</p>\n                    <img src=\"bees-with-color/bee-B1SM.svg\" width=\"200\">\n                    <p><span class=\"greenText\"><b>Successful harvest!</b></span><br>Your pay has increased by $0.02. Your bonus pay is now $0.58.</p>\n            ","response":0,"trial_type":"html-button-response","trial_index":10,"time_elapsed":141292,"internal_node_id":"0.0-4.0-1.1","subject_id":"5f731eeb424c7804f2ff2936","study_id":"6197b3f67c2b5cd3b6d9596a","session_id":"619bfe1d48350b3a33ff5fa2","condition":"contingent","relevant_dimensions":["antennae","pattern"],"bee_group":{"antennae":"A","wings":"X","pattern":"S","legs":"X"},"bonus":0.6000000000000012},{"rt":6661.399999976158,"stimulus":"bees-with-color/bee-A1DF.svg","response":0,"trial_type":"image-button-response","trial_index":11,"time_elapsed":147955,"internal_node_id":"0.0-4.0-0.2","subject_id":"5f731eeb424c7804f2ff2936","study_id":"6197b3f67c2b5cd3b6d9596a","session_id":"619bfe1d48350b3a33ff5fa2","condition":"contingent","relevant_dimensions":["antennae","pattern"],"bee_group":{"antennae":"A","wings":"X","pattern":"S","legs":"X"},"action":"harvest","summary":"good-harvest","bonus":0.6000000000000012},{"rt":4179,"stimulus":"\n                    <p><b>Action: <em>harvest</em></b></p>\n                    <p>This is the bee that you just saw.</p>\n                    <img src=\"bees-with-color/bee-A1DF.svg\" width=\"200\">\n                    <p><span class=\"greenText\"><b>Successful harvest!</b></span><br>Your pay has increased by $0.02. Your bonus pay is now $0.60.</p>\n            ","response":0,"trial_type":"html-button-response","trial_index":12,"time_elapsed":152135,"internal_node_id":"0.0-4.0-1.2","subject_id":"5f731eeb424c7804f2ff2936","study_id":"6197b3f67c2b5cd3b6d9596a","session_id":"619bfe1d48350b3a33ff5fa2","condition":"contingent","relevant_dimensions":["antennae","pattern"],"bee_group":{"antennae":"A","wings":"X","pattern":"S","legs":"X"},"bonus":0.6000000000000012},{"rt":13514.900000095367,"stimulus":"bees-with-color/bee-B2DM.svg","response":0,"trial_type":"image-button-response","trial_index":13,"time_elapsed":165652,"internal_node_id":"0.0-4.0-0.3","subject_id":"5f731eeb424c7804f2ff2936","study_id":"6197b3f67c2b5cd3b6d9596a","session_id":"619bfe1d48350b3a33ff5fa2","condition":"contingent","relevant_dimensions":["antennae","pattern"],"bee_group":{"antennae":"A","wings":"X","pattern":"S","legs":"X"},"action":"harvest","summary":"good-harvest","bonus":0.6000000000000012},{"rt":4174.600000023842,"stimulus":"\n                    <p><b>Action: <em>harvest</em></b></p>\n                    <p>This is the bee that you just saw.</p>\n                    <img src=\"bees-with-color/bee-B2DM.svg\" width=\"200\">\n                    <p><span class=\"greenText\"><b>Successful harvest!</b></span><br>Your pay has increased by $0.02. Your bonus pay is now $0.62.</p>\n            ","response":0,"trial_type":"html-button-response","trial_index":14,"time_elapsed":169827,"internal_node_id":"0.0-4.0-1.3","subject_id":"5f731eeb424c7804f2ff2936","study_id":"6197b3f67c2b5cd3b6d9596a","session_id":"619bfe1d48350b3a33ff5fa2","condition":"contingent","relevant_dimensions":["antennae","pattern"],"bee_group":{"antennae":"A","wings":"X","pattern":"S","legs":"X"},"bonus":0.6000000000000012},{"rt":3726.600000023842,"stimulus":"bees-with-color/bee-A1SM.svg","response":0,"trial_type":"image-button-response","trial_index":15,"time_elapsed":173555,"internal_node_id":"0.0-4.0-0.4","subject_id":"5f731eeb424c7804f2ff2936","study_id":"6197b3f67c2b5cd3b6d9596a","session_id":"619bfe1d48350b3a33ff5fa2","condition":"contingent","relevant_dimensions":["antennae","pattern"],"bee_group":{"antennae":"A","wings":"X","pattern":"S","legs":"X"},"action":"harvest","summary":"bad-harvest","bonus":0.6000000000000012},{"rt":17759,"stimulus":"\n                    <p><b>Action: <em>harvest</em></b></p>\n                    <p>This is the bee that you just saw.</p>\n                    <img src=\"bees-with-color/bee-A1SM.svg\" width=\"200\">\n                    <p><span class=\"redText\">Bad choice, the bee was angry.</span><br><b>You have been stung!</b><br>Your pay has been decreased by $0.10. Your bonus pay is now $0.52.</p>\n            ","response":0,"trial_type":"html-button-response","trial_index":16,"time_elapsed":191315,"internal_node_id":"0.0-4.0-1.4","subject_id":"5f731eeb424c7804f2ff2936","study_id":"6197b3f67c2b5cd3b6d9596a","session_id":"619bfe1d48350b3a33ff5fa2","condition":"contingent","relevant_dimensions":["antennae","pattern"],"bee_group":{"antennae":"A","wings":"X","pattern":"S","legs":"X"},"bonus":0.6000000000000012},{"rt":15758.5,"stimulus":"bees-with-color/bee-B2SF.svg","response":0,"trial_type":"image-button-response","trial_index":17,"time_elapsed":207075,"internal_node_id":"0.0-4.0-0.5","subject_id":"5f731eeb424c7804f2ff2936","study_id":"6197b3f67c2b5cd3b6d9596a","session_id":"619bfe1d48350b3a33ff5fa2","condition":"contingent","relevant_dimensions":["antennae","pattern"],"bee_group":{"antennae":"A","wings":"X","pattern":"S","legs":"X"},"action":"harvest","summary":"good-harvest","bonus":0.6000000000000012},{"rt":1191,"stimulus":"\n                    <p><b>Action: <em>harvest</em></b></p>\n                    <p>This is the bee that you just saw.</p>\n                    <img src=\"bees-with-color/bee-B2SF.svg\" width=\"200\">\n                    <p><span class=\"greenText\"><b>Successful harvest!</b></span><br>Your pay has increased by $0.02. Your bonus pay is now $0.54.</p>\n            ","response":0,"trial_type":"html-button-response","trial_index":18,"time_elapsed":208267,"internal_node_id":"0.0-4.0-1.5","subject_id":"5f731eeb424c7804f2ff2936","study_id":"6197b3f67c2b5cd3b6d9596a","session_id":"619bfe1d48350b3a33ff5fa2","condition":"contingent","relevant_dimensions":["antennae","pattern"],"bee_group":{"antennae":"A","wings":"X","pattern":"S","legs":"X"},"bonus":0.6000000000000012},{"rt":5898,"stimulus":"bees-with-color/bee-A2DM.svg","response":1,"trial_type":"image-button-response","trial_index":19,"time_elapsed":214167,"internal_node_id":"0.0-4.0-0.6","subject_id":"5f731eeb424c7804f2ff2936","study_id":"6197b3f67c2b5cd3b6d9596a","session_id":"619bfe1d48350b3a33ff5fa2","condition":"contingent","relevant_dimensions":["antennae","pattern"],"bee_group":{"antennae":"A","wings":"X","pattern":"S","legs":"X"},"action":"avoid","summary":"bad-avoid","bonus":0.6000000000000012},{"rt":2759.2000000476837,"stimulus":"\n                    <p><b>Action: <em>avoid</em></b></p>\n                    <p>This is the bee that you just saw.</p>\n                    <img src=\"bees-with-color/bee-A2DM.svg\" width=\"200\">\n                    <p><br>Your bonus pay is unchanged, and remains at $0.54.</p>\n            ","response":0,"trial_type":"html-button-response","trial_index":20,"time_elapsed":216927,"internal_node_id":"0.0-4.0-1.6","subject_id":"5f731eeb424c7804f2ff2936","study_id":"6197b3f67c2b5cd3b6d9596a","session_id":"619bfe1d48350b3a33ff5fa2","condition":"contingent","relevant_dimensions":["antennae","pattern"],"bee_group":{"antennae":"A","wings":"X","pattern":"S","legs":"X"},"bonus":0.6000000000000012},{"rt":4695,"stimulus":"bees-with-color/bee-A1SF.svg","response":0,"trial_type":"image-button-response","trial_index":21,"time_elapsed":221623,"internal_node_id":"0.0-4.0-0.7","subject_id":"5f731eeb424c7804f2ff2936","study_id":"6197b3f67c2b5cd3b6d9596a","session_id":"619bfe1d48350b3a33ff5fa2","condition":"contingent","relevant_dimensions":["antennae","pattern"],"bee_group":{"antennae":"A","wings":"X","pattern":"S","legs":"X"},"action":"harvest","summary":"bad-harvest","bonus":0.6000000000000012},{"rt":2950.8000000715256,"stimulus":"\n                    <p><b>Action: <em>harvest</em></b></p>\n                    <p>This is the bee that you just saw.</p>\n                    <img src=\"bees-with-color/bee-A1SF.svg\" width=\"200\">\n                    <p><span class=\"redText\">Bad choice, the bee was angry.</span><br><b>You have been stung!</b><br>Your pay has been decreased by $0.10. Your bonus pay is now $0.44.</p>\n            ","response":0,"trial_type":"html-button-response","trial_index":22,"time_elapsed":224575,"internal_node_id":"0.0-4.0-1.7","subject_id":"5f731eeb424c7804f2ff2936","study_id":"6197b3f67c2b5cd3b6d9596a","session_id":"619bfe1d48350b3a33ff5fa2","condition":"contingent","relevant_dimensions":["antennae","pattern"],"bee_group":{"antennae":"A","wings":"X","pattern":"S","legs":"X"},"bonus":0.6000000000000012},{"rt":18906.200000047684,"stimulus":"bees-with-color/bee-B2SM.svg","response":0,"trial_type":"image-button-response","trial_index":23,"time_elapsed":243483,"internal_node_id":"0.0-4.0-0.8","subject_id":"5f731eeb424c7804f2ff2936","study_id":"6197b3f67c2b5cd3b6d9596a","session_id":"619bfe1d48350b3a33ff5fa2","condition":"contingent","relevant_dimensions":["antennae","pattern"],"bee_group":{"antennae":"A","wings":"X","pattern":"S","legs":"X"},"action":"harvest","summary":"good-harvest","bonus":0.6000000000000012},{"rt":4158.899999976158,"stimulus":"\n                    <p><b>Action: <em>harvest</em></b></p>\n                    <p>This is the bee that you just saw.</p>\n                    <img src=\"bees-with-color/bee-B2SM.svg\" width=\"200\">\n                    <p><span class=\"greenText\"><b>Successful harvest!</b></span><br>Your pay has increased by $0.02. Your bonus pay is now $0.46.</p>\n            ","response":0,"trial_type":"html-button-response","trial_index":24,"time_elapsed":247643,"internal_node_id":"0.0-4.0-1.8","subject_id":"5f731eeb424c7804f2ff2936","study_id":"6197b3f67c2b5cd3b6d9596a","session_id":"619bfe1d48350b3a33ff5fa2","condition":"contingent","relevant_dimensions":["antennae","pattern"],"bee_group":{"antennae":"A","wings":"X","pattern":"S","legs":"X"},"bonus":0.6000000000000012},{"rt":16434.200000047684,"stimulus":"bees-with-color/bee-A2DF.svg","response":0,"trial_type":"image-button-response","trial_index":25,"time_elapsed":264079,"internal_node_id":"0.0-4.0-0.9","subject_id":"5f731eeb424c7804f2ff2936","study_id":"6197b3f67c2b5cd3b6d9596a","session_id":"619bfe1d48350b3a33ff5fa2","condition":"contingent","relevant_dimensions":["antennae","pattern"],"bee_group":{"antennae":"A","wings":"X","pattern":"S","legs":"X"},"action":"harvest","summary":"good-harvest","bonus":0.6000000000000012},{"rt":1174.7999999523163,"stimulus":"\n                    <p><b>Action: <em>harvest</em></b></p>\n                    <p>This is the bee that you just saw.</p>\n                    <img src=\"bees-with-color/bee-A2DF.svg\" width=\"200\">\n                    <p><span class=\"greenText\"><b>Successful harvest!</b></span><br>Your pay has increased by $0.02. Your bonus pay is now $0.48.</p>\n            ","response":0,"trial_type":"html-button-response","trial_index":26,"time_elapsed":265255,"internal_node_id":"0.0-4.0-1.9","subject_id":"5f731eeb424c7804f2ff2936","study_id":"6197b3f67c2b5cd3b6d9596a","session_id":"619bfe1d48350b3a33ff5fa2","condition":"contingent","relevant_dimensions":["antennae","pattern"],"bee_group":{"antennae":"A","wings":"X","pattern":"S","legs":"X"},"bonus":0.6000000000000012},{"rt":6078.5,"stimulus":"bees-with-color/bee-A2SF.svg","response":0,"trial_type":"image-button-response","trial_index":27,"time_elapsed":271335,"internal_node_id":"0.0-4.0-0.10","subject_id":"5f731eeb424c7804f2ff2936","study_id":"6197b3f67c2b5cd3b6d9596a","session_id":"619bfe1d48350b3a33ff5fa2","condition":"contingent","relevant_dimensions":["antennae","pattern"],"bee_group":{"antennae":"A","wings":"X","pattern":"S","legs":"X"},"action":"harvest","summary":"bad-harvest","bonus":0.6000000000000012},{"rt":13734.600000023842,"stimulus":"\n                    <p><b>Action: <em>harvest</em></b></p>\n                    <p>This is the bee that you just saw.</p>\n                    <img src=\"bees-with-color/bee-A2SF.svg\" width=\"200\">\n                    <p><span class=\"redText\">Bad choice, the bee was angry.</span><br><b>You have been stung!</b><br>Your pay has been decreased by $0.10. Your bonus pay is now $0.38.</p>\n            ","response":0,"trial_type":"html-button-response","trial_index":28,"time_elapsed":285071,"internal_node_id":"0.0-4.0-1.10","subject_id":"5f731eeb424c7804f2ff2936","study_id":"6197b3f67c2b5cd3b6d9596a","session_id":"619bfe1d48350b3a33ff5fa2","condition":"contingent","relevant_dimensions":["antennae","pattern"],"bee_group":{"antennae":"A","wings":"X","pattern":"S","legs":"X"},"bonus":0.6000000000000012},{"rt":13638.799999952316,"stimulus":"bees-with-color/bee-B2DF.svg","response":0,"trial_type":"image-button-response","trial_index":29,"time_elapsed":298711,"internal_node_id":"0.0-4.0-0.11","subject_id":"5f731eeb424c7804f2ff2936","study_id":"6197b3f67c2b5cd3b6d9596a","session_id":"619bfe1d48350b3a33ff5fa2","condition":"contingent","relevant_dimensions":["antennae","pattern"],"bee_group":{"antennae":"A","wings":"X","pattern":"S","legs":"X"},"action":"harvest","summary":"good-harvest","bonus":0.6000000000000012},{"rt":1198.6999999284744,"stimulus":"\n                    <p><b>Action: <em>harvest</em></b></p>\n                    <p>This is the bee that you just saw.</p>\n                    <img src=\"bees-with-color/bee-B2DF.svg\" width=\"200\">\n                    <p><span class=\"greenText\"><b>Successful harvest!</b></span><br>Your pay has increased by $0.02. Your bonus pay is now $0.40.</p>\n            ","response":0,"trial_type":"html-button-response","trial_index":30,"time_elapsed":299911,"internal_node_id":"0.0-4.0-1.11","subject_id":"5f731eeb424c7804f2ff2936","study_id":"6197b3f67c2b5cd3b6d9596a","session_id":"619bfe1d48350b3a33ff5fa2","condition":"contingent","relevant_dimensions":["antennae","pattern"],"bee_group":{"antennae":"A","wings":"X","pattern":"S","legs":"X"},"bonus":0.6000000000000012},{"rt":17390.199999928474,"stimulus":"bees-with-color/bee-B1DM.svg","response":0,"trial_type":"image-button-response","trial_index":31,"time_elapsed":317303,"internal_node_id":"0.0-4.0-0.12","subject_id":"5f731eeb424c7804f2ff2936","study_id":"6197b3f67c2b5cd3b6d9596a","session_id":"619bfe1d48350b3a33ff5fa2","condition":"contingent","relevant_dimensions":["antennae","pattern"],"bee_group":{"antennae":"A","wings":"X","pattern":"S","legs":"X"},"action":"harvest","summary":"good-harvest","bonus":0.6000000000000012},{"rt":3538.7000000476837,"stimulus":"\n                    <p><b>Action: <em>harvest</em></b></p>\n                    <p>This is the bee that you just saw.</p>\n                    <img src=\"bees-with-color/bee-B1DM.svg\" width=\"200\">\n                    <p><span class=\"greenText\"><b>Successful harvest!</b></span><br>Your pay has increased by $0.02. Your bonus pay is now $0.42.</p>\n            ","response":0,"trial_type":"html-button-response","trial_index":32,"time_elapsed":320843,"internal_node_id":"0.0-4.0-1.12","subject_id":"5f731eeb424c7804f2ff2936","study_id":"6197b3f67c2b5cd3b6d9596a","session_id":"619bfe1d48350b3a33ff5fa2","condition":"contingent","relevant_dimensions":["antennae","pattern"],"bee_group":{"antennae":"A","wings":"X","pattern":"S","legs":"X"},"bonus":0.6000000000000012},{"rt":13730.699999928474,"stimulus":"bees-with-color/bee-A2SM.svg","response":0,"trial_type":"image-button-response","trial_index":33,"time_elapsed":334575,"internal_node_id":"0.0-4.0-0.13","subject_id":"5f731eeb424c7804f2ff2936","study_id":"6197b3f67c2b5cd3b6d9596a","session_id":"619bfe1d48350b3a33ff5fa2","condition":"contingent","relevant_dimensions":["antennae","pattern"],"bee_group":{"antennae":"A","wings":"X","pattern":"S","legs":"X"},"action":"harvest","summary":"bad-harvest","bonus":0.6000000000000012},{"rt":19538.799999952316,"stimulus":"\n                    <p><b>Action: <em>harvest</em></b></p>\n                    <p>This is the bee that you just saw.</p>\n                    <img src=\"bees-with-color/bee-A2SM.svg\" width=\"200\">\n                    <p><span class=\"redText\">Bad choice, the bee was angry.</span><br><b>You have been stung!</b><br>Your pay has been decreased by $0.10. Your bonus pay is now $0.32.</p>\n            ","response":0,"trial_type":"html-button-response","trial_index":34,"time_elapsed":354115,"internal_node_id":"0.0-4.0-1.13","subject_id":"5f731eeb424c7804f2ff2936","study_id":"6197b3f67c2b5cd3b6d9596a","session_id":"619bfe1d48350b3a33ff5fa2","condition":"contingent","relevant_dimensions":["antennae","pattern"],"bee_group":{"antennae":"A","wings":"X","pattern":"S","legs":"X"},"bonus":0.6000000000000012},{"rt":19126.399999976158,"stimulus":"bees-with-color/bee-B1DF.svg","response":0,"trial_type":"image-button-response","trial_index":35,"time_elapsed":373243,"internal_node_id":"0.0-4.0-0.14","subject_id":"5f731eeb424c7804f2ff2936","study_id":"6197b3f67c2b5cd3b6d9596a","session_id":"619bfe1d48350b3a33ff5fa2","condition":"contingent","relevant_dimensions":["antennae","pattern"],"bee_group":{"antennae":"A","wings":"X","pattern":"S","legs":"X"},"action":"harvest","summary":"good-harvest","bonus":0.6000000000000012},{"rt":4118.600000023842,"stimulus":"\n                    <p><b>Action: <em>harvest</em></b></p>\n                    <p>This is the bee that you just saw.</p>\n                    <img src=\"bees-with-color/bee-B1DF.svg\" width=\"200\">\n                    <p><span class=\"greenText\"><b>Successful harvest!</b></span><br>Your pay has increased by $0.02. Your bonus pay is now $0.34.</p>\n            ","response":0,"trial_type":"html-button-response","trial_index":36,"time_elapsed":377362,"internal_node_id":"0.0-4.0-1.14","subject_id":"5f731eeb424c7804f2ff2936","study_id":"6197b3f67c2b5cd3b6d9596a","session_id":"619bfe1d48350b3a33ff5fa2","condition":"contingent","relevant_dimensions":["antennae","pattern"],"bee_group":{"antennae":"A","wings":"X","pattern":"S","legs":"X"},"bonus":0.6000000000000012},{"rt":18298.5,"stimulus":"bees-with-color/bee-B1SF.svg","response":0,"trial_type":"image-button-response","trial_index":37,"time_elapsed":395662,"internal_node_id":"0.0-4.0-0.15","subject_id":"5f731eeb424c7804f2ff2936","study_id":"6197b3f67c2b5cd3b6d9596a","session_id":"619bfe1d48350b3a33ff5fa2","condition":"contingent","relevant_dimensions":["antennae","pattern"],"bee_group":{"antennae":"A","wings":"X","pattern":"S","legs":"X"},"action":"harvest","summary":"good-harvest","bonus":0.6000000000000012},{"rt":1030.6999999284744,"stimulus":"\n                    <p><b>Action: <em>harvest</em></b></p>\n                    <p>This is the bee that you just saw.</p>\n                    <img src=\"bees-with-color/bee-B1SF.svg\" width=\"200\">\n                    <p><span class=\"greenText\"><b>Successful harvest!</b></span><br>Your pay has increased by $0.02. Your bonus pay is now $0.36.</p>\n            ","response":0,"trial_type":"html-button-response","trial_index":38,"time_elapsed":396694,"internal_node_id":"0.0-4.0-1.15","subject_id":"5f731eeb424c7804f2ff2936","study_id":"6197b3f67c2b5cd3b6d9596a","session_id":"619bfe1d48350b3a33ff5fa2","condition":"contingent","relevant_dimensions":["antennae","pattern"],"bee_group":{"antennae":"A","wings":"X","pattern":"S","legs":"X"},"bonus":0.6000000000000012},{"rt":2966.5999999046326,"stimulus":"bees-with-color/bee-B1DF.svg","response":0,"trial_type":"image-button-response","trial_index":39,"time_elapsed":399662,"internal_node_id":"0.0-4.0-0.16","subject_id":"5f731eeb424c7804f2ff2936","study_id":"6197b3f67c2b5cd3b6d9596a","session_id":"619bfe1d48350b3a33ff5fa2","condition":"contingent","relevant_dimensions":["antennae","pattern"],"bee_group":{"antennae":"A","wings":"X","pattern":"S","legs":"X"},"action":"harvest","summary":"good-harvest","bonus":0.6000000000000012},{"rt":1274.6000000238419,"stimulus":"\n                    <p><b>Action: <em>harvest</em></b></p>\n                    <p>This is the bee that you just saw.</p>\n                    <img src=\"bees-with-color/bee-B1DF.svg\" width=\"200\">\n                    <p><span class=\"greenText\"><b>Successful harvest!</b></span><br>Your pay has increased by $0.02. Your bonus pay is now $0.38.</p>\n            ","response":0,"trial_type":"html-button-response","trial_index":40,"time_elapsed":400938,"internal_node_id":"0.0-4.0-1.16","subject_id":"5f731eeb424c7804f2ff2936","study_id":"6197b3f67c2b5cd3b6d9596a","session_id":"619bfe1d48350b3a33ff5fa2","condition":"contingent","relevant_dimensions":["antennae","pattern"],"bee_group":{"antennae":"A","wings":"X","pattern":"S","legs":"X"},"bonus":0.6000000000000012},{"rt":1434.6000000238419,"stimulus":"bees-with-color/bee-A1DF.svg","response":0,"trial_type":"image-button-response","trial_index":41,"time_elapsed":402374,"internal_node_id":"0.0-4.0-0.17","subject_id":"5f731eeb424c7804f2ff2936","study_id":"6197b3f67c2b5cd3b6d9596a","session_id":"619bfe1d48350b3a33ff5fa2","condition":"contingent","relevant_dimensions":["antennae","pattern"],"bee_group":{"antennae":"A","wings":"X","pattern":"S","legs":"X"},"action":"harvest","summary":"good-harvest","bonus":0.6000000000000012},{"rt":1142.7000000476837,"stimulus":"\n                    <p><b>Action: <em>harvest</em></b></p>\n                    <p>This is the bee that you just saw.</p>\n                    <img src=\"bees-with-color/bee-A1DF.svg\" width=\"200\">\n                    <p><span class=\"greenText\"><b>Successful harvest!</b></span><br>Your pay has increased by $0.02. Your bonus pay is now $0.40.</p>\n            ","response":0,"trial_type":"html-button-response","trial_index":42,"time_elapsed":403518,"internal_node_id":"0.0-4.0-1.17","subject_id":"5f731eeb424c7804f2ff2936","study_id":"6197b3f67c2b5cd3b6d9596a","session_id":"619bfe1d48350b3a33ff5fa2","condition":"contingent","relevant_dimensions":["antennae","pattern"],"bee_group":{"antennae":"A","wings":"X","pattern":"S","legs":"X"},"bonus":0.6000000000000012},{"rt":3955.0999999046326,"stimulus":"bees-with-color/bee-A1SM.svg","response":1,"trial_type":"image-button-response","trial_index":43,"time_elapsed":407474,"internal_node_id":"0.0-4.0-0.18","subject_id":"5f731eeb424c7804f2ff2936","study_id":"6197b3f67c2b5cd3b6d9596a","session_id":"619bfe1d48350b3a33ff5fa2","condition":"contingent","relevant_dimensions":["antennae","pattern"],"bee_group":{"antennae":"A","wings":"X","pattern":"S","legs":"X"},"action":"avoid","summary":"good-avoid","bonus":0.6000000000000012},{"rt":1259.6000000238419,"stimulus":"\n                    <p><b>Action: <em>avoid</em></b></p>\n                    <p>This is the bee that you just saw.</p>\n                    <img src=\"bees-with-color/bee-A1SM.svg\" width=\"200\">\n                    <p><br>Your bonus pay is unchanged, and remains at $0.40.</p>\n            ","response":0,"trial_type":"html-button-response","trial_index":44,"time_elapsed":408735,"internal_node_id":"0.0-4.0-1.18","subject_id":"5f731eeb424c7804f2ff2936","study_id":"6197b3f67c2b5cd3b6d9596a","session_id":"619bfe1d48350b3a33ff5fa2","condition":"contingent","relevant_dimensions":["antennae","pattern"],"bee_group":{"antennae":"A","wings":"X","pattern":"S","legs":"X"},"bonus":0.6000000000000012},{"rt":12382.200000047684,"stimulus":"bees-with-color/bee-A2SF.svg","response":1,"trial_type":"image-button-response","trial_index":45,"time_elapsed":421118,"internal_node_id":"0.0-4.0-0.19","subject_id":"5f731eeb424c7804f2ff2936","study_id":"6197b3f67c2b5cd3b6d9596a","session_id":"619bfe1d48350b3a33ff5fa2","condition":"contingent","relevant_dimensions":["antennae","pattern"],"bee_group":{"antennae":"A","wings":"X","pattern":"S","legs":"X"},"action":"avoid","summary":"good-avoid","bonus":0.6000000000000012},{"rt":1095.2999999523163,"stimulus":"\n                    <p><b>Action: <em>avoid</em></b></p>\n                    <p>This is the bee that you just saw.</p>\n                    <img src=\"bees-with-color/bee-A2SF.svg\" width=\"200\">\n                    <p><br>Your bonus pay is unchanged, and remains at $0.40.</p>\n            ","response":0,"trial_type":"html-button-response","trial_index":46,"time_elapsed":422214,"internal_node_id":"0.0-4.0-1.19","subject_id":"5f731eeb424c7804f2ff2936","study_id":"6197b3f67c2b5cd3b6d9596a","session_id":"619bfe1d48350b3a33ff5fa2","condition":"contingent","relevant_dimensions":["antennae","pattern"],"bee_group":{"antennae":"A","wings":"X","pattern":"S","legs":"X"},"bonus":0.6000000000000012},{"rt":9742.700000047684,"stimulus":"bees-with-color/bee-A2DM.svg","response":0,"trial_type":"image-button-response","trial_index":47,"time_elapsed":431958,"internal_node_id":"0.0-4.0-0.20","subject_id":"5f731eeb424c7804f2ff2936","study_id":"6197b3f67c2b5cd3b6d9596a","session_id":"619bfe1d48350b3a33ff5fa2","condition":"contingent","relevant_dimensions":["antennae","pattern"],"bee_group":{"antennae":"A","wings":"X","pattern":"S","legs":"X"},"action":"harvest","summary":"good-harvest","bonus":0.6000000000000012},{"rt":779.0999999046326,"stimulus":"\n                    <p><b>Action: <em>harvest</em></b></p>\n                    <p>This is the bee that you just saw.</p>\n                    <img src=\"bees-with-color/bee-A2DM.svg\" width=\"200\">\n                    <p><span class=\"greenText\"><b>Successful harvest!</b></span><br>Your pay has increased by $0.02. Your bonus pay is now $0.42.</p>\n            ","response":0,"trial_type":"html-button-response","trial_index":48,"time_elapsed":432738,"internal_node_id":"0.0-4.0-1.20","subject_id":"5f731eeb424c7804f2ff2936","study_id":"6197b3f67c2b5cd3b6d9596a","session_id":"619bfe1d48350b3a33ff5fa2","condition":"contingent","relevant_dimensions":["antennae","pattern"],"bee_group":{"antennae":"A","wings":"X","pattern":"S","legs":"X"},"bonus":0.6000000000000012},{"rt":8534.5,"stimulus":"bees-with-color/bee-B2DF.svg","response":0,"trial_type":"image-button-response","trial_index":49,"time_elapsed":441275,"internal_node_id":"0.0-4.0-0.21","subject_id":"5f731eeb424c7804f2ff2936","study_id":"6197b3f67c2b5cd3b6d9596a","session_id":"619bfe1d48350b3a33ff5fa2","condition":"contingent","relevant_dimensions":["antennae","pattern"],"bee_group":{"antennae":"A","wings":"X","pattern":"S","legs":"X"},"action":"harvest","summary":"good-harvest","bonus":0.6000000000000012},{"rt":1134.9000000953674,"stimulus":"\n                    <p><b>Action: <em>harvest</em></b></p>\n                    <p>This is the bee that you just saw.</p>\n                    <img src=\"bees-with-color/bee-B2DF.svg\" width=\"200\">\n                    <p><span class=\"greenText\"><b>Successful harvest!</b></span><br>Your pay has increased by $0.02. Your bonus pay is now $0.44.</p>\n            ","response":0,"trial_type":"html-button-response","trial_index":50,"time_elapsed":442411,"internal_node_id":"0.0-4.0-1.21","subject_id":"5f731eeb424c7804f2ff2936","study_id":"6197b3f67c2b5cd3b6d9596a","session_id":"619bfe1d48350b3a33ff5fa2","condition":"contingent","relevant_dimensions":["antennae","pattern"],"bee_group":{"antennae":"A","wings":"X","pattern":"S","legs":"X"},"bonus":0.6000000000000012},{"rt":2118.8000000715256,"stimulus":"bees-with-color/bee-B1SM.svg","response":1,"trial_type":"image-button-response","trial_index":51,"time_elapsed":444531,"internal_node_id":"0.0-4.0-0.22","subject_id":"5f731eeb424c7804f2ff2936","study_id":"6197b3f67c2b5cd3b6d9596a","session_id":"619bfe1d48350b3a33ff5fa2","condition":"contingent","relevant_dimensions":["antennae","pattern"],"bee_group":{"antennae":"A","wings":"X","pattern":"S","legs":"X"},"action":"avoid","summary":"bad-avoid","bonus":0.6000000000000012},{"rt":862.9000000953674,"stimulus":"\n                    <p><b>Action: <em>avoid</em></b></p>\n                    <p>This is the bee that you just saw.</p>\n                    <img src=\"bees-with-color/bee-B1SM.svg\" width=\"200\">\n                    <p><br>Your bonus pay is unchanged, and remains at $0.44.</p>\n            ","response":0,"trial_type":"html-button-response","trial_index":52,"time_elapsed":445395,"internal_node_id":"0.0-4.0-1.22","subject_id":"5f731eeb424c7804f2ff2936","study_id":"6197b3f67c2b5cd3b6d9596a","session_id":"619bfe1d48350b3a33ff5fa2","condition":"contingent","relevant_dimensions":["antennae","pattern"],"bee_group":{"antennae":"A","wings":"X","pattern":"S","legs":"X"},"bonus":0.6000000000000012},{"rt":14878.600000023842,"stimulus":"bees-with-color/bee-A1DM.svg","response":1,"trial_type":"image-button-response","trial_index":53,"time_elapsed":460275,"internal_node_id":"0.0-4.0-0.23","subject_id":"5f731eeb424c7804f2ff2936","study_id":"6197b3f67c2b5cd3b6d9596a","session_id":"619bfe1d48350b3a33ff5fa2","condition":"contingent","relevant_dimensions":["antennae","pattern"],"bee_group":{"antennae":"A","wings":"X","pattern":"S","legs":"X"},"action":"avoid","summary":"bad-avoid","bonus":0.6000000000000012},{"rt":863,"stimulus":"\n                    <p><b>Action: <em>avoid</em></b></p>\n                    <p>This is the bee that you just saw.</p>\n                    <img src=\"bees-with-color/bee-A1DM.svg\" width=\"200\">\n                    <p><br>Your bonus pay is unchanged, and remains at $0.44.</p>\n            ","response":0,"trial_type":"html-button-response","trial_index":54,"time_elapsed":461139,"internal_node_id":"0.0-4.0-1.23","subject_id":"5f731eeb424c7804f2ff2936","study_id":"6197b3f67c2b5cd3b6d9596a","session_id":"619bfe1d48350b3a33ff5fa2","condition":"contingent","relevant_dimensions":["antennae","pattern"],"bee_group":{"antennae":"A","wings":"X","pattern":"S","legs":"X"},"bonus":0.6000000000000012},{"rt":12534.5,"stimulus":"bees-with-color/bee-B2SF.svg","response":0,"trial_type":"image-button-response","trial_index":55,"time_elapsed":473674,"internal_node_id":"0.0-4.0-0.24","subject_id":"5f731eeb424c7804f2ff2936","study_id":"6197b3f67c2b5cd3b6d9596a","session_id":"619bfe1d48350b3a33ff5fa2","condition":"contingent","relevant_dimensions":["antennae","pattern"],"bee_group":{"antennae":"A","wings":"X","pattern":"S","legs":"X"},"action":"harvest","summary":"good-harvest","bonus":0.6000000000000012},{"rt":4207.300000071526,"stimulus":"\n                    <p><b>Action: <em>harvest</em></b></p>\n                    <p>This is the bee that you just saw.</p>\n                    <img src=\"bees-with-color/bee-B2SF.svg\" width=\"200\">\n                    <p><span class=\"greenText\"><b>Successful harvest!</b></span><br>Your pay has increased by $0.02. Your bonus pay is now $0.46.</p>\n            ","response":0,"trial_type":"html-button-response","trial_index":56,"time_elapsed":477883,"internal_node_id":"0.0-4.0-1.24","subject_id":"5f731eeb424c7804f2ff2936","study_id":"6197b3f67c2b5cd3b6d9596a","session_id":"619bfe1d48350b3a33ff5fa2","condition":"contingent","relevant_dimensions":["antennae","pattern"],"bee_group":{"antennae":"A","wings":"X","pattern":"S","legs":"X"},"bonus":0.6000000000000012},{"rt":3614.5,"stimulus":"bees-with-color/bee-B1SF.svg","response":0,"trial_type":"image-button-response","trial_index":57,"time_elapsed":481499,"internal_node_id":"0.0-4.0-0.25","subject_id":"5f731eeb424c7804f2ff2936","study_id":"6197b3f67c2b5cd3b6d9596a","session_id":"619bfe1d48350b3a33ff5fa2","condition":"contingent","relevant_dimensions":["antennae","pattern"],"bee_group":{"antennae":"A","wings":"X","pattern":"S","legs":"X"},"action":"harvest","summary":"good-harvest","bonus":0.6000000000000012},{"rt":751.1000000238419,"stimulus":"\n                    <p><b>Action: <em>harvest</em></b></p>\n                    <p>This is the bee that you just saw.</p>\n                    <img src=\"bees-with-color/bee-B1SF.svg\" width=\"200\">\n                    <p><span class=\"greenText\"><b>Successful harvest!</b></span><br>Your pay has increased by $0.02. Your bonus pay is now $0.48.</p>\n            ","response":0,"trial_type":"html-button-response","trial_index":58,"time_elapsed":482251,"internal_node_id":"0.0-4.0-1.25","subject_id":"5f731eeb424c7804f2ff2936","study_id":"6197b3f67c2b5cd3b6d9596a","session_id":"619bfe1d48350b3a33ff5fa2","condition":"contingent","relevant_dimensions":["antennae","pattern"],"bee_group":{"antennae":"A","wings":"X","pattern":"S","legs":"X"},"bonus":0.6000000000000012},{"rt":9246.700000047684,"stimulus":"bees-with-color/bee-A2SM.svg","response":1,"trial_type":"image-button-response","trial_index":59,"time_elapsed":491499,"internal_node_id":"0.0-4.0-0.26","subject_id":"5f731eeb424c7804f2ff2936","study_id":"6197b3f67c2b5cd3b6d9596a","session_id":"619bfe1d48350b3a33ff5fa2","condition":"contingent","relevant_dimensions":["antennae","pattern"],"bee_group":{"antennae":"A","wings":"X","pattern":"S","legs":"X"},"action":"avoid","summary":"good-avoid","bonus":0.6000000000000012},{"rt":1143,"stimulus":"\n                    <p><b>Action: <em>avoid</em></b></p>\n                    <p>This is the bee that you just saw.</p>\n                    <img src=\"bees-with-color/bee-A2SM.svg\" width=\"200\">\n                    <p><br>Your bonus pay is unchanged, and remains at $0.48.</p>\n            ","response":0,"trial_type":"html-button-response","trial_index":60,"time_elapsed":492643,"internal_node_id":"0.0-4.0-1.26","subject_id":"5f731eeb424c7804f2ff2936","study_id":"6197b3f67c2b5cd3b6d9596a","session_id":"619bfe1d48350b3a33ff5fa2","condition":"contingent","relevant_dimensions":["antennae","pattern"],"bee_group":{"antennae":"A","wings":"X","pattern":"S","legs":"X"},"bonus":0.6000000000000012},{"rt":6534.5,"stimulus":"bees-with-color/bee-A2DF.svg","response":0,"trial_type":"image-button-response","trial_index":61,"time_elapsed":499179,"internal_node_id":"0.0-4.0-0.27","subject_id":"5f731eeb424c7804f2ff2936","study_id":"6197b3f67c2b5cd3b6d9596a","session_id":"619bfe1d48350b3a33ff5fa2","condition":"contingent","relevant_dimensions":["antennae","pattern"],"bee_group":{"antennae":"A","wings":"X","pattern":"S","legs":"X"},"action":"harvest","summary":"good-harvest","bonus":0.6000000000000012},{"rt":1358.7000000476837,"stimulus":"\n                    <p><b>Action: <em>harvest</em></b></p>\n                    <p>This is the bee that you just saw.</p>\n                    <img src=\"bees-with-color/bee-A2DF.svg\" width=\"200\">\n                    <p><span class=\"greenText\"><b>Successful harvest!</b></span><br>Your pay has increased by $0.02. Your bonus pay is now $0.50.</p>\n            ","response":0,"trial_type":"html-button-response","trial_index":62,"time_elapsed":500539,"internal_node_id":"0.0-4.0-1.27","subject_id":"5f731eeb424c7804f2ff2936","study_id":"6197b3f67c2b5cd3b6d9596a","session_id":"619bfe1d48350b3a33ff5fa2","condition":"contingent","relevant_dimensions":["antennae","pattern"],"bee_group":{"antennae":"A","wings":"X","pattern":"S","legs":"X"},"bonus":0.6000000000000012},{"rt":7926.900000095367,"stimulus":"bees-with-color/bee-B2SM.svg","response":0,"trial_type":"image-button-response","trial_index":63,"time_elapsed":508467,"internal_node_id":"0.0-4.0-0.28","subject_id":"5f731eeb424c7804f2ff2936","study_id":"6197b3f67c2b5cd3b6d9596a","session_id":"619bfe1d48350b3a33ff5fa2","condition":"contingent","relevant_dimensions":["antennae","pattern"],"bee_group":{"antennae":"A","wings":"X","pattern":"S","legs":"X"},"action":"harvest","summary":"good-harvest","bonus":0.6000000000000012},{"rt":838.6000000238419,"stimulus":"\n                    <p><b>Action: <em>harvest</em></b></p>\n                    <p>This is the bee that you just saw.</p>\n                    <img src=\"bees-with-color/bee-B2SM.svg\" width=\"200\">\n                    <p><span class=\"greenText\"><b>Successful harvest!</b></span><br>Your pay has increased by $0.02. Your bonus pay is now $0.52.</p>\n            ","response":0,"trial_type":"html-button-response","trial_index":64,"time_elapsed":509307,"internal_node_id":"0.0-4.0-1.28","subject_id":"5f731eeb424c7804f2ff2936","study_id":"6197b3f67c2b5cd3b6d9596a","session_id":"619bfe1d48350b3a33ff5fa2","condition":"contingent","relevant_dimensions":["antennae","pattern"],"bee_group":{"antennae":"A","wings":"X","pattern":"S","legs":"X"},"bonus":0.6000000000000012},{"rt":8398.600000023842,"stimulus":"bees-with-color/bee-B2DM.svg","response":0,"trial_type":"image-button-response","trial_index":65,"time_elapsed":517707,"internal_node_id":"0.0-4.0-0.29","subject_id":"5f731eeb424c7804f2ff2936","study_id":"6197b3f67c2b5cd3b6d9596a","session_id":"619bfe1d48350b3a33ff5fa2","condition":"contingent","relevant_dimensions":["antennae","pattern"],"bee_group":{"antennae":"A","wings":"X","pattern":"S","legs":"X"},"action":"harvest","summary":"good-harvest","bonus":0.6000000000000012},{"rt":2678.8000000715256,"stimulus":"\n                    <p><b>Action: <em>harvest</em></b></p>\n                    <p>This is the bee that you just saw.</p>\n                    <img src=\"bees-with-color/bee-B2DM.svg\" width=\"200\">\n                    <p><span class=\"greenText\"><b>Successful harvest!</b></span><br>Your pay has increased by $0.02. Your bonus pay is now $0.54.</p>\n            ","response":0,"trial_type":"html-button-response","trial_index":66,"time_elapsed":520387,"internal_node_id":"0.0-4.0-1.29","subject_id":"5f731eeb424c7804f2ff2936","study_id":"6197b3f67c2b5cd3b6d9596a","session_id":"619bfe1d48350b3a33ff5fa2","condition":"contingent","relevant_dimensions":["antennae","pattern"],"bee_group":{"antennae":"A","wings":"X","pattern":"S","legs":"X"},"bonus":0.6000000000000012},{"rt":15374.600000023842,"stimulus":"bees-with-color/bee-B1DM.svg","response":0,"trial_type":"image-button-response","trial_index":67,"time_elapsed":535763,"internal_node_id":"0.0-4.0-0.30","subject_id":"5f731eeb424c7804f2ff2936","study_id":"6197b3f67c2b5cd3b6d9596a","session_id":"619bfe1d48350b3a33ff5fa2","condition":"contingent","relevant_dimensions":["antennae","pattern"],"bee_group":{"antennae":"A","wings":"X","pattern":"S","legs":"X"},"action":"harvest","summary":"good-harvest","bonus":0.6000000000000012},{"rt":1007.1000000238419,"stimulus":"\n                    <p><b>Action: <em>harvest</em></b></p>\n                    <p>This is the bee that you just saw.</p>\n                    <img src=\"bees-with-color/bee-B1DM.svg\" width=\"200\">\n                    <p><span class=\"greenText\"><b>Successful harvest!</b></span><br>Your pay has increased by $0.02. Your bonus pay is now $0.56.</p>\n            ","response":0,"trial_type":"html-button-response","trial_index":68,"time_elapsed":536771,"internal_node_id":"0.0-4.0-1.30","subject_id":"5f731eeb424c7804f2ff2936","study_id":"6197b3f67c2b5cd3b6d9596a","session_id":"619bfe1d48350b3a33ff5fa2","condition":"contingent","relevant_dimensions":["antennae","pattern"],"bee_group":{"antennae":"A","wings":"X","pattern":"S","legs":"X"},"bonus":0.6000000000000012},{"rt":27814.399999976158,"stimulus":"bees-with-color/bee-A1SF.svg","response":0,"trial_type":"image-button-response","trial_index":69,"time_elapsed":564587,"internal_node_id":"0.0-4.0-0.31","subject_id":"5f731eeb424c7804f2ff2936","study_id":"6197b3f67c2b5cd3b6d9596a","session_id":"619bfe1d48350b3a33ff5fa2","condition":"contingent","relevant_dimensions":["antennae","pattern"],"bee_group":{"antennae":"A","wings":"X","pattern":"S","legs":"X"},"action":"harvest","summary":"bad-harvest","bonus":0.6000000000000012},{"rt":4114.799999952316,"stimulus":"\n                    <p><b>Action: <em>harvest</em></b></p>\n                    <p>This is the bee that you just saw.</p>\n                    <img src=\"bees-with-color/bee-A1SF.svg\" width=\"200\">\n                    <p><span class=\"redText\">Bad choice, the bee was angry.</span><br><b>You have been stung!</b><br>Your pay has been decreased by $0.10. Your bonus pay is now $0.46.</p>\n            ","response":0,"trial_type":"html-button-response","trial_index":70,"time_elapsed":568702,"internal_node_id":"0.0-4.0-1.31","subject_id":"5f731eeb424c7804f2ff2936","study_id":"6197b3f67c2b5cd3b6d9596a","session_id":"619bfe1d48350b3a33ff5fa2","condition":"contingent","relevant_dimensions":["antennae","pattern"],"bee_group":{"antennae":"A","wings":"X","pattern":"S","legs":"X"},"bonus":0.6000000000000012},{"rt":7638.700000047684,"stimulus":"bees-with-color/bee-B1DF.svg","response":0,"trial_type":"image-button-response","trial_index":71,"time_elapsed":576342,"internal_node_id":"0.0-4.0-0.32","subject_id":"5f731eeb424c7804f2ff2936","study_id":"6197b3f67c2b5cd3b6d9596a","session_id":"619bfe1d48350b3a33ff5fa2","condition":"contingent","relevant_dimensions":["antennae","pattern"],"bee_group":{"antennae":"A","wings":"X","pattern":"S","legs":"X"},"action":"harvest","summary":"good-harvest","bonus":0.6000000000000012},{"rt":1062.6000000238419,"stimulus":"\n                    <p><b>Action: <em>harvest</em></b></p>\n                    <p>This is the bee that you just saw.</p>\n                    <img src=\"bees-with-color/bee-B1DF.svg\" width=\"200\">\n                    <p><span class=\"greenText\"><b>Successful harvest!</b></span><br>Your pay has increased by $0.02. Your bonus pay is now $0.48.</p>\n            ","response":0,"trial_type":"html-button-response","trial_index":72,"time_elapsed":577406,"internal_node_id":"0.0-4.0-1.32","subject_id":"5f731eeb424c7804f2ff2936","study_id":"6197b3f67c2b5cd3b6d9596a","session_id":"619bfe1d48350b3a33ff5fa2","condition":"contingent","relevant_dimensions":["antennae","pattern"],"bee_group":{"antennae":"A","wings":"X","pattern":"S","legs":"X"},"bonus":0.6000000000000012},{"rt":5426.600000023842,"stimulus":"bees-with-color/bee-A1DF.svg","response":0,"trial_type":"image-button-response","trial_index":73,"time_elapsed":582834,"internal_node_id":"0.0-4.0-0.33","subject_id":"5f731eeb424c7804f2ff2936","study_id":"6197b3f67c2b5cd3b6d9596a","session_id":"619bfe1d48350b3a33ff5fa2","condition":"contingent","relevant_dimensions":["antennae","pattern"],"bee_group":{"antennae":"A","wings":"X","pattern":"S","legs":"X"},"action":"harvest","summary":"good-harvest","bonus":0.6000000000000012},{"rt":790.8999999761581,"stimulus":"\n                    <p><b>Action: <em>harvest</em></b></p>\n                    <p>This is the bee that you just saw.</p>\n                    <img src=\"bees-with-color/bee-A1DF.svg\" width=\"200\">\n                    <p><span class=\"greenText\"><b>Successful harvest!</b></span><br>Your pay has increased by $0.02. Your bonus pay is now $0.50.</p>\n            ","response":0,"trial_type":"html-button-response","trial_index":74,"time_elapsed":583626,"internal_node_id":"0.0-4.0-1.33","subject_id":"5f731eeb424c7804f2ff2936","study_id":"6197b3f67c2b5cd3b6d9596a","session_id":"619bfe1d48350b3a33ff5fa2","condition":"contingent","relevant_dimensions":["antennae","pattern"],"bee_group":{"antennae":"A","wings":"X","pattern":"S","legs":"X"},"bonus":0.6000000000000012},{"rt":11110.399999976158,"stimulus":"bees-with-color/bee-A1DM.svg","response":1,"trial_type":"image-button-response","trial_index":75,"time_elapsed":594738,"internal_node_id":"0.0-4.0-0.34","subject_id":"5f731eeb424c7804f2ff2936","study_id":"6197b3f67c2b5cd3b6d9596a","session_id":"619bfe1d48350b3a33ff5fa2","condition":"contingent","relevant_dimensions":["antennae","pattern"],"bee_group":{"antennae":"A","wings":"X","pattern":"S","legs":"X"},"action":"avoid","summary":"bad-avoid","bonus":0.6000000000000012},{"rt":994.8999999761581,"stimulus":"\n                    <p><b>Action: <em>avoid</em></b></p>\n                    <p>This is the bee that you just saw.</p>\n                    <img src=\"bees-with-color/bee-A1DM.svg\" width=\"200\">\n                    <p><br>Your bonus pay is unchanged, and remains at $0.50.</p>\n            ","response":0,"trial_type":"html-button-response","trial_index":76,"time_elapsed":595734,"internal_node_id":"0.0-4.0-1.34","subject_id":"5f731eeb424c7804f2ff2936","study_id":"6197b3f67c2b5cd3b6d9596a","session_id":"619bfe1d48350b3a33ff5fa2","condition":"contingent","relevant_dimensions":["antennae","pattern"],"bee_group":{"antennae":"A","wings":"X","pattern":"S","legs":"X"},"bonus":0.6000000000000012},{"rt":30566.600000023842,"stimulus":"bees-with-color/bee-B1SM.svg","response":0,"trial_type":"image-button-response","trial_index":77,"time_elapsed":626302,"internal_node_id":"0.0-4.0-0.35","subject_id":"5f731eeb424c7804f2ff2936","study_id":"6197b3f67c2b5cd3b6d9596a","session_id":"619bfe1d48350b3a33ff5fa2","condition":"contingent","relevant_dimensions":["antennae","pattern"],"bee_group":{"antennae":"A","wings":"X","pattern":"S","legs":"X"},"action":"harvest","summary":"good-harvest","bonus":0.6000000000000012},{"rt":686.7999999523163,"stimulus":"\n                    <p><b>Action: <em>harvest</em></b></p>\n                    <p>This is the bee that you just saw.</p>\n                    <img src=\"bees-with-color/bee-B1SM.svg\" width=\"200\">\n                    <p><span class=\"greenText\"><b>Successful harvest!</b></span><br>Your pay has increased by $0.02. Your bonus pay is now $0.52.</p>\n            ","response":0,"trial_type":"html-button-response","trial_index":78,"time_elapsed":626989,"internal_node_id":"0.0-4.0-1.35","subject_id":"5f731eeb424c7804f2ff2936","study_id":"6197b3f67c2b5cd3b6d9596a","session_id":"619bfe1d48350b3a33ff5fa2","condition":"contingent","relevant_dimensions":["antennae","pattern"],"bee_group":{"antennae":"A","wings":"X","pattern":"S","legs":"X"},"bonus":0.6000000000000012},{"rt":5739.5,"stimulus":"bees-with-color/bee-A1SM.svg","response":1,"trial_type":"image-button-response","trial_index":79,"time_elapsed":632730,"internal_node_id":"0.0-4.0-0.36","subject_id":"5f731eeb424c7804f2ff2936","study_id":"6197b3f67c2b5cd3b6d9596a","session_id":"619bfe1d48350b3a33ff5fa2","condition":"contingent","relevant_dimensions":["antennae","pattern"],"bee_group":{"antennae":"A","wings":"X","pattern":"S","legs":"X"},"action":"avoid","summary":"good-avoid","bonus":0.6000000000000012},{"rt":1986.7999999523163,"stimulus":"\n                    <p><b>Action: <em>avoid</em></b></p>\n                    <p>This is the bee that you just saw.</p>\n                    <img src=\"bees-with-color/bee-A1SM.svg\" width=\"200\">\n                    <p><br>Your bonus pay is unchanged, and remains at $0.52.</p>\n            ","response":0,"trial_type":"html-button-response","trial_index":80,"time_elapsed":634718,"internal_node_id":"0.0-4.0-1.36","subject_id":"5f731eeb424c7804f2ff2936","study_id":"6197b3f67c2b5cd3b6d9596a","session_id":"619bfe1d48350b3a33ff5fa2","condition":"contingent","relevant_dimensions":["antennae","pattern"],"bee_group":{"antennae":"A","wings":"X","pattern":"S","legs":"X"},"bonus":0.6000000000000012},{"rt":4686.600000023842,"stimulus":"bees-with-color/bee-A1SF.svg","response":1,"trial_type":"image-button-response","trial_index":81,"time_elapsed":639406,"internal_node_id":"0.0-4.0-0.37","subject_id":"5f731eeb424c7804f2ff2936","study_id":"6197b3f67c2b5cd3b6d9596a","session_id":"619bfe1d48350b3a33ff5fa2","condition":"contingent","relevant_dimensions":["antennae","pattern"],"bee_group":{"antennae":"A","wings":"X","pattern":"S","legs":"X"},"action":"avoid","summary":"good-avoid","bonus":0.6000000000000012},{"rt":1063.2999999523163,"stimulus":"\n                    <p><b>Action: <em>avoid</em></b></p>\n                    <p>This is the bee that you just saw.</p>\n                    <img src=\"bees-with-color/bee-A1SF.svg\" width=\"200\">\n                    <p><br>Your bonus pay is unchanged, and remains at $0.52.</p>\n            ","response":0,"trial_type":"html-button-response","trial_index":82,"time_elapsed":640470,"internal_node_id":"0.0-4.0-1.37","subject_id":"5f731eeb424c7804f2ff2936","study_id":"6197b3f67c2b5cd3b6d9596a","session_id":"619bfe1d48350b3a33ff5fa2","condition":"contingent","relevant_dimensions":["antennae","pattern"],"bee_group":{"antennae":"A","wings":"X","pattern":"S","legs":"X"},"bonus":0.6000000000000012},{"rt":9391,"stimulus":"bees-with-color/bee-B1SF.svg","response":0,"trial_type":"image-button-response","trial_index":83,"time_elapsed":649862,"internal_node_id":"0.0-4.0-0.38","subject_id":"5f731eeb424c7804f2ff2936","study_id":"6197b3f67c2b5cd3b6d9596a","session_id":"619bfe1d48350b3a33ff5fa2","condition":"contingent","relevant_dimensions":["antennae","pattern"],"bee_group":{"antennae":"A","wings":"X","pattern":"S","legs":"X"},"action":"harvest","summary":"good-harvest","bonus":0.6000000000000012},{"rt":15622.899999976158,"stimulus":"\n                    <p><b>Action: <em>harvest</em></b></p>\n                    <p>This is the bee that you just saw.</p>\n                    <img src=\"bees-with-color/bee-B1SF.svg\" width=\"200\">\n                    <p><span class=\"greenText\"><b>Successful harvest!</b></span><br>Your pay has increased by $0.02. Your bonus pay is now $0.54.</p>\n            ","response":0,"trial_type":"html-button-response","trial_index":84,"time_elapsed":665486,"internal_node_id":"0.0-4.0-1.38","subject_id":"5f731eeb424c7804f2ff2936","study_id":"6197b3f67c2b5cd3b6d9596a","session_id":"619bfe1d48350b3a33ff5fa2","condition":"contingent","relevant_dimensions":["antennae","pattern"],"bee_group":{"antennae":"A","wings":"X","pattern":"S","legs":"X"},"bonus":0.6000000000000012},{"rt":8566.600000023842,"stimulus":"bees-with-color/bee-B2SM.svg","response":0,"trial_type":"image-button-response","trial_index":85,"time_elapsed":674054,"internal_node_id":"0.0-4.0-0.39","subject_id":"5f731eeb424c7804f2ff2936","study_id":"6197b3f67c2b5cd3b6d9596a","session_id":"619bfe1d48350b3a33ff5fa2","condition":"contingent","relevant_dimensions":["antennae","pattern"],"bee_group":{"antennae":"A","wings":"X","pattern":"S","legs":"X"},"action":"harvest","summary":"good-harvest","bonus":0.6000000000000012},{"rt":1015,"stimulus":"\n                    <p><b>Action: <em>harvest</em></b></p>\n                    <p>This is the bee that you just saw.</p>\n                    <img src=\"bees-with-color/bee-B2SM.svg\" width=\"200\">\n                    <p><span class=\"greenText\"><b>Successful harvest!</b></span><br>Your pay has increased by $0.02. Your bonus pay is now $0.56.</p>\n            ","response":0,"trial_type":"html-button-response","trial_index":86,"time_elapsed":675070,"internal_node_id":"0.0-4.0-1.39","subject_id":"5f731eeb424c7804f2ff2936","study_id":"6197b3f67c2b5cd3b6d9596a","session_id":"619bfe1d48350b3a33ff5fa2","condition":"contingent","relevant_dimensions":["antennae","pattern"],"bee_group":{"antennae":"A","wings":"X","pattern":"S","legs":"X"},"bonus":0.6000000000000012},{"rt":8718.700000047684,"stimulus":"bees-with-color/bee-A2SF.svg","response":1,"trial_type":"image-button-response","trial_index":87,"time_elapsed":683790,"internal_node_id":"0.0-4.0-0.40","subject_id":"5f731eeb424c7804f2ff2936","study_id":"6197b3f67c2b5cd3b6d9596a","session_id":"619bfe1d48350b3a33ff5fa2","condition":"contingent","relevant_dimensions":["antennae","pattern"],"bee_group":{"antennae":"A","wings":"X","pattern":"S","legs":"X"},"action":"avoid","summary":"good-avoid","bonus":0.6000000000000012},{"rt":974.9000000953674,"stimulus":"\n                    <p><b>Action: <em>avoid</em></b></p>\n                    <p>This is the bee that you just saw.</p>\n                    <img src=\"bees-with-color/bee-A2SF.svg\" width=\"200\">\n                    <p><br>Your bonus pay is unchanged, and remains at $0.56.</p>\n            ","response":0,"trial_type":"html-button-response","trial_index":88,"time_elapsed":684766,"internal_node_id":"0.0-4.0-1.40","subject_id":"5f731eeb424c7804f2ff2936","study_id":"6197b3f67c2b5cd3b6d9596a","session_id":"619bfe1d48350b3a33ff5fa2","condition":"contingent","relevant_dimensions":["antennae","pattern"],"bee_group":{"antennae":"A","wings":"X","pattern":"S","legs":"X"},"bonus":0.6000000000000012},{"rt":10182.600000023842,"stimulus":"bees-with-color/bee-A2DM.svg","response":1,"trial_type":"image-button-response","trial_index":89,"time_elapsed":694951,"internal_node_id":"0.0-4.0-0.41","subject_id":"5f731eeb424c7804f2ff2936","study_id":"6197b3f67c2b5cd3b6d9596a","session_id":"619bfe1d48350b3a33ff5fa2","condition":"contingent","relevant_dimensions":["antennae","pattern"],"bee_group":{"antennae":"A","wings":"X","pattern":"S","legs":"X"},"action":"avoid","summary":"bad-avoid","bonus":0.6000000000000012},{"rt":990.9000000953674,"stimulus":"\n                    <p><b>Action: <em>avoid</em></b></p>\n                    <p>This is the bee that you just saw.</p>\n                    <img src=\"bees-with-color/bee-A2DM.svg\" width=\"200\">\n                    <p><br>Your bonus pay is unchanged, and remains at $0.56.</p>\n            ","response":0,"trial_type":"html-button-response","trial_index":90,"time_elapsed":695943,"internal_node_id":"0.0-4.0-1.41","subject_id":"5f731eeb424c7804f2ff2936","study_id":"6197b3f67c2b5cd3b6d9596a","session_id":"619bfe1d48350b3a33ff5fa2","condition":"contingent","relevant_dimensions":["antennae","pattern"],"bee_group":{"antennae":"A","wings":"X","pattern":"S","legs":"X"},"bonus":0.6000000000000012},{"rt":9870.700000047684,"stimulus":"bees-with-color/bee-A2SM.svg","response":1,"trial_type":"image-button-response","trial_index":91,"time_elapsed":705815,"internal_node_id":"0.0-4.0-0.42","subject_id":"5f731eeb424c7804f2ff2936","study_id":"6197b3f67c2b5cd3b6d9596a","session_id":"619bfe1d48350b3a33ff5fa2","condition":"contingent","relevant_dimensions":["antennae","pattern"],"bee_group":{"antennae":"A","wings":"X","pattern":"S","legs":"X"},"action":"avoid","summary":"good-avoid","bonus":0.6000000000000012},{"rt":734.8000000715256,"stimulus":"\n                    <p><b>Action: <em>avoid</em></b></p>\n                    <p>This is the bee that you just saw.</p>\n                    <img src=\"bees-with-color/bee-A2SM.svg\" width=\"200\">\n                    <p><br>Your bonus pay is unchanged, and remains at $0.56.</p>\n            ","response":0,"trial_type":"html-button-response","trial_index":92,"time_elapsed":706551,"internal_node_id":"0.0-4.0-1.42","subject_id":"5f731eeb424c7804f2ff2936","study_id":"6197b3f67c2b5cd3b6d9596a","session_id":"619bfe1d48350b3a33ff5fa2","condition":"contingent","relevant_dimensions":["antennae","pattern"],"bee_group":{"antennae":"A","wings":"X","pattern":"S","legs":"X"},"bonus":0.6000000000000012},{"rt":8182.600000023842,"stimulus":"bees-with-color/bee-B2DM.svg","response":0,"trial_type":"image-button-response","trial_index":93,"time_elapsed":714735,"internal_node_id":"0.0-4.0-0.43","subject_id":"5f731eeb424c7804f2ff2936","study_id":"6197b3f67c2b5cd3b6d9596a","session_id":"619bfe1d48350b3a33ff5fa2","condition":"contingent","relevant_dimensions":["antennae","pattern"],"bee_group":{"antennae":"A","wings":"X","pattern":"S","legs":"X"},"action":"harvest","summary":"good-harvest","bonus":0.6000000000000012},{"rt":846.9000000953674,"stimulus":"\n                    <p><b>Action: <em>harvest</em></b></p>\n                    <p>This is the bee that you just saw.</p>\n                    <img src=\"bees-with-color/bee-B2DM.svg\" width=\"200\">\n                    <p><span class=\"greenText\"><b>Successful harvest!</b></span><br>Your pay has increased by $0.02. Your bonus pay is now $0.58.</p>\n            ","response":0,"trial_type":"html-button-response","trial_index":94,"time_elapsed":715583,"internal_node_id":"0.0-4.0-1.43","subject_id":"5f731eeb424c7804f2ff2936","study_id":"6197b3f67c2b5cd3b6d9596a","session_id":"619bfe1d48350b3a33ff5fa2","condition":"contingent","relevant_dimensions":["antennae","pattern"],"bee_group":{"antennae":"A","wings":"X","pattern":"S","legs":"X"},"bonus":0.6000000000000012},{"rt":6438.399999976158,"stimulus":"bees-with-color/bee-B2DF.svg","response":0,"trial_type":"image-button-response","trial_index":95,"time_elapsed":722023,"internal_node_id":"0.0-4.0-0.44","subject_id":"5f731eeb424c7804f2ff2936","study_id":"6197b3f67c2b5cd3b6d9596a","session_id":"619bfe1d48350b3a33ff5fa2","condition":"contingent","relevant_dimensions":["antennae","pattern"],"bee_group":{"antennae":"A","wings":"X","pattern":"S","legs":"X"},"action":"harvest","summary":"good-harvest","bonus":0.6000000000000012},{"rt":678.8999999761581,"stimulus":"\n                    <p><b>Action: <em>harvest</em></b></p>\n                    <p>This is the bee that you just saw.</p>\n                    <img src=\"bees-with-color/bee-B2DF.svg\" width=\"200\">\n                    <p><span class=\"greenText\"><b>Successful harvest!</b></span><br>Your pay has increased by $0.02. Your bonus pay is now $0.60.</p>\n            ","response":0,"trial_type":"html-button-response","trial_index":96,"time_elapsed":722703,"internal_node_id":"0.0-4.0-1.44","subject_id":"5f731eeb424c7804f2ff2936","study_id":"6197b3f67c2b5cd3b6d9596a","session_id":"619bfe1d48350b3a33ff5fa2","condition":"contingent","relevant_dimensions":["antennae","pattern"],"bee_group":{"antennae":"A","wings":"X","pattern":"S","legs":"X"},"bonus":0.6000000000000012},{"rt":1382.6999999284744,"stimulus":"bees-with-color/bee-A2DF.svg","response":0,"trial_type":"image-button-response","trial_index":97,"time_elapsed":724087,"internal_node_id":"0.0-4.0-0.45","subject_id":"5f731eeb424c7804f2ff2936","study_id":"6197b3f67c2b5cd3b6d9596a","session_id":"619bfe1d48350b3a33ff5fa2","condition":"contingent","relevant_dimensions":["antennae","pattern"],"bee_group":{"antennae":"A","wings":"X","pattern":"S","legs":"X"},"action":"harvest","summary":"good-harvest","bonus":0.6000000000000012},{"rt":678.6000000238419,"stimulus":"\n                    <p><b>Action: <em>harvest</em></b></p>\n                    <p>This is the bee that you just saw.</p>\n                    <img src=\"bees-with-color/bee-A2DF.svg\" width=\"200\">\n                    <p><span class=\"greenText\"><b>Successful harvest!</b></span><br>Your pay has increased by $0.02. Your bonus pay is now $0.62.</p>\n            ","response":0,"trial_type":"html-button-response","trial_index":98,"time_elapsed":724767,"internal_node_id":"0.0-4.0-1.45","subject_id":"5f731eeb424c7804f2ff2936","study_id":"6197b3f67c2b5cd3b6d9596a","session_id":"619bfe1d48350b3a33ff5fa2","condition":"contingent","relevant_dimensions":["antennae","pattern"],"bee_group":{"antennae":"A","wings":"X","pattern":"S","legs":"X"},"bonus":0.6000000000000012},{"rt":14255.200000047684,"stimulus":"bees-with-color/bee-B2SF.svg","response":0,"trial_type":"image-button-response","trial_index":99,"time_elapsed":739023,"internal_node_id":"0.0-4.0-0.46","subject_id":"5f731eeb424c7804f2ff2936","study_id":"6197b3f67c2b5cd3b6d9596a","session_id":"619bfe1d48350b3a33ff5fa2","condition":"contingent","relevant_dimensions":["antennae","pattern"],"bee_group":{"antennae":"A","wings":"X","pattern":"S","legs":"X"},"action":"harvest","summary":"good-harvest","bonus":0.6000000000000012},{"rt":1010.7000000476837,"stimulus":"\n                    <p><b>Action: <em>harvest</em></b></p>\n                    <p>This is the bee that you just saw.</p>\n                    <img src=\"bees-with-color/bee-B2SF.svg\" width=\"200\">\n                    <p><span class=\"greenText\"><b>Successful harvest!</b></span><br>Your pay has increased by $0.02. Your bonus pay is now $0.64.</p>\n            ","response":0,"trial_type":"html-button-response","trial_index":100,"time_elapsed":740035,"internal_node_id":"0.0-4.0-1.46","subject_id":"5f731eeb424c7804f2ff2936","study_id":"6197b3f67c2b5cd3b6d9596a","session_id":"619bfe1d48350b3a33ff5fa2","condition":"contingent","relevant_dimensions":["antennae","pattern"],"bee_group":{"antennae":"A","wings":"X","pattern":"S","legs":"X"},"bonus":0.6000000000000012},{"rt":10602.399999976158,"stimulus":"bees-with-color/bee-B1DM.svg","response":0,"trial_type":"image-button-response","trial_index":101,"time_elapsed":750638,"internal_node_id":"0.0-4.0-0.47","subject_id":"5f731eeb424c7804f2ff2936","study_id":"6197b3f67c2b5cd3b6d9596a","session_id":"619bfe1d48350b3a33ff5fa2","condition":"contingent","relevant_dimensions":["antennae","pattern"],"bee_group":{"antennae":"A","wings":"X","pattern":"S","legs":"X"},"action":"harvest","summary":"good-harvest","bonus":0.6000000000000012},{"rt":943.1000000238419,"stimulus":"\n                    <p><b>Action: <em>harvest</em></b></p>\n                    <p>This is the bee that you just saw.</p>\n                    <img src=\"bees-with-color/bee-B1DM.svg\" width=\"200\">\n                    <p><span class=\"greenText\"><b>Successful harvest!</b></span><br>Your pay has increased by $0.02. Your bonus pay is now $0.66.</p>\n            ","response":0,"trial_type":"html-button-response","trial_index":102,"time_elapsed":751583,"internal_node_id":"0.0-4.0-1.47","subject_id":"5f731eeb424c7804f2ff2936","study_id":"6197b3f67c2b5cd3b6d9596a","session_id":"619bfe1d48350b3a33ff5fa2","condition":"contingent","relevant_dimensions":["antennae","pattern"],"bee_group":{"antennae":"A","wings":"X","pattern":"S","legs":"X"},"bonus":0.6000000000000012},{"rt":13746.600000023842,"stimulus":"bees-with-color/bee-A2SF.svg","response":1,"trial_type":"image-button-response","trial_index":103,"time_elapsed":765330,"internal_node_id":"0.0-4.0-0.48","subject_id":"5f731eeb424c7804f2ff2936","study_id":"6197b3f67c2b5cd3b6d9596a","session_id":"619bfe1d48350b3a33ff5fa2","condition":"contingent","relevant_dimensions":["antennae","pattern"],"bee_group":{"antennae":"A","wings":"X","pattern":"S","legs":"X"},"action":"avoid","summary":"good-avoid","bonus":0.6000000000000012},{"rt":974.8999999761581,"stimulus":"\n                    <p><b>Action: <em>avoid</em></b></p>\n                    <p>This is the bee that you just saw.</p>\n                    <img src=\"bees-with-color/bee-A2SF.svg\" width=\"200\">\n                    <p><br>Your bonus pay is unchanged, and remains at $0.66.</p>\n            ","response":0,"trial_type":"html-button-response","trial_index":104,"time_elapsed":766306,"internal_node_id":"0.0-4.0-1.48","subject_id":"5f731eeb424c7804f2ff2936","study_id":"6197b3f67c2b5cd3b6d9596a","session_id":"619bfe1d48350b3a33ff5fa2","condition":"contingent","relevant_dimensions":["antennae","pattern"],"bee_group":{"antennae":"A","wings":"X","pattern":"S","legs":"X"},"bonus":0.6000000000000012},{"rt":7198.099999904633,"stimulus":"bees-with-color/bee-B1DF.svg","response":0,"trial_type":"image-button-response","trial_index":105,"time_elapsed":773506,"internal_node_id":"0.0-4.0-0.49","subject_id":"5f731eeb424c7804f2ff2936","study_id":"6197b3f67c2b5cd3b6d9596a","session_id":"619bfe1d48350b3a33ff5fa2","condition":"contingent","relevant_dimensions":["antennae","pattern"],"bee_group":{"antennae":"A","wings":"X","pattern":"S","legs":"X"},"action":"harvest","summary":"good-harvest","bonus":0.6000000000000012},{"rt":962.8999999761581,"stimulus":"\n                    <p><b>Action: <em>harvest</em></b></p>\n                    <p>This is the bee that you just saw.</p>\n                    <img src=\"bees-with-color/bee-B1DF.svg\" width=\"200\">\n                    <p><span class=\"greenText\"><b>Successful harvest!</b></span><br>Your pay has increased by $0.02. Your bonus pay is now $0.68.</p>\n            ","response":0,"trial_type":"html-button-response","trial_index":106,"time_elapsed":774470,"internal_node_id":"0.0-4.0-1.49","subject_id":"5f731eeb424c7804f2ff2936","study_id":"6197b3f67c2b5cd3b6d9596a","session_id":"619bfe1d48350b3a33ff5fa2","condition":"contingent","relevant_dimensions":["antennae","pattern"],"bee_group":{"antennae":"A","wings":"X","pattern":"S","legs":"X"},"bonus":0.6000000000000012},{"rt":8974.400000095367,"stimulus":"bees-with-color/bee-A1DM.svg","response":1,"trial_type":"image-button-response","trial_index":107,"time_elapsed":783446,"internal_node_id":"0.0-4.0-0.50","subject_id":"5f731eeb424c7804f2ff2936","study_id":"6197b3f67c2b5cd3b6d9596a","session_id":"619bfe1d48350b3a33ff5fa2","condition":"contingent","relevant_dimensions":["antennae","pattern"],"bee_group":{"antennae":"A","wings":"X","pattern":"S","legs":"X"},"action":"avoid","summary":"bad-avoid","bonus":0.6000000000000012},{"rt":874.6000000238419,"stimulus":"\n                    <p><b>Action: <em>avoid</em></b></p>\n                    <p>This is the bee that you just saw.</p>\n                    <img src=\"bees-with-color/bee-A1DM.svg\" width=\"200\">\n                    <p><br>Your bonus pay is unchanged, and remains at $0.68.</p>\n            ","response":0,"trial_type":"html-button-response","trial_index":108,"time_elapsed":784322,"internal_node_id":"0.0-4.0-1.50","subject_id":"5f731eeb424c7804f2ff2936","study_id":"6197b3f67c2b5cd3b6d9596a","session_id":"619bfe1d48350b3a33ff5fa2","condition":"contingent","relevant_dimensions":["antennae","pattern"],"bee_group":{"antennae":"A","wings":"X","pattern":"S","legs":"X"},"bonus":0.6000000000000012},{"rt":9310.600000023842,"stimulus":"bees-with-color/bee-B2SM.svg","response":0,"trial_type":"image-button-response","trial_index":109,"time_elapsed":793634,"internal_node_id":"0.0-4.0-0.51","subject_id":"5f731eeb424c7804f2ff2936","study_id":"6197b3f67c2b5cd3b6d9596a","session_id":"619bfe1d48350b3a33ff5fa2","condition":"contingent","relevant_dimensions":["antennae","pattern"],"bee_group":{"antennae":"A","wings":"X","pattern":"S","legs":"X"},"action":"harvest","summary":"good-harvest","bonus":0.6000000000000012},{"rt":830.7000000476837,"stimulus":"\n                    <p><b>Action: <em>harvest</em></b></p>\n                    <p>This is the bee that you just saw.</p>\n                    <img src=\"bees-with-color/bee-B2SM.svg\" width=\"200\">\n                    <p><span class=\"greenText\"><b>Successful harvest!</b></span><br>Your pay has increased by $0.02. Your bonus pay is now $0.70.</p>\n            ","response":0,"trial_type":"html-button-response","trial_index":110,"time_elapsed":794466,"internal_node_id":"0.0-4.0-1.51","subject_id":"5f731eeb424c7804f2ff2936","study_id":"6197b3f67c2b5cd3b6d9596a","session_id":"619bfe1d48350b3a33ff5fa2","condition":"contingent","relevant_dimensions":["antennae","pattern"],"bee_group":{"antennae":"A","wings":"X","pattern":"S","legs":"X"},"bonus":0.6000000000000012},{"rt":5374.600000023842,"stimulus":"bees-with-color/bee-B1SF.svg","response":0,"trial_type":"image-button-response","trial_index":111,"time_elapsed":799842,"internal_node_id":"0.0-4.0-0.52","subject_id":"5f731eeb424c7804f2ff2936","study_id":"6197b3f67c2b5cd3b6d9596a","session_id":"619bfe1d48350b3a33ff5fa2","condition":"contingent","relevant_dimensions":["antennae","pattern"],"bee_group":{"antennae":"A","wings":"X","pattern":"S","legs":"X"},"action":"harvest","summary":"good-harvest","bonus":0.6000000000000012},{"rt":775.1000000238419,"stimulus":"\n                    <p><b>Action: <em>harvest</em></b></p>\n                    <p>This is the bee that you just saw.</p>\n                    <img src=\"bees-with-color/bee-B1SF.svg\" width=\"200\">\n                    <p><span class=\"greenText\"><b>Successful harvest!</b></span><br>Your pay has increased by $0.02. Your bonus pay is now $0.72.</p>\n            ","response":0,"trial_type":"html-button-response","trial_index":112,"time_elapsed":800618,"internal_node_id":"0.0-4.0-1.52","subject_id":"5f731eeb424c7804f2ff2936","study_id":"6197b3f67c2b5cd3b6d9596a","session_id":"619bfe1d48350b3a33ff5fa2","condition":"contingent","relevant_dimensions":["antennae","pattern"],"bee_group":{"antennae":"A","wings":"X","pattern":"S","legs":"X"},"bonus":0.6000000000000012},{"rt":5287,"stimulus":"bees-with-color/bee-A1SF.svg","response":1,"trial_type":"image-button-response","trial_index":113,"time_elapsed":805906,"internal_node_id":"0.0-4.0-0.53","subject_id":"5f731eeb424c7804f2ff2936","study_id":"6197b3f67c2b5cd3b6d9596a","session_id":"619bfe1d48350b3a33ff5fa2","condition":"contingent","relevant_dimensions":["antennae","pattern"],"bee_group":{"antennae":"A","wings":"X","pattern":"S","legs":"X"},"action":"avoid","summary":"good-avoid","bonus":0.6000000000000012},{"rt":862.8999999761581,"stimulus":"\n                    <p><b>Action: <em>avoid</em></b></p>\n                    <p>This is the bee that you just saw.</p>\n                    <img src=\"bees-with-color/bee-A1SF.svg\" width=\"200\">\n                    <p><br>Your bonus pay is unchanged, and remains at $0.72.</p>\n            ","response":0,"trial_type":"html-button-response","trial_index":114,"time_elapsed":806770,"internal_node_id":"0.0-4.0-1.53","subject_id":"5f731eeb424c7804f2ff2936","study_id":"6197b3f67c2b5cd3b6d9596a","session_id":"619bfe1d48350b3a33ff5fa2","condition":"contingent","relevant_dimensions":["antennae","pattern"],"bee_group":{"antennae":"A","wings":"X","pattern":"S","legs":"X"},"bonus":0.6000000000000012},{"rt":5334.800000071526,"stimulus":"bees-with-color/bee-A1DF.svg","response":0,"trial_type":"image-button-response","trial_index":115,"time_elapsed":812106,"internal_node_id":"0.0-4.0-0.54","subject_id":"5f731eeb424c7804f2ff2936","study_id":"6197b3f67c2b5cd3b6d9596a","session_id":"619bfe1d48350b3a33ff5fa2","condition":"contingent","relevant_dimensions":["antennae","pattern"],"bee_group":{"antennae":"A","wings":"X","pattern":"S","legs":"X"},"action":"harvest","summary":"good-harvest","bonus":0.6000000000000012},{"rt":607,"stimulus":"\n                    <p><b>Action: <em>harvest</em></b></p>\n                    <p>This is the bee that you just saw.</p>\n                    <img src=\"bees-with-color/bee-A1DF.svg\" width=\"200\">\n                    <p><span class=\"greenText\"><b>Successful harvest!</b></span><br>Your pay has increased by $0.02. Your bonus pay is now $0.74.</p>\n            ","response":0,"trial_type":"html-button-response","trial_index":116,"time_elapsed":812714,"internal_node_id":"0.0-4.0-1.54","subject_id":"5f731eeb424c7804f2ff2936","study_id":"6197b3f67c2b5cd3b6d9596a","session_id":"619bfe1d48350b3a33ff5fa2","condition":"contingent","relevant_dimensions":["antennae","pattern"],"bee_group":{"antennae":"A","wings":"X","pattern":"S","legs":"X"},"bonus":0.6000000000000012},{"rt":11238.699999928474,"stimulus":"bees-with-color/bee-B1SM.svg","response":0,"trial_type":"image-button-response","trial_index":117,"time_elapsed":823953,"internal_node_id":"0.0-4.0-0.55","subject_id":"5f731eeb424c7804f2ff2936","study_id":"6197b3f67c2b5cd3b6d9596a","session_id":"619bfe1d48350b3a33ff5fa2","condition":"contingent","relevant_dimensions":["antennae","pattern"],"bee_group":{"antennae":"A","wings":"X","pattern":"S","legs":"X"},"action":"harvest","summary":"good-harvest","bonus":0.6000000000000012},{"rt":935.1999999284744,"stimulus":"\n                    <p><b>Action: <em>harvest</em></b></p>\n                    <p>This is the bee that you just saw.</p>\n                    <img src=\"bees-with-color/bee-B1SM.svg\" width=\"200\">\n                    <p><span class=\"greenText\"><b>Successful harvest!</b></span><br>Your pay has increased by $0.02. Your bonus pay is now $0.76.</p>\n            ","response":0,"trial_type":"html-button-response","trial_index":118,"time_elapsed":824889,"internal_node_id":"0.0-4.0-1.55","subject_id":"5f731eeb424c7804f2ff2936","study_id":"6197b3f67c2b5cd3b6d9596a","session_id":"619bfe1d48350b3a33ff5fa2","condition":"contingent","relevant_dimensions":["antennae","pattern"],"bee_group":{"antennae":"A","wings":"X","pattern":"S","legs":"X"},"bonus":0.6000000000000012},{"rt":2962.5,"stimulus":"bees-with-color/bee-A1SM.svg","response":0,"trial_type":"image-button-response","trial_index":119,"time_elapsed":827853,"internal_node_id":"0.0-4.0-0.56","subject_id":"5f731eeb424c7804f2ff2936","study_id":"6197b3f67c2b5cd3b6d9596a","session_id":"619bfe1d48350b3a33ff5fa2","condition":"contingent","relevant_dimensions":["antennae","pattern"],"bee_group":{"antennae":"A","wings":"X","pattern":"S","legs":"X"},"action":"harvest","summary":"bad-harvest","bonus":0.6000000000000012},{"rt":1158.8999999761581,"stimulus":"\n                    <p><b>Action: <em>harvest</em></b></p>\n                    <p>This is the bee that you just saw.</p>\n                    <img src=\"bees-with-color/bee-A1SM.svg\" width=\"200\">\n                    <p><span class=\"redText\">Bad choice, the bee was angry.</span><br><b>You have been stung!</b><br>Your pay has been decreased by $0.10. Your bonus pay is now $0.66.</p>\n            ","response":0,"trial_type":"html-button-response","trial_index":120,"time_elapsed":829013,"internal_node_id":"0.0-4.0-1.56","subject_id":"5f731eeb424c7804f2ff2936","study_id":"6197b3f67c2b5cd3b6d9596a","session_id":"619bfe1d48350b3a33ff5fa2","condition":"contingent","relevant_dimensions":["antennae","pattern"],"bee_group":{"antennae":"A","wings":"X","pattern":"S","legs":"X"},"bonus":0.6000000000000012},{"rt":7082.899999976158,"stimulus":"bees-with-color/bee-B2DF.svg","response":1,"trial_type":"image-button-response","trial_index":121,"time_elapsed":836098,"internal_node_id":"0.0-4.0-0.57","subject_id":"5f731eeb424c7804f2ff2936","study_id":"6197b3f67c2b5cd3b6d9596a","session_id":"619bfe1d48350b3a33ff5fa2","condition":"contingent","relevant_dimensions":["antennae","pattern"],"bee_group":{"antennae":"A","wings":"X","pattern":"S","legs":"X"},"action":"avoid","summary":"bad-avoid","bonus":0.6000000000000012},{"rt":1135,"stimulus":"\n                    <p><b>Action: <em>avoid</em></b></p>\n                    <p>This is the bee that you just saw.</p>\n                    <img src=\"bees-with-color/bee-B2DF.svg\" width=\"200\">\n                    <p><br>Your bonus pay is unchanged, and remains at $0.66.</p>\n            ","response":0,"trial_type":"html-button-response","trial_index":122,"time_elapsed":837234,"internal_node_id":"0.0-4.0-1.57","subject_id":"5f731eeb424c7804f2ff2936","study_id":"6197b3f67c2b5cd3b6d9596a","session_id":"619bfe1d48350b3a33ff5fa2","condition":"contingent","relevant_dimensions":["antennae","pattern"],"bee_group":{"antennae":"A","wings":"X","pattern":"S","legs":"X"},"bonus":0.6000000000000012},{"rt":5422.200000047684,"stimulus":"bees-with-color/bee-A2DF.svg","response":1,"trial_type":"image-button-response","trial_index":123,"time_elapsed":842657,"internal_node_id":"0.0-4.0-0.58","subject_id":"5f731eeb424c7804f2ff2936","study_id":"6197b3f67c2b5cd3b6d9596a","session_id":"619bfe1d48350b3a33ff5fa2","condition":"contingent","relevant_dimensions":["antennae","pattern"],"bee_group":{"antennae":"A","wings":"X","pattern":"S","legs":"X"},"action":"avoid","summary":"bad-avoid","bonus":0.6000000000000012},{"rt":919.2000000476837,"stimulus":"\n                    <p><b>Action: <em>avoid</em></b></p>\n                    <p>This is the bee that you just saw.</p>\n                    <img src=\"bees-with-color/bee-A2DF.svg\" width=\"200\">\n                    <p><br>Your bonus pay is unchanged, and remains at $0.66.</p>\n            ","response":0,"trial_type":"html-button-response","trial_index":124,"time_elapsed":843578,"internal_node_id":"0.0-4.0-1.58","subject_id":"5f731eeb424c7804f2ff2936","study_id":"6197b3f67c2b5cd3b6d9596a","session_id":"619bfe1d48350b3a33ff5fa2","condition":"contingent","relevant_dimensions":["antennae","pattern"],"bee_group":{"antennae":"A","wings":"X","pattern":"S","legs":"X"},"bonus":0.6000000000000012},{"rt":13958.5,"stimulus":"bees-with-color/bee-B2DM.svg","response":0,"trial_type":"image-button-response","trial_index":125,"time_elapsed":857537,"internal_node_id":"0.0-4.0-0.59","subject_id":"5f731eeb424c7804f2ff2936","study_id":"6197b3f67c2b5cd3b6d9596a","session_id":"619bfe1d48350b3a33ff5fa2","condition":"contingent","relevant_dimensions":["antennae","pattern"],"bee_group":{"antennae":"A","wings":"X","pattern":"S","legs":"X"},"action":"harvest","summary":"good-harvest","bonus":0.6000000000000012},{"rt":1823,"stimulus":"\n                    <p><b>Action: <em>harvest</em></b></p>\n                    <p>This is the bee that you just saw.</p>\n                    <img src=\"bees-with-color/bee-B2DM.svg\" width=\"200\">\n                    <p><span class=\"greenText\"><b>Successful harvest!</b></span><br>Your pay has increased by $0.02. Your bonus pay is now $0.68.</p>\n            ","response":0,"trial_type":"html-button-response","trial_index":126,"time_elapsed":859361,"internal_node_id":"0.0-4.0-1.59","subject_id":"5f731eeb424c7804f2ff2936","study_id":"6197b3f67c2b5cd3b6d9596a","session_id":"619bfe1d48350b3a33ff5fa2","condition":"contingent","relevant_dimensions":["antennae","pattern"],"bee_group":{"antennae":"A","wings":"X","pattern":"S","legs":"X"},"bonus":0.6000000000000012},{"rt":13142.600000023842,"stimulus":"bees-with-color/bee-B2SF.svg","response":0,"trial_type":"image-button-response","trial_index":127,"time_elapsed":872505,"internal_node_id":"0.0-4.0-0.60","subject_id":"5f731eeb424c7804f2ff2936","study_id":"6197b3f67c2b5cd3b6d9596a","session_id":"619bfe1d48350b3a33ff5fa2","condition":"contingent","relevant_dimensions":["antennae","pattern"],"bee_group":{"antennae":"A","wings":"X","pattern":"S","legs":"X"},"action":"harvest","summary":"good-harvest","bonus":0.6000000000000012},{"rt":947.1000000238419,"stimulus":"\n                    <p><b>Action: <em>harvest</em></b></p>\n                    <p>This is the bee that you just saw.</p>\n                    <img src=\"bees-with-color/bee-B2SF.svg\" width=\"200\">\n                    <p><span class=\"greenText\"><b>Successful harvest!</b></span><br>Your pay has increased by $0.02. Your bonus pay is now $0.70.</p>\n            ","response":0,"trial_type":"html-button-response","trial_index":128,"time_elapsed":873453,"internal_node_id":"0.0-4.0-1.60","subject_id":"5f731eeb424c7804f2ff2936","study_id":"6197b3f67c2b5cd3b6d9596a","session_id":"619bfe1d48350b3a33ff5fa2","condition":"contingent","relevant_dimensions":["antennae","pattern"],"bee_group":{"antennae":"A","wings":"X","pattern":"S","legs":"X"},"bonus":0.6000000000000012},{"rt":2066.4000000953674,"stimulus":"bees-with-color/bee-A2SM.svg","response":1,"trial_type":"image-button-response","trial_index":129,"time_elapsed":875522,"internal_node_id":"0.0-4.0-0.61","subject_id":"5f731eeb424c7804f2ff2936","study_id":"6197b3f67c2b5cd3b6d9596a","session_id":"619bfe1d48350b3a33ff5fa2","condition":"contingent","relevant_dimensions":["antennae","pattern"],"bee_group":{"antennae":"A","wings":"X","pattern":"S","legs":"X"},"action":"avoid","summary":"good-avoid","bonus":0.6000000000000012},{"rt":822.8999999761581,"stimulus":"\n                    <p><b>Action: <em>avoid</em></b></p>\n                    <p>This is the bee that you just saw.</p>\n                    <img src=\"bees-with-color/bee-A2SM.svg\" width=\"200\">\n                    <p><br>Your bonus pay is unchanged, and remains at $0.70.</p>\n            ","response":0,"trial_type":"html-button-response","trial_index":130,"time_elapsed":876346,"internal_node_id":"0.0-4.0-1.61","subject_id":"5f731eeb424c7804f2ff2936","study_id":"6197b3f67c2b5cd3b6d9596a","session_id":"619bfe1d48350b3a33ff5fa2","condition":"contingent","relevant_dimensions":["antennae","pattern"],"bee_group":{"antennae":"A","wings":"X","pattern":"S","legs":"X"},"bonus":0.6000000000000012},{"rt":9927.100000023842,"stimulus":"bees-with-color/bee-B1DM.svg","response":0,"trial_type":"image-button-response","trial_index":131,"time_elapsed":886274,"internal_node_id":"0.0-4.0-0.62","subject_id":"5f731eeb424c7804f2ff2936","study_id":"6197b3f67c2b5cd3b6d9596a","session_id":"619bfe1d48350b3a33ff5fa2","condition":"contingent","relevant_dimensions":["antennae","pattern"],"bee_group":{"antennae":"A","wings":"X","pattern":"S","legs":"X"},"action":"harvest","summary":"good-harvest","bonus":0.6000000000000012},{"rt":862.8999999761581,"stimulus":"\n                    <p><b>Action: <em>harvest</em></b></p>\n                    <p>This is the bee that you just saw.</p>\n                    <img src=\"bees-with-color/bee-B1DM.svg\" width=\"200\">\n                    <p><span class=\"greenText\"><b>Successful harvest!</b></span><br>Your pay has increased by $0.02. Your bonus pay is now $0.72.</p>\n            ","response":0,"trial_type":"html-button-response","trial_index":132,"time_elapsed":887138,"internal_node_id":"0.0-4.0-1.62","subject_id":"5f731eeb424c7804f2ff2936","study_id":"6197b3f67c2b5cd3b6d9596a","session_id":"619bfe1d48350b3a33ff5fa2","condition":"contingent","relevant_dimensions":["antennae","pattern"],"bee_group":{"antennae":"A","wings":"X","pattern":"S","legs":"X"},"bonus":0.6000000000000012},{"rt":12658.799999952316,"stimulus":"bees-with-color/bee-A2DM.svg","response":1,"trial_type":"image-button-response","trial_index":133,"time_elapsed":899798,"internal_node_id":"0.0-4.0-0.63","subject_id":"5f731eeb424c7804f2ff2936","study_id":"6197b3f67c2b5cd3b6d9596a","session_id":"619bfe1d48350b3a33ff5fa2","condition":"contingent","relevant_dimensions":["antennae","pattern"],"bee_group":{"antennae":"A","wings":"X","pattern":"S","legs":"X"},"action":"avoid","summary":"bad-avoid","bonus":0.6000000000000012},{"rt":874.6999999284744,"stimulus":"\n                    <p><b>Action: <em>avoid</em></b></p>\n                    <p>This is the bee that you just saw.</p>\n                    <img src=\"bees-with-color/bee-A2DM.svg\" width=\"200\">\n                    <p><br>Your bonus pay is unchanged, and remains at $0.72.</p>\n            ","response":0,"trial_type":"html-button-response","trial_index":134,"time_elapsed":900674,"internal_node_id":"0.0-4.0-1.63","subject_id":"5f731eeb424c7804f2ff2936","study_id":"6197b3f67c2b5cd3b6d9596a","session_id":"619bfe1d48350b3a33ff5fa2","condition":"contingent","relevant_dimensions":["antennae","pattern"],"bee_group":{"antennae":"A","wings":"X","pattern":"S","legs":"X"},"bonus":0.6000000000000012},{"rt":6147.700000047684,"stimulus":"You have completed the first part of this experiment.<br><br>You will now begin a shorter second part, in which you will receive no feedback.<br>The same rules regarding bonus pay apply.<br><br>Press any key to begin.","response":"enter","trial_type":"html-keyboard-response","trial_index":135,"time_elapsed":906823,"internal_node_id":"0.0-5.0","subject_id":"5f731eeb424c7804f2ff2936","study_id":"6197b3f67c2b5cd3b6d9596a","session_id":"619bfe1d48350b3a33ff5fa2","condition":"contingent","relevant_dimensions":["antennae","pattern"],"bee_group":{"antennae":"A","wings":"X","pattern":"S","legs":"X"},"bonus":0.6000000000000012},{"rt":19472.700000047684,"stimulus":"bees-with-color/bee-B2SM.svg","response":0,"trial_type":"image-button-response","trial_index":136,"time_elapsed":926306,"internal_node_id":"0.0-6.0-0.0","subject_id":"5f731eeb424c7804f2ff2936","study_id":"6197b3f67c2b5cd3b6d9596a","session_id":"619bfe1d48350b3a33ff5fa2","condition":"contingent","relevant_dimensions":["antennae","pattern"],"bee_group":{"antennae":"A","wings":"X","pattern":"S","legs":"X"},"bonus":0.6000000000000012},{"rt":8606,"stimulus":"bees-with-color/bee-A2DM.svg","response":1,"trial_type":"image-button-response","trial_index":137,"time_elapsed":934914,"internal_node_id":"0.0-6.0-0.1","subject_id":"5f731eeb424c7804f2ff2936","study_id":"6197b3f67c2b5cd3b6d9596a","session_id":"619bfe1d48350b3a33ff5fa2","condition":"contingent","relevant_dimensions":["antennae","pattern"],"bee_group":{"antennae":"A","wings":"X","pattern":"S","legs":"X"},"bonus":0.6000000000000012},{"rt":6082,"stimulus":"bees-with-color/bee-B1SF.svg","response":0,"trial_type":"image-button-response","trial_index":138,"time_elapsed":940998,"internal_node_id":"0.0-6.0-0.2","subject_id":"5f731eeb424c7804f2ff2936","study_id":"6197b3f67c2b5cd3b6d9596a","session_id":"619bfe1d48350b3a33ff5fa2","condition":"contingent","relevant_dimensions":["antennae","pattern"],"bee_group":{"antennae":"A","wings":"X","pattern":"S","legs":"X"},"bonus":0.6000000000000012},{"rt":8630.099999904633,"stimulus":"bees-with-color/bee-A1DM.svg","response":1,"trial_type":"image-button-response","trial_index":139,"time_elapsed":949630,"internal_node_id":"0.0-6.0-0.3","subject_id":"5f731eeb424c7804f2ff2936","study_id":"6197b3f67c2b5cd3b6d9596a","session_id":"619bfe1d48350b3a33ff5fa2","condition":"contingent","relevant_dimensions":["antennae","pattern"],"bee_group":{"antennae":"A","wings":"X","pattern":"S","legs":"X"},"bonus":0.6000000000000012},{"rt":13322.199999928474,"stimulus":"bees-with-color/bee-A1SF.svg","response":1,"trial_type":"image-button-response","trial_index":140,"time_elapsed":962954,"internal_node_id":"0.0-6.0-0.4","subject_id":"5f731eeb424c7804f2ff2936","study_id":"6197b3f67c2b5cd3b6d9596a","session_id":"619bfe1d48350b3a33ff5fa2","condition":"contingent","relevant_dimensions":["antennae","pattern"],"bee_group":{"antennae":"A","wings":"X","pattern":"S","legs":"X"},"bonus":0.6000000000000012},{"rt":1313.6000000238419,"stimulus":"bees-with-color/bee-A1DF.svg","response":0,"trial_type":"image-button-response","trial_index":141,"time_elapsed":964270,"internal_node_id":"0.0-6.0-0.5","subject_id":"5f731eeb424c7804f2ff2936","study_id":"6197b3f67c2b5cd3b6d9596a","session_id":"619bfe1d48350b3a33ff5fa2","condition":"contingent","relevant_dimensions":["antennae","pattern"],"bee_group":{"antennae":"A","wings":"X","pattern":"S","legs":"X"},"bonus":0.6000000000000012},{"rt":422.8000000715256,"stimulus":"bees-with-color/bee-A2SF.svg","response":0,"trial_type":"image-button-response","trial_index":142,"time_elapsed":964694,"internal_node_id":"0.0-6.0-0.6","subject_id":"5f731eeb424c7804f2ff2936","study_id":"6197b3f67c2b5cd3b6d9596a","session_id":"619bfe1d48350b3a33ff5fa2","condition":"contingent","relevant_dimensions":["antennae","pattern"],"bee_group":{"antennae":"A","wings":"X","pattern":"S","legs":"X"},"bonus":0.6000000000000012},{"rt":509.8000000715256,"stimulus":"bees-with-color/bee-B2DF.svg","response":1,"trial_type":"image-button-response","trial_index":143,"time_elapsed":965206,"internal_node_id":"0.0-6.0-0.7","subject_id":"5f731eeb424c7804f2ff2936","study_id":"6197b3f67c2b5cd3b6d9596a","session_id":"619bfe1d48350b3a33ff5fa2","condition":"contingent","relevant_dimensions":["antennae","pattern"],"bee_group":{"antennae":"A","wings":"X","pattern":"S","legs":"X"},"bonus":0.6000000000000012},{"rt":1150.4000000953674,"stimulus":"bees-with-color/bee-B1SM.svg","response":0,"trial_type":"image-button-response","trial_index":144,"time_elapsed":966358,"internal_node_id":"0.0-6.0-0.8","subject_id":"5f731eeb424c7804f2ff2936","study_id":"6197b3f67c2b5cd3b6d9596a","session_id":"619bfe1d48350b3a33ff5fa2","condition":"contingent","relevant_dimensions":["antennae","pattern"],"bee_group":{"antennae":"A","wings":"X","pattern":"S","legs":"X"},"bonus":0.6000000000000012},{"rt":1590.5,"stimulus":"bees-with-color/bee-B1DF.svg","response":0,"trial_type":"image-button-response","trial_index":145,"time_elapsed":967950,"internal_node_id":"0.0-6.0-0.9","subject_id":"5f731eeb424c7804f2ff2936","study_id":"6197b3f67c2b5cd3b6d9596a","session_id":"619bfe1d48350b3a33ff5fa2","condition":"contingent","relevant_dimensions":["antennae","pattern"],"bee_group":{"antennae":"A","wings":"X","pattern":"S","legs":"X"},"bonus":0.6000000000000012},{"rt":590.7000000476837,"stimulus":"bees-with-color/bee-B2DM.svg","response":1,"trial_type":"image-button-response","trial_index":146,"time_elapsed":968542,"internal_node_id":"0.0-6.0-0.10","subject_id":"5f731eeb424c7804f2ff2936","study_id":"6197b3f67c2b5cd3b6d9596a","session_id":"619bfe1d48350b3a33ff5fa2","condition":"contingent","relevant_dimensions":["antennae","pattern"],"bee_group":{"antennae":"A","wings":"X","pattern":"S","legs":"X"},"bonus":0.6000000000000012},{"rt":3678.7000000476837,"stimulus":"bees-with-color/bee-A2SM.svg","response":0,"trial_type":"image-button-response","trial_index":147,"time_elapsed":972222,"internal_node_id":"0.0-6.0-0.11","subject_id":"5f731eeb424c7804f2ff2936","study_id":"6197b3f67c2b5cd3b6d9596a","session_id":"619bfe1d48350b3a33ff5fa2","condition":"contingent","relevant_dimensions":["antennae","pattern"],"bee_group":{"antennae":"A","wings":"X","pattern":"S","legs":"X"},"bonus":0.6000000000000012},{"rt":206.30000007152557,"stimulus":"bees-with-color/bee-A2DF.svg","response":0,"trial_type":"image-button-response","trial_index":148,"time_elapsed":972430,"internal_node_id":"0.0-6.0-0.12","subject_id":"5f731eeb424c7804f2ff2936","study_id":"6197b3f67c2b5cd3b6d9596a","session_id":"619bfe1d48350b3a33ff5fa2","condition":"contingent","relevant_dimensions":["antennae","pattern"],"bee_group":{"antennae":"A","wings":"X","pattern":"S","legs":"X"},"bonus":0.6000000000000012},{"rt":527.3999999761581,"stimulus":"bees-with-color/bee-B2SF.svg","response":1,"trial_type":"image-button-response","trial_index":149,"time_elapsed":972958,"internal_node_id":"0.0-6.0-0.13","subject_id":"5f731eeb424c7804f2ff2936","study_id":"6197b3f67c2b5cd3b6d9596a","session_id":"619bfe1d48350b3a33ff5fa2","condition":"contingent","relevant_dimensions":["antennae","pattern"],"bee_group":{"antennae":"A","wings":"X","pattern":"S","legs":"X"},"bonus":0.6000000000000012},{"rt":342.8000000715256,"stimulus":"bees-with-color/bee-A1SM.svg","response":1,"trial_type":"image-button-response","trial_index":150,"time_elapsed":973303,"internal_node_id":"0.0-6.0-0.14","subject_id":"5f731eeb424c7804f2ff2936","study_id":"6197b3f67c2b5cd3b6d9596a","session_id":"619bfe1d48350b3a33ff5fa2","condition":"contingent","relevant_dimensions":["antennae","pattern"],"bee_group":{"antennae":"A","wings":"X","pattern":"S","legs":"X"},"bonus":0.6000000000000012},{"rt":405.89999997615814,"stimulus":"bees-with-color/bee-B1DM.svg","response":0,"trial_type":"image-button-response","trial_index":151,"time_elapsed":973710,"internal_node_id":"0.0-6.0-0.15","subject_id":"5f731eeb424c7804f2ff2936","study_id":"6197b3f67c2b5cd3b6d9596a","session_id":"619bfe1d48350b3a33ff5fa2","condition":"contingent","relevant_dimensions":["antennae","pattern"],"bee_group":{"antennae":"A","wings":"X","pattern":"S","legs":"X"},"bonus":0.6000000000000012},{"rt":790.7000000476837,"stimulus":"bees-with-color/bee-A2SM.svg","response":1,"trial_type":"image-button-response","trial_index":152,"time_elapsed":974502,"internal_node_id":"0.0-6.0-0.16","subject_id":"5f731eeb424c7804f2ff2936","study_id":"6197b3f67c2b5cd3b6d9596a","session_id":"619bfe1d48350b3a33ff5fa2","condition":"contingent","relevant_dimensions":["antennae","pattern"],"bee_group":{"antennae":"A","wings":"X","pattern":"S","legs":"X"},"bonus":0.6000000000000012},{"rt":146.80000007152557,"stimulus":"bees-with-color/bee-B2SF.svg","response":1,"trial_type":"image-button-response","trial_index":153,"time_elapsed":974650,"internal_node_id":"0.0-6.0-0.17","subject_id":"5f731eeb424c7804f2ff2936","study_id":"6197b3f67c2b5cd3b6d9596a","session_id":"619bfe1d48350b3a33ff5fa2","condition":"contingent","relevant_dimensions":["antennae","pattern"],"bee_group":{"antennae":"A","wings":"X","pattern":"S","legs":"X"},"bonus":0.6000000000000012},{"rt":162.70000004768372,"stimulus":"bees-with-color/bee-B2SM.svg","response":1,"trial_type":"image-button-response","trial_index":154,"time_elapsed":974814,"internal_node_id":"0.0-6.0-0.18","subject_id":"5f731eeb424c7804f2ff2936","study_id":"6197b3f67c2b5cd3b6d9596a","session_id":"619bfe1d48350b3a33ff5fa2","condition":"contingent","relevant_dimensions":["antennae","pattern"],"bee_group":{"antennae":"A","wings":"X","pattern":"S","legs":"X"},"bonus":0.6000000000000012},{"rt":462.90000009536743,"stimulus":"bees-with-color/bee-A1SF.svg","response":0,"trial_type":"image-button-response","trial_index":155,"time_elapsed":975278,"internal_node_id":"0.0-6.0-0.19","subject_id":"5f731eeb424c7804f2ff2936","study_id":"6197b3f67c2b5cd3b6d9596a","session_id":"619bfe1d48350b3a33ff5fa2","condition":"contingent","relevant_dimensions":["antennae","pattern"],"bee_group":{"antennae":"A","wings":"X","pattern":"S","legs":"X"},"bonus":0.6000000000000012},{"rt":702.8999999761581,"stimulus":"bees-with-color/bee-B2DF.svg","response":0,"trial_type":"image-button-response","trial_index":156,"time_elapsed":975982,"internal_node_id":"0.0-6.0-0.20","subject_id":"5f731eeb424c7804f2ff2936","study_id":"6197b3f67c2b5cd3b6d9596a","session_id":"619bfe1d48350b3a33ff5fa2","condition":"contingent","relevant_dimensions":["antennae","pattern"],"bee_group":{"antennae":"A","wings":"X","pattern":"S","legs":"X"},"bonus":0.6000000000000012},{"rt":2722.7000000476837,"stimulus":"bees-with-color/bee-B1SF.svg","response":0,"trial_type":"image-button-response","trial_index":157,"time_elapsed":978706,"internal_node_id":"0.0-6.0-0.21","subject_id":"5f731eeb424c7804f2ff2936","study_id":"6197b3f67c2b5cd3b6d9596a","session_id":"619bfe1d48350b3a33ff5fa2","condition":"contingent","relevant_dimensions":["antennae","pattern"],"bee_group":{"antennae":"A","wings":"X","pattern":"S","legs":"X"},"bonus":0.6000000000000012},{"rt":6486.900000095367,"stimulus":"bees-with-color/bee-A2DF.svg","response":0,"trial_type":"image-button-response","trial_index":158,"time_elapsed":985194,"internal_node_id":"0.0-6.0-0.22","subject_id":"5f731eeb424c7804f2ff2936","study_id":"6197b3f67c2b5cd3b6d9596a","session_id":"619bfe1d48350b3a33ff5fa2","condition":"contingent","relevant_dimensions":["antennae","pattern"],"bee_group":{"antennae":"A","wings":"X","pattern":"S","legs":"X"},"bonus":0.6000000000000012},{"rt":1394.5,"stimulus":"bees-with-color/bee-B2DM.svg","response":0,"trial_type":"image-button-response","trial_index":159,"time_elapsed":986590,"internal_node_id":"0.0-6.0-0.23","subject_id":"5f731eeb424c7804f2ff2936","study_id":"6197b3f67c2b5cd3b6d9596a","session_id":"619bfe1d48350b3a33ff5fa2","condition":"contingent","relevant_dimensions":["antennae","pattern"],"bee_group":{"antennae":"A","wings":"X","pattern":"S","legs":"X"},"bonus":0.6000000000000012},{"rt":574.5,"stimulus":"bees-with-color/bee-A1SM.svg","response":1,"trial_type":"image-button-response","trial_index":160,"time_elapsed":987166,"internal_node_id":"0.0-6.0-0.24","subject_id":"5f731eeb424c7804f2ff2936","study_id":"6197b3f67c2b5cd3b6d9596a","session_id":"619bfe1d48350b3a33ff5fa2","condition":"contingent","relevant_dimensions":["antennae","pattern"],"bee_group":{"antennae":"A","wings":"X","pattern":"S","legs":"X"},"bonus":0.6000000000000012},{"rt":1314.8000000715256,"stimulus":"bees-with-color/bee-B1SM