[{"success":true,"trial_type":"fullscreen","trial_index":0,"time_elapsed":23862,"internal_node_id":"0.0-0.0","subject_id":"6007421356226920359b5f3e","study_id":"6197b3f67c2b5cd3b6d9596a","session_id":"619beef1cebb72ea494c6a43","condition":"contingent","relevant_dimensions":["wings","pattern"],"bee_group":{"antennae":"X","wings":"1","pattern":"S","legs":"X"},"bonus":0.9000000000000008},{"success":true,"timeout":false,"failed_images":[],"failed_audio":[],"failed_video":[],"trial_type":"preload","trial_index":1,"time_elapsed":25533,"internal_node_id":"0.0-1.0","subject_id":"6007421356226920359b5f3e","study_id":"6197b3f67c2b5cd3b6d9596a","session_id":"619beef1cebb72ea494c6a43","condition":"contingent","relevant_dimensions":["wings","pattern"],"bee_group":{"antennae":"X","wings":"1","pattern":"S","legs":"X"},"bonus":0.9000000000000008},{"rt":1464,"stimulus":"Welcome! Press any key to begin.","response":"enter","trial_type":"html-keyboard-response","trial_index":2,"time_elapsed":26999,"internal_node_id":"0.0-2.0","subject_id":"6007421356226920359b5f3e","study_id":"6197b3f67c2b5cd3b6d9596a","session_id":"619beef1cebb72ea494c6a43","condition":"contingent","relevant_dimensions":["wings","pattern"],"bee_group":{"antennae":"X","wings":"1","pattern":"S","legs":"X"},"bonus":0.9000000000000008},{"view_history":[{"page_index":0,"viewing_time":3152},{"page_index":1,"viewing_time":10962},{"page_index":2,"viewing_time":10460},{"page_index":3,"viewing_time":12355},{"page_index":4,"viewing_time":5156},{"page_index":5,"viewing_time":7074},{"page_index":6,"viewing_time":6496},{"page_index":7,"viewing_time":5530},{"page_index":8,"viewing_time":3931},{"page_index":9,"viewing_time":3543},{"page_index":10,"viewing_time":1586},{"page_index":11,"viewing_time":8122},{"page_index":12,"viewing_time":8588},{"page_index":13,"viewing_time":1029},{"page_index":14,"viewing_time":1637}],"rt":89621,"trial_type":"instructions","trial_index":3,"time_elapsed":116620,"internal_node_id":"0.0-3.0-0.0","subject_id":"6007421356226920359b5f3e","study_id":"6197b3f67c2b5cd3b6d9596a","session_id":"619beef1cebb72ea494c6a43","condition":"contingent","relevant_dimensions":["wings","pattern"],"bee_group":{"antennae":"X","wings":"1","pattern":"S","legs":"X"},"bonus":0.9000000000000008},{"rt":10123,"response":{"Q0":["Two or six legs","Stripes or spots on body","Single or double wings","Antennae or no antennae"]},"question_order":[0],"trial_type":"survey-multi-select","trial_index":4,"time_elapsed":126751,"internal_node_id":"0.0-3.0-1.0","subject_id":"6007421356226920359b5f3e","study_id":"6197b3f67c2b5cd3b6d9596a","session_id":"619beef1cebb72ea494c6a43","condition":"contingent","relevant_dimensions":["wings","pattern"],"bee_group":{"antennae":"X","wings":"1","pattern":"S","legs":"X"},"correct":true,"bonus":0.9000000000000008},{"rt":16317,"response":{"Q1":"No.","Q2":"Based on the four features of the bee.","Q3":"You do not learn if it was friendly or dangerous, and do not alter your bonus."},"question_order":[0,1,2],"trial_type":"survey-multi-choice","trial_index":5,"time_elapsed":143084,"internal_node_id":"0.0-3.0-2.0","subject_id":"6007421356226920359b5f3e","study_id":"6197b3f67c2b5cd3b6d9596a","session_id":"619beef1cebb72ea494c6a43","condition":"contingent","relevant_dimensions":["wings","pattern"],"bee_group":{"antennae":"X","wings":"1","pattern":"S","legs":"X"},"correct":true,"bonus":0.9000000000000008},{"rt":2330,"stimulus":"<p>Congrats, you got everything right<br>When you're ready, click the button below to continue to the experiment.</p>","response":0,"trial_type":"html-button-response","trial_index":6,"time_elapsed":145427,"internal_node_id":"0.0-3.0-3.0","subject_id":"6007421356226920359b5f3e","study_id":"6197b3f67c2b5cd3b6d9596a","session_id":"619beef1cebb72ea494c6a43","condition":"contingent","relevant_dimensions":["wings","pattern"],"bee_group":{"antennae":"X","wings":"1","pattern":"S","legs":"X"},"bonus":0.9000000000000008},{"rt":6556,"stimulus":"bees-with-color/bee-A1DM.svg","response":0,"trial_type":"image-button-response","trial_index":7,"time_elapsed":151987,"internal_node_id":"0.0-4.0-0.0","subject_id":"6007421356226920359b5f3e","study_id":"6197b3f67c2b5cd3b6d9596a","session_id":"619beef1cebb72ea494c6a43","condition":"contingent","relevant_dimensions":["wings","pattern"],"bee_group":{"antennae":"X","wings":"1","pattern":"S","legs":"X"},"action":"harvest","summary":"good-harvest","bonus":0.9000000000000008},{"rt":3973,"stimulus":"\n                    <p><b>Action: <em>harvest</em></b></p>\n                    <p>This is the bee that you just saw.</p>\n                    <img src=\"bees-with-color/bee-A1DM.svg\" width=\"200\">\n                    <p><span class=\"greenText\"><b>Successful harvest!</b></span><br>Your pay has increased by $0.02. Your bonus pay is now $0.56.</p>\n            ","response":0,"trial_type":"html-button-response","trial_index":8,"time_elapsed":155965,"internal_node_id":"0.0-4.0-1.0","subject_id":"6007421356226920359b5f3e","study_id":"6197b3f67c2b5cd3b6d9596a","session_id":"619beef1cebb72ea494c6a43","condition":"contingent","relevant_dimensions":["wings","pattern"],"bee_group":{"antennae":"X","wings":"1","pattern":"S","legs":"X"},"bonus":0.9000000000000008},{"rt":1884,"stimulus":"bees-with-color/bee-A2SF.svg","response":0,"trial_type":"image-button-response","trial_index":9,"time_elapsed":157852,"internal_node_id":"0.0-4.0-0.1","subject_id":"6007421356226920359b5f3e","study_id":"6197b3f67c2b5cd3b6d9596a","session_id":"619beef1cebb72ea494c6a43","condition":"contingent","relevant_dimensions":["wings","pattern"],"bee_group":{"antennae":"X","wings":"1","pattern":"S","legs":"X"},"action":"harvest","summary":"good-harvest","bonus":0.9000000000000008},{"rt":1194,"stimulus":"\n                    <p><b>Action: <em>harvest</em></b></p>\n                    <p>This is the bee that you just saw.</p>\n                    <img src=\"bees-with-color/bee-A2SF.svg\" width=\"200\">\n                    <p><span class=\"greenText\"><b>Successful harvest!</b></span><br>Your pay has increased by $0.02. Your bonus pay is now $0.58.</p>\n            ","response":0,"trial_type":"html-button-response","trial_index":10,"time_elapsed":159048,"internal_node_id":"0.0-4.0-1.1","subject_id":"6007421356226920359b5f3e","study_id":"6197b3f67c2b5cd3b6d9596a","session_id":"619beef1cebb72ea494c6a43","condition":"contingent","relevant_dimensions":["wings","pattern"],"bee_group":{"antennae":"X","wings":"1","pattern":"S","legs":"X"},"bonus":0.9000000000000008},{"rt":1081,"stimulus":"bees-with-color/bee-A1DF.svg","response":0,"trial_type":"image-button-response","trial_index":11,"time_elapsed":160132,"internal_node_id":"0.0-4.0-0.2","subject_id":"6007421356226920359b5f3e","study_id":"6197b3f67c2b5cd3b6d9596a","session_id":"619beef1cebb72ea494c6a43","condition":"contingent","relevant_dimensions":["wings","pattern"],"bee_group":{"antennae":"X","wings":"1","pattern":"S","legs":"X"},"action":"harvest","summary":"good-harvest","bonus":0.9000000000000008},{"rt":1248,"stimulus":"\n                    <p><b>Action: <em>harvest</em></b></p>\n                    <p>This is the bee that you just saw.</p>\n                    <img src=\"bees-with-color/bee-A1DF.svg\" width=\"200\">\n                    <p><span class=\"greenText\"><b>Successful harvest!</b></span><br>Your pay has increased by $0.02. Your bonus pay is now $0.60.</p>\n            ","response":0,"trial_type":"html-button-response","trial_index":12,"time_elapsed":161382,"internal_node_id":"0.0-4.0-1.2","subject_id":"6007421356226920359b5f3e","study_id":"6197b3f67c2b5cd3b6d9596a","session_id":"619beef1cebb72ea494c6a43","condition":"contingent","relevant_dimensions":["wings","pattern"],"bee_group":{"antennae":"X","wings":"1","pattern":"S","legs":"X"},"bonus":0.9000000000000008},{"rt":721,"stimulus":"bees-with-color/bee-A2DF.svg","response":0,"trial_type":"image-button-response","trial_index":13,"time_elapsed":162104,"internal_node_id":"0.0-4.0-0.3","subject_id":"6007421356226920359b5f3e","study_id":"6197b3f67c2b5cd3b6d9596a","session_id":"619beef1cebb72ea494c6a43","condition":"contingent","relevant_dimensions":["wings","pattern"],"bee_group":{"antennae":"X","wings":"1","pattern":"S","legs":"X"},"action":"harvest","summary":"good-harvest","bonus":0.9000000000000008},{"rt":1026,"stimulus":"\n                    <p><b>Action: <em>harvest</em></b></p>\n                    <p>This is the bee that you just saw.</p>\n                    <img src=\"bees-with-color/bee-A2DF.svg\" width=\"200\">\n                    <p><span class=\"greenText\"><b>Successful harvest!</b></span><br>Your pay has increased by $0.02. Your bonus pay is now $0.62.</p>\n            ","response":0,"trial_type":"html-button-response","trial_index":14,"time_elapsed":163132,"internal_node_id":"0.0-4.0-1.3","subject_id":"6007421356226920359b5f3e","study_id":"6197b3f67c2b5cd3b6d9596a","session_id":"619beef1cebb72ea494c6a43","condition":"contingent","relevant_dimensions":["wings","pattern"],"bee_group":{"antennae":"X","wings":"1","pattern":"S","legs":"X"},"bonus":0.9000000000000008},{"rt":1021,"stimulus":"bees-with-color/bee-B2DF.svg","response":0,"trial_type":"image-button-response","trial_index":15,"time_elapsed":164154,"internal_node_id":"0.0-4.0-0.4","subject_id":"6007421356226920359b5f3e","study_id":"6197b3f67c2b5cd3b6d9596a","session_id":"619beef1cebb72ea494c6a43","condition":"contingent","relevant_dimensions":["wings","pattern"],"bee_group":{"antennae":"X","wings":"1","pattern":"S","legs":"X"},"action":"harvest","summary":"good-harvest","bonus":0.9000000000000008},{"rt":1077,"stimulus":"\n                    <p><b>Action: <em>harvest</em></b></p>\n                    <p>This is the bee that you just saw.</p>\n                    <img src=\"bees-with-color/bee-B2DF.svg\" width=\"200\">\n                    <p><span class=\"greenText\"><b>Successful harvest!</b></span><br>Your pay has increased by $0.02. Your bonus pay is now $0.64.</p>\n            ","response":0,"trial_type":"html-button-response","trial_index":16,"time_elapsed":165232,"internal_node_id":"0.0-4.0-1.4","subject_id":"6007421356226920359b5f3e","study_id":"6197b3f67c2b5cd3b6d9596a","session_id":"619beef1cebb72ea494c6a43","condition":"contingent","relevant_dimensions":["wings","pattern"],"bee_group":{"antennae":"X","wings":"1","pattern":"S","legs":"X"},"bonus":0.9000000000000008},{"rt":811,"stimulus":"bees-with-color/bee-B1SF.svg","response":0,"trial_type":"image-button-response","trial_index":17,"time_elapsed":166044,"internal_node_id":"0.0-4.0-0.5","subject_id":"6007421356226920359b5f3e","study_id":"6197b3f67c2b5cd3b6d9596a","session_id":"619beef1cebb72ea494c6a43","condition":"contingent","relevant_dimensions":["wings","pattern"],"bee_group":{"antennae":"X","wings":"1","pattern":"S","legs":"X"},"action":"harvest","summary":"bad-harvest","bonus":0.9000000000000008},{"rt":22402,"stimulus":"\n                    <p><b>Action: <em>harvest</em></b></p>\n                    <p>This is the bee that you just saw.</p>\n                    <img src=\"bees-with-color/bee-B1SF.svg\" width=\"200\">\n                    <p><span class=\"redText\">Bad choice, the bee was angry.</span><br><b>You have been stung!</b><br>Your pay has been decreased by $0.10. Your bonus pay is now $0.54.</p>\n            ","response":0,"trial_type":"html-button-response","trial_index":18,"time_elapsed":188448,"internal_node_id":"0.0-4.0-1.5","subject_id":"6007421356226920359b5f3e","study_id":"6197b3f67c2b5cd3b6d9596a","session_id":"619beef1cebb72ea494c6a43","condition":"contingent","relevant_dimensions":["wings","pattern"],"bee_group":{"antennae":"X","wings":"1","pattern":"S","legs":"X"},"bonus":0.9000000000000008},{"rt":2057,"stimulus":"bees-with-color/bee-B1SM.svg","response":1,"trial_type":"image-button-response","trial_index":19,"time_elapsed":190505,"internal_node_id":"0.0-4.0-0.6","subject_id":"6007421356226920359b5f3e","study_id":"6197b3f67c2b5cd3b6d9596a","session_id":"619beef1cebb72ea494c6a43","condition":"contingent","relevant_dimensions":["wings","pattern"],"bee_group":{"antennae":"X","wings":"1","pattern":"S","legs":"X"},"action":"avoid","summary":"good-avoid","bonus":0.9000000000000008},{"rt":1613,"stimulus":"\n                    <p><b>Action: <em>avoid</em></b></p>\n                    <p>This is the bee that you just saw.</p>\n                    <img src=\"bees-with-color/bee-B1SM.svg\" width=\"200\">\n                    <p><br>Your bonus pay is unchanged, and remains at $0.54.</p>\n            ","response":0,"trial_type":"html-button-response","trial_index":20,"time_elapsed":192119,"internal_node_id":"0.0-4.0-1.6","subject_id":"6007421356226920359b5f3e","study_id":"6197b3f67c2b5cd3b6d9596a","session_id":"619beef1cebb72ea494c6a43","condition":"contingent","relevant_dimensions":["wings","pattern"],"bee_group":{"antennae":"X","wings":"1","pattern":"S","legs":"X"},"bonus":0.9000000000000008},{"rt":1634,"stimulus":"bees-with-color/bee-B1DF.svg","response":0,"trial_type":"image-button-response","trial_index":21,"time_elapsed":193756,"internal_node_id":"0.0-4.0-0.7","subject_id":"6007421356226920359b5f3e","study_id":"6197b3f67c2b5cd3b6d9596a","session_id":"619beef1cebb72ea494c6a43","condition":"contingent","relevant_dimensions":["wings","pattern"],"bee_group":{"antennae":"X","wings":"1","pattern":"S","legs":"X"},"action":"harvest","summary":"good-harvest","bonus":0.9000000000000008},{"rt":1136,"stimulus":"\n                    <p><b>Action: <em>harvest</em></b></p>\n                    <p>This is the bee that you just saw.</p>\n                    <img src=\"bees-with-color/bee-B1DF.svg\" width=\"200\">\n                    <p><span class=\"greenText\"><b>Successful harvest!</b></span><br>Your pay has increased by $0.02. Your bonus pay is now $0.56.</p>\n            ","response":0,"trial_type":"html-button-response","trial_index":22,"time_elapsed":194894,"internal_node_id":"0.0-4.0-1.7","subject_id":"6007421356226920359b5f3e","study_id":"6197b3f67c2b5cd3b6d9596a","session_id":"619beef1cebb72ea494c6a43","condition":"contingent","relevant_dimensions":["wings","pattern"],"bee_group":{"antennae":"X","wings":"1","pattern":"S","legs":"X"},"bonus":0.9000000000000008},{"rt":2609,"stimulus":"bees-with-color/bee-A2SM.svg","response":0,"trial_type":"image-button-response","trial_index":23,"time_elapsed":197504,"internal_node_id":"0.0-4.0-0.8","subject_id":"6007421356226920359b5f3e","study_id":"6197b3f67c2b5cd3b6d9596a","session_id":"619beef1cebb72ea494c6a43","condition":"contingent","relevant_dimensions":["wings","pattern"],"bee_group":{"antennae":"X","wings":"1","pattern":"S","legs":"X"},"action":"harvest","summary":"good-harvest","bonus":0.9000000000000008},{"rt":1045,"stimulus":"\n                    <p><b>Action: <em>harvest</em></b></p>\n                    <p>This is the bee that you just saw.</p>\n                    <img src=\"bees-with-color/bee-A2SM.svg\" width=\"200\">\n                    <p><span class=\"greenText\"><b>Successful harvest!</b></span><br>Your pay has increased by $0.02. Your bonus pay is now $0.58.</p>\n            ","response":0,"trial_type":"html-button-response","trial_index":24,"time_elapsed":198552,"internal_node_id":"0.0-4.0-1.8","subject_id":"6007421356226920359b5f3e","study_id":"6197b3f67c2b5cd3b6d9596a","session_id":"619beef1cebb72ea494c6a43","condition":"contingent","relevant_dimensions":["wings","pattern"],"bee_group":{"antennae":"X","wings":"1","pattern":"S","legs":"X"},"bonus":0.9000000000000008},{"rt":856,"stimulus":"bees-with-color/bee-B1DM.svg","response":0,"trial_type":"image-button-response","trial_index":25,"time_elapsed":199409,"internal_node_id":"0.0-4.0-0.9","subject_id":"6007421356226920359b5f3e","study_id":"6197b3f67c2b5cd3b6d9596a","session_id":"619beef1cebb72ea494c6a43","condition":"contingent","relevant_dimensions":["wings","pattern"],"bee_group":{"antennae":"X","wings":"1","pattern":"S","legs":"X"},"action":"harvest","summary":"good-harvest","bonus":0.9000000000000008},{"rt":968,"stimulus":"\n                    <p><b>Action: <em>harvest</em></b></p>\n                    <p>This is the bee that you just saw.</p>\n                    <img src=\"bees-with-color/bee-B1DM.svg\" width=\"200\">\n                    <p><span class=\"greenText\"><b>Successful harvest!</b></span><br>Your pay has increased by $0.02. Your bonus pay is now $0.60.</p>\n            ","response":0,"trial_type":"html-button-response","trial_index":26,"time_elapsed":200380,"internal_node_id":"0.0-4.0-1.9","subject_id":"6007421356226920359b5f3e","study_id":"6197b3f67c2b5cd3b6d9596a","session_id":"619beef1cebb72ea494c6a43","condition":"contingent","relevant_dimensions":["wings","pattern"],"bee_group":{"antennae":"X","wings":"1","pattern":"S","legs":"X"},"bonus":0.9000000000000008},{"rt":2367,"stimulus":"bees-with-color/bee-A1SF.svg","response":1,"trial_type":"image-button-response","trial_index":27,"time_elapsed":202748,"internal_node_id":"0.0-4.0-0.10","subject_id":"6007421356226920359b5f3e","study_id":"6197b3f67c2b5cd3b6d9596a","session_id":"619beef1cebb72ea494c6a43","condition":"contingent","relevant_dimensions":["wings","pattern"],"bee_group":{"antennae":"X","wings":"1","pattern":"S","legs":"X"},"action":"avoid","summary":"good-avoid","bonus":0.9000000000000008},{"rt":828,"stimulus":"\n                    <p><b>Action: <em>avoid</em></b></p>\n                    <p>This is the bee that you just saw.</p>\n                    <img src=\"bees-with-color/bee-A1SF.svg\" width=\"200\">\n                    <p><br>Your bonus pay is unchanged, and remains at $0.60.</p>\n            ","response":0,"trial_type":"html-button-response","trial_index":28,"time_elapsed":203578,"internal_node_id":"0.0-4.0-1.10","subject_id":"6007421356226920359b5f3e","study_id":"6197b3f67c2b5cd3b6d9596a","session_id":"619beef1cebb72ea494c6a43","condition":"contingent","relevant_dimensions":["wings","pattern"],"bee_group":{"antennae":"X","wings":"1","pattern":"S","legs":"X"},"bonus":0.9000000000000008},{"rt":1285,"stimulus":"bees-with-color/bee-B2DM.svg","response":0,"trial_type":"image-button-response","trial_index":29,"time_elapsed":204864,"internal_node_id":"0.0-4.0-0.11","subject_id":"6007421356226920359b5f3e","study_id":"6197b3f67c2b5cd3b6d9596a","session_id":"619beef1cebb72ea494c6a43","condition":"contingent","relevant_dimensions":["wings","pattern"],"bee_group":{"antennae":"X","wings":"1","pattern":"S","legs":"X"},"action":"harvest","summary":"good-harvest","bonus":0.9000000000000008},{"rt":919,"stimulus":"\n                    <p><b>Action: <em>harvest</em></b></p>\n                    <p>This is the bee that you just saw.</p>\n                    <img src=\"bees-with-color/bee-B2DM.svg\" width=\"200\">\n                    <p><span class=\"greenText\"><b>Successful harvest!</b></span><br>Your pay has increased by $0.02. Your bonus pay is now $0.62.</p>\n            ","response":0,"trial_type":"html-button-response","trial_index":30,"time_elapsed":205784,"internal_node_id":"0.0-4.0-1.11","subject_id":"6007421356226920359b5f3e","study_id":"6197b3f67c2b5cd3b6d9596a","session_id":"619beef1cebb72ea494c6a43","condition":"contingent","relevant_dimensions":["wings","pattern"],"bee_group":{"antennae":"X","wings":"1","pattern":"S","legs":"X"},"bonus":0.9000000000000008},{"rt":1782,"stimulus":"bees-with-color/bee-B2SM.svg","response":0,"trial_type":"image-button-response","trial_index":31,"time_elapsed":207568,"internal_node_id":"0.0-4.0-0.12","subject_id":"6007421356226920359b5f3e","study_id":"6197b3f67c2b5cd3b6d9596a","session_id":"619beef1cebb72ea494c6a43","condition":"contingent","relevant_dimensions":["wings","pattern"],"bee_group":{"antennae":"X","wings":"1","pattern":"S","legs":"X"},"action":"harvest","summary":"good-harvest","bonus":0.9000000000000008},{"rt":816,"stimulus":"\n                    <p><b>Action: <em>harvest</em></b></p>\n                    <p>This is the bee that you just saw.</p>\n                    <img src=\"bees-with-color/bee-B2SM.svg\" width=\"200\">\n                    <p><span class=\"greenText\"><b>Successful harvest!</b></span><br>Your pay has increased by $0.02. Your bonus pay is now $0.64.</p>\n            ","response":0,"trial_type":"html-button-response","trial_index":32,"time_elapsed":208385,"internal_node_id":"0.0-4.0-1.12","subject_id":"6007421356226920359b5f3e","study_id":"6197b3f67c2b5cd3b6d9596a","session_id":"619beef1cebb72ea494c6a43","condition":"contingent","relevant_dimensions":["wings","pattern"],"bee_group":{"antennae":"X","wings":"1","pattern":"S","legs":"X"},"bonus":0.9000000000000008},{"rt":854,"stimulus":"bees-with-color/bee-A2DM.svg","response":0,"trial_type":"image-button-response","trial_index":33,"time_elapsed":209242,"internal_node_id":"0.0-4.0-0.13","subject_id":"6007421356226920359b5f3e","study_id":"6197b3f67c2b5cd3b6d9596a","session_id":"619beef1cebb72ea494c6a43","condition":"contingent","relevant_dimensions":["wings","pattern"],"bee_group":{"antennae":"X","wings":"1","pattern":"S","legs":"X"},"action":"harvest","summary":"good-harvest","bonus":0.9000000000000008},{"rt":717,"stimulus":"\n                    <p><b>Action: <em>harvest</em></b></p>\n                    <p>This is the bee that you just saw.</p>\n                    <img src=\"bees-with-color/bee-A2DM.svg\" width=\"200\">\n                    <p><span class=\"greenText\"><b>Successful harvest!</b></span><br>Your pay has increased by $0.02. Your bonus pay is now $0.66.</p>\n            ","response":0,"trial_type":"html-button-response","trial_index":34,"time_elapsed":209960,"internal_node_id":"0.0-4.0-1.13","subject_id":"6007421356226920359b5f3e","study_id":"6197b3f67c2b5cd3b6d9596a","session_id":"619beef1cebb72ea494c6a43","condition":"contingent","relevant_dimensions":["wings","pattern"],"bee_group":{"antennae":"X","wings":"1","pattern":"S","legs":"X"},"bonus":0.9000000000000008},{"rt":2183,"stimulus":"bees-with-color/bee-A1SM.svg","response":0,"trial_type":"image-button-response","trial_index":35,"time_elapsed":212146,"internal_node_id":"0.0-4.0-0.14","subject_id":"6007421356226920359b5f3e","study_id":"6197b3f67c2b5cd3b6d9596a","session_id":"619beef1cebb72ea494c6a43","condition":"contingent","relevant_dimensions":["wings","pattern"],"bee_group":{"antennae":"X","wings":"1","pattern":"S","legs":"X"},"action":"harvest","summary":"bad-harvest","bonus":0.9000000000000008},{"rt":19872,"stimulus":"\n                    <p><b>Action: <em>harvest</em></b></p>\n                    <p>This is the bee that you just saw.</p>\n                    <img src=\"bees-with-color/bee-A1SM.svg\" width=\"200\">\n                    <p><span class=\"redText\">Bad choice, the bee was angry.</span><br><b>You have been stung!</b><br>Your pay has been decreased by $0.10. Your bonus pay is now $0.56.</p>\n            ","response":0,"trial_type":"html-button-response","trial_index":36,"time_elapsed":232020,"internal_node_id":"0.0-4.0-1.14","subject_id":"6007421356226920359b5f3e","study_id":"6197b3f67c2b5cd3b6d9596a","session_id":"619beef1cebb72ea494c6a43","condition":"contingent","relevant_dimensions":["wings","pattern"],"bee_group":{"antennae":"X","wings":"1","pattern":"S","legs":"X"},"bonus":0.9000000000000008},{"rt":2277,"stimulus":"bees-with-color/bee-B2SF.svg","response":0,"trial_type":"image-button-response","trial_index":37,"time_elapsed":234300,"internal_node_id":"0.0-4.0-0.15","subject_id":"6007421356226920359b5f3e","study_id":"6197b3f67c2b5cd3b6d9596a","session_id":"619beef1cebb72ea494c6a43","condition":"contingent","relevant_dimensions":["wings","pattern"],"bee_group":{"antennae":"X","wings":"1","pattern":"S","legs":"X"},"action":"harvest","summary":"good-harvest","bonus":0.9000000000000008},{"rt":2978,"stimulus":"\n                    <p><b>Action: <em>harvest</em></b></p>\n                    <p>This is the bee that you just saw.</p>\n                    <img src=\"bees-with-color/bee-B2SF.svg\" width=\"200\">\n                    <p><span class=\"greenText\"><b>Successful harvest!</b></span><br>Your pay has increased by $0.02. Your bonus pay is now $0.58.</p>\n            ","response":0,"trial_type":"html-button-response","trial_index":38,"time_elapsed":237280,"internal_node_id":"0.0-4.0-1.15","subject_id":"6007421356226920359b5f3e","study_id":"6197b3f67c2b5cd3b6d9596a","session_id":"619beef1cebb72ea494c6a43","condition":"contingent","relevant_dimensions":["wings","pattern"],"bee_group":{"antennae":"X","wings":"1","pattern":"S","legs":"X"},"bonus":0.9000000000000008},{"rt":1964,"stimulus":"bees-with-color/bee-A2DF.svg","response":0,"trial_type":"image-button-response","trial_index":39,"time_elapsed":239244,"internal_node_id":"0.0-4.0-0.16","subject_id":"6007421356226920359b5f3e","study_id":"6197b3f67c2b5cd3b6d9596a","session_id":"619beef1cebb72ea494c6a43","condition":"contingent","relevant_dimensions":["wings","pattern"],"bee_group":{"antennae":"X","wings":"1","pattern":"S","legs":"X"},"action":"harvest","summary":"good-harvest","bonus":0.9000000000000008},{"rt":781,"stimulus":"\n                    <p><b>Action: <em>harvest</em></b></p>\n                    <p>This is the bee that you just saw.</p>\n                    <img src=\"bees-with-color/bee-A2DF.svg\" width=\"200\">\n                    <p><span class=\"greenText\"><b>Successful harvest!</b></span><br>Your pay has increased by $0.02. Your bonus pay is now $0.60.</p>\n            ","response":0,"trial_type":"html-button-response","trial_index":40,"time_elapsed":240028,"internal_node_id":"0.0-4.0-1.16","subject_id":"6007421356226920359b5f3e","study_id":"6197b3f67c2b5cd3b6d9596a","session_id":"619beef1cebb72ea494c6a43","condition":"contingent","relevant_dimensions":["wings","pattern"],"bee_group":{"antennae":"X","wings":"1","pattern":"S","legs":"X"},"bonus":0.9000000000000008},{"rt":1268,"stimulus":"bees-with-color/bee-B1DM.svg","response":0,"trial_type":"image-button-response","trial_index":41,"time_elapsed":241297,"internal_node_id":"0.0-4.0-0.17","subject_id":"6007421356226920359b5f3e","study_id":"6197b3f67c2b5cd3b6d9596a","session_id":"619beef1cebb72ea494c6a43","condition":"contingent","relevant_dimensions":["wings","pattern"],"bee_group":{"antennae":"X","wings":"1","pattern":"S","legs":"X"},"action":"harvest","summary":"good-harvest","bonus":0.9000000000000008},{"rt":825,"stimulus":"\n                    <p><b>Action: <em>harvest</em></b></p>\n                    <p>This is the bee that you just saw.</p>\n                    <img src=\"bees-with-color/bee-B1DM.svg\" width=\"200\">\n                    <p><span class=\"greenText\"><b>Successful harvest!</b></span><br>Your pay has increased by $0.02. Your bonus pay is now $0.62.</p>\n            ","response":0,"trial_type":"html-button-response","trial_index":42,"time_elapsed":242125,"internal_node_id":"0.0-4.0-1.17","subject_id":"6007421356226920359b5f3e","study_id":"6197b3f67c2b5cd3b6d9596a","session_id":"619beef1cebb72ea494c6a43","condition":"contingent","relevant_dimensions":["wings","pattern"],"bee_group":{"antennae":"X","wings":"1","pattern":"S","legs":"X"},"bonus":0.9000000000000008},{"rt":4112,"stimulus":"bees-with-color/bee-B1SF.svg","response":1,"trial_type":"image-button-response","trial_index":43,"time_elapsed":246238,"internal_node_id":"0.0-4.0-0.18","subject_id":"6007421356226920359b5f3e","study_id":"6197b3f67c2b5cd3b6d9596a","session_id":"619beef1cebb72ea494c6a43","condition":"contingent","relevant_dimensions":["wings","pattern"],"bee_group":{"antennae":"X","wings":"1","pattern":"S","legs":"X"},"action":"avoid","summary":"good-avoid","bonus":0.9000000000000008},{"rt":968,"stimulus":"\n                    <p><b>Action: <em>avoid</em></b></p>\n                    <p>This is the bee that you just saw.</p>\n                    <img src=\"bees-with-color/bee-B1SF.svg\" width=\"200\">\n                    <p><br>Your bonus pay is unchanged, and remains at $0.62.</p>\n            ","response":0,"trial_type":"html-button-response","trial_index":44,"time_elapsed":247208,"internal_node_id":"0.0-4.0-1.18","subject_id":"6007421356226920359b5f3e","study_id":"6197b3f67c2b5cd3b6d9596a","session_id":"619beef1cebb72ea494c6a43","condition":"contingent","relevant_dimensions":["wings","pattern"],"bee_group":{"antennae":"X","wings":"1","pattern":"S","legs":"X"},"bonus":0.9000000000000008},{"rt":1651,"stimulus":"bees-with-color/bee-B2DM.svg","response":0,"trial_type":"image-button-response","trial_index":45,"time_elapsed":248860,"internal_node_id":"0.0-4.0-0.19","subject_id":"6007421356226920359b5f3e","study_id":"6197b3f67c2b5cd3b6d9596a","session_id":"619beef1cebb72ea494c6a43","condition":"contingent","relevant_dimensions":["wings","pattern"],"bee_group":{"antennae":"X","wings":"1","pattern":"S","legs":"X"},"action":"harvest","summary":"good-harvest","bonus":0.9000000000000008},{"rt":942,"stimulus":"\n                    <p><b>Action: <em>harvest</em></b></p>\n                    <p>This is the bee that you just saw.</p>\n                    <img src=\"bees-with-color/bee-B2DM.svg\" width=\"200\">\n                    <p><span class=\"greenText\"><b>Successful harvest!</b></span><br>Your pay has increased by $0.02. Your bonus pay is now $0.64.</p>\n            ","response":0,"trial_type":"html-button-response","trial_index":46,"time_elapsed":249802,"internal_node_id":"0.0-4.0-1.19","subject_id":"6007421356226920359b5f3e","study_id":"6197b3f67c2b5cd3b6d9596a","session_id":"619beef1cebb72ea494c6a43","condition":"contingent","relevant_dimensions":["wings","pattern"],"bee_group":{"antennae":"X","wings":"1","pattern":"S","legs":"X"},"bonus":0.9000000000000008},{"rt":1118,"stimulus":"bees-with-color/bee-B2DF.svg","response":0,"trial_type":"image-button-response","trial_index":47,"time_elapsed":250922,"internal_node_id":"0.0-4.0-0.20","subject_id":"6007421356226920359b5f3e","study_id":"6197b3f67c2b5cd3b6d9596a","session_id":"619beef1cebb72ea494c6a43","condition":"contingent","relevant_dimensions":["wings","pattern"],"bee_group":{"antennae":"X","wings":"1","pattern":"S","legs":"X"},"action":"harvest","summary":"good-harvest","bonus":0.9000000000000008},{"rt":892,"stimulus":"\n                    <p><b>Action: <em>harvest</em></b></p>\n                    <p>This is the bee that you just saw.</p>\n                    <img src=\"bees-with-color/bee-B2DF.svg\" width=\"200\">\n                    <p><span class=\"greenText\"><b>Successful harvest!</b></span><br>Your pay has increased by $0.02. Your bonus pay is now $0.66.</p>\n            ","response":0,"trial_type":"html-button-response","trial_index":48,"time_elapsed":251816,"internal_node_id":"0.0-4.0-1.20","subject_id":"6007421356226920359b5f3e","study_id":"6197b3f67c2b5cd3b6d9596a","session_id":"619beef1cebb72ea494c6a43","condition":"contingent","relevant_dimensions":["wings","pattern"],"bee_group":{"antennae":"X","wings":"1","pattern":"S","legs":"X"},"bonus":0.9000000000000008},{"rt":1135,"stimulus":"bees-with-color/bee-A2SM.svg","response":0,"trial_type":"image-button-response","trial_index":49,"time_elapsed":252953,"internal_node_id":"0.0-4.0-0.21","subject_id":"6007421356226920359b5f3e","study_id":"6197b3f67c2b5cd3b6d9596a","session_id":"619beef1cebb72ea494c6a43","condition":"contingent","relevant_dimensions":["wings","pattern"],"bee_group":{"antennae":"X","wings":"1","pattern":"S","legs":"X"},"action":"harvest","summary":"good-harvest","bonus":0.9000000000000008},{"rt":984,"stimulus":"\n                    <p><b>Action: <em>harvest</em></b></p>\n                    <p>This is the bee that you just saw.</p>\n                    <img src=\"bees-with-color/bee-A2SM.svg\" width=\"200\">\n                    <p><span class=\"greenText\"><b>Successful harvest!</b></span><br>Your pay has increased by $0.02. Your bonus pay is now $0.68.</p>\n            ","response":0,"trial_type":"html-button-response","trial_index":50,"time_elapsed":253939,"internal_node_id":"0.0-4.0-1.21","subject_id":"6007421356226920359b5f3e","study_id":"6197b3f67c2b5cd3b6d9596a","session_id":"619beef1cebb72ea494c6a43","condition":"contingent","relevant_dimensions":["wings","pattern"],"bee_group":{"antennae":"X","wings":"1","pattern":"S","legs":"X"},"bonus":0.9000000000000008},{"rt":2793,"stimulus":"bees-with-color/bee-B1SM.svg","response":1,"trial_type":"image-button-response","trial_index":51,"time_elapsed":256734,"internal_node_id":"0.0-4.0-0.22","subject_id":"6007421356226920359b5f3e","study_id":"6197b3f67c2b5cd3b6d9596a","session_id":"619beef1cebb72ea494c6a43","condition":"contingent","relevant_dimensions":["wings","pattern"],"bee_group":{"antennae":"X","wings":"1","pattern":"S","legs":"X"},"action":"avoid","summary":"good-avoid","bonus":0.9000000000000008},{"rt":1332,"stimulus":"\n                    <p><b>Action: <em>avoid</em></b></p>\n                    <p>This is the bee that you just saw.</p>\n                    <img src=\"bees-with-color/bee-B1SM.svg\" width=\"200\">\n                    <p><br>Your bonus pay is unchanged, and remains at $0.68.</p>\n            ","response":0,"trial_type":"html-button-response","trial_index":52,"time_elapsed":258067,"internal_node_id":"0.0-4.0-1.22","subject_id":"6007421356226920359b5f3e","study_id":"6197b3f67c2b5cd3b6d9596a","session_id":"619beef1cebb72ea494c6a43","condition":"contingent","relevant_dimensions":["wings","pattern"],"bee_group":{"antennae":"X","wings":"1","pattern":"S","legs":"X"},"bonus":0.9000000000000008},{"rt":3252,"stimulus":"bees-with-color/bee-B1DF.svg","response":0,"trial_type":"image-button-response","trial_index":53,"time_elapsed":261319,"internal_node_id":"0.0-4.0-0.23","subject_id":"6007421356226920359b5f3e","study_id":"6197b3f67c2b5cd3b6d9596a","session_id":"619beef1cebb72ea494c6a43","condition":"contingent","relevant_dimensions":["wings","pattern"],"bee_group":{"antennae":"X","wings":"1","pattern":"S","legs":"X"},"action":"harvest","summary":"good-harvest","bonus":0.9000000000000008},{"rt":927,"stimulus":"\n                    <p><b>Action: <em>harvest</em></b></p>\n                    <p>This is the bee that you just saw.</p>\n                    <img src=\"bees-with-color/bee-B1DF.svg\" width=\"200\">\n                    <p><span class=\"greenText\"><b>Successful harvest!</b></span><br>Your pay has increased by $0.02. Your bonus pay is now $0.70.</p>\n            ","response":0,"trial_type":"html-button-response","trial_index":54,"time_elapsed":262248,"internal_node_id":"0.0-4.0-1.23","subject_id":"6007421356226920359b5f3e","study_id":"6197b3f67c2b5cd3b6d9596a","session_id":"619beef1cebb72ea494c6a43","condition":"contingent","relevant_dimensions":["wings","pattern"],"bee_group":{"antennae":"X","wings":"1","pattern":"S","legs":"X"},"bonus":0.9000000000000008},{"rt":2572,"stimulus":"bees-with-color/bee-A1SF.svg","response":1,"trial_type":"image-button-response","trial_index":55,"time_elapsed":264821,"internal_node_id":"0.0-4.0-0.24","subject_id":"6007421356226920359b5f3e","study_id":"6197b3f67c2b5cd3b6d9596a","session_id":"619beef1cebb72ea494c6a43","condition":"contingent","relevant_dimensions":["wings","pattern"],"bee_group":{"antennae":"X","wings":"1","pattern":"S","legs":"X"},"action":"avoid","summary":"good-avoid","bonus":0.9000000000000008},{"rt":873,"stimulus":"\n                    <p><b>Action: <em>avoid</em></b></p>\n                    <p>This is the bee that you just saw.</p>\n                    <img src=\"bees-with-color/bee-A1SF.svg\" width=\"200\">\n                    <p><br>Your bonus pay is unchanged, and remains at $0.70.</p>\n            ","response":0,"trial_type":"html-button-response","trial_index":56,"time_elapsed":265696,"internal_node_id":"0.0-4.0-1.24","subject_id":"6007421356226920359b5f3e","study_id":"6197b3f67c2b5cd3b6d9596a","session_id":"619beef1cebb72ea494c6a43","condition":"contingent","relevant_dimensions":["wings","pattern"],"bee_group":{"antennae":"X","wings":"1","pattern":"S","legs":"X"},"bonus":0.9000000000000008},{"rt":1575,"stimulus":"bees-with-color/bee-A1DF.svg","response":0,"trial_type":"image-button-response","trial_index":57,"time_elapsed":267272,"internal_node_id":"0.0-4.0-0.25","subject_id":"6007421356226920359b5f3e","study_id":"6197b3f67c2b5cd3b6d9596a","session_id":"619beef1cebb72ea494c6a43","condition":"contingent","relevant_dimensions":["wings","pattern"],"bee_group":{"antennae":"X","wings":"1","pattern":"S","legs":"X"},"action":"harvest","summary":"good-harvest","bonus":0.9000000000000008},{"rt":873,"stimulus":"\n                    <p><b>Action: <em>harvest</em></b></p>\n                    <p>This is the bee that you just saw.</p>\n                    <img src=\"bees-with-color/bee-A1DF.svg\" width=\"200\">\n                    <p><span class=\"greenText\"><b>Successful harvest!</b></span><br>Your pay has increased by $0.02. Your bonus pay is now $0.72.</p>\n            ","response":0,"trial_type":"html-button-response","trial_index":58,"time_elapsed":268145,"internal_node_id":"0.0-4.0-1.25","subject_id":"6007421356226920359b5f3e","study_id":"6197b3f67c2b5cd3b6d9596a","session_id":"619beef1cebb72ea494c6a43","condition":"contingent","relevant_dimensions":["wings","pattern"],"bee_group":{"antennae":"X","wings":"1","pattern":"S","legs":"X"},"bonus":0.9000000000000008},{"rt":1673,"stimulus":"bees-with-color/bee-A1SM.svg","response":0,"trial_type":"image-button-response","trial_index":59,"time_elapsed":269819,"internal_node_id":"0.0-4.0-0.26","subject_id":"6007421356226920359b5f3e","study_id":"6197b3f67c2b5cd3b6d9596a","session_id":"619beef1cebb72ea494c6a43","condition":"contingent","relevant_dimensions":["wings","pattern"],"bee_group":{"antennae":"X","wings":"1","pattern":"S","legs":"X"},"action":"harvest","summary":"bad-harvest","bonus":0.9000000000000008},{"rt":4040,"stimulus":"\n                    <p><b>Action: <em>harvest</em></b></p>\n                    <p>This is the bee that you just saw.</p>\n                    <img src=\"bees-with-color/bee-A1SM.svg\" width=\"200\">\n                    <p><span class=\"redText\">Bad choice, the bee was angry.</span><br><b>You have been stung!</b><br>Your pay has been decreased by $0.10. Your bonus pay is now $0.62.</p>\n            ","response":0,"trial_type":"html-button-response","trial_index":60,"time_elapsed":273862,"internal_node_id":"0.0-4.0-1.26","subject_id":"6007421356226920359b5f3e","study_id":"6197b3f67c2b5cd3b6d9596a","session_id":"619beef1cebb72ea494c6a43","condition":"contingent","relevant_dimensions":["wings","pattern"],"bee_group":{"antennae":"X","wings":"1","pattern":"S","legs":"X"},"bonus":0.9000000000000008},{"rt":6612,"stimulus":"bees-with-color/bee-A2DM.svg","response":0,"trial_type":"image-button-response","trial_index":61,"time_elapsed":280476,"internal_node_id":"0.0-4.0-0.27","subject_id":"6007421356226920359b5f3e","study_id":"6197b3f67c2b5cd3b6d9596a","session_id":"619beef1cebb72ea494c6a43","condition":"contingent","relevant_dimensions":["wings","pattern"],"bee_group":{"antennae":"X","wings":"1","pattern":"S","legs":"X"},"action":"harvest","summary":"good-harvest","bonus":0.9000000000000008},{"rt":866,"stimulus":"\n                    <p><b>Action: <em>harvest</em></b></p>\n                    <p>This is the bee that you just saw.</p>\n                    <img src=\"bees-with-color/bee-A2DM.svg\" width=\"200\">\n                    <p><span class=\"greenText\"><b>Successful harvest!</b></span><br>Your pay has increased by $0.02. Your bonus pay is now $0.64.</p>\n            ","response":0,"trial_type":"html-button-response","trial_index":62,"time_elapsed":281345,"internal_node_id":"0.0-4.0-1.27","subject_id":"6007421356226920359b5f3e","study_id":"6197b3f67c2b5cd3b6d9596a","session_id":"619beef1cebb72ea494c6a43","condition":"contingent","relevant_dimensions":["wings","pattern"],"bee_group":{"antennae":"X","wings":"1","pattern":"S","legs":"X"},"bonus":0.9000000000000008},{"rt":1286,"stimulus":"bees-with-color/bee-B2SM.svg","response":0,"trial_type":"image-button-response","trial_index":63,"time_elapsed":282635,"internal_node_id":"0.0-4.0-0.28","subject_id":"6007421356226920359b5f3e","study_id":"6197b3f67c2b5cd3b6d9596a","session_id":"619beef1cebb72ea494c6a43","condition":"contingent","relevant_dimensions":["wings","pattern"],"bee_group":{"antennae":"X","wings":"1","pattern":"S","legs":"X"},"action":"harvest","summary":"good-harvest","bonus":0.9000000000000008},{"rt":554,"stimulus":"\n                    <p><b>Action: <em>harvest</em></b></p>\n                    <p>This is the bee that you just saw.</p>\n                    <img src=\"bees-with-color/bee-B2SM.svg\" width=\"200\">\n                    <p><span class=\"greenText\"><b>Successful harvest!</b></span><br>Your pay has increased by $0.02. Your bonus pay is now $0.66.</p>\n            ","response":0,"trial_type":"html-button-response","trial_index":64,"time_elapsed":283192,"internal_node_id":"0.0-4.0-1.28","subject_id":"6007421356226920359b5f3e","study_id":"6197b3f67c2b5cd3b6d9596a","session_id":"619beef1cebb72ea494c6a43","condition":"contingent","relevant_dimensions":["wings","pattern"],"bee_group":{"antennae":"X","wings":"1","pattern":"S","legs":"X"},"bonus":0.9000000000000008},{"rt":832,"stimulus":"bees-with-color/bee-A2SF.svg","response":0,"trial_type":"image-button-response","trial_index":65,"time_elapsed":284025,"internal_node_id":"0.0-4.0-0.29","subject_id":"6007421356226920359b5f3e","study_id":"6197b3f67c2b5cd3b6d9596a","session_id":"619beef1cebb72ea494c6a43","condition":"contingent","relevant_dimensions":["wings","pattern"],"bee_group":{"antennae":"X","wings":"1","pattern":"S","legs":"X"},"action":"harvest","summary":"good-harvest","bonus":0.9000000000000008},{"rt":607,"stimulus":"\n                    <p><b>Action: <em>harvest</em></b></p>\n                    <p>This is the bee that you just saw.</p>\n                    <img src=\"bees-with-color/bee-A2SF.svg\" width=\"200\">\n                    <p><span class=\"greenText\"><b>Successful harvest!</b></span><br>Your pay has increased by $0.02. Your bonus pay is now $0.68.</p>\n            ","response":0,"trial_type":"html-button-response","trial_index":66,"time_elapsed":284633,"internal_node_id":"0.0-4.0-1.29","subject_id":"6007421356226920359b5f3e","study_id":"6197b3f67c2b5cd3b6d9596a","session_id":"619beef1cebb72ea494c6a43","condition":"contingent","relevant_dimensions":["wings","pattern"],"bee_group":{"antennae":"X","wings":"1","pattern":"S","legs":"X"},"bonus":0.9000000000000008},{"rt":3151,"stimulus":"bees-with-color/bee-A1DM.svg","response":0,"trial_type":"image-button-response","trial_index":67,"time_elapsed":287785,"internal_node_id":"0.0-4.0-0.30","subject_id":"6007421356226920359b5f3e","study_id":"6197b3f67c2b5cd3b6d9596a","session_id":"619beef1cebb72ea494c6a43","condition":"contingent","relevant_dimensions":["wings","pattern"],"bee_group":{"antennae":"X","wings":"1","pattern":"S","legs":"X"},"action":"harvest","summary":"good-harvest","bonus":0.9000000000000008},{"rt":936,"stimulus":"\n                    <p><b>Action: <em>harvest</em></b></p>\n                    <p>This is the bee that you just saw.</p>\n                    <img src=\"bees-with-color/bee-A1DM.svg\" width=\"200\">\n                    <p><span class=\"greenText\"><b>Successful harvest!</b></span><br>Your pay has increased by $0.02. Your bonus pay is now $0.70.</p>\n            ","response":0,"trial_type":"html-button-response","trial_index":68,"time_elapsed":288724,"internal_node_id":"0.0-4.0-1.30","subject_id":"6007421356226920359b5f3e","study_id":"6197b3f67c2b5cd3b6d9596a","session_id":"619beef1cebb72ea494c6a43","condition":"contingent","relevant_dimensions":["wings","pattern"],"bee_group":{"antennae":"X","wings":"1","pattern":"S","legs":"X"},"bonus":0.9000000000000008},{"rt":1163,"stimulus":"bees-with-color/bee-B2SF.svg","response":0,"trial_type":"image-button-response","trial_index":69,"time_elapsed":289889,"internal_node_id":"0.0-4.0-0.31","subject_id":"6007421356226920359b5f3e","study_id":"6197b3f67c2b5cd3b6d9596a","session_id":"619beef1cebb72ea494c6a43","condition":"contingent","relevant_dimensions":["wings","pattern"],"bee_group":{"antennae":"X","wings":"1","pattern":"S","legs":"X"},"action":"harvest","summary":"good-harvest","bonus":0.9000000000000008},{"rt":760,"stimulus":"\n                    <p><b>Action: <em>harvest</em></b></p>\n                    <p>This is the bee that you just saw.</p>\n                    <img src=\"bees-with-color/bee-B2SF.svg\" width=\"200\">\n                    <p><span class=\"greenText\"><b>Successful harvest!</b></span><br>Your pay has increased by $0.02. Your bonus pay is now $0.72.</p>\n            ","response":0,"trial_type":"html-button-response","trial_index":70,"time_elapsed":290652,"internal_node_id":"0.0-4.0-1.31","subject_id":"6007421356226920359b5f3e","study_id":"6197b3f67c2b5cd3b6d9596a","session_id":"619beef1cebb72ea494c6a43","condition":"contingent","relevant_dimensions":["wings","pattern"],"bee_group":{"antennae":"X","wings":"1","pattern":"S","legs":"X"},"bonus":0.9000000000000008},{"rt":1991,"stimulus":"bees-with-color/bee-A1DF.svg","response":0,"trial_type":"image-button-response","trial_index":71,"time_elapsed":292644,"internal_node_id":"0.0-4.0-0.32","subject_id":"6007421356226920359b5f3e","study_id":"6197b3f67c2b5cd3b6d9596a","session_id":"619beef1cebb72ea494c6a43","condition":"contingent","relevant_dimensions":["wings","pattern"],"bee_group":{"antennae":"X","wings":"1","pattern":"S","legs":"X"},"action":"harvest","summary":"good-harvest","bonus":0.9000000000000008},{"rt":937,"stimulus":"\n                    <p><b>Action: <em>harvest</em></b></p>\n                    <p>This is the bee that you just saw.</p>\n                    <img src=\"bees-with-color/bee-A1DF.svg\" width=\"200\">\n                    <p><span class=\"greenText\"><b>Successful harvest!</b></span><br>Your pay has increased by $0.02. Your bonus pay is now $0.74.</p>\n            ","response":0,"trial_type":"html-button-response","trial_index":72,"time_elapsed":293582,"internal_node_id":"0.0-4.0-1.32","subject_id":"6007421356226920359b5f3e","study_id":"6197b3f67c2b5cd3b6d9596a","session_id":"619beef1cebb72ea494c6a43","condition":"contingent","relevant_dimensions":["wings","pattern"],"bee_group":{"antennae":"X","wings":"1","pattern":"S","legs":"X"},"bonus":0.9000000000000008},{"rt":2691,"stimulus":"bees-with-color/bee-A2SM.svg","response":0,"trial_type":"image-button-response","trial_index":73,"time_elapsed":296273,"internal_node_id":"0.0-4.0-0.33","subject_id":"6007421356226920359b5f3e","study_id":"6197b3f67c2b5cd3b6d9596a","session_id":"619beef1cebb72ea494c6a43","condition":"contingent","relevant_dimensions":["wings","pattern"],"bee_group":{"antennae":"X","wings":"1","pattern":"S","legs":"X"},"action":"harvest","summary":"good-harvest","bonus":0.9000000000000008},{"rt":841,"stimulus":"\n                    <p><b>Action: <em>harvest</em></b></p>\n                    <p>This is the bee that you just saw.</p>\n                    <img src=\"bees-with-color/bee-A2SM.svg\" width=\"200\">\n                    <p><span class=\"greenText\"><b>Successful harvest!</b></span><br>Your pay has increased by $0.02. Your bonus pay is now $0.76.</p>\n            ","response":0,"trial_type":"html-button-response","trial_index":74,"time_elapsed":297115,"internal_node_id":"0.0-4.0-1.33","subject_id":"6007421356226920359b5f3e","study_id":"6197b3f67c2b5cd3b6d9596a","session_id":"619beef1cebb72ea494c6a43","condition":"contingent","relevant_dimensions":["wings","pattern"],"bee_group":{"antennae":"X","wings":"1","pattern":"S","legs":"X"},"bonus":0.9000000000000008},{"rt":2091,"stimulus":"bees-with-color/bee-A1DM.svg","response":0,"trial_type":"image-button-response","trial_index":75,"time_elapsed":299208,"internal_node_id":"0.0-4.0-0.34","subject_id":"6007421356226920359b5f3e","study_id":"6197b3f67c2b5cd3b6d9596a","session_id":"619beef1cebb72ea494c6a43","condition":"contingent","relevant_dimensions":["wings","pattern"],"bee_group":{"antennae":"X","wings":"1","pattern":"S","legs":"X"},"action":"harvest","summary":"good-harvest","bonus":0.9000000000000008},{"rt":734,"stimulus":"\n                    <p><b>Action: <em>harvest</em></b></p>\n                    <p>This is the bee that you just saw.</p>\n                    <img src=\"bees-with-color/bee-A1DM.svg\" width=\"200\">\n                    <p><span class=\"greenText\"><b>Successful harvest!</b></span><br>Your pay has increased by $0.02. Your bonus pay is now $0.78.</p>\n            ","response":0,"trial_type":"html-button-response","trial_index":76,"time_elapsed":299943,"internal_node_id":"0.0-4.0-1.34","subject_id":"6007421356226920359b5f3e","study_id":"6197b3f67c2b5cd3b6d9596a","session_id":"619beef1cebb72ea494c6a43","condition":"contingent","relevant_dimensions":["wings","pattern"],"bee_group":{"antennae":"X","wings":"1","pattern":"S","legs":"X"},"bonus":0.9000000000000008},{"rt":2285,"stimulus":"bees-with-color/bee-A1SM.svg","response":1,"trial_type":"image-button-response","trial_index":77,"time_elapsed":302229,"internal_node_id":"0.0-4.0-0.35","subject_id":"6007421356226920359b5f3e","study_id":"6197b3f67c2b5cd3b6d9596a","session_id":"619beef1cebb72ea494c6a43","condition":"contingent","relevant_dimensions":["wings","pattern"],"bee_group":{"antennae":"X","wings":"1","pattern":"S","legs":"X"},"action":"avoid","summary":"good-avoid","bonus":0.9000000000000008},{"rt":759,"stimulus":"\n                    <p><b>Action: <em>avoid</em></b></p>\n                    <p>This is the bee that you just saw.</p>\n                    <img src=\"bees-with-color/bee-A1SM.svg\" width=\"200\">\n                    <p><br>Your bonus pay is unchanged, and remains at $0.78.</p>\n            ","response":0,"trial_type":"html-button-response","trial_index":78,"time_elapsed":302990,"internal_node_id":"0.0-4.0-1.35","subject_id":"6007421356226920359b5f3e","study_id":"6197b3f67c2b5cd3b6d9596a","session_id":"619beef1cebb72ea494c6a43","condition":"contingent","relevant_dimensions":["wings","pattern"],"bee_group":{"antennae":"X","wings":"1","pattern":"S","legs":"X"},"bonus":0.9000000000000008},{"rt":1503,"stimulus":"bees-with-color/bee-B2DF.svg","response":0,"trial_type":"image-button-response","trial_index":79,"time_elapsed":304494,"internal_node_id":"0.0-4.0-0.36","subject_id":"6007421356226920359b5f3e","study_id":"6197b3f67c2b5cd3b6d9596a","session_id":"619beef1cebb72ea494c6a43","condition":"contingent","relevant_dimensions":["wings","pattern"],"bee_group":{"antennae":"X","wings":"1","pattern":"S","legs":"X"},"action":"harvest","summary":"good-harvest","bonus":0.9000000000000008},{"rt":866,"stimulus":"\n                    <p><b>Action: <em>harvest</em></b></p>\n                    <p>This is the bee that you just saw.</p>\n                    <img src=\"bees-with-color/bee-B2DF.svg\" width=\"200\">\n                    <p><span class=\"greenText\"><b>Successful harvest!</b></span><br>Your pay has increased by $0.02. Your bonus pay is now $0.80.</p>\n            ","response":0,"trial_type":"html-button-response","trial_index":80,"time_elapsed":305361,"internal_node_id":"0.0-4.0-1.36","subject_id":"6007421356226920359b5f3e","study_id":"6197b3f67c2b5cd3b6d9596a","session_id":"619beef1cebb72ea494c6a43","condition":"contingent","relevant_dimensions":["wings","pattern"],"bee_group":{"antennae":"X","wings":"1","pattern":"S","legs":"X"},"bonus":0.9000000000000008},{"rt":5005,"stimulus":"bees-with-color/bee-B1DF.svg","response":0,"trial_type":"image-button-response","trial_index":81,"time_elapsed":310368,"internal_node_id":"0.0-4.0-0.37","subject_id":"6007421356226920359b5f3e","study_id":"6197b3f67c2b5cd3b6d9596a","session_id":"619beef1cebb72ea494c6a43","condition":"contingent","relevant_dimensions":["wings","pattern"],"bee_group":{"antennae":"X","wings":"1","pattern":"S","legs":"X"},"action":"harvest","summary":"good-harvest","bonus":0.9000000000000008},{"rt":786,"stimulus":"\n                    <p><b>Action: <em>harvest</em></b></p>\n                    <p>This is the bee that you just saw.</p>\n                    <img src=\"bees-with-color/bee-B1DF.svg\" width=\"200\">\n                    <p><span class=\"greenText\"><b>Successful harvest!</b></span><br>Your pay has increased by $0.02. Your bonus pay is now $0.82.</p>\n            ","response":0,"trial_type":"html-button-response","trial_index":82,"time_elapsed":311155,"internal_node_id":"0.0-4.0-1.37","subject_id":"6007421356226920359b5f3e","study_id":"6197b3f67c2b5cd3b6d9596a","session_id":"619beef1cebb72ea494c6a43","condition":"contingent","relevant_dimensions":["wings","pattern"],"bee_group":{"antennae":"X","wings":"1","pattern":"S","legs":"X"},"bonus":0.9000000000000008},{"rt":1319,"stimulus":"bees-with-color/bee-B2DM.svg","response":0,"trial_type":"image-button-response","trial_index":83,"time_elapsed":312475,"internal_node_id":"0.0-4.0-0.38","subject_id":"6007421356226920359b5f3e","study_id":"6197b3f67c2b5cd3b6d9596a","session_id":"619beef1cebb72ea494c6a43","condition":"contingent","relevant_dimensions":["wings","pattern"],"bee_group":{"antennae":"X","wings":"1","pattern":"S","legs":"X"},"action":"harvest","summary":"good-harvest","bonus":0.9000000000000008},{"rt":755,"stimulus":"\n                    <p><b>Action: <em>harvest</em></b></p>\n                    <p>This is the bee that you just saw.</p>\n                    <img src=\"bees-with-color/bee-B2DM.svg\" width=\"200\">\n                    <p><span class=\"greenText\"><b>Successful harvest!</b></span><br>Your pay has increased by $0.02. Your bonus pay is now $0.84.</p>\n            ","response":0,"trial_type":"html-button-response","trial_index":84,"time_elapsed":313232,"internal_node_id":"0.0-4.0-1.38","subject_id":"6007421356226920359b5f3e","study_id":"6197b3f67c2b5cd3b6d9596a","session_id":"619beef1cebb72ea494c6a43","condition":"contingent","relevant_dimensions":["wings","pattern"],"bee_group":{"antennae":"X","wings":"1","pattern":"S","legs":"X"},"bonus":0.9000000000000008},{"rt":2000,"stimulus":"bees-with-color/bee-B1SM.svg","response":1,"trial_type":"image-button-response","trial_index":85,"time_elapsed":315233,"internal_node_id":"0.0-4.0-0.39","subject_id":"6007421356226920359b5f3e","study_id":"6197b3f67c2b5cd3b6d9596a","session_id":"619beef1cebb72ea494c6a43","condition":"contingent","relevant_dimensions":["wings","pattern"],"bee_group":{"antennae":"X","wings":"1","pattern":"S","legs":"X"},"action":"avoid","summary":"good-avoid","bonus":0.9000000000000008},{"rt":644,"stimulus":"\n                    <p><b>Action: <em>avoid</em></b></p>\n                    <p>This is the bee that you just saw.</p>\n                    <img src=\"bees-with-color/bee-B1SM.svg\" width=\"200\">\n                    <p><br>Your bonus pay is unchanged, and remains at $0.84.</p>\n            ","response":0,"trial_type":"html-button-response","trial_index":86,"time_elapsed":315880,"internal_node_id":"0.0-4.0-1.39","subject_id":"6007421356226920359b5f3e","study_id":"6197b3f67c2b5cd3b6d9596a","session_id":"619beef1cebb72ea494c6a43","condition":"contingent","relevant_dimensions":["wings","pattern"],"bee_group":{"antennae":"X","wings":"1","pattern":"S","legs":"X"},"bonus":0.9000000000000008},{"rt":824,"stimulus":"bees-with-color/bee-B2SM.svg","response":0,"trial_type":"image-button-response","trial_index":87,"time_elapsed":316705,"internal_node_id":"0.0-4.0-0.40","subject_id":"6007421356226920359b5f3e","study_id":"6197b3f67c2b5cd3b6d9596a","session_id":"619beef1cebb72ea494c6a43","condition":"contingent","relevant_dimensions":["wings","pattern"],"bee_group":{"antennae":"X","wings":"1","pattern":"S","legs":"X"},"action":"harvest","summary":"good-harvest","bonus":0.9000000000000008},{"rt":655,"stimulus":"\n                    <p><b>Action: <em>harvest</em></b></p>\n                    <p>This is the bee that you just saw.</p>\n                    <img src=\"bees-with-color/bee-B2SM.svg\" width=\"200\">\n                    <p><span class=\"greenText\"><b>Successful harvest!</b></span><br>Your pay has increased by $0.02. Your bonus pay is now $0.86.</p>\n            ","response":0,"trial_type":"html-button-response","trial_index":88,"time_elapsed":317364,"internal_node_id":"0.0-4.0-1.40","subject_id":"6007421356226920359b5f3e","study_id":"6197b3f67c2b5cd3b6d9596a","session_id":"619beef1cebb72ea494c6a43","condition":"contingent","relevant_dimensions":["wings","pattern"],"bee_group":{"antennae":"X","wings":"1","pattern":"S","legs":"X"},"bonus":0.9000000000000008},{"rt":2703,"stimulus":"bees-with-color/bee-B1DM.svg","response":0,"trial_type":"image-button-response","trial_index":89,"time_elapsed":320067,"internal_node_id":"0.0-4.0-0.41","subject_id":"6007421356226920359b5f3e","study_id":"6197b3f67c2b5cd3b6d9596a","session_id":"619beef1cebb72ea494c6a43","condition":"contingent","relevant_dimensions":["wings","pattern"],"bee_group":{"antennae":"X","wings":"1","pattern":"S","legs":"X"},"action":"harvest","summary":"good-harvest","bonus":0.9000000000000008},{"rt":898,"stimulus":"\n                    <p><b>Action: <em>harvest</em></b></p>\n                    <p>This is the bee that you just saw.</p>\n                    <img src=\"bees-with-color/bee-B1DM.svg\" width=\"200\">\n                    <p><span class=\"greenText\"><b>Successful harvest!</b></span><br>Your pay has increased by $0.02. Your bonus pay is now $0.88.</p>\n            ","response":0,"trial_type":"html-button-response","trial_index":90,"time_elapsed":320967,"internal_node_id":"0.0-4.0-1.41","subject_id":"6007421356226920359b5f3e","study_id":"6197b3f67c2b5cd3b6d9596a","session_id":"619beef1cebb72ea494c6a43","condition":"contingent","relevant_dimensions":["wings","pattern"],"bee_group":{"antennae":"X","wings":"1","pattern":"S","legs":"X"},"bonus":0.9000000000000008},{"rt":2357,"stimulus":"bees-with-color/bee-A2DF.svg","response":0,"trial_type":"image-button-response","trial_index":91,"time_elapsed":323325,"internal_node_id":"0.0-4.0-0.42","subject_id":"6007421356226920359b5f3e","study_id":"6197b3f67c2b5cd3b6d9596a","session_id":"619beef1cebb72ea494c6a43","condition":"contingent","relevant_dimensions":["wings","pattern"],"bee_group":{"antennae":"X","wings":"1","pattern":"S","legs":"X"},"action":"harvest","summary":"good-harvest","bonus":0.9000000000000008},{"rt":686,"stimulus":"\n                    <p><b>Action: <em>harvest</em></b></p>\n                    <p>This is the bee that you just saw.</p>\n                    <img src=\"bees-with-color/bee-A2DF.svg\" width=\"200\">\n                    <p><span class=\"greenText\"><b>Successful harvest!</b></span><br>Your pay has increased by $0.02. Your bonus pay is now $0.90.</p>\n            ","response":0,"trial_type":"html-button-response","trial_index":92,"time_elapsed":324013,"internal_node_id":"0.0-4.0-1.42","subject_id":"6007421356226920359b5f3e","study_id":"6197b3f67c2b5cd3b6d9596a","session_id":"619beef1cebb72ea494c6a43","condition":"contingent","relevant_dimensions":["wings","pattern"],"bee_group":{"antennae":"X","wings":"1","pattern":"S","legs":"X"},"bonus":0.9000000000000008},{"rt":1117,"stimulus":"bees-with-color/bee-A2SF.svg","response":0,"trial_type":"image-button-response","trial_index":93,"time_elapsed":325131,"internal_node_id":"0.0-4.0-0.43","subject_id":"6007421356226920359b5f3e","study_id":"6197b3f67c2b5cd3b6d9596a","session_id":"619beef1cebb72ea494c6a43","condition":"contingent","relevant_dimensions":["wings","pattern"],"bee_group":{"antennae":"X","wings":"1","pattern":"S","legs":"X"},"action":"harvest","summary":"good-harvest","bonus":0.9000000000000008},{"rt":631,"stimulus":"\n                    <p><b>Action: <em>harvest</em></b></p>\n                    <p>This is the bee that you just saw.</p>\n                    <img src=\"bees-with-color/bee-A2SF.svg\" width=\"200\">\n                    <p><span class=\"greenText\"><b>Successful harvest!</b></span><br>Your pay has increased by $0.02. Your bonus pay is now $0.92.</p>\n            ","response":0,"trial_type":"html-button-response","trial_index":94,"time_elapsed":325763,"internal_node_id":"0.0-4.0-1.43","subject_id":"6007421356226920359b5f3e","study_id":"6197b3f67c2b5cd3b6d9596a","session_id":"619beef1cebb72ea494c6a43","condition":"contingent","relevant_dimensions":["wings","pattern"],"bee_group":{"antennae":"X","wings":"1","pattern":"S","legs":"X"},"bonus":0.9000000000000008},{"rt":3781,"stimulus":"bees-with-color/bee-A1SF.svg","response":1,"trial_type":"image-button-response","trial_index":95,"time_elapsed":329545,"internal_node_id":"0.0-4.0-0.44","subject_id":"6007421356226920359b5f3e","study_id":"6197b3f67c2b5cd3b6d9596a","session_id":"619beef1cebb72ea494c6a43","condition":"contingent","relevant_dimensions":["wings","pattern"],"bee_group":{"antennae":"X","wings":"1","pattern":"S","legs":"X"},"action":"avoid","summary":"good-avoid","bonus":0.9000000000000008},{"rt":672,"stimulus":"\n                    <p><b>Action: <em>avoid</em></b></p>\n                    <p>This is the bee that you just saw.</p>\n                    <img src=\"bees-with-color/bee-A1SF.svg\" width=\"200\">\n                    <p><br>Your bonus pay is unchanged, and remains at $0.92.</p>\n            ","response":0,"trial_type":"html-button-response","trial_index":96,"time_elapsed":330220,"internal_node_id":"0.0-4.0-1.44","subject_id":"6007421356226920359b5f3e","study_id":"6197b3f67c2b5cd3b6d9596a","session_id":"619beef1cebb72ea494c6a43","condition":"contingent","relevant_dimensions":["wings","pattern"],"bee_group":{"antennae":"X","wings":"1","pattern":"S","legs":"X"},"bonus":0.9000000000000008},{"rt":2509,"stimulus":"bees-with-color/bee-B1SF.svg","response":1,"trial_type":"image-button-response","trial_index":97,"time_elapsed":332730,"internal_node_id":"0.0-4.0-0.45","subject_id":"6007421356226920359b5f3e","study_id":"6197b3f67c2b5cd3b6d9596a","session_id":"619beef1cebb72ea494c6a43","condition":"contingent","relevant_dimensions":["wings","pattern"],"bee_group":{"antennae":"X","wings":"1","pattern":"S","legs":"X"},"action":"avoid","summary":"good-avoid","bonus":0.9000000000000008},{"rt":566,"stimulus":"\n                    <p><b>Action: <em>avoid</em></b></p>\n                    <p>This is the bee that you just saw.</p>\n                    <img src=\"bees-with-color/bee-B1SF.svg\" width=\"200\">\n                    <p><br>Your bonus pay is unchanged, and remains at $0.92.</p>\n            ","response":0,"trial_type":"html-button-response","trial_index":98,"time_elapsed":333297,"internal_node_id":"0.0-4.0-1.45","subject_id":"6007421356226920359b5f3e","study_id":"6197b3f67c2b5cd3b6d9596a","session_id":"619beef1cebb72ea494c6a43","condition":"contingent","relevant_dimensions":["wings","pattern"],"bee_group":{"antennae":"X","wings":"1","pattern":"S","legs":"X"},"bonus":0.9000000000000008},{"rt":825,"stimulus":"bees-with-color/bee-B2SF.svg","response":0,"trial_type":"image-button-response","trial_index":99,"time_elapsed":334124,"internal_node_id":"0.0-4.0-0.46","subject_id":"6007421356226920359b5f3e","study_id":"6197b3f67c2b5cd3b6d9596a","session_id":"619beef1cebb72ea494c6a43","condition":"contingent","relevant_dimensions":["wings","pattern"],"bee_group":{"antennae":"X","wings":"1","pattern":"S","legs":"X"},"action":"harvest","summary":"good-harvest","bonus":0.9000000000000008},{"rt":665,"stimulus":"\n                    <p><b>Action: <em>harvest</em></b></p>\n                    <p>This is the bee that you just saw.</p>\n                    <img src=\"bees-with-color/bee-B2SF.svg\" width=\"200\">\n                    <p><span class=\"greenText\"><b>Successful harvest!</b></span><br>Your pay has increased by $0.02. Your bonus pay is now $0.94.</p>\n            ","response":0,"trial_type":"html-button-response","trial_index":100,"time_elapsed":334790,"internal_node_id":"0.0-4.0-1.46","subject_id":"6007421356226920359b5f3e","study_id":"6197b3f67c2b5cd3b6d9596a","session_id":"619beef1cebb72ea494c6a43","condition":"contingent","relevant_dimensions":["wings","pattern"],"bee_group":{"antennae":"X","wings":"1","pattern":"S","legs":"X"},"bonus":0.9000000000000008},{"rt":956,"stimulus":"bees-with-color/bee-A2DM.svg","response":0,"trial_type":"image-button-response","trial_index":101,"time_elapsed":335747,"internal_node_id":"0.0-4.0-0.47","subject_id":"6007421356226920359b5f3e","study_id":"6197b3f67c2b5cd3b6d9596a","session_id":"619beef1cebb72ea494c6a43","condition":"contingent","relevant_dimensions":["wings","pattern"],"bee_group":{"antennae":"X","wings":"1","pattern":"S","legs":"X"},"action":"harvest","summary":"good-harvest","bonus":0.9000000000000008},{"rt":541,"stimulus":"\n                    <p><b>Action: <em>harvest</em></b></p>\n                    <p>This is the bee that you just saw.</p>\n                    <img src=\"bees-with-color/bee-A2DM.svg\" width=\"200\">\n                    <p><span class=\"greenText\"><b>Successful harvest!</b></span><br>Your pay has increased by $0.02. Your bonus pay is now $0.96.</p>\n            ","response":0,"trial_type":"html-button-response","trial_index":102,"time_elapsed":336289,"internal_node_id":"0.0-4.0-1.47","subject_id":"6007421356226920359b5f3e","study_id":"6197b3f67c2b5cd3b6d9596a","session_id":"619beef1cebb72ea494c6a43","condition":"contingent","relevant_dimensions":["wings","pattern"],"bee_group":{"antennae":"X","wings":"1","pattern":"S","legs":"X"},"bonus":0.9000000000000008},{"rt":2391,"stimulus":"bees-with-color/bee-A2DF.svg","response":0,"trial_type":"image-button-response","trial_index":103,"time_elapsed":338682,"internal_node_id":"0.0-4.0-0.48","subject_id":"6007421356226920359b5f3e","study_id":"6197b3f67c2b5cd3b6d9596a","session_id":"619beef1cebb72ea494c6a43","condition":"contingent","relevant_dimensions":["wings","pattern"],"bee_group":{"antennae":"X","wings":"1","pattern":"S","legs":"X"},"action":"harvest","summary":"good-harvest","bonus":0.9000000000000008},{"rt":795,"stimulus":"\n                    <p><b>Action: <em>harvest</em></b></p>\n                    <p>This is the bee that you just saw.</p>\n                    <img src=\"bees-with-color/bee-A2DF.svg\" width=\"200\">\n                    <p><span class=\"greenText\"><b>Successful harvest!</b></span><br>Your pay has increased by $0.02. Your bonus pay is now $0.98.</p>\n            ","response":0,"trial_type":"html-button-response","trial_index":104,"time_elapsed":339479,"internal_node_id":"0.0-4.0-1.48","subject_id":"6007421356226920359b5f3e","study_id":"6197b3f67c2b5cd3b6d9596a","session_id":"619beef1cebb72ea494c6a43","condition":"contingent","relevant_dimensions":["wings","pattern"],"bee_group":{"antennae":"X","wings":"1","pattern":"S","legs":"X"},"bonus":0.9000000000000008},{"rt":2915,"stimulus":"bees-with-color/bee-B1SM.svg","response":1,"trial_type":"image-button-response","trial_index":105,"time_elapsed":342398,"internal_node_id":"0.0-4.0-0.49","subject_id":"6007421356226920359b5f3e","study_id":"6197b3f67c2b5cd3b6d9596a","session_id":"619beef1cebb72ea494c6a43","condition":"contingent","relevant_dimensions":["wings","pattern"],"bee_group":{"antennae":"X","wings":"1","pattern":"S","legs":"X"},"action":"avoid","summary":"good-avoid","bonus":0.9000000000000008},{"rt":650,"stimulus":"\n                    <p><b>Action: <em>avoid</em></b></p>\n                    <p>This is the bee that you just saw.</p>\n                    <img src=\"bees-with-color/bee-B1SM.svg\" width=\"200\">\n                    <p><br>Your bonus pay is unchanged, and remains at $0.98.</p>\n            ","response":0,"trial_type":"html-button-response","trial_index":106,"time_elapsed":343051,"internal_node_id":"0.0-4.0-1.49","subject_id":"6007421356226920359b5f3e","study_id":"6197b3f67c2b5cd3b6d9596a","session_id":"619beef1cebb72ea494c6a43","condition":"contingent","relevant_dimensions":["wings","pattern"],"bee_group":{"antennae":"X","wings":"1","pattern":"S","legs":"X"},"bonus":0.9000000000000008},{"rt":963,"stimulus":"bees-with-color/bee-B2DM.svg","response":0,"trial_type":"image-button-response","trial_index":107,"time_elapsed":344017,"internal_node_id":"0.0-4.0-0.50","subject_id":"6007421356226920359b5f3e","study_id":"6197b3f67c2b5cd3b6d9596a","session_id":"619beef1cebb72ea494c6a43","condition":"contingent","relevant_dimensions":["wings","pattern"],"bee_group":{"antennae":"X","wings":"1","pattern":"S","legs":"X"},"action":"harvest","summary":"good-harvest","bonus":0.9000000000000008},{"rt":777,"stimulus":"\n                    <p><b>Action: <em>harvest</em></b></p>\n                    <p>This is the bee that you just saw.</p>\n                    <img src=\"bees-with-color/bee-B2DM.svg\" width=\"200\">\n                    <p><span class=\"greenText\"><b>Successful harvest!</b></span><br>Your pay has increased by $0.02. Your bonus pay is now $1.00.</p>\n            ","response":0,"trial_type":"html-button-response","trial_index":108,"time_elapsed":344796,"internal_node_id":"0.0-4.0-1.50","subject_id":"6007421356226920359b5f3e","study_id":"6197b3f67c2b5cd3b6d9596a","session_id":"619beef1cebb72ea494c6a43","condition":"contingent","relevant_dimensions":["wings","pattern"],"bee_group":{"antennae":"X","wings":"1","pattern":"S","legs":"X"},"bonus":0.9000000000000008},{"rt":836,"stimulus":"bees-with-color/bee-A1SF.svg","response":0,"trial_type":"image-button-response","trial_index":109,"time_elapsed":345633,"internal_node_id":"0.0-4.0-0.51","subject_id":"6007421356226920359b5f3e","study_id":"6197b3f67c2b5cd3b6d9596a","session_id":"619beef1cebb72ea494c6a43","condition":"contingent","relevant_dimensions":["wings","pattern"],"bee_group":{"antennae":"X","wings":"1","pattern":"S","legs":"X"},"action":"harvest","summary":"bad-harvest","bonus":0.9000000000000008},{"rt":1234,"stimulus":"\n                    <p><b>Action: <em>harvest</em></b></p>\n                    <p>This is the bee that you just saw.</p>\n                    <img src=\"bees-with-color/bee-A1SF.svg\" width=\"200\">\n                    <p><span class=\"redText\">Bad choice, the bee was angry.</span><br><b>You have been stung!</b><br>Your pay has been decreased by $0.10. Your bonus pay is now $0.90.</p>\n            ","response":0,"trial_type":"html-button-response","trial_index":110,"time_elapsed":346870,"internal_node_id":"0.0-4.0-1.51","subject_id":"6007421356226920359b5f3e","study_id":"6197b3f67c2b5cd3b6d9596a","session_id":"619beef1cebb72ea494c6a43","condition":"contingent","relevant_dimensions":["wings","pattern"],"bee_group":{"antennae":"X","wings":"1","pattern":"S","legs":"X"},"bonus":0.9000000000000008},{"rt":923,"stimulus":"bees-with-color/bee-A2DM.svg","response":0,"trial_type":"image-button-response","trial_index":111,"time_elapsed":347795,"internal_node_id":"0.0-4.0-0.52","subject_id":"6007421356226920359b5f3e","study_id":"6197b3f67c2b5cd3b6d9596a","session_id":"619beef1cebb72ea494c6a43","condition":"contingent","relevant_dimensions":["wings","pattern"],"bee_group":{"antennae":"X","wings":"1","pattern":"S","legs":"X"},"action":"harvest","summary":"good-harvest","bonus":0.9000000000000008},{"rt":637,"stimulus":"\n                    <p><b>Action: <em>harvest</em></b></p>\n                    <p>This is the bee that you just saw.</p>\n                    <img src=\"bees-with-color/bee-A2DM.svg\" width=\"200\">\n                    <p><span class=\"greenText\"><b>Successful harvest!</b></span><br>Your pay has increased by $0.02. Your bonus pay is now $0.92.</p>\n            ","response":0,"trial_type":"html-button-response","trial_index":112,"time_elapsed":348433,"internal_node_id":"0.0-4.0-1.52","subject_id":"6007421356226920359b5f3e","study_id":"6197b3f67c2b5cd3b6d9596a","session_id":"619beef1cebb72ea494c6a43","condition":"contingent","relevant_dimensions":["wings","pattern"],"bee_group":{"antennae":"X","wings":"1","pattern":"S","legs":"X"},"bonus":0.9000000000000008},{"rt":1083,"stimulus":"bees-with-color/bee-A2SM.svg","response":0,"trial_type":"image-button-response","trial_index":113,"time_elapsed":349517,"internal_node_id":"0.0-4.0-0.53","subject_id":"6007421356226920359b5f3e","study_id":"6197b3f67c2b5cd3b6d9596a","session_id":"619beef1cebb72ea494c6a43","condition":"contingent","relevant_dimensions":["wings","pattern"],"bee_group":{"antennae":"X","wings":"1","pattern":"S","legs":"X"},"action":"harvest","summary":"good-harvest","bonus":0.9000000000000008},{"rt":711,"stimulus":"\n                    <p><b>Action: <em>harvest</em></b></p>\n                    <p>This is the bee that you just saw.</p>\n                    <img src=\"bees-with-color/bee-A2SM.svg\" width=\"200\">\n                    <p><span class=\"greenText\"><b>Successful harvest!</b></span><br>Your pay has increased by $0.02. Your bonus pay is now $0.94.</p>\n            ","response":0,"trial_type":"html-button-response","trial_index":114,"time_elapsed":350231,"internal_node_id":"0.0-4.0-1.53","subject_id":"6007421356226920359b5f3e","study_id":"6197b3f67c2b5cd3b6d9596a","session_id":"619beef1cebb72ea494c6a43","condition":"contingent","relevant_dimensions":["wings","pattern"],"bee_group":{"antennae":"X","wings":"1","pattern":"S","legs":"X"},"bonus":0.9000000000000008},{"rt":1868,"stimulus":"bees-with-color/bee-B2DF.svg","response":0,"trial_type":"image-button-response","trial_index":115,"time_elapsed":352102,"internal_node_id":"0.0-4.0-0.54","subject_id":"6007421356226920359b5f3e","study_id":"6197b3f67c2b5cd3b6d9596a","session_id":"619beef1cebb72ea494c6a43","condition":"contingent","relevant_dimensions":["wings","pattern"],"bee_group":{"antennae":"X","wings":"1","pattern":"S","legs":"X"},"action":"harvest","summary":"good-harvest","bonus":0.9000000000000008},{"rt":661,"stimulus":"\n                    <p><b>Action: <em>harvest</em></b></p>\n                    <p>This is the bee that you just saw.</p>\n                    <img src=\"bees-with-color/bee-B2DF.svg\" width=\"200\">\n                    <p><span class=\"greenText\"><b>Successful harvest!</b></span><br>Your pay has increased by $0.02. Your bonus pay is now $0.96.</p>\n            ","response":0,"trial_type":"html-button-response","trial_index":116,"time_elapsed":352763,"internal_node_id":"0.0-4.0-1.54","subject_id":"6007421356226920359b5f3e","study_id":"6197b3f67c2b5cd3b6d9596a","session_id":"619beef1cebb72ea494c6a43","condition":"contingent","relevant_dimensions":["wings","pattern"],"bee_group":{"antennae":"X","wings":"1","pattern":"S","legs":"X"},"bonus":0.9000000000000008},{"rt":1813,"stimulus":"bees-with-color/bee-B2SF.svg","response":0,"trial_type":"image-button-response","trial_index":117,"time_elapsed":354578,"internal_node_id":"0.0-4.0-0.55","subject_id":"6007421356226920359b5f3e","study_id":"6197b3f67c2b5cd3b6d9596a","session_id":"619beef1cebb72ea494c6a43","condition":"contingent","relevant_dimensions":["wings","pattern"],"bee_group":{"antennae":"X","wings":"1","pattern":"S","legs":"X"},"action":"harvest","summary":"good-harvest","bonus":0.9000000000000008},{"rt":750,"stimulus":"\n                    <p><b>Action: <em>harvest</em></b></p>\n                    <p>This is the bee that you just saw.</p>\n                    <img src=\"bees-with-color/bee-B2SF.svg\" width=\"200\">\n                    <p><span class=\"greenText\"><b>Successful harvest!</b></span><br>Your pay has increased by $0.02. Your bonus pay is now $0.98.</p>\n            ","response":0,"trial_type":"html-button-response","trial_index":118,"time_elapsed":355329,"internal_node_id":"0.0-4.0-1.55","subject_id":"6007421356226920359b5f3e","study_id":"6197b3f67c2b5cd3b6d9596a","session_id":"619beef1cebb72ea494c6a43","condition":"contingent","relevant_dimensions":["wings","pattern"],"bee_group":{"antennae":"X","wings":"1","pattern":"S","legs":"X"},"bonus":0.9000000000000008},{"rt":876,"stimulus":"bees-with-color/bee-A2SF.svg","response":0,"trial_type":"image-button-response","trial_index":119,"time_elapsed":356207,"internal_node_id":"0.0-4.0-0.56","subject_id":"6007421356226920359b5f3e","study_id":"6197b3f67c2b5cd3b6d9596a","session_id":"619beef1cebb72ea494c6a43","condition":"contingent","relevant_dimensions":["wings","pattern"],"bee_group":{"antennae":"X","wings":"1","pattern":"S","legs":"X"},"action":"harvest","summary":"good-harvest","bonus":0.9000000000000008},{"rt":674,"stimulus":"\n                    <p><b>Action: <em>harvest</em></b></p>\n                    <p>This is the bee that you just saw.</p>\n                    <img src=\"bees-with-color/bee-A2SF.svg\" width=\"200\">\n                    <p><span class=\"greenText\"><b>Successful harvest!</b></span><br>Your pay has increased by $0.02. Your bonus pay is now $1.00.</p>\n            ","response":0,"trial_type":"html-button-response","trial_index":120,"time_elapsed":356882,"internal_node_id":"0.0-4.0-1.56","subject_id":"6007421356226920359b5f3e","study_id":"6197b3f67c2b5cd3b6d9596a","session_id":"619beef1cebb72ea494c6a43","condition":"contingent","relevant_dimensions":["wings","pattern"],"bee_group":{"antennae":"X","wings":"1","pattern":"S","legs":"X"},"bonus":0.9000000000000008},{"rt":2309,"stimulus":"bees-with-color/bee-B1SF.svg","response":1,"trial_type":"image-button-response","trial_index":121,"time_elapsed":359191,"internal_node_id":"0.0-4.0-0.57","subject_id":"6007421356226920359b5f3e","study_id":"6197b3f67c2b5cd3b6d9596a","session_id":"619beef1cebb72ea494c6a43","condition":"contingent","relevant_dimensions":["wings","pattern"],"bee_group":{"antennae":"X","wings":"1","pattern":"S","legs":"X"},"action":"avoid","summary":"good-avoid","bonus":0.9000000000000008},{"rt":637,"stimulus":"\n                    <p><b>Action: <em>avoid</em></b></p>\n                    <p>This is the bee that you just saw.</p>\n                    <img src=\"bees-with-color/bee-B1SF.svg\" width=\"200\">\n                    <p><br>Your bonus pay is unchanged, and remains at $1.00.</p>\n            ","response":0,"trial_type":"html-button-response","trial_index":122,"time_elapsed":359830,"internal_node_id":"0.0-4.0-1.57","subject_id":"6007421356226920359b5f3e","study_id":"6197b3f67c2b5cd3b6d9596a","session_id":"619beef1cebb72ea494c6a43","condition":"contingent","relevant_dimensions":["wings","pattern"],"bee_group":{"antennae":"X","wings":"1","pattern":"S","legs":"X"},"bonus":0.9000000000000008},{"rt":1663,"stimulus":"bees-with-color/bee-A1SM.svg","response":1,"trial_type":"image-button-response","trial_index":123,"time_elapsed":361495,"internal_node_id":"0.0-4.0-0.58","subject_id":"6007421356226920359b5f3e","study_id":"6197b3f67c2b5cd3b6d9596a","session_id":"619beef1cebb72ea494c6a43","condition":"contingent","relevant_dimensions":["wings","pattern"],"bee_group":{"antennae":"X","wings":"1","pattern":"S","legs":"X"},"action":"avoid","summary":"good-avoid","bonus":0.9000000000000008},{"rt":549,"stimulus":"\n                    <p><b>Action: <em>avoid</em></b></p>\n                    <p>This is the bee that you just saw.</p>\n                    <img src=\"bees-with-color/bee-A1SM.svg\" width=\"200\">\n                    <p><br>Your bonus pay is unchanged, and remains at $1.00.</p>\n            ","response":0,"trial_type":"html-button-response","trial_index":124,"time_elapsed":362046,"internal_node_id":"0.0-4.0-1.58","subject_id":"6007421356226920359b5f3e","study_id":"6197b3f67c2b5cd3b6d9596a","session_id":"619beef1cebb72ea494c6a43","condition":"contingent","relevant_dimensions":["wings","pattern"],"bee_group":{"antennae":"X","wings":"1","pattern":"S","legs":"X"},"bonus":0.9000000000000008},{"rt":948,"stimulus":"bees-with-color/bee-A1DM.svg","response":0,"trial_type":"image-button-response","trial_index":125,"time_elapsed":362995,"internal_node_id":"0.0-4.0-0.59","subject_id":"6007421356226920359b5f3e","study_id":"6197b3f67c2b5cd3b6d9596a","session_id":"619beef1cebb72ea494c6a43","condition":"contingent","relevant_dimensions":["wings","pattern"],"bee_group":{"antennae":"X","wings":"1","pattern":"S","legs":"X"},"action":"harvest","summary":"good-harvest","bonus":0.9000000000000008},{"rt":659,"stimulus":"\n                    <p><b>Action: <em>harvest</em></b></p>\n                    <p>This is the bee that you just saw.</p>\n                    <img src=\"bees-with-color/bee-A1DM.svg\" width=\"200\">\n                    <p><span class=\"greenText\"><b>Successful harvest!</b></span><br>Your pay has increased by $0.02. Your bonus pay is now $1.02.</p>\n            ","response":0,"trial_type":"html-button-response","trial_index":126,"time_elapsed":363655,"internal_node_id":"0.0-4.0-1.59","subject_id":"6007421356226920359b5f3e","study_id":"6197b3f67c2b5cd3b6d9596a","session_id":"619beef1cebb72ea494c6a43","condition":"contingent","relevant_dimensions":["wings","pattern"],"bee_group":{"antennae":"X","wings":"1","pattern":"S","legs":"X"},"bonus":0.9000000000000008},{"rt":1220,"stimulus":"bees-with-color/bee-A1DF.svg","response":0,"trial_type":"image-button-response","trial_index":127,"time_elapsed":364877,"internal_node_id":"0.0-4.0-0.60","subject_id":"6007421356226920359b5f3e","study_id":"6197b3f67c2b5cd3b6d9596a","session_id":"619beef1cebb72ea494c6a43","condition":"contingent","relevant_dimensions":["wings","pattern"],"bee_group":{"antennae":"X","wings":"1","pattern":"S","legs":"X"},"action":"harvest","summary":"good-harvest","bonus":0.9000000000000008},{"rt":677,"stimulus":"\n                    <p><b>Action: <em>harvest</em></b></p>\n                    <p>This is the bee that you just saw.</p>\n                    <img src=\"bees-with-color/bee-A1DF.svg\" width=\"200\">\n                    <p><span class=\"greenText\"><b>Successful harvest!</b></span><br>Your pay has increased by $0.02. Your bonus pay is now $1.04.</p>\n            ","response":0,"trial_type":"html-button-response","trial_index":128,"time_elapsed":365555,"internal_node_id":"0.0-4.0-1.60","subject_id":"6007421356226920359b5f3e","study_id":"6197b3f67c2b5cd3b6d9596a","session_id":"619beef1cebb72ea494c6a43","condition":"contingent","relevant_dimensions":["wings","pattern"],"bee_group":{"antennae":"X","wings":"1","pattern":"S","legs":"X"},"bonus":0.9000000000000008},{"rt":841,"stimulus":"bees-with-color/bee-B1DM.svg","response":0,"trial_type":"image-button-response","trial_index":129,"time_elapsed":366397,"internal_node_id":"0.0-4.0-0.61","subject_id":"6007421356226920359b5f3e","study_id":"6197b3f67c2b5cd3b6d9596a","session_id":"619beef1cebb72ea494c6a43","condition":"contingent","relevant_dimensions":["wings","pattern"],"bee_group":{"antennae":"X","wings":"1","pattern":"S","legs":"X"},"action":"harvest","summary":"good-harvest","bonus":0.9000000000000008},{"rt":594,"stimulus":"\n                    <p><b>Action: <em>harvest</em></b></p>\n                    <p>This is the bee that you just saw.</p>\n                    <img src=\"bees-with-color/bee-B1DM.svg\" width=\"200\">\n                    <p><span class=\"greenText\"><b>Successful harvest!</b></span><br>Your pay has increased by $0.02. Your bonus pay is now $1.06.</p>\n            ","response":0,"trial_type":"html-button-response","trial_index":130,"time_elapsed":366993,"internal_node_id":"0.0-4.0-1.61","subject_id":"6007421356226920359b5f3e","study_id":"6197b3f67c2b5cd3b6d9596a","session_id":"619beef1cebb72ea494c6a43","condition":"contingent","relevant_dimensions":["wings","pattern"],"bee_group":{"antennae":"X","wings":"1","pattern":"S","legs":"X"},"bonus":0.9000000000000008},{"rt":1109,"stimulus":"bees-with-color/bee-B1DF.svg","response":0,"trial_type":"image-button-response","trial_index":131,"time_elapsed":368103,"internal_node_id":"0.0-4.0-0.62","subject_id":"6007421356226920359b5f3e","study_id":"6197b3f67c2b5cd3b6d9596a","session_id":"619beef1cebb72ea494c6a43","condition":"contingent","relevant_dimensions":["wings","pattern"],"bee_group":{"antennae":"X","wings":"1","pattern":"S","legs":"X"},"action":"harvest","summary":"good-harvest","bonus":0.9000000000000008},{"rt":685,"stimulus":"\n                    <p><b>Action: <em>harvest</em></b></p>\n                    <p>This is the bee that you just saw.</p>\n                    <img src=\"bees-with-color/bee-B1DF.svg\" width=\"200\">\n                    <p><span class=\"greenText\"><b>Successful harvest!</b></span><br>Your pay has increased by $0.02. Your bonus pay is now $1.08.</p>\n            ","response":0,"trial_type":"html-button-response","trial_index":132,"time_elapsed":368790,"internal_node_id":"0.0-4.0-1.62","subject_id":"6007421356226920359b5f3e","study_id":"6197b3f67c2b5cd3b6d9596a","session_id":"619beef1cebb72ea494c6a43","condition":"contingent","relevant_dimensions":["wings","pattern"],"bee_group":{"antennae":"X","wings":"1","pattern":"S","legs":"X"},"bonus":0.9000000000000008},{"rt":1292,"stimulus":"bees-with-color/bee-B2SM.svg","response":0,"trial_type":"image-button-response","trial_index":133,"time_elapsed":370083,"internal_node_id":"0.0-4.0-0.63","subject_id":"6007421356226920359b5f3e","study_id":"6197b3f67c2b5cd3b6d9596a","session_id":"619beef1cebb72ea494c6a43","condition":"contingent","relevant_dimensions":["wings","pattern"],"bee_group":{"antennae":"X","wings":"1","pattern":"S","legs":"X"},"action":"harvest","summary":"good-harvest","bonus":0.9000000000000008},{"rt":719,"stimulus":"\n                    <p><b>Action: <em>harvest</em></b></p>\n                    <p>This is the bee that you just saw.</p>\n                    <img src=\"bees-with-color/bee-B2SM.svg\" width=\"200\">\n                    <p><span class=\"greenText\"><b>Successful harvest!</b></span><br>Your pay has increased by $0.02. Your bonus pay is now $1.10.</p>\n            ","response":0,"trial_type":"html-button-response","trial_index":134,"time_elapsed":370804,"internal_node_id":"0.0-4.0-1.63","subject_id":"6007421356226920359b5f3e","study_id":"6197b3f67c2b5cd3b6d9596a","session_id":"619beef1cebb72ea494c6a43","condition":"contingent","relevant_dimensions":["wings","pattern"],"bee_group":{"antennae":"X","wings":"1","pattern":"S","legs":"X"},"bonus":0.9000000000000008},{"rt":6105,"stimulus":"You have completed the first part of this experiment.<br><br>You will now begin a shorter second part, in which you will receive no feedback.<br>The same rules regarding bonus pay apply.<br><br>Press any key to begin.","response":"enter","trial_type":"html-keyboard-response","trial_index":135,"time_elapsed":376911,"internal_node_id":"0.0-5.0","subject_id":"6007421356226920359b5f3e","study_id":"6197b3f67c2b5cd3b6d9596a","session_id":"619beef1cebb72ea494c6a43","condition":"contingent","relevant_dimensions":["wings","pattern"],"bee_group":{"antennae":"X","wings":"1","pattern":"S","legs":"X"},"bonus":0.9000000000000008},{"rt":4247,"stimulus":"bees-with-color/bee-A2SM.svg","response":0,"trial_type":"image-button-response","trial_index":136,"time_elapsed":381160,"internal_node_id":"0.0-6.0-0.0","subject_id":"6007421356226920359b5f3e","study_id":"6197b3f67c2b5cd3b6d9596a","session_id":"619beef1cebb72ea494c6a43","condition":"contingent","relevant_dimensions":["wings","pattern"],"bee_group":{"antennae":"X","wings":"1","pattern":"S","legs":"X"},"bonus":0.9000000000000008},{"rt":3102,"stimulus":"bees-with-color/bee-B1DM.svg","response":1,"trial_type":"image-button-response","trial_index":137,"time_elapsed":384263,"internal_node_id":"0.0-6.0-0.1","subject_id":"6007421356226920359b5f3e","study_id":"6197b3f67c2b5cd3b6d9596a","session_id":"619beef1cebb72ea494c6a43","condition":"contingent","relevant_dimensions":["wings","pattern"],"bee_group":{"antennae":"X","wings":"1","pattern":"S","legs":"X"},"bonus":0.9000000000000008},{"rt":1884,"stimulus":"bees-with-color/bee-A2DF.svg","response":0,"trial_type":"image-button-response","trial_index":138,"time_elapsed":386149,"internal_node_id":"0.0-6.0-0.2","subject_id":"6007421356226920359b5f3e","study_id":"6197b3f67c2b5cd3b6d9596a","session_id":"619beef1cebb72ea494c6a43","condition":"contingent","relevant_dimensions":["wings","pattern"],"bee_group":{"antennae":"X","wings":"1","pattern":"S","legs":"X"},"bonus":0.9000000000000008},{"rt":537,"stimulus":"bees-with-color/bee-B2SF.svg","response":0,"trial_type":"image-button-response","trial_index":139,"time_elapsed":386687,"internal_node_id":"0.0-6.0-0.3","subject_id":"6007421356226920359b5f3e","study_id":"6197b3f67c2b5cd3b6d9596a","session_id":"619beef1cebb72ea494c6a43","condition":"contingent","relevant_dimensions":["wings","pattern"],"bee_group":{"antennae":"X","wings":"1","pattern":"S","legs":"X"},"bonus":0.9000000000000008},{"rt":615,"stimulus":"bees-with-color/bee-A1DM.svg","response":1,"trial_type":"image-button-response","trial_index":140,"time_elapsed":387303,"internal_node_id":"0.0-6.0-0.4","subject_id":"6007421356226920359b5f3e","study_id":"6197b3f67c2b5cd3b6d9596a","session_id":"619beef1cebb72ea494c6a43","condition":"contingent","relevant_dimensions":["wings","pattern"],"bee_group":{"antennae":"X","wings":"1","pattern":"S","legs":"X"},"bonus":0.9000000000000008},{"rt":492,"stimulus":"bees-with-color/bee-B1SM.svg","response":0,"trial_type":"image-button-response","trial_index":141,"time_elapsed":387797,"internal_node_id":"0.0-6.0-0.5","subject_id":"6007421356226920359b5f3e","study_id":"6197b3f67c2b5cd3b6d9596a","session_id":"619beef1cebb72ea494c6a43","condition":"contingent","relevant_dimensions":["wings","pattern"],"bee_group":{"antennae":"X","wings":"1","pattern":"S","legs":"X"},"bonus":0.9000000000000008},{"rt":424,"stimulus":"bees-with-color/bee-B1SF.svg","response":0,"trial_type":"image-button-response","trial_index":142,"time_elapsed":388221,"internal_node_id":"0.0-6.0-0.6","subject_id":"6007421356226920359b5f3e","study_id":"6197b3f67c2b5cd3b6d9596a","session_id":"619beef1cebb72ea494c6a43","condition":"contingent","relevant_dimensions":["wings","pattern"],"bee_group":{"antennae":"X","wings":"1","pattern":"S","legs":"X"},"bonus":0.9000000000000008},{"rt":429,"stimulus":"bees-with-color/bee-B2DM.svg","response":0,"trial_type":"image-button-response","trial_index":143,"time_elapsed":388652,"internal_node_id":"0.0-6.0-0.7","subject_id":"6007421356226920359b5f3e","study_id":"6197b3f67c2b5cd3b6d9596a","session_id":"619beef1cebb72ea494c6a43","condition":"contingent","relevant_dimensions":["wings","pattern"],"bee_group":{"antennae":"X","wings":"1","pattern":"S","legs":"X"},"bonus":0.9000000000000008},{"rt":434,"stimulus":"bees-with-color/bee-A1SF.svg","response":1,"trial_type":"image-button-response","trial_index":144,"time_elapsed":389087,"internal_node_id":"0.0-6.0-0.8","subject_id":"6007421356226920359b5f3e","study_id":"6197b3f67c2b5cd3b6d9596a","session_id":"619beef1cebb72ea494c6a43","condition":"contingent","relevant_dimensions":["wings","pattern"],"bee_group":{"antennae":"X","wings":"1","pattern":"S","legs":"X"},"bonus":0.9000000000000008},{"rt":572,"stimulus":"bees-with-color/bee-A2SF.svg","response":0,"trial_type":"image-button-response","trial_index":145,"time_elapsed":389660,"internal_node_id":"0.0-6.0-0.9","subject_id":"6007421356226920359b5f3e","study_id":"6197b3f67c2b5cd3b6d9596a","session_id":"619beef1cebb72ea494c6a43","condition":"contingent","relevant_dimensions":["wings","pattern"],"bee_group":{"antennae":"X","wings":"1","pattern":"S","legs":"X"},"bonus":0.9000000000000008},{"rt":283,"stimulus":"bees-with-color/bee-A2DM.svg","response":0,"trial_type":"image-button-response","trial_index":146,"time_elapsed":389943,"internal_node_id":"0.0-6.0-0.10","subject_id":"6007421356226920359b5f3e","study_id":"6197b3f67c2b5cd3b6d9596a","session_id":"619beef1cebb72ea494c6a43","condition":"contingent","relevant_dimensions":["wings","pattern"],"bee_group":{"antennae":"X","wings":"1","pattern":"S","legs":"X"},"bonus":0.9000000000000008},{"rt":225,"stimulus":"bees-with-color/bee-A1SM.svg","response":0,"trial_type":"image-button-response","trial_index":147,"time_elapsed":390169,"internal_node_id":"0.0-6.0-0.11","subject_id":"6007421356226920359b5f3e","study_id":"6197b3f67c2b5cd3b6d9596a","session_id":"619beef1cebb72ea494c6a43","condition":"contingent","relevant_dimensions":["wings","pattern"],"bee_group":{"antennae":"X","wings":"1","pattern":"S","legs":"X"},"bonus":0.9000000000000008},{"rt":206,"stimulus":"bees-with-color/bee-A1DF.svg","response":0,"trial_type":"image-button-response","trial_index":148,"time_elapsed":390377,"internal_node_id":"0.0-6.0-0.12","subject_id":"6007421356226920359b5f3e","study_id":"6197b3f67c2b5cd3b6d9596a","session_id":"619beef1cebb72ea494c6a43","condition":"contingent","relevant_dimensions":["wings","pattern"],"bee_group":{"antennae":"X","wings":"1","pattern":"S","legs":"X"},"bonus":0.9000000000000008},{"rt":180,"stimulus":"bees-with-color/bee-B1DF.svg","response":0,"trial_type":"image-button-response","trial_index":149,"time_elapsed":390559,"internal_node_id":"0.0-6.0-0.13","subject_id":"6007421356226920359b5f3e","study_id":"6197b3f67c2b5cd3b6d9596a","session_id":"619beef1cebb72ea494c6a43","condition":"contingent","relevant_dimensions":["wings","pattern"],"bee_group":{"antennae":"X","wings":"1","pattern":"S","legs":"X"},"bonus":0.9000000000000008},{"rt":229,"stimulus":"bees-with-color/bee-B2SM.svg","response":0,"trial_type":"image-button-response","trial_index":150,"time_elapsed":390789,"internal_node_id":"0.0-6.0-0.14","subject_id":"6007421356226920359b5f3e","study_id":"6197b3f67c2b5cd3b6d9596a","session_id":"619beef1cebb72ea494c6a43","condition":"contingent","relevant_dimensions":["wings","pattern"],"bee_group":{"antennae":"X","wings":"1","pattern":"S","legs":"X"},"bonus":0.9000000000000008},{"rt":185,"stimulus":"bees-with-color/bee-B2DF.svg","response":0,"trial_type":"image-button-response","trial_index":151,"time_elapsed":390977,"internal_node_id":"0.0-6.0-0.15","subject_id":"6007421356226920359b5f3e","study_id":"6197b3f67c2b5cd3b6d9596a","session_id":"619beef1cebb72ea494c6a43","condition":"contingent","relevant_dimensions":["wings","pattern"],"bee_group":{"antennae":"X","wings":"1","pattern":"S","legs":"X"},"bonus":0.9000000000000008},{"rt":571,"stimulus":"bees-with-color/bee-A1DF.svg","response":1,"trial_type":"image-button-response","trial_index":152,"time_elapsed":391549,"internal_node_id":"0.0-6.0-0.16","subject_id":"6007421356226920359b5f3e","study_id":"6197b3f67c2b5cd3b6d9596a","session_id":"619beef1cebb72ea494c6a43","condition":"contingent","relevant_dimensions":["wings","pattern"],"bee_group":{"antennae":"X","wings":"1","pattern":"S","legs":"X"},"bonus":0.9000000000000008},{"rt":415,"stimulus":"bees-with-color/bee-A2SM.svg","response":1,"trial_type":"image-button-response","trial_index":153,"time_elapsed":391966,"internal_node_id":"0.0-6.0-0.17","subject_id":"6007421356226920359b5f3e","study_id":"6197b3f67c2b5cd3b6d9596a","session_id":"619beef1cebb72ea494c6a43","condition":"contingent","relevant_dimensions":["wings","pattern"],"bee_group":{"antennae":"X","wings":"1","pattern":"S","legs":"X"},"bonus":0.9000000000000008},{"rt":329,"stimulus":"bees-with-color/bee-B1SM.svg","response":0,"trial_type":"image-button-response","trial_index":154,"time_elapsed":392297,"internal_node_id":"0.0-6.0-0.18","subject_id":"6007421356226920359b5f3e","study_id":"6197b3f67c2b5cd3b6d9596a","session_id":"619beef1cebb72ea494c6a43","condition":"contingent","relevant_dimensions":["wings","pattern"],"bee_group":{"antennae":"X","wings":"1","pattern":"S","legs":"X"},"bonus":0.9000000000000008},{"rt":190,"stimulus":"bees-with-color/bee-B1SF.svg","response":0,"trial_type":"image-button-response","trial_index":155,"time_elapsed":392487,"internal_node_id":"0.0-6.0-0.19","subject_id":"6007421356226920359b5f3e","study_id":"6197b3f67c2b5cd3b6d9596a","session_id":"619beef1cebb72ea494c6a43","condition":"contingent","relevant_dimensions":["wings","pattern"],"bee_group":{"antennae":"X","wings":"1","pattern":"S","legs":"X"},"bonus":0.9000000000000008},{"rt":183,"stimulus":"bees-with-color/bee-A2SF.svg","response":0,"trial_type":"image-button-response","trial_index":156,"time_elapsed":392672,"internal_node_id":"0.0-6.0-0.20","subject_id":"6007421356226920359b5f3e","study_id":"6197b3f67c2b5cd3b6d9596a","session_id":"619beef1cebb72ea494c6a43","condition":"contingent","relevant_dimensions":["wings","pattern"],"bee_group":{"antennae":"X","wings":"1","pattern":"S","legs":"X"},"bonus":0.9000000000000008},{"rt":200,"stimulus":"bees-with-color/bee-A2DF.svg","response":0,"trial_type":"image-button-response","trial_index":157,"time_elapsed":392874,"internal_node_id":"0.0-6.0-0.21","subject_id":"6007421356226920359b5f3e","study_id":"6197b3f67c2b5cd3b6d9596a","session_id":"619beef1cebb72ea494c6a43","condition":"contingent","relevant_dimensions":["wings","pattern"],"bee_group":{"antennae":"X","wings":"1","pattern":"S","legs":"X"},"bonus":0.9000000000000008},{"rt":465,"stimulus":"bees-with-color/bee-B2SM.svg","response":0,"trial_type":"image-button-response","trial_index":158,"time_elapsed":393341,"internal_node_id":"0.0-6.0-0.22","subject_id":"6007421356226920359b5f3e","study_id":"6197b3f67c2b5cd3b6d9596a","session_id":"619beef1cebb72ea494c6a43","condition":"contingent","relevant_dimensions":["wings","pattern"],"bee_group":{"antennae":"X","wings":"1","pattern":"S","legs":"X"},"bonus":0.9000000000000008},{"rt":328,"stimulus":"bees-with-color/bee-A1DM.svg","response":0,"trial_type":"image-button-response","trial_index":159,"time_elapsed":393669,"internal_node_id":"0.0-6.0-0.23","subject_id":"6007421356226920359b5f3e","study_id":"6197b3f67c2b5cd3b6d9596a","session_id":"619beef1cebb72ea494c6a43","condition":"contingent","relevant_dimensions":["wings","pattern"],"bee_group":{"antennae":"X","wings":"1","pattern":"S","legs":"X"},"bonus":0.9000000000000008},{"rt":781,"stimulus":"bees-with-color/bee-B1DM.svg","response":1,"trial_type":"image-button-response","trial_index":160,"time_elapsed":394451,"internal_node_id":"0.0-6.0-0.24","subject_id":"6007421356226920359b5f3e","study_id":"6197b3f67c2b5cd3b6d9596a","session_id":"619beef1cebb72ea494c6a43","condition":"contingent","relevant_dimensions":["wings","pattern"],"bee_group":{"antennae":"X","wings":"1","pattern":"S","legs":"X"},"bonus":0.9000000000000008},{"rt":613,"stimulus":"bees-with-color/bee-B2DM.svg","response":0,"trial_type":"image-button-response","trial_index":161,"time_elapsed":395068,"internal_node_id":"0.0-6.0-0.25","subject_id":"6007421356226920359b5f3e","study_id":"6197b3f67c2b5cd3b6d9596a","session_id":"619beef1cebb72ea494c6a43","condition":"contingent","relevant_dimensions":["wings","pattern"],"bee_group":{"antennae":"X","wings":"1","pattern":"S","legs":"X"},"bonus":0.9000000000000008},{"rt":521,"stimulus":"bees-with-color/bee-B2SF.svg","response":1,"trial_type":"image-button-response","trial_index":162,"time_elapsed":395589,"internal_node_id":"0.0-6.0-0.26","subject_id":"6007421356226920359b5f3e","study_id":"6197b3f67c2b5cd3b6d9596a","session_id":"619beef1cebb72ea494c6a43","condition":"contingent","relevant_dimensions":["wings","pattern"],"bee_group":{"antennae":"X","wings":"1","pattern":"S","legs":"X"},"bonus":0.9000000000000008},{"rt":198,"stimulus":"bees-with-color/bee-B1DF.svg","response":1,"trial_type":"image-button-response","trial_index":163,"time_elapsed":395788,"internal_node_id":"0.0-6.0-0.27","subject_id":"6007421356226920359b5f3e","study_id":"6197b3f67c2b5cd3b6d9596a","session_id":"619beef1cebb72ea494c6a43","condition":"contingent","relevant_dimensions":["wings","pattern"],"bee_group":{"antennae":"X","wings":"1","pattern":"S","legs":"X"},"bonus":0.9000000000000008},{"rt":178,"stimulus":"bees-with-color/bee-A1SM.svg","response":1,"trial_type":"image-button-response","trial_index":164,"time_elapsed":395968,"internal_node_id":"0.0-6.0-0.28","subject_id":"6007421356226920359b5f3e","study_id":"6197b3f67c2b5cd3b6d9596a","session_id":"619beef1cebb72ea494c6a43","condition":"contingent","relevant_dimensions":["wings","pattern"],"bee_group":{"antennae":"X","wings":"1","pattern":"S","legs":"X"},"bonus":0.9000000000000008},{"rt":172,"stimulus":"bees-with-color/bee-A1SF.svg","response":1,"trial_type":"image-button-response","trial_index":165,"time_elapsed":396139,"internal_node_id":"0.0-6.0-0.29","subject_id":"6007421356226920359b5f3e","study_id":"6197b3f67c2b5cd3b6d9596a","session_id":"619b