[{"success":true,"trial_type":"fullscreen","trial_index":0,"time_elapsed":2352,"internal_node_id":"0.0-0.0","subject_id":"5c3f8bdf342ae0000111a3e1","study_id":"6197b3f67c2b5cd3b6d9596a","session_id":"6197b9f2c682e6f85ae8b463","condition":"contingent","relevant_dimensions":["wings","pattern"],"bee_group":{"antennae":"X","wings":"1","pattern":"D","legs":"X"},"bonus":0.3600000000000013},{"success":true,"timeout":false,"failed_images":[],"failed_audio":[],"failed_video":[],"trial_type":"preload","trial_index":1,"time_elapsed":2441,"internal_node_id":"0.0-1.0","subject_id":"5c3f8bdf342ae0000111a3e1","study_id":"6197b3f67c2b5cd3b6d9596a","session_id":"6197b9f2c682e6f85ae8b463","condition":"contingent","relevant_dimensions":["wings","pattern"],"bee_group":{"antennae":"X","wings":"1","pattern":"D","legs":"X"},"bonus":0.3600000000000013},{"rt":1256,"stimulus":"Welcome! Press any key to begin.","response":" ","trial_type":"html-keyboard-response","trial_index":2,"time_elapsed":3698,"internal_node_id":"0.0-2.0","subject_id":"5c3f8bdf342ae0000111a3e1","study_id":"6197b3f67c2b5cd3b6d9596a","session_id":"6197b9f2c682e6f85ae8b463","condition":"contingent","relevant_dimensions":["wings","pattern"],"bee_group":{"antennae":"X","wings":"1","pattern":"D","legs":"X"},"bonus":0.3600000000000013},{"view_history":[{"page_index":0,"viewing_time":1048},{"page_index":1,"viewing_time":624},{"page_index":2,"viewing_time":640},{"page_index":3,"viewing_time":3211},{"page_index":4,"viewing_time":1042},{"page_index":5,"viewing_time":444},{"page_index":6,"viewing_time":715},{"page_index":7,"viewing_time":829},{"page_index":8,"viewing_time":525},{"page_index":9,"viewing_time":362},{"page_index":10,"viewing_time":394},{"page_index":11,"viewing_time":903},{"page_index":12,"viewing_time":1084},{"page_index":13,"viewing_time":797},{"page_index":14,"viewing_time":493}],"rt":13111,"trial_type":"instructions","trial_index":3,"time_elapsed":16808,"internal_node_id":"0.0-3.0-0.0","subject_id":"5c3f8bdf342ae0000111a3e1","study_id":"6197b3f67c2b5cd3b6d9596a","session_id":"6197b9f2c682e6f85ae8b463","condition":"contingent","relevant_dimensions":["wings","pattern"],"bee_group":{"antennae":"X","wings":"1","pattern":"D","legs":"X"},"bonus":0.3600000000000013},{"rt":4721,"response":{"Q0":["Two or six legs","Stripes or spots on body","Single or double wings","Antennae or no antennae"]},"question_order":[0],"trial_type":"survey-multi-select","trial_index":4,"time_elapsed":21531,"internal_node_id":"0.0-3.0-1.0","subject_id":"5c3f8bdf342ae0000111a3e1","study_id":"6197b3f67c2b5cd3b6d9596a","session_id":"6197b9f2c682e6f85ae8b463","condition":"contingent","relevant_dimensions":["wings","pattern"],"bee_group":{"antennae":"X","wings":"1","pattern":"D","legs":"X"},"correct":true,"bonus":0.3600000000000013},{"rt":7947,"response":{"Q1":"No.","Q2":"Based on the four features of the bee.","Q3":"You learn if it was friendly or dangerous, but do not alter your bonus."},"question_order":[0,1,2],"trial_type":"survey-multi-choice","trial_index":5,"time_elapsed":29479,"internal_node_id":"0.0-3.0-2.0","subject_id":"5c3f8bdf342ae0000111a3e1","study_id":"6197b3f67c2b5cd3b6d9596a","session_id":"6197b9f2c682e6f85ae8b463","condition":"contingent","relevant_dimensions":["wings","pattern"],"bee_group":{"antennae":"X","wings":"1","pattern":"D","legs":"X"},"correct":false,"bonus":0.3600000000000013},{"rt":2157,"stimulus":"<p>You did not answer all comprehension questions correctly.<br>Press <b>continue</b> to review the instructions again.</p>","response":0,"trial_type":"html-button-response","trial_index":6,"time_elapsed":31637,"internal_node_id":"0.0-3.0-3.0","subject_id":"5c3f8bdf342ae0000111a3e1","study_id":"6197b3f67c2b5cd3b6d9596a","session_id":"6197b9f2c682e6f85ae8b463","condition":"contingent","relevant_dimensions":["wings","pattern"],"bee_group":{"antennae":"X","wings":"1","pattern":"D","legs":"X"},"bonus":0.3600000000000013},{"view_history":[{"page_index":0,"viewing_time":887},{"page_index":1,"viewing_time":8925},{"page_index":2,"viewing_time":3070},{"page_index":3,"viewing_time":1075},{"page_index":2,"viewing_time":3516},{"page_index":3,"viewing_time":4844},{"page_index":4,"viewing_time":4500},{"page_index":5,"viewing_time":2383},{"page_index":6,"viewing_time":2561},{"page_index":7,"viewing_time":1077},{"page_index":8,"viewing_time":378},{"page_index":9,"viewing_time":335},{"page_index":10,"viewing_time":2331},{"page_index":11,"viewing_time":905},{"page_index":12,"viewing_time":1133},{"page_index":13,"viewing_time":772},{"page_index":14,"viewing_time":550}],"rt":39242,"trial_type":"instructions","trial_index":7,"time_elapsed":70880,"internal_node_id":"0.0-3.0-4.0-0.0","subject_id":"5c3f8bdf342ae0000111a3e1","study_id":"6197b3f67c2b5cd3b6d9596a","session_id":"6197b9f2c682e6f85ae8b463","condition":"contingent","relevant_dimensions":["wings","pattern"],"bee_group":{"antennae":"X","wings":"1","pattern":"D","legs":"X"},"bonus":0.3600000000000013},{"rt":4384,"response":{"Q0":["Two or six legs","Stripes or spots on body","Single or double wings","Antennae or no antennae"]},"question_order":[0],"trial_type":"survey-multi-select","trial_index":8,"time_elapsed":75267,"internal_node_id":"0.0-3.0-4.0-1.0","subject_id":"5c3f8bdf342ae0000111a3e1","study_id":"6197b3f67c2b5cd3b6d9596a","session_id":"6197b9f2c682e6f85ae8b463","condition":"contingent","relevant_dimensions":["wings","pattern"],"bee_group":{"antennae":"X","wings":"1","pattern":"D","legs":"X"},"correct":true,"bonus":0.3600000000000013},{"rt":6049,"response":{"Q1":"No.","Q2":"Based on the four features of the bee.","Q3":"You do not learn if it was friendly or dangerous, and do not alter your bonus."},"question_order":[0,1,2],"trial_type":"survey-multi-choice","trial_index":9,"time_elapsed":81318,"internal_node_id":"0.0-3.0-4.0-2.0","subject_id":"5c3f8bdf342ae0000111a3e1","study_id":"6197b3f67c2b5cd3b6d9596a","session_id":"6197b9f2c682e6f85ae8b463","condition":"contingent","relevant_dimensions":["wings","pattern"],"bee_group":{"antennae":"X","wings":"1","pattern":"D","legs":"X"},"correct":true,"bonus":0.3600000000000013},{"rt":2042,"stimulus":"<p>Congrats, you got everything right<br>When you're ready, click the button below to continue to the experiment.</p>","response":0,"trial_type":"html-button-response","trial_index":10,"time_elapsed":83362,"internal_node_id":"0.0-3.0-4.0-3.0","subject_id":"5c3f8bdf342ae0000111a3e1","study_id":"6197b3f67c2b5cd3b6d9596a","session_id":"6197b9f2c682e6f85ae8b463","condition":"contingent","relevant_dimensions":["wings","pattern"],"bee_group":{"antennae":"X","wings":"1","pattern":"D","legs":"X"},"bonus":0.3600000000000013},{"rt":2069,"stimulus":"bees-with-color/bee-B2SF.svg","response":0,"trial_type":"image-button-response","trial_index":11,"time_elapsed":85432,"internal_node_id":"0.0-4.0-0.0","subject_id":"5c3f8bdf342ae0000111a3e1","study_id":"6197b3f67c2b5cd3b6d9596a","session_id":"6197b9f2c682e6f85ae8b463","condition":"contingent","relevant_dimensions":["wings","pattern"],"bee_group":{"antennae":"X","wings":"1","pattern":"D","legs":"X"},"action":"harvest","summary":"good-harvest","bonus":0.3600000000000013},{"rt":5315,"stimulus":"\n                    <p><b>Action: <em>harvest</em></b></p>\n                    <p>This is the bee that you just saw.</p>\n                    <img src=\"bees-with-color/bee-B2SF.svg\" width=\"200\">\n                    <p><span class=\"greenText\"><b>Successful harvest!</b></span><br>Your pay has increased by $0.02. Your bonus pay is now $0.56.</p>\n            ","response":0,"trial_type":"html-button-response","trial_index":12,"time_elapsed":90757,"internal_node_id":"0.0-4.0-1.0","subject_id":"5c3f8bdf342ae0000111a3e1","study_id":"6197b3f67c2b5cd3b6d9596a","session_id":"6197b9f2c682e6f85ae8b463","condition":"contingent","relevant_dimensions":["wings","pattern"],"bee_group":{"antennae":"X","wings":"1","pattern":"D","legs":"X"},"bonus":0.3600000000000013},{"rt":1936,"stimulus":"bees-with-color/bee-A1DM.svg","response":1,"trial_type":"image-button-response","trial_index":13,"time_elapsed":92694,"internal_node_id":"0.0-4.0-0.1","subject_id":"5c3f8bdf342ae0000111a3e1","study_id":"6197b3f67c2b5cd3b6d9596a","session_id":"6197b9f2c682e6f85ae8b463","condition":"contingent","relevant_dimensions":["wings","pattern"],"bee_group":{"antennae":"X","wings":"1","pattern":"D","legs":"X"},"action":"avoid","summary":"good-avoid","bonus":0.3600000000000013},{"rt":2036,"stimulus":"\n                    <p><b>Action: <em>avoid</em></b></p>\n                    <p>This is the bee that you just saw.</p>\n                    <img src=\"bees-with-color/bee-A1DM.svg\" width=\"200\">\n                    <p><br>Your bonus pay is unchanged, and remains at $0.56.</p>\n            ","response":0,"trial_type":"html-button-response","trial_index":14,"time_elapsed":94731,"internal_node_id":"0.0-4.0-1.1","subject_id":"5c3f8bdf342ae0000111a3e1","study_id":"6197b3f67c2b5cd3b6d9596a","session_id":"6197b9f2c682e6f85ae8b463","condition":"contingent","relevant_dimensions":["wings","pattern"],"bee_group":{"antennae":"X","wings":"1","pattern":"D","legs":"X"},"bonus":0.3600000000000013},{"rt":1839,"stimulus":"bees-with-color/bee-A1SF.svg","response":0,"trial_type":"image-button-response","trial_index":15,"time_elapsed":96572,"internal_node_id":"0.0-4.0-0.2","subject_id":"5c3f8bdf342ae0000111a3e1","study_id":"6197b3f67c2b5cd3b6d9596a","session_id":"6197b9f2c682e6f85ae8b463","condition":"contingent","relevant_dimensions":["wings","pattern"],"bee_group":{"antennae":"X","wings":"1","pattern":"D","legs":"X"},"action":"harvest","summary":"good-harvest","bonus":0.3600000000000013},{"rt":1271,"stimulus":"\n                    <p><b>Action: <em>harvest</em></b></p>\n                    <p>This is the bee that you just saw.</p>\n                    <img src=\"bees-with-color/bee-A1SF.svg\" width=\"200\">\n                    <p><span class=\"greenText\"><b>Successful harvest!</b></span><br>Your pay has increased by $0.02. Your bonus pay is now $0.58.</p>\n            ","response":0,"trial_type":"html-button-response","trial_index":16,"time_elapsed":97844,"internal_node_id":"0.0-4.0-1.2","subject_id":"5c3f8bdf342ae0000111a3e1","study_id":"6197b3f67c2b5cd3b6d9596a","session_id":"6197b9f2c682e6f85ae8b463","condition":"contingent","relevant_dimensions":["wings","pattern"],"bee_group":{"antennae":"X","wings":"1","pattern":"D","legs":"X"},"bonus":0.3600000000000013},{"rt":1487,"stimulus":"bees-with-color/bee-B2DM.svg","response":0,"trial_type":"image-button-response","trial_index":17,"time_elapsed":99330,"internal_node_id":"0.0-4.0-0.3","subject_id":"5c3f8bdf342ae0000111a3e1","study_id":"6197b3f67c2b5cd3b6d9596a","session_id":"6197b9f2c682e6f85ae8b463","condition":"contingent","relevant_dimensions":["wings","pattern"],"bee_group":{"antennae":"X","wings":"1","pattern":"D","legs":"X"},"action":"harvest","summary":"good-harvest","bonus":0.3600000000000013},{"rt":1198,"stimulus":"\n                    <p><b>Action: <em>harvest</em></b></p>\n                    <p>This is the bee that you just saw.</p>\n                    <img src=\"bees-with-color/bee-B2DM.svg\" width=\"200\">\n                    <p><span class=\"greenText\"><b>Successful harvest!</b></span><br>Your pay has increased by $0.02. Your bonus pay is now $0.60.</p>\n            ","response":0,"trial_type":"html-button-response","trial_index":18,"time_elapsed":100529,"internal_node_id":"0.0-4.0-1.3","subject_id":"5c3f8bdf342ae0000111a3e1","study_id":"6197b3f67c2b5cd3b6d9596a","session_id":"6197b9f2c682e6f85ae8b463","condition":"contingent","relevant_dimensions":["wings","pattern"],"bee_group":{"antennae":"X","wings":"1","pattern":"D","legs":"X"},"bonus":0.3600000000000013},{"rt":3366,"stimulus":"bees-with-color/bee-A2DM.svg","response":1,"trial_type":"image-button-response","trial_index":19,"time_elapsed":103896,"internal_node_id":"0.0-4.0-0.4","subject_id":"5c3f8bdf342ae0000111a3e1","study_id":"6197b3f67c2b5cd3b6d9596a","session_id":"6197b9f2c682e6f85ae8b463","condition":"contingent","relevant_dimensions":["wings","pattern"],"bee_group":{"antennae":"X","wings":"1","pattern":"D","legs":"X"},"action":"avoid","summary":"bad-avoid","bonus":0.3600000000000013},{"rt":1133,"stimulus":"\n                    <p><b>Action: <em>avoid</em></b></p>\n                    <p>This is the bee that you just saw.</p>\n                    <img src=\"bees-with-color/bee-A2DM.svg\" width=\"200\">\n                    <p><br>Your bonus pay is unchanged, and remains at $0.60.</p>\n            ","response":0,"trial_type":"html-button-response","trial_index":20,"time_elapsed":105029,"internal_node_id":"0.0-4.0-1.4","subject_id":"5c3f8bdf342ae0000111a3e1","study_id":"6197b3f67c2b5cd3b6d9596a","session_id":"6197b9f2c682e6f85ae8b463","condition":"contingent","relevant_dimensions":["wings","pattern"],"bee_group":{"antennae":"X","wings":"1","pattern":"D","legs":"X"},"bonus":0.3600000000000013},{"rt":1938,"stimulus":"bees-with-color/bee-B1DM.svg","response":0,"trial_type":"image-button-response","trial_index":21,"time_elapsed":106967,"internal_node_id":"0.0-4.0-0.5","subject_id":"5c3f8bdf342ae0000111a3e1","study_id":"6197b3f67c2b5cd3b6d9596a","session_id":"6197b9f2c682e6f85ae8b463","condition":"contingent","relevant_dimensions":["wings","pattern"],"bee_group":{"antennae":"X","wings":"1","pattern":"D","legs":"X"},"action":"harvest","summary":"bad-harvest","bonus":0.3600000000000013},{"rt":3792,"stimulus":"\n                    <p><b>Action: <em>harvest</em></b></p>\n                    <p>This is the bee that you just saw.</p>\n                    <img src=\"bees-with-color/bee-B1DM.svg\" width=\"200\">\n                    <p><span class=\"redText\">Bad choice, the bee was angry.</span><br><b>You have been stung!</b><br>Your pay has been decreased by $0.10. Your bonus pay is now $0.50.</p>\n            ","response":0,"trial_type":"html-button-response","trial_index":22,"time_elapsed":110761,"internal_node_id":"0.0-4.0-1.5","subject_id":"5c3f8bdf342ae0000111a3e1","study_id":"6197b3f67c2b5cd3b6d9596a","session_id":"6197b9f2c682e6f85ae8b463","condition":"contingent","relevant_dimensions":["wings","pattern"],"bee_group":{"antennae":"X","wings":"1","pattern":"D","legs":"X"},"bonus":0.3600000000000013},{"rt":1223,"stimulus":"bees-with-color/bee-A2SM.svg","response":0,"trial_type":"image-button-response","trial_index":23,"time_elapsed":111984,"internal_node_id":"0.0-4.0-0.6","subject_id":"5c3f8bdf342ae0000111a3e1","study_id":"6197b3f67c2b5cd3b6d9596a","session_id":"6197b9f2c682e6f85ae8b463","condition":"contingent","relevant_dimensions":["wings","pattern"],"bee_group":{"antennae":"X","wings":"1","pattern":"D","legs":"X"},"action":"harvest","summary":"good-harvest","bonus":0.3600000000000013},{"rt":969,"stimulus":"\n                    <p><b>Action: <em>harvest</em></b></p>\n                    <p>This is the bee that you just saw.</p>\n                    <img src=\"bees-with-color/bee-A2SM.svg\" width=\"200\">\n                    <p><span class=\"greenText\"><b>Successful harvest!</b></span><br>Your pay has increased by $0.02. Your bonus pay is now $0.52.</p>\n            ","response":0,"trial_type":"html-button-response","trial_index":24,"time_elapsed":112953,"internal_node_id":"0.0-4.0-1.6","subject_id":"5c3f8bdf342ae0000111a3e1","study_id":"6197b3f67c2b5cd3b6d9596a","session_id":"6197b9f2c682e6f85ae8b463","condition":"contingent","relevant_dimensions":["wings","pattern"],"bee_group":{"antennae":"X","wings":"1","pattern":"D","legs":"X"},"bonus":0.3600000000000013},{"rt":1108,"stimulus":"bees-with-color/bee-B2DF.svg","response":0,"trial_type":"image-button-response","trial_index":25,"time_elapsed":114062,"internal_node_id":"0.0-4.0-0.7","subject_id":"5c3f8bdf342ae0000111a3e1","study_id":"6197b3f67c2b5cd3b6d9596a","session_id":"6197b9f2c682e6f85ae8b463","condition":"contingent","relevant_dimensions":["wings","pattern"],"bee_group":{"antennae":"X","wings":"1","pattern":"D","legs":"X"},"action":"harvest","summary":"good-harvest","bonus":0.3600000000000013},{"rt":1296,"stimulus":"\n                    <p><b>Action: <em>harvest</em></b></p>\n                    <p>This is the bee that you just saw.</p>\n                    <img src=\"bees-with-color/bee-B2DF.svg\" width=\"200\">\n                    <p><span class=\"greenText\"><b>Successful harvest!</b></span><br>Your pay has increased by $0.02. Your bonus pay is now $0.54.</p>\n            ","response":0,"trial_type":"html-button-response","trial_index":26,"time_elapsed":115359,"internal_node_id":"0.0-4.0-1.7","subject_id":"5c3f8bdf342ae0000111a3e1","study_id":"6197b3f67c2b5cd3b6d9596a","session_id":"6197b9f2c682e6f85ae8b463","condition":"contingent","relevant_dimensions":["wings","pattern"],"bee_group":{"antennae":"X","wings":"1","pattern":"D","legs":"X"},"bonus":0.3600000000000013},{"rt":1050,"stimulus":"bees-with-color/bee-B1DF.svg","response":1,"trial_type":"image-button-response","trial_index":27,"time_elapsed":116410,"internal_node_id":"0.0-4.0-0.8","subject_id":"5c3f8bdf342ae0000111a3e1","study_id":"6197b3f67c2b5cd3b6d9596a","session_id":"6197b9f2c682e6f85ae8b463","condition":"contingent","relevant_dimensions":["wings","pattern"],"bee_group":{"antennae":"X","wings":"1","pattern":"D","legs":"X"},"action":"avoid","summary":"good-avoid","bonus":0.3600000000000013},{"rt":861,"stimulus":"\n                    <p><b>Action: <em>avoid</em></b></p>\n                    <p>This is the bee that you just saw.</p>\n                    <img src=\"bees-with-color/bee-B1DF.svg\" width=\"200\">\n                    <p><br>Your bonus pay is unchanged, and remains at $0.54.</p>\n            ","response":0,"trial_type":"html-button-response","trial_index":28,"time_elapsed":117273,"internal_node_id":"0.0-4.0-1.8","subject_id":"5c3f8bdf342ae0000111a3e1","study_id":"6197b3f67c2b5cd3b6d9596a","session_id":"6197b9f2c682e6f85ae8b463","condition":"contingent","relevant_dimensions":["wings","pattern"],"bee_group":{"antennae":"X","wings":"1","pattern":"D","legs":"X"},"bonus":0.3600000000000013},{"rt":910,"stimulus":"bees-with-color/bee-A2SF.svg","response":0,"trial_type":"image-button-response","trial_index":29,"time_elapsed":118184,"internal_node_id":"0.0-4.0-0.9","subject_id":"5c3f8bdf342ae0000111a3e1","study_id":"6197b3f67c2b5cd3b6d9596a","session_id":"6197b9f2c682e6f85ae8b463","condition":"contingent","relevant_dimensions":["wings","pattern"],"bee_group":{"antennae":"X","wings":"1","pattern":"D","legs":"X"},"action":"harvest","summary":"good-harvest","bonus":0.3600000000000013},{"rt":1066,"stimulus":"\n                    <p><b>Action: <em>harvest</em></b></p>\n                    <p>This is the bee that you just saw.</p>\n                    <img src=\"bees-with-color/bee-A2SF.svg\" width=\"200\">\n                    <p><span class=\"greenText\"><b>Successful harvest!</b></span><br>Your pay has increased by $0.02. Your bonus pay is now $0.56.</p>\n            ","response":0,"trial_type":"html-button-response","trial_index":30,"time_elapsed":119252,"internal_node_id":"0.0-4.0-1.9","subject_id":"5c3f8bdf342ae0000111a3e1","study_id":"6197b3f67c2b5cd3b6d9596a","session_id":"6197b9f2c682e6f85ae8b463","condition":"contingent","relevant_dimensions":["wings","pattern"],"bee_group":{"antennae":"X","wings":"1","pattern":"D","legs":"X"},"bonus":0.3600000000000013},{"rt":1560,"stimulus":"bees-with-color/bee-B1SF.svg","response":0,"trial_type":"image-button-response","trial_index":31,"time_elapsed":120812,"internal_node_id":"0.0-4.0-0.10","subject_id":"5c3f8bdf342ae0000111a3e1","study_id":"6197b3f67c2b5cd3b6d9596a","session_id":"6197b9f2c682e6f85ae8b463","condition":"contingent","relevant_dimensions":["wings","pattern"],"bee_group":{"antennae":"X","wings":"1","pattern":"D","legs":"X"},"action":"harvest","summary":"good-harvest","bonus":0.3600000000000013},{"rt":788,"stimulus":"\n                    <p><b>Action: <em>harvest</em></b></p>\n                    <p>This is the bee that you just saw.</p>\n                    <img src=\"bees-with-color/bee-B1SF.svg\" width=\"200\">\n                    <p><span class=\"greenText\"><b>Successful harvest!</b></span><br>Your pay has increased by $0.02. Your bonus pay is now $0.58.</p>\n            ","response":0,"trial_type":"html-button-response","trial_index":32,"time_elapsed":121601,"internal_node_id":"0.0-4.0-1.10","subject_id":"5c3f8bdf342ae0000111a3e1","study_id":"6197b3f67c2b5cd3b6d9596a","session_id":"6197b9f2c682e6f85ae8b463","condition":"contingent","relevant_dimensions":["wings","pattern"],"bee_group":{"antennae":"X","wings":"1","pattern":"D","legs":"X"},"bonus":0.3600000000000013},{"rt":1634,"stimulus":"bees-with-color/bee-B1SM.svg","response":0,"trial_type":"image-button-response","trial_index":33,"time_elapsed":123236,"internal_node_id":"0.0-4.0-0.11","subject_id":"5c3f8bdf342ae0000111a3e1","study_id":"6197b3f67c2b5cd3b6d9596a","session_id":"6197b9f2c682e6f85ae8b463","condition":"contingent","relevant_dimensions":["wings","pattern"],"bee_group":{"antennae":"X","wings":"1","pattern":"D","legs":"X"},"action":"harvest","summary":"good-harvest","bonus":0.3600000000000013},{"rt":771,"stimulus":"\n                    <p><b>Action: <em>harvest</em></b></p>\n                    <p>This is the bee that you just saw.</p>\n                    <img src=\"bees-with-color/bee-B1SM.svg\" width=\"200\">\n                    <p><span class=\"greenText\"><b>Successful harvest!</b></span><br>Your pay has increased by $0.02. Your bonus pay is now $0.60.</p>\n            ","response":0,"trial_type":"html-button-response","trial_index":34,"time_elapsed":124007,"internal_node_id":"0.0-4.0-1.11","subject_id":"5c3f8bdf342ae0000111a3e1","study_id":"6197b3f67c2b5cd3b6d9596a","session_id":"6197b9f2c682e6f85ae8b463","condition":"contingent","relevant_dimensions":["wings","pattern"],"bee_group":{"antennae":"X","wings":"1","pattern":"D","legs":"X"},"bonus":0.3600000000000013},{"rt":1313,"stimulus":"bees-with-color/bee-A2DF.svg","response":0,"trial_type":"image-button-response","trial_index":35,"time_elapsed":125321,"internal_node_id":"0.0-4.0-0.12","subject_id":"5c3f8bdf342ae0000111a3e1","study_id":"6197b3f67c2b5cd3b6d9596a","session_id":"6197b9f2c682e6f85ae8b463","condition":"contingent","relevant_dimensions":["wings","pattern"],"bee_group":{"antennae":"X","wings":"1","pattern":"D","legs":"X"},"action":"harvest","summary":"good-harvest","bonus":0.3600000000000013},{"rt":690,"stimulus":"\n                    <p><b>Action: <em>harvest</em></b></p>\n                    <p>This is the bee that you just saw.</p>\n                    <img src=\"bees-with-color/bee-A2DF.svg\" width=\"200\">\n                    <p><span class=\"greenText\"><b>Successful harvest!</b></span><br>Your pay has increased by $0.02. Your bonus pay is now $0.62.</p>\n            ","response":0,"trial_type":"html-button-response","trial_index":36,"time_elapsed":126011,"internal_node_id":"0.0-4.0-1.12","subject_id":"5c3f8bdf342ae0000111a3e1","study_id":"6197b3f67c2b5cd3b6d9596a","session_id":"6197b9f2c682e6f85ae8b463","condition":"contingent","relevant_dimensions":["wings","pattern"],"bee_group":{"antennae":"X","wings":"1","pattern":"D","legs":"X"},"bonus":0.3600000000000013},{"rt":1641,"stimulus":"bees-with-color/bee-B2SM.svg","response":1,"trial_type":"image-button-response","trial_index":37,"time_elapsed":127653,"internal_node_id":"0.0-4.0-0.13","subject_id":"5c3f8bdf342ae0000111a3e1","study_id":"6197b3f67c2b5cd3b6d9596a","session_id":"6197b9f2c682e6f85ae8b463","condition":"contingent","relevant_dimensions":["wings","pattern"],"bee_group":{"antennae":"X","wings":"1","pattern":"D","legs":"X"},"action":"avoid","summary":"bad-avoid","bonus":0.3600000000000013},{"rt":648,"stimulus":"\n                    <p><b>Action: <em>avoid</em></b></p>\n                    <p>This is the bee that you just saw.</p>\n                    <img src=\"bees-with-color/bee-B2SM.svg\" width=\"200\">\n                    <p><br>Your bonus pay is unchanged, and remains at $0.62.</p>\n            ","response":0,"trial_type":"html-button-response","trial_index":38,"time_elapsed":128302,"internal_node_id":"0.0-4.0-1.13","subject_id":"5c3f8bdf342ae0000111a3e1","study_id":"6197b3f67c2b5cd3b6d9596a","session_id":"6197b9f2c682e6f85ae8b463","condition":"contingent","relevant_dimensions":["wings","pattern"],"bee_group":{"antennae":"X","wings":"1","pattern":"D","legs":"X"},"bonus":0.3600000000000013},{"rt":1059,"stimulus":"bees-with-color/bee-A1DF.svg","response":1,"trial_type":"image-button-response","trial_index":39,"time_elapsed":129361,"internal_node_id":"0.0-4.0-0.14","subject_id":"5c3f8bdf342ae0000111a3e1","study_id":"6197b3f67c2b5cd3b6d9596a","session_id":"6197b9f2c682e6f85ae8b463","condition":"contingent","relevant_dimensions":["wings","pattern"],"bee_group":{"antennae":"X","wings":"1","pattern":"D","legs":"X"},"action":"avoid","summary":"good-avoid","bonus":0.3600000000000013},{"rt":616,"stimulus":"\n                    <p><b>Action: <em>avoid</em></b></p>\n                    <p>This is the bee that you just saw.</p>\n                    <img src=\"bees-with-color/bee-A1DF.svg\" width=\"200\">\n                    <p><br>Your bonus pay is unchanged, and remains at $0.62.</p>\n            ","response":0,"trial_type":"html-button-response","trial_index":40,"time_elapsed":129977,"internal_node_id":"0.0-4.0-1.14","subject_id":"5c3f8bdf342ae0000111a3e1","study_id":"6197b3f67c2b5cd3b6d9596a","session_id":"6197b9f2c682e6f85ae8b463","condition":"contingent","relevant_dimensions":["wings","pattern"],"bee_group":{"antennae":"X","wings":"1","pattern":"D","legs":"X"},"bonus":0.3600000000000013},{"rt":869,"stimulus":"bees-with-color/bee-A1SM.svg","response":0,"trial_type":"image-button-response","trial_index":41,"time_elapsed":130847,"internal_node_id":"0.0-4.0-0.15","subject_id":"5c3f8bdf342ae0000111a3e1","study_id":"6197b3f67c2b5cd3b6d9596a","session_id":"6197b9f2c682e6f85ae8b463","condition":"contingent","relevant_dimensions":["wings","pattern"],"bee_group":{"antennae":"X","wings":"1","pattern":"D","legs":"X"},"action":"harvest","summary":"good-harvest","bonus":0.3600000000000013},{"rt":607,"stimulus":"\n                    <p><b>Action: <em>harvest</em></b></p>\n                    <p>This is the bee that you just saw.</p>\n                    <img src=\"bees-with-color/bee-A1SM.svg\" width=\"200\">\n                    <p><span class=\"greenText\"><b>Successful harvest!</b></span><br>Your pay has increased by $0.02. Your bonus pay is now $0.64.</p>\n            ","response":0,"trial_type":"html-button-response","trial_index":42,"time_elapsed":131455,"internal_node_id":"0.0-4.0-1.15","subject_id":"5c3f8bdf342ae0000111a3e1","study_id":"6197b3f67c2b5cd3b6d9596a","session_id":"6197b9f2c682e6f85ae8b463","condition":"contingent","relevant_dimensions":["wings","pattern"],"bee_group":{"antennae":"X","wings":"1","pattern":"D","legs":"X"},"bonus":0.3600000000000013},{"rt":772,"stimulus":"bees-with-color/bee-B2DM.svg","response":0,"trial_type":"image-button-response","trial_index":43,"time_elapsed":132227,"internal_node_id":"0.0-4.0-0.16","subject_id":"5c3f8bdf342ae0000111a3e1","study_id":"6197b3f67c2b5cd3b6d9596a","session_id":"6197b9f2c682e6f85ae8b463","condition":"contingent","relevant_dimensions":["wings","pattern"],"bee_group":{"antennae":"X","wings":"1","pattern":"D","legs":"X"},"action":"harvest","summary":"good-harvest","bonus":0.3600000000000013},{"rt":705,"stimulus":"\n                    <p><b>Action: <em>harvest</em></b></p>\n                    <p>This is the bee that you just saw.</p>\n                    <img src=\"bees-with-color/bee-B2DM.svg\" width=\"200\">\n                    <p><span class=\"greenText\"><b>Successful harvest!</b></span><br>Your pay has increased by $0.02. Your bonus pay is now $0.66.</p>\n            ","response":0,"trial_type":"html-button-response","trial_index":44,"time_elapsed":132934,"internal_node_id":"0.0-4.0-1.16","subject_id":"5c3f8bdf342ae0000111a3e1","study_id":"6197b3f67c2b5cd3b6d9596a","session_id":"6197b9f2c682e6f85ae8b463","condition":"contingent","relevant_dimensions":["wings","pattern"],"bee_group":{"antennae":"X","wings":"1","pattern":"D","legs":"X"},"bonus":0.3600000000000013},{"rt":1050,"stimulus":"bees-with-color/bee-A1DF.svg","response":0,"trial_type":"image-button-response","trial_index":45,"time_elapsed":133984,"internal_node_id":"0.0-4.0-0.17","subject_id":"5c3f8bdf342ae0000111a3e1","study_id":"6197b3f67c2b5cd3b6d9596a","session_id":"6197b9f2c682e6f85ae8b463","condition":"contingent","relevant_dimensions":["wings","pattern"],"bee_group":{"antennae":"X","wings":"1","pattern":"D","legs":"X"},"action":"harvest","summary":"bad-harvest","bonus":0.3600000000000013},{"rt":862,"stimulus":"\n                    <p><b>Action: <em>harvest</em></b></p>\n                    <p>This is the bee that you just saw.</p>\n                    <img src=\"bees-with-color/bee-A1DF.svg\" width=\"200\">\n                    <p><span class=\"redText\">Bad choice, the bee was angry.</span><br><b>You have been stung!</b><br>Your pay has been decreased by $0.10. Your bonus pay is now $0.56.</p>\n            ","response":0,"trial_type":"html-button-response","trial_index":46,"time_elapsed":134847,"internal_node_id":"0.0-4.0-1.17","subject_id":"5c3f8bdf342ae0000111a3e1","study_id":"6197b3f67c2b5cd3b6d9596a","session_id":"6197b9f2c682e6f85ae8b463","condition":"contingent","relevant_dimensions":["wings","pattern"],"bee_group":{"antennae":"X","wings":"1","pattern":"D","legs":"X"},"bonus":0.3600000000000013},{"rt":1994,"stimulus":"bees-with-color/bee-A2SF.svg","response":0,"trial_type":"image-button-response","trial_index":47,"time_elapsed":136842,"internal_node_id":"0.0-4.0-0.18","subject_id":"5c3f8bdf342ae0000111a3e1","study_id":"6197b3f67c2b5cd3b6d9596a","session_id":"6197b9f2c682e6f85ae8b463","condition":"contingent","relevant_dimensions":["wings","pattern"],"bee_group":{"antennae":"X","wings":"1","pattern":"D","legs":"X"},"action":"harvest","summary":"good-harvest","bonus":0.3600000000000013},{"rt":558,"stimulus":"\n                    <p><b>Action: <em>harvest</em></b></p>\n                    <p>This is the bee that you just saw.</p>\n                    <img src=\"bees-with-color/bee-A2SF.svg\" width=\"200\">\n                    <p><span class=\"greenText\"><b>Successful harvest!</b></span><br>Your pay has increased by $0.02. Your bonus pay is now $0.58.</p>\n            ","response":0,"trial_type":"html-button-response","trial_index":48,"time_elapsed":137401,"internal_node_id":"0.0-4.0-1.18","subject_id":"5c3f8bdf342ae0000111a3e1","study_id":"6197b3f67c2b5cd3b6d9596a","session_id":"6197b9f2c682e6f85ae8b463","condition":"contingent","relevant_dimensions":["wings","pattern"],"bee_group":{"antennae":"X","wings":"1","pattern":"D","legs":"X"},"bonus":0.3600000000000013},{"rt":1173,"stimulus":"bees-with-color/bee-A1SM.svg","response":1,"trial_type":"image-button-response","trial_index":49,"time_elapsed":138575,"internal_node_id":"0.0-4.0-0.19","subject_id":"5c3f8bdf342ae0000111a3e1","study_id":"6197b3f67c2b5cd3b6d9596a","session_id":"6197b9f2c682e6f85ae8b463","condition":"contingent","relevant_dimensions":["wings","pattern"],"bee_group":{"antennae":"X","wings":"1","pattern":"D","legs":"X"},"action":"avoid","summary":"bad-avoid","bonus":0.3600000000000013},{"rt":541,"stimulus":"\n                    <p><b>Action: <em>avoid</em></b></p>\n                    <p>This is the bee that you just saw.</p>\n                    <img src=\"bees-with-color/bee-A1SM.svg\" width=\"200\">\n                    <p><br>Your bonus pay is unchanged, and remains at $0.58.</p>\n            ","response":0,"trial_type":"html-button-response","trial_index":50,"time_elapsed":139116,"internal_node_id":"0.0-4.0-1.19","subject_id":"5c3f8bdf342ae0000111a3e1","study_id":"6197b3f67c2b5cd3b6d9596a","session_id":"6197b9f2c682e6f85ae8b463","condition":"contingent","relevant_dimensions":["wings","pattern"],"bee_group":{"antennae":"X","wings":"1","pattern":"D","legs":"X"},"bonus":0.3600000000000013},{"rt":1173,"stimulus":"bees-with-color/bee-A1DM.svg","response":0,"trial_type":"image-button-response","trial_index":51,"time_elapsed":140291,"internal_node_id":"0.0-4.0-0.20","subject_id":"5c3f8bdf342ae0000111a3e1","study_id":"6197b3f67c2b5cd3b6d9596a","session_id":"6197b9f2c682e6f85ae8b463","condition":"contingent","relevant_dimensions":["wings","pattern"],"bee_group":{"antennae":"X","wings":"1","pattern":"D","legs":"X"},"action":"harvest","summary":"bad-harvest","bonus":0.3600000000000013},{"rt":697,"stimulus":"\n                    <p><b>Action: <em>harvest</em></b></p>\n                    <p>This is the bee that you just saw.</p>\n                    <img src=\"bees-with-color/bee-A1DM.svg\" width=\"200\">\n                    <p><span class=\"redText\">Bad choice, the bee was angry.</span><br><b>You have been stung!</b><br>Your pay has been decreased by $0.10. Your bonus pay is now $0.48.</p>\n            ","response":0,"trial_type":"html-button-response","trial_index":52,"time_elapsed":140989,"internal_node_id":"0.0-4.0-1.20","subject_id":"5c3f8bdf342ae0000111a3e1","study_id":"6197b3f67c2b5cd3b6d9596a","session_id":"6197b9f2c682e6f85ae8b463","condition":"contingent","relevant_dimensions":["wings","pattern"],"bee_group":{"antennae":"X","wings":"1","pattern":"D","legs":"X"},"bonus":0.3600000000000013},{"rt":772,"stimulus":"bees-with-color/bee-B2DF.svg","response":0,"trial_type":"image-button-response","trial_index":53,"time_elapsed":141761,"internal_node_id":"0.0-4.0-0.21","subject_id":"5c3f8bdf342ae0000111a3e1","study_id":"6197b3f67c2b5cd3b6d9596a","session_id":"6197b9f2c682e6f85ae8b463","condition":"contingent","relevant_dimensions":["wings","pattern"],"bee_group":{"antennae":"X","wings":"1","pattern":"D","legs":"X"},"action":"harvest","summary":"good-harvest","bonus":0.3600000000000013},{"rt":606,"stimulus":"\n                    <p><b>Action: <em>harvest</em></b></p>\n                    <p>This is the bee that you just saw.</p>\n                    <img src=\"bees-with-color/bee-B2DF.svg\" width=\"200\">\n                    <p><span class=\"greenText\"><b>Successful harvest!</b></span><br>Your pay has increased by $0.02. Your bonus pay is now $0.50.</p>\n            ","response":0,"trial_type":"html-button-response","trial_index":54,"time_elapsed":142369,"internal_node_id":"0.0-4.0-1.21","subject_id":"5c3f8bdf342ae0000111a3e1","study_id":"6197b3f67c2b5cd3b6d9596a","session_id":"6197b9f2c682e6f85ae8b463","condition":"contingent","relevant_dimensions":["wings","pattern"],"bee_group":{"antennae":"X","wings":"1","pattern":"D","legs":"X"},"bonus":0.3600000000000013},{"rt":870,"stimulus":"bees-with-color/bee-B1SM.svg","response":1,"trial_type":"image-button-response","trial_index":55,"time_elapsed":143239,"internal_node_id":"0.0-4.0-0.22","subject_id":"5c3f8bdf342ae0000111a3e1","study_id":"6197b3f67c2b5cd3b6d9596a","session_id":"6197b9f2c682e6f85ae8b463","condition":"contingent","relevant_dimensions":["wings","pattern"],"bee_group":{"antennae":"X","wings":"1","pattern":"D","legs":"X"},"action":"avoid","summary":"bad-avoid","bonus":0.3600000000000013},{"rt":533,"stimulus":"\n                    <p><b>Action: <em>avoid</em></b></p>\n                    <p>This is the bee that you just saw.</p>\n                    <img src=\"bees-with-color/bee-B1SM.svg\" width=\"200\">\n                    <p><br>Your bonus pay is unchanged, and remains at $0.50.</p>\n            ","response":0,"trial_type":"html-button-response","trial_index":56,"time_elapsed":143773,"internal_node_id":"0.0-4.0-1.22","subject_id":"5c3f8bdf342ae0000111a3e1","study_id":"6197b3f67c2b5cd3b6d9596a","session_id":"6197b9f2c682e6f85ae8b463","condition":"contingent","relevant_dimensions":["wings","pattern"],"bee_group":{"antennae":"X","wings":"1","pattern":"D","legs":"X"},"bonus":0.3600000000000013},{"rt":590,"stimulus":"bees-with-color/bee-A2DF.svg","response":0,"trial_type":"image-button-response","trial_index":57,"time_elapsed":144364,"internal_node_id":"0.0-4.0-0.23","subject_id":"5c3f8bdf342ae0000111a3e1","study_id":"6197b3f67c2b5cd3b6d9596a","session_id":"6197b9f2c682e6f85ae8b463","condition":"contingent","relevant_dimensions":["wings","pattern"],"bee_group":{"antennae":"X","wings":"1","pattern":"D","legs":"X"},"action":"harvest","summary":"good-harvest","bonus":0.3600000000000013},{"rt":566,"stimulus":"\n                    <p><b>Action: <em>harvest</em></b></p>\n                    <p>This is the bee that you just saw.</p>\n                    <img src=\"bees-with-color/bee-A2DF.svg\" width=\"200\">\n                    <p><span class=\"greenText\"><b>Successful harvest!</b></span><br>Your pay has increased by $0.02. Your bonus pay is now $0.52.</p>\n            ","response":0,"trial_type":"html-button-response","trial_index":58,"time_elapsed":144931,"internal_node_id":"0.0-4.0-1.23","subject_id":"5c3f8bdf342ae0000111a3e1","study_id":"6197b3f67c2b5cd3b6d9596a","session_id":"6197b9f2c682e6f85ae8b463","condition":"contingent","relevant_dimensions":["wings","pattern"],"bee_group":{"antennae":"X","wings":"1","pattern":"D","legs":"X"},"bonus":0.3600000000000013},{"rt":1092,"stimulus":"bees-with-color/bee-B1SF.svg","response":1,"trial_type":"image-button-response","trial_index":59,"time_elapsed":146024,"internal_node_id":"0.0-4.0-0.24","subject_id":"5c3f8bdf342ae0000111a3e1","study_id":"6197b3f67c2b5cd3b6d9596a","session_id":"6197b9f2c682e6f85ae8b463","condition":"contingent","relevant_dimensions":["wings","pattern"],"bee_group":{"antennae":"X","wings":"1","pattern":"D","legs":"X"},"action":"avoid","summary":"bad-avoid","bonus":0.3600000000000013},{"rt":525,"stimulus":"\n                    <p><b>Action: <em>avoid</em></b></p>\n                    <p>This is the bee that you just saw.</p>\n                    <img src=\"bees-with-color/bee-B1SF.svg\" width=\"200\">\n                    <p><br>Your bonus pay is unchanged, and remains at $0.52.</p>\n            ","response":0,"trial_type":"html-button-response","trial_index":60,"time_elapsed":146549,"internal_node_id":"0.0-4.0-1.24","subject_id":"5c3f8bdf342ae0000111a3e1","study_id":"6197b3f67c2b5cd3b6d9596a","session_id":"6197b9f2c682e6f85ae8b463","condition":"contingent","relevant_dimensions":["wings","pattern"],"bee_group":{"antennae":"X","wings":"1","pattern":"D","legs":"X"},"bonus":0.3600000000000013},{"rt":680,"stimulus":"bees-with-color/bee-B1DM.svg","response":0,"trial_type":"image-button-response","trial_index":61,"time_elapsed":147231,"internal_node_id":"0.0-4.0-0.25","subject_id":"5c3f8bdf342ae0000111a3e1","study_id":"6197b3f67c2b5cd3b6d9596a","session_id":"6197b9f2c682e6f85ae8b463","condition":"contingent","relevant_dimensions":["wings","pattern"],"bee_group":{"antennae":"X","wings":"1","pattern":"D","legs":"X"},"action":"harvest","summary":"bad-harvest","bonus":0.3600000000000013},{"rt":787,"stimulus":"\n                    <p><b>Action: <em>harvest</em></b></p>\n                    <p>This is the bee that you just saw.</p>\n                    <img src=\"bees-with-color/bee-B1DM.svg\" width=\"200\">\n                    <p><span class=\"redText\">Bad choice, the bee was angry.</span><br><b>You have been stung!</b><br>Your pay has been decreased by $0.10. Your bonus pay is now $0.42.</p>\n            ","response":0,"trial_type":"html-button-response","trial_index":62,"time_elapsed":148018,"internal_node_id":"0.0-4.0-1.25","subject_id":"5c3f8bdf342ae0000111a3e1","study_id":"6197b3f67c2b5cd3b6d9596a","session_id":"6197b9f2c682e6f85ae8b463","condition":"contingent","relevant_dimensions":["wings","pattern"],"bee_group":{"antennae":"X","wings":"1","pattern":"D","legs":"X"},"bonus":0.3600000000000013},{"rt":886,"stimulus":"bees-with-color/bee-A1SF.svg","response":0,"trial_type":"image-button-response","trial_index":63,"time_elapsed":148905,"internal_node_id":"0.0-4.0-0.26","subject_id":"5c3f8bdf342ae0000111a3e1","study_id":"6197b3f67c2b5cd3b6d9596a","session_id":"6197b9f2c682e6f85ae8b463","condition":"contingent","relevant_dimensions":["wings","pattern"],"bee_group":{"antennae":"X","wings":"1","pattern":"D","legs":"X"},"action":"harvest","summary":"good-harvest","bonus":0.3600000000000013},{"rt":591,"stimulus":"\n                    <p><b>Action: <em>harvest</em></b></p>\n                    <p>This is the bee that you just saw.</p>\n                    <img src=\"bees-with-color/bee-A1SF.svg\" width=\"200\">\n                    <p><span class=\"greenText\"><b>Successful harvest!</b></span><br>Your pay has increased by $0.02. Your bonus pay is now $0.44.</p>\n            ","response":0,"trial_type":"html-button-response","trial_index":64,"time_elapsed":149497,"internal_node_id":"0.0-4.0-1.26","subject_id":"5c3f8bdf342ae0000111a3e1","study_id":"6197b3f67c2b5cd3b6d9596a","session_id":"6197b9f2c682e6f85ae8b463","condition":"contingent","relevant_dimensions":["wings","pattern"],"bee_group":{"antennae":"X","wings":"1","pattern":"D","legs":"X"},"bonus":0.3600000000000013},{"rt":787,"stimulus":"bees-with-color/bee-B1DF.svg","response":0,"trial_type":"image-button-response","trial_index":65,"time_elapsed":150286,"internal_node_id":"0.0-4.0-0.27","subject_id":"5c3f8bdf342ae0000111a3e1","study_id":"6197b3f67c2b5cd3b6d9596a","session_id":"6197b9f2c682e6f85ae8b463","condition":"contingent","relevant_dimensions":["wings","pattern"],"bee_group":{"antennae":"X","wings":"1","pattern":"D","legs":"X"},"action":"harvest","summary":"bad-harvest","bonus":0.3600000000000013},{"rt":639,"stimulus":"\n                    <p><b>Action: <em>harvest</em></b></p>\n                    <p>This is the bee that you just saw.</p>\n                    <img src=\"bees-with-color/bee-B1DF.svg\" width=\"200\">\n                    <p><span class=\"redText\">Bad choice, the bee was angry.</span><br><b>You have been stung!</b><br>Your pay has been decreased by $0.10. Your bonus pay is now $0.34.</p>\n            ","response":0,"trial_type":"html-button-response","trial_index":66,"time_elapsed":150926,"internal_node_id":"0.0-4.0-1.27","subject_id":"5c3f8bdf342ae0000111a3e1","study_id":"6197b3f67c2b5cd3b6d9596a","session_id":"6197b9f2c682e6f85ae8b463","condition":"contingent","relevant_dimensions":["wings","pattern"],"bee_group":{"antennae":"X","wings":"1","pattern":"D","legs":"X"},"bonus":0.3600000000000013},{"rt":804,"stimulus":"bees-with-color/bee-B2SM.svg","response":0,"trial_type":"image-button-response","trial_index":67,"time_elapsed":151730,"internal_node_id":"0.0-4.0-0.28","subject_id":"5c3f8bdf342ae0000111a3e1","study_id":"6197b3f67c2b5cd3b6d9596a","session_id":"6197b9f2c682e6f85ae8b463","condition":"contingent","relevant_dimensions":["wings","pattern"],"bee_group":{"antennae":"X","wings":"1","pattern":"D","legs":"X"},"action":"harvest","summary":"good-harvest","bonus":0.3600000000000013},{"rt":500,"stimulus":"\n                    <p><b>Action: <em>harvest</em></b></p>\n                    <p>This is the bee that you just saw.</p>\n                    <img src=\"bees-with-color/bee-B2SM.svg\" width=\"200\">\n                    <p><span class=\"greenText\"><b>Successful harvest!</b></span><br>Your pay has increased by $0.02. Your bonus pay is now $0.36.</p>\n            ","response":0,"trial_type":"html-button-response","trial_index":68,"time_elapsed":152231,"internal_node_id":"0.0-4.0-1.28","subject_id":"5c3f8bdf342ae0000111a3e1","study_id":"6197b3f67c2b5cd3b6d9596a","session_id":"6197b9f2c682e6f85ae8b463","condition":"contingent","relevant_dimensions":["wings","pattern"],"bee_group":{"antennae":"X","wings":"1","pattern":"D","legs":"X"},"bonus":0.3600000000000013},{"rt":615,"stimulus":"bees-with-color/bee-A2SM.svg","response":0,"trial_type":"image-button-response","trial_index":69,"time_elapsed":152848,"internal_node_id":"0.0-4.0-0.29","subject_id":"5c3f8bdf342ae0000111a3e1","study_id":"6197b3f67c2b5cd3b6d9596a","session_id":"6197b9f2c682e6f85ae8b463","condition":"contingent","relevant_dimensions":["wings","pattern"],"bee_group":{"antennae":"X","wings":"1","pattern":"D","legs":"X"},"action":"harvest","summary":"good-harvest","bonus":0.3600000000000013},{"rt":598,"stimulus":"\n                    <p><b>Action: <em>harvest</em></b></p>\n                    <p>This is the bee that you just saw.</p>\n                    <img src=\"bees-with-color/bee-A2SM.svg\" width=\"200\">\n                    <p><span class=\"greenText\"><b>Successful harvest!</b></span><br>Your pay has increased by $0.02. Your bonus pay is now $0.38.</p>\n            ","response":0,"trial_type":"html-button-response","trial_index":70,"time_elapsed":153448,"internal_node_id":"0.0-4.0-1.29","subject_id":"5c3f8bdf342ae0000111a3e1","study_id":"6197b3f67c2b5cd3b6d9596a","session_id":"6197b9f2c682e6f85ae8b463","condition":"contingent","relevant_dimensions":["wings","pattern"],"bee_group":{"antennae":"X","wings":"1","pattern":"D","legs":"X"},"bonus":0.3600000000000013},{"rt":1648,"stimulus":"bees-with-color/bee-A2DM.svg","response":0,"trial_type":"image-button-response","trial_index":71,"time_elapsed":155098,"internal_node_id":"0.0-4.0-0.30","subject_id":"5c3f8bdf342ae0000111a3e1","study_id":"6197b3f67c2b5cd3b6d9596a","session_id":"6197b9f2c682e6f85ae8b463","condition":"contingent","relevant_dimensions":["wings","pattern"],"bee_group":{"antennae":"X","wings":"1","pattern":"D","legs":"X"},"action":"harvest","summary":"good-harvest","bonus":0.3600000000000013},{"rt":549,"stimulus":"\n                    <p><b>Action: <em>harvest</em></b></p>\n                    <p>This is the bee that you just saw.</p>\n                    <img src=\"bees-with-color/bee-A2DM.svg\" width=\"200\">\n                    <p><span class=\"greenText\"><b>Successful harvest!</b></span><br>Your pay has increased by $0.02. Your bonus pay is now $0.40.</p>\n            ","response":0,"trial_type":"html-button-response","trial_index":72,"time_elapsed":155648,"internal_node_id":"0.0-4.0-1.30","subject_id":"5c3f8bdf342ae0000111a3e1","study_id":"6197b3f67c2b5cd3b6d9596a","session_id":"6197b9f2c682e6f85ae8b463","condition":"contingent","relevant_dimensions":["wings","pattern"],"bee_group":{"antennae":"X","wings":"1","pattern":"D","legs":"X"},"bonus":0.3600000000000013},{"rt":739,"stimulus":"bees-with-color/bee-B2SF.svg","response":0,"trial_type":"image-button-response","trial_index":73,"time_elapsed":156388,"internal_node_id":"0.0-4.0-0.31","subject_id":"5c3f8bdf342ae0000111a3e1","study_id":"6197b3f67c2b5cd3b6d9596a","session_id":"6197b9f2c682e6f85ae8b463","condition":"contingent","relevant_dimensions":["wings","pattern"],"bee_group":{"antennae":"X","wings":"1","pattern":"D","legs":"X"},"action":"harvest","summary":"good-harvest","bonus":0.3600000000000013},{"rt":598,"stimulus":"\n                    <p><b>Action: <em>harvest</em></b></p>\n                    <p>This is the bee that you just saw.</p>\n                    <img src=\"bees-with-color/bee-B2SF.svg\" width=\"200\">\n                    <p><span class=\"greenText\"><b>Successful harvest!</b></span><br>Your pay has increased by $0.02. Your bonus pay is now $0.42.</p>\n            ","response":0,"trial_type":"html-button-response","trial_index":74,"time_elapsed":156987,"internal_node_id":"0.0-4.0-1.31","subject_id":"5c3f8bdf342ae0000111a3e1","study_id":"6197b3f67c2b5cd3b6d9596a","session_id":"6197b9f2c682e6f85ae8b463","condition":"contingent","relevant_dimensions":["wings","pattern"],"bee_group":{"antennae":"X","wings":"1","pattern":"D","legs":"X"},"bonus":0.3600000000000013},{"rt":796,"stimulus":"bees-with-color/bee-A1DF.svg","response":1,"trial_type":"image-button-response","trial_index":75,"time_elapsed":157783,"internal_node_id":"0.0-4.0-0.32","subject_id":"5c3f8bdf342ae0000111a3e1","study_id":"6197b3f67c2b5cd3b6d9596a","session_id":"6197b9f2c682e6f85ae8b463","condition":"contingent","relevant_dimensions":["wings","pattern"],"bee_group":{"antennae":"X","wings":"1","pattern":"D","legs":"X"},"action":"avoid","summary":"good-avoid","bonus":0.3600000000000013},{"rt":500,"stimulus":"\n                    <p><b>Action: <em>avoid</em></b></p>\n                    <p>This is the bee that you just saw.</p>\n                    <img src=\"bees-with-color/bee-A1DF.svg\" width=\"200\">\n                    <p><br>Your bonus pay is unchanged, and remains at $0.42.</p>\n            ","response":0,"trial_type":"html-button-response","trial_index":76,"time_elapsed":158284,"internal_node_id":"0.0-4.0-1.32","subject_id":"5c3f8bdf342ae0000111a3e1","study_id":"6197b3f67c2b5cd3b6d9596a","session_id":"6197b9f2c682e6f85ae8b463","condition":"contingent","relevant_dimensions":["wings","pattern"],"bee_group":{"antennae":"X","wings":"1","pattern":"D","legs":"X"},"bonus":0.3600000000000013},{"rt":918,"stimulus":"bees-with-color/bee-B2DF.svg","response":0,"trial_type":"image-button-response","trial_index":77,"time_elapsed":159204,"internal_node_id":"0.0-4.0-0.33","subject_id":"5c3f8bdf342ae0000111a3e1","study_id":"6197b3f67c2b5cd3b6d9596a","session_id":"6197b9f2c682e6f85ae8b463","condition":"contingent","relevant_dimensions":["wings","pattern"],"bee_group":{"antennae":"X","wings":"1","pattern":"D","legs":"X"},"action":"harvest","summary":"good-harvest","bonus":0.3600000000000013},{"rt":598,"stimulus":"\n                    <p><b>Action: <em>harvest</em></b></p>\n                    <p>This is the bee that you just saw.</p>\n                    <img src=\"bees-with-color/bee-B2DF.svg\" width=\"200\">\n                    <p><span class=\"greenText\"><b>Successful harvest!</b></span><br>Your pay has increased by $0.02. Your bonus pay is now $0.44.</p>\n            ","response":0,"trial_type":"html-button-response","trial_index":78,"time_elapsed":159803,"internal_node_id":"0.0-4.0-1.33","subject_id":"5c3f8bdf342ae0000111a3e1","study_id":"6197b3f67c2b5cd3b6d9596a","session_id":"6197b9f2c682e6f85ae8b463","condition":"contingent","relevant_dimensions":["wings","pattern"],"bee_group":{"antennae":"X","wings":"1","pattern":"D","legs":"X"},"bonus":0.3600000000000013},{"rt":829,"stimulus":"bees-with-color/bee-A2DF.svg","response":0,"trial_type":"image-button-response","trial_index":79,"time_elapsed":160633,"internal_node_id":"0.0-4.0-0.34","subject_id":"5c3f8bdf342ae0000111a3e1","study_id":"6197b3f67c2b5cd3b6d9596a","session_id":"6197b9f2c682e6f85ae8b463","condition":"contingent","relevant_dimensions":["wings","pattern"],"bee_group":{"antennae":"X","wings":"1","pattern":"D","legs":"X"},"action":"harvest","summary":"good-harvest","bonus":0.3600000000000013},{"rt":524,"stimulus":"\n                    <p><b>Action: <em>harvest</em></b></p>\n                    <p>This is the bee that you just saw.</p>\n                    <img src=\"bees-with-color/bee-A2DF.svg\" width=\"200\">\n                    <p><span class=\"greenText\"><b>Successful harvest!</b></span><br>Your pay has increased by $0.02. Your bonus pay is now $0.46.</p>\n            ","response":0,"trial_type":"html-button-response","trial_index":80,"time_elapsed":161158,"internal_node_id":"0.0-4.0-1.34","subject_id":"5c3f8bdf342ae0000111a3e1","study_id":"6197b3f67c2b5cd3b6d9596a","session_id":"6197b9f2c682e6f85ae8b463","condition":"contingent","relevant_dimensions":["wings","pattern"],"bee_group":{"antennae":"X","wings":"1","pattern":"D","legs":"X"},"bonus":0.3600000000000013},{"rt":986,"stimulus":"bees-with-color/bee-A1SM.svg","response":1,"trial_type":"image-button-response","trial_index":81,"time_elapsed":162146,"internal_node_id":"0.0-4.0-0.35","subject_id":"5c3f8bdf342ae0000111a3e1","study_id":"6197b3f67c2b5cd3b6d9596a","session_id":"6197b9f2c682e6f85ae8b463","condition":"contingent","relevant_dimensions":["wings","pattern"],"bee_group":{"antennae":"X","wings":"1","pattern":"D","legs":"X"},"action":"avoid","summary":"bad-avoid","bonus":0.3600000000000013},{"rt":547,"stimulus":"\n                    <p><b>Action: <em>avoid</em></b></p>\n                    <p>This is the bee that you just saw.</p>\n                    <img src=\"bees-with-color/bee-A1SM.svg\" width=\"200\">\n                    <p><br>Your bonus pay is unchanged, and remains at $0.46.</p>\n            ","response":0,"trial_type":"html-button-response","trial_index":82,"time_elapsed":162694,"internal_node_id":"0.0-4.0-1.35","subject_id":"5c3f8bdf342ae0000111a3e1","study_id":"6197b3f67c2b5cd3b6d9596a","session_id":"6197b9f2c682e6f85ae8b463","condition":"contingent","relevant_dimensions":["wings","pattern"],"bee_group":{"antennae":"X","wings":"1","pattern":"D","legs":"X"},"bonus":0.3600000000000013},{"rt":786,"stimulus":"bees-with-color/bee-B2SF.svg","response":0,"trial_type":"image-button-response","trial_index":83,"time_elapsed":163483,"internal_node_id":"0.0-4.0-0.36","subject_id":"5c3f8bdf342ae0000111a3e1","study_id":"6197b3f67c2b5cd3b6d9596a","session_id":"6197b9f2c682e6f85ae8b463","condition":"contingent","relevant_dimensions":["wings","pattern"],"bee_group":{"antennae":"X","wings":"1","pattern":"D","legs":"X"},"action":"harvest","summary":"good-harvest","bonus":0.3600000000000013},{"rt":640,"stimulus":"\n                    <p><b>Action: <em>harvest</em></b></p>\n                    <p>This is the bee that you just saw.</p>\n                    <img src=\"bees-with-color/bee-B2SF.svg\" width=\"200\">\n                    <p><span class=\"greenText\"><b>Successful harvest!</b></span><br>Your pay has increased by $0.02. Your bonus pay is now $0.48.</p>\n            ","response":0,"trial_type":"html-button-response","trial_index":84,"time_elapsed":164123,"internal_node_id":"0.0-4.0-1.36","subject_id":"5c3f8bdf342ae0000111a3e1","study_id":"6197b3f67c2b5cd3b6d9596a","session_id":"6197b9f2c682e6f85ae8b463","condition":"contingent","relevant_dimensions":["wings","pattern"],"bee_group":{"antennae":"X","wings":"1","pattern":"D","legs":"X"},"bonus":0.3600000000000013},{"rt":877,"stimulus":"bees-with-color/bee-A2SM.svg","response":0,"trial_type":"image-button-response","trial_index":85,"time_elapsed":165002,"internal_node_id":"0.0-4.0-0.37","subject_id":"5c3f8bdf342ae0000111a3e1","study_id":"6197b3f67c2b5cd3b6d9596a","session_id":"6197b9f2c682e6f85ae8b463","condition":"contingent","relevant_dimensions":["wings","pattern"],"bee_group":{"antennae":"X","wings":"1","pattern":"D","legs":"X"},"action":"harvest","summary":"good-harvest","bonus":0.3600000000000013},{"rt":550,"stimulus":"\n                    <p><b>Action: <em>harvest</em></b></p>\n                    <p>This is the bee that you just saw.</p>\n                    <img src=\"bees-with-color/bee-A2SM.svg\" width=\"200\">\n                    <p><span class=\"greenText\"><b>Successful harvest!</b></span><br>Your pay has increased by $0.02. Your bonus pay is now $0.50.</p>\n            ","response":0,"trial_type":"html-button-response","trial_index":86,"time_elapsed":165552,"internal_node_id":"0.0-4.0-1.37","subject_id":"5c3f8bdf342ae0000111a3e1","study_id":"6197b3f67c2b5cd3b6d9596a","session_id":"6197b9f2c682e6f85ae8b463","condition":"contingent","relevant_dimensions":["wings","pattern"],"bee_group":{"antennae":"X","wings":"1","pattern":"D","legs":"X"},"bonus":0.3600000000000013},{"rt":845,"stimulus":"bees-with-color/bee-B1SF.svg","response":1,"trial_type":"image-button-response","trial_index":87,"time_elapsed":166398,"internal_node_id":"0.0-4.0-0.38","subject_id":"5c3f8bdf342ae0000111a3e1","study_id":"6197b3f67c2b5cd3b6d9596a","session_id":"6197b9f2c682e6f85ae8b463","condition":"contingent","relevant_dimensions":["wings","pattern"],"bee_group":{"antennae":"X","wings":"1","pattern":"D","legs":"X"},"action":"avoid","summary":"bad-avoid","bonus":0.3600000000000013},{"rt":672,"stimulus":"\n                    <p><b>Action: <em>avoid</em></b></p>\n                    <p>This is the bee that you just saw.</p>\n                    <img src=\"bees-with-color/bee-B1SF.svg\" width=\"200\">\n                    <p><br>Your bonus pay is unchanged, and remains at $0.50.</p>\n            ","response":0,"trial_type":"html-button-response","trial_index":88,"time_elapsed":167072,"internal_node_id":"0.0-4.0-1.38","subject_id":"5c3f8bdf342ae0000111a3e1","study_id":"6197b3f67c2b5cd3b6d9596a","session_id":"6197b9f2c682e6f85ae8b463","condition":"contingent","relevant_dimensions":["wings","pattern"],"bee_group":{"antennae":"X","wings":"1","pattern":"D","legs":"X"},"bonus":0.3600000000000013},{"rt":754,"stimulus":"bees-with-color/bee-B1DF.svg","response":1,"trial_type":"image-button-response","trial_index":89,"time_elapsed":167827,"internal_node_id":"0.0-4.0-0.39","subject_id":"5c3f8bdf342ae0000111a3e1","study_id":"6197b3f67c2b5cd3b6d9596a","session_id":"6197b9f2c682e6f85ae8b463","condition":"contingent","relevant_dimensions":["wings","pattern"],"bee_group":{"antennae":"X","wings":"1","pattern":"D","legs":"X"},"action":"avoid","summary":"good-avoid","bonus":0.3600000000000013},{"rt":483,"stimulus":"\n                    <p><b>Action: <em>avoid</em></b></p>\n                    <p>This is the bee that you just saw.</p>\n                    <img src=\"bees-with-color/bee-B1DF.svg\" width=\"200\">\n                    <p><br>Your bonus pay is unchanged, and remains at $0.50.</p>\n            ","response":0,"trial_type":"html-button-response","trial_index":90,"time_elapsed":168312,"internal_node_id":"0.0-4.0-1.39","subject_id":"5c3f8bdf342ae0000111a3e1","study_id":"6197b3f67c2b5cd3b6d9596a","session_id":"6197b9f2c682e6f85ae8b463","condition":"contingent","relevant_dimensions":["wings","pattern"],"bee_group":{"antennae":"X","wings":"1","pattern":"D","legs":"X"},"bonus":0.3600000000000013},{"rt":681,"stimulus":"bees-with-color/bee-A2SF.svg","response":0,"trial_type":"image-button-response","trial_index":91,"time_elapsed":168993,"internal_node_id":"0.0-4.0-0.40","subject_id":"5c3f8bdf342ae0000111a3e1","study_id":"6197b3f67c2b5cd3b6d9596a","session_id":"6197b9f2c682e6f85ae8b463","condition":"contingent","relevant_dimensions":["wings","pattern"],"bee_group":{"antennae":"X","wings":"1","pattern":"D","legs":"X"},"action":"harvest","summary":"good-harvest","bonus":0.3600000000000013},{"rt":484,"stimulus":"\n                    <p><b>Action: <em>harvest</em></b></p>\n                    <p>This is the bee that you just saw.</p>\n                    <img src=\"bees-with-color/bee-A2SF.svg\" width=\"200\">\n                    <p><span class=\"greenText\"><b>Successful harvest!</b></span><br>Your pay has increased by $0.02. Your bonus pay is now $0.52.</p>\n            ","response":0,"trial_type":"html-button-response","trial_index":92,"time_elapsed":169478,"internal_node_id":"0.0-4.0-1.40","subject_id":"5c3f8bdf342ae0000111a3e1","study_id":"6197b3f67c2b5cd3b6d9596a","session_id":"6197b9f2c682e6f85ae8b463","condition":"contingent","relevant_dimensions":["wings","pattern"],"bee_group":{"antennae":"X","wings":"1","pattern":"D","legs":"X"},"bonus":0.3600000000000013},{"rt":630,"stimulus":"bees-with-color/bee-A1SF.svg","response":0,"trial_type":"image-button-response","trial_index":93,"time_elapsed":170109,"internal_node_id":"0.0-4.0-0.41","subject_id":"5c3f8bdf342ae0000111a3e1","study_id":"6197b3f67c2b5cd3b6d9596a","session_id":"6197b9f2c682e6f85ae8b463","condition":"contingent","relevant_dimensions":["wings","pattern"],"bee_group":{"antennae":"X","wings":"1","pattern":"D","legs":"X"},"action":"harvest","summary":"good-harvest","bonus":0.3600000000000013},{"rt":575,"stimulus":"\n                    <p><b>Action: <em>harvest</em></b></p>\n                    <p>This is the bee that you just saw.</p>\n                    <img src=\"bees-with-color/bee-A1SF.svg\" width=\"200\">\n                    <p><span class=\"greenText\"><b>Successful harvest!</b></span><br>Your pay has increased by $0.02. Your bonus pay is now $0.54.</p>\n            ","response":0,"trial_type":"html-button-response","trial_index":94,"time_elapsed":170684,"internal_node_id":"0.0-4.0-1.41","subject_id":"5c3f8bdf342ae0000111a3e1","study_id":"6197b3f67c2b5cd3b6d9596a","session_id":"6197b9f2c682e6f85ae8b463","condition":"contingent","relevant_dimensions":["wings","pattern"],"bee_group":{"antennae":"X","wings":"1","pattern":"D","legs":"X"},"bonus":0.3600000000000013},{"rt":763,"stimulus":"bees-with-color/bee-B2DM.svg","response":0,"trial_type":"image-button-response","trial_index":95,"time_elapsed":171448,"internal_node_id":"0.0-4.0-0.42","subject_id":"5c3f8bdf342ae0000111a3e1","study_id":"6197b3f67c2b5cd3b6d9596a","session_id":"6197b9f2c682e6f85ae8b463","condition":"contingent","relevant_dimensions":["wings","pattern"],"bee_group":{"antennae":"X","wings":"1","pattern":"D","legs":"X"},"action":"harvest","summary":"good-harvest","bonus":0.3600000000000013},{"rt":631,"stimulus":"\n                    <p><b>Action: <em>harvest</em></b></p>\n                    <p>This is the bee that you just saw.</p>\n                    <img src=\"bees-with-color/bee-B2DM.svg\" width=\"200\">\n                    <p><span class=\"greenText\"><b>Successful harvest!</b></span><br>Your pay has increased by $0.02. Your bonus pay is now $0.56.</p>\n            ","response":0,"trial_type":"html-button-response","trial_index":96,"time_elapsed":172080,"internal_node_id":"0.0-4.0-1.42","subject_id":"5c3f8bdf342ae0000111a3e1","study_id":"6197b3f67c2b5cd3b6d9596a","session_id":"6197b9f2c682e6f85ae8b463","condition":"contingent","relevant_dimensions":["wings","pattern"],"bee_group":{"antennae":"X","wings":"1","pattern":"D","legs":"X"},"bonus":0.3600000000000013},{"rt":877,"stimulus":"bees-with-color/bee-A1DM.svg","response":1,"trial_type":"image-button-response","trial_index":97,"time_elapsed":172959,"internal_node_id":"0.0-4.0-0.43","subject_id":"5c3f8bdf342ae0000111a3e1","study_id":"6197b3f67c2b5cd3b6d9596a","session_id":"6197b9f2c682e6f85ae8b463","condition":"contingent","relevant_dimensions":["wings","pattern"],"bee_group":{"antennae":"X","wings":"1","pattern":"D","legs":"X"},"action":"avoid","summary":"good-avoid","bonus":0.3600000000000013},{"rt":525,"stimulus":"\n                    <p><b>Action: <em>avoid</em></b></p>\n                    <p>This is the bee that you just saw.</p>\n                    <img src=\"bees-with-color/bee-A1DM.svg\" width=\"200\">\n                    <p><br>Your bonus pay is unchanged, and remains at $0.56.</p>\n            ","response":0,"trial_type":"html-button-response","trial_index":98,"time_elapsed":173484,"internal_node_id":"0.0-4.0-1.43","subject_id":"5c3f8bdf342ae0000111a3e1","study_id":"6197b3f67c2b5cd3b6d9596a","session_id":"6197b9f2c682e6f85ae8b463","condition":"contingent","relevant_dimensions":["wings","pattern"],"bee_group":{"antennae":"X","wings":"1","pattern":"D","legs":"X"},"bonus":0.3600000000000013},{"rt":731,"stimulus":"bees-with-color/bee-B2SM.svg","response":0,"trial_type":"image-button-response","trial_index":99,"time_elapsed":174215,"internal_node_id":"0.0-4.0-0.44","subject_id":"5c3f8bdf342ae0000111a3e1","study_id":"6197b3f67c2b5cd3b6d9596a","session_id":"6197b9f2c682e6f85ae8b463","condition":"contingent","relevant_dimensions":["wings","pattern"],"bee_group":{"antennae":"X","wings":"1","pattern":"D","legs":"X"},"action":"harvest","summary":"good-harvest","bonus":0.3600000000000013},{"rt":475,"stimulus":"\n                    <p><b>Action: <em>harvest</em></b></p>\n                    <p>This is the bee that you just saw.</p>\n                    <img src=\"bees-with-color/bee-B2SM.svg\" width=\"200\">\n                    <p><span class=\"greenText\"><b>Successful harvest!</b></span><br>Your pay has increased by $0.02. Your bonus pay is now $0.58.</p>\n            ","response":0,"trial_type":"html-button-response","trial_index":100,"time_elapsed":174692,"internal_node_id":"0.0-4.0-1.44","subject_id":"5c3f8bdf342ae0000111a3e1","study_id":"6197b3f67c2b5cd3b6d9596a","session_id":"6197b9f2c682e6f85ae8b463","condition":"contingent","relevant_dimensions":["wings","pattern"],"bee_group":{"antennae":"X","wings":"1","pattern":"D","legs":"X"},"bonus":0.3600000000000013},{"rt":1059,"stimulus":"bees-with-color/bee-A2DM.svg","response":0,"trial_type":"image-button-response","trial_index":101,"time_elapsed":175751,"internal_node_id":"0.0-4.0-0.45","subject_id":"5c3f8bdf342ae0000111a3e1","study_id":"6197b3f67c2b5cd3b6d9596a","session_id":"6197b9f2c682e6f85ae8b463","condition":"contingent","relevant_dimensions":["wings","pattern"],"bee_group":{"antennae":"X","wings":"1","pattern":"D","legs":"X"},"action":"harvest","summary":"good-harvest","bonus":0.3600000000000013},{"rt":680,"stimulus":"\n                    <p><b>Action: <em>harvest</em></b></p>\n                    <p>This is the bee that you just saw.</p>\n                    <img src=\"bees-with-color/bee-A2DM.svg\" width=\"200\">\n                    <p><span class=\"greenText\"><b>Successful harvest!</b></span><br>Your pay has increased by $0.02. Your bonus pay is now $0.60.</p>\n            ","response":0,"trial_type":"html-button-response","trial_index":102,"time_elapsed":176433,"internal_node_id":"0.0-4.0-1.45","subject_id":"5c3f8bdf342ae0000111a3e1","study_id":"6197b3f67c2b5cd3b6d9596a","session_id":"6197b9f2c682e6f85ae8b463","condition":"contingent","relevant_dimensions":["wings","pattern"],"bee_group":{"antennae":"X","wings":"1","pattern":"D","legs":"X"},"bonus":0.3600000000000013},{"rt":852,"stimulus":"bees-with-color/bee-B1SM.svg","response":1,"trial_type":"image-button-response","trial_index":103,"time_elapsed":177287,"internal_node_id":"0.0-4.0-0.46","subject_id":"5c3f8bdf342ae0000111a3e1","study_id":"6197b3f67c2b5cd3b6d9596a","session_id":"6197b9f2c682e6f85ae8b463","condition":"contingent","relevant_dimensions":["wings","pattern"],"bee_group":{"antennae":"X","wings":"1","pattern":"D","legs":"X"},"action":"avoid","summary":"bad-avoid","bonus":0.3600000000000013},{"rt":541,"stimulus":"\n                    <p><b>Action: <em>avoid</em></b></p>\n                    <p>This is the bee that you just saw.</p>\n                    <img src=\"bees-with-color/bee-B1SM.svg\" width=\"200\">\n                    <p><br>Your bonus pay is unchanged, and remains at $0.60.</p>\n            ","response":0,"trial_type":"html-button-response","trial_index":104,"time_elapsed":177829,"internal_node_id":"0.0-4.0-1.46","subject_id":"5c3f8bdf342ae0000111a3e1","study_id":"6197b3f67c2b5cd3b6d9596a","session_id":"6197b9f2c682e6f85ae8b463","condition":"contingent","relevant_dimensions":["wings","pattern"],"bee_group":{"antennae":"X","wings":"1","pattern":"D","legs":"X"},"bonus":0.3600000000000013},{"rt":714,"stimulus":"bees-with-color/bee-B1DM.svg","response":0,"trial_type":"image-button-response","trial_index":105,"time_elapsed":178543,"internal_node_id":"0.0-4.0-0.47","subject_id":"5c3f8bdf342ae0000111a3e1","study_id":"6197b3f67c2b5cd3b6d9596a","session_id":"6197b9f2c682e6f85ae8b463","condition":"contingent","relevant_dimensions":["wings","pattern"],"bee_group":{"antennae":"X","wings":"1","pattern":"D","legs":"X"},"action":"harvest","summary":"bad-harvest","bonus":0.3600000000000013},{"rt":1682,"stimulus":"\n                    <p><b>Action: <em>harvest</em></b></p>\n                    <p>This is the bee that you just saw.</p>\n                    <img src=\"bees-with-color/bee-B1DM.svg\" width=\"200\">\n                    <p><span class=\"redText\">Bad choice, the bee was angry.</span><br><b>You have been stung!</b><br>Your pay has been decreased by $0.10. Your bonus pay is now $0.50.</p>\n            ","response":0,"trial_type":"html-button-response","trial_index":106,"time_elapsed":180226,"internal_node_id":"0.0-4.0-1.47","subject_id":"5c3f8bdf342ae0000111a3e1","study_id":"6197b3f67c2b5cd3b6d9596a","session_id":"6197b9f2c682e6f85ae8b463","condition":"contingent","relevant_dimensions":["wings","pattern"],"bee_group":{"antennae":"X","wings":"1","pattern":"D","legs":"X"},"bonus":0.3600000000000013},{"rt":730,"stimulus":"bees-with-color/bee-A1SF.svg","response":0,"trial_type":"image-button-response","trial_index":107,"time_elapsed":180958,"internal_node_id":"0.0-4.0-0.48","subject_id":"5c3f8bdf342ae0000111a3e1","study_id":"6197b3f67c2b5cd3b6d9596a","session_id":"6197b9f2c682e6f85ae8b463","condition":"contingent","relevant_dimensions":["wings","pattern"],"bee_group":{"antennae":"X","wings":"1","pattern":"D","legs":"X"},"action":"harvest","summary":"good-harvest","bonus":0.3600000000000013},{"rt":1371,"stimulus":"\n                    <p><b>Action: <em>harvest</em></b></p>\n                    <p>This is the bee that you just saw.</p>\n                    <img src=\"bees-with-color/bee-A1SF.svg\" width=\"200\">\n                    <p><span class=\"greenText\"><b>Successful harvest!</b></span><br>Your pay has increased by $0.02. Your bonus pay is now $0.52.</p>\n            ","response":0,"trial_type":"html-button-response","trial_index":108,"time_elapsed":182329,"internal_node_id":"0.0-4.0-1.48","subject_id":"5c3f8bdf342ae0000111a3e1","study_id":"6197b3f67c2b5cd3b6d9596a","session_id":"6197b9f2c682e6f85ae8b463","condition":"contingent","relevant_dimensions":["wings","pattern"],"bee_group":{"antennae":"X","wings":"1","pattern":"D","legs":"X"},"bonus":0.3600000000000013},{"rt":1042,"stimulus":"bees-with-color/bee-B1SM.svg","response":0,"trial_type":"image-button-response","trial_index":109,"time_elapsed":183371,"internal_node_id":"0.0-4.0-0.49","subject_id":"5c3f8bdf342ae0000111a3e1","study_id":"6197b3f67c2b5cd3b6d9596a","session_id":"6197b9f2c682e6f85ae8b463","condition":"contingent","relevant_dimensions":["wings","pattern"],"bee_group":{"antennae":"X","wings":"1","pattern":"D","legs":"X"},"action":"harvest","summary":"good-harvest","bonus":0.3600000000000013},{"rt":780,"stimulus":"\n                    <p><b>Action: <em>harvest</em></b></p>\n                    <p>This is the bee that you just saw.</p>\n                    <img src=\"bees-with-color/bee-B1SM.svg\" width=\"200\">\n                    <p><span class=\"greenText\"><b>Successful harvest!</b></span><br>Your pay has increased by $0.02. Your bonus pay is now $0.54.</p>\n            ","response":0,"trial_type":"html-button-response","trial_index":110,"time_elapsed":184152,"internal_node_id":"0.0-4.0-1.49","subject_id":"5c3f8bdf342ae0000111a3e1","study_id":"6197b3f67c2b5cd3b6d9596a","session_id":"6197b9f2c682e6f85ae8b463","condition":"contingent","relevant_dimensions":["wings","pattern"],"bee_group":{"antennae":"X","wings":"1","pattern":"D","legs":"X"},"bonus":0.3600000000000013},{"rt":771,"stimulus":"bees-with-color/bee-A2DM.svg","response":0,"trial_type":"image-button-response","trial_index":111,"time_elapsed":184924,"internal_node_id":"0.0-4.0-0.50","subject_id":"5c3f8bdf342ae0000111a3e1","study_id":"6197b3f67c2b5cd3b6d9596a","session_id":"6197b9f2c682e6f85ae8b463","condition":"contingent","relevant_dimensions":["wings","pattern"],"bee_group":{"antennae":"X","wings":"1","pattern":"D","legs":"X"},"action":"harvest","summary":"good-harvest","bonus":0.3600000000000013},{"rt":705,"stimulus":"\n                    <p><b>Action: <em>harvest</em></b></p>\n                    <p>This is the bee that you just saw.</p>\n                    <img src=\"bees-with-color/bee-A2DM.svg\" width=\"200\">\n                    <p><span class=\"greenText\"><b>Successful harvest!</b></span><br>Your pay has increased by $0.02. Your bonus pay is now $0.56.</p>\n            ","response":0,"trial_type":"html-button-response","trial_index":112,"time_elapsed":185631,"internal_node_id":"0.0-4.0-1.50","subject_id":"5c3f8bdf342ae0000111a3e1","study_id":"6197b3f67c2b5cd3b6d9596a","session_id":"6197b9f2c682e6f85ae8b463","condition":"contingent","relevant_dimensions":["wings","pattern"],"bee_group":{"antennae":"X","wings":"1","pattern":"D","legs":"X"},"bonus":0.3600000000000013},{"rt":664,"stimulus":"bees-with-color/bee-B2DM.svg","response":0,"trial_type":"image-button-response","trial_index":113,"time_elapsed":186296,"internal_node_id":"0.0-4.0-0.51","subject_id":"5c3f8bdf342ae0000111a3e1","study_id":"6197b3f67c2b5cd3b6d9596a","session_id":"6197b9f2c682e6f85ae8b463","condition":"contingent","relevant_dimensions":["wings","pattern"],"bee_group":{"antennae":"X","wings":"1","pattern":"D","legs":"X"},"action":"harvest","summary":"good-harvest","bonus":0.3600000000000013},{"rt":885,"stimulus":"\n                    <p><b>Action: <em>harvest</em></b></p>\n                    <p>This is the bee that you just saw.</p>\n                    <img src=\"bees-with-color/bee-B2DM.svg\" width=\"200\">\n                    <p><span class=\"greenText\"><b>Successful harvest!</b></span><br>Your pay has increased by $0.02. Your bonus pay is now $0.58.</p>\n            ","response":0,"trial_type":"html-button-response","trial_index":114,"time_elapsed":187182,"internal_node_id":"0.0-4.0-1.51","subject_id":"5c3f8bdf342ae0000111a3e1","study_id":"6197b3f67c2b5cd3b6d9596a","session_id":"6197b9f2c682e6f85ae8b463","condition":"contingent","relevant_dimensions":["wings","pattern"],"bee_group":{"antennae":"X","wings":"1","pattern":"D","legs":"X"},"bonus":0.3600000000000013},{"rt":1042,"stimulus":"bees-with-color/bee-A1DF.svg","response":1,"trial_type":"image-button-response","trial_index":115,"time_elapsed":188225,"internal_node_id":"0.0-4.0-0.52","subject_id":"5c3f8bdf342ae0000111a3e1","study_id":"6197b3f67c2b5cd3b6d9596a","session_id":"6197b9f2c682e6f85ae8b463","condition":"contingent","relevant_dimensions":["wings","pattern"],"bee_group":{"antennae":"X","wings":"1","pattern":"D","legs":"X"},"action":"avoid","summary":"good-avoid","bonus":0.3600000000000013},{"rt":565,"stimulus":"\n                    <p><b>Action: <em>avoid</em></b></p>\n                    <p>This is the bee that you just saw.</p>\n                    <img src=\"bees-with-color/bee-A1DF.svg\" width=\"200\">\n                    <p><br>Your bonus pay is unchanged, and remains at $0.58.</p>\n            ","response":0,"trial_type":"html-button-response","trial_index":116,"time_elapsed":188792,"internal_node_id":"0.0-4.0-1.52","subject_id":"5c3f8bdf342ae0000111a3e1","study_id":"6197b3f67c2b5cd3b6d9596a","session_id":"6197b9f2c682e6f85ae8b463","condition":"contingent","relevant_dimensions":["wings","pattern"],"bee_group":{"antennae":"X","wings":"1","pattern":"D","legs":"X"},"bonus":0.3600000000000013},{"rt":1709,"stimulus":"bees-with-color/bee-B1SF.svg","response":0,"trial_type":"image-button-response","trial_index":117,"time_elapsed":190500,"internal_node_id":"0.0-4.0-0.53","subject_id":"5c3f8bdf342ae0000111a3e1","study_id":"6197b3f67c2b5cd3b6d9596a","session_id":"6197b9f2c682e6f85ae8b463","condition":"contingent","relevant_dimensions":["wings","pattern"],"bee_group":{"antennae":"X","wings":"1","pattern":"D","legs":"X"},"action":"harvest","summary":"good-harvest","bonus":0.3600000000000013},{"rt":590,"stimulus":"\n                    <p><b>Action: <em>harvest</em></b></p>\n                    <p>This is the bee that you just saw.</p>\n                    <img src=\"bees-with-color/bee-B1SF.svg\" width=\"200\">\n                    <p><span class=\"greenText\"><b>Successful harvest!</b></span><br>Your pay has increased by $0.02. Your bonus pay is now $0.60.</p>\n            ","response":0,"trial_type":"html-button-response","trial_index":118,"time_elapsed":191091,"internal_node_id":"0.0-4.0-1.53","subject_id":"5c3f8bdf342ae0000111a3e1","study_id":"6197b3f67c2b5cd3b6d9596a","session_id":"6197b9f2c682e6f85ae8b463","condition":"contingent","relevant_dimensions":["wings","pattern"],"bee_group":{"antennae":"X","wings":"1","pattern":"D","legs":"X"},"bonus":0.3600000000000013},{"rt":902,"stimulus":"bees-with-color/bee-B1DM.svg","response":1,"trial_type":"image-button-response","trial_index":119,"time_elapsed":191994,"internal_node_id":"0.0-4.0-0.54","subject_id":"5c3f8bdf342ae0000111a3e1","study_id":"6197b3f67c2b5cd3b6d9596a","session_id":"6197b9f2c682e6f85ae8b463","condition":"contingent","relevant_dimensions":["wings","pattern"],"bee_group":{"antennae":"X","wings":"1","pattern":"D","legs":"X"},"action":"avoid","summary":"good-avoid","bonus":0.3600000000000013},{"rt":566,"stimulus":"\n                    <p><b>Action: <em>avoid</em></b></p>\n                    <p>This is the bee that you just saw.</p>\n                    <img src=\"bees-with-color/bee-B1DM.svg\" width=\"200\">\n                    <p><br>Your bonus pay is unchanged, and remains at $0.60.</p>\n            ","response":0,"trial_type":"html-button-response","trial_index":120,"time_elapsed":192562,"internal_node_id":"0.0-4.0-1.54","subject_id":"5c3f8bdf342ae0000111a3e1","study_id":"6197b3f67c2b5cd3b6d9596a","session_id":"6197b9f2c682e6f85ae8b463","condition":"contingent","relevant_dimensions":["wings","pattern"],"bee_group":{"antennae":"X","wings":"1","pattern":"D","legs":"X"},"bonus":0.3600000000000013},{"rt":615,"stimulus":"bees-with-color/bee-B2DF.svg","response":0,"trial_type":"image-button-response","trial_index":121,"time_elapsed":193177,"internal_node_id":"0.0-4.0-0.55","subject_id":"5c3f8bdf342ae0000111a3e1","study_id":"6197b3f67c2b5cd3b6d9596a","session_id":"6197b9f2c682e6f85ae8b463","condition":"contingent","relevant_dimensions":["wings","pattern"],"bee_group":{"antennae":"X","wings":"1","pattern":"D","legs":"X"},"action":"harvest","summary":"good-harvest","bonus":0.3600000000000013},{"rt":738,"stimulus":"\n                    <p><b>Action: <em>harvest</em></b></p>\n                    <p>This is the bee that you just saw.</p>\n                    <img src=\"bees-with-color/bee-B2DF.svg\" width=\"200\">\n                    <p><span class=\"greenText\"><b>Successful harvest!</b></span><br>Your pay has increased by $0.02. Your bonus pay is now $0.62.</p>\n            ","response":0,"trial_type":"html-button-response","trial_index":122,"time_elapsed":193916,"internal_node_id":"0.0-4.0-1.55","subject_id":"5c3f8bdf342ae0000111a3e1","study_id":"6197b3f67c2b5cd3b6d9596a","session_id":"6197b9f2c682e6f85ae8b463","condition":"contingent","relevant_dimensions":["wings","pattern"],"bee_group":{"antennae":"X","wings":"1","pattern":"D","legs":"X"},"bonus":0.3600000000000013},{"rt":935,"stimulus":"bees-with-color/bee-A2DF.svg","response":0,"trial_type":"image-button-response","trial_index":123,"time_elapsed":194852,"internal_node_id":"0.0-4.0-0.56","subject_id":"5c3f8bdf342ae0000111a3e1","study_id":"6197b3f67c2b5cd3b6d9596a","session_id":"6197b9f2c682e6f85ae8b463","condition":"contingent","relevant_dimensions":["wings","pattern"],"bee_group":{"antennae":"X","wings":"1","pattern":"D","legs":"X"},"action":"harvest","summary":"good-harvest","bonus":0.3600000000000013},{"rt":607,"stimulus":"\n                    <p><b>Action: <em>harvest</em></b></p>\n                    <p>This is the bee that you just saw.</p>\n                    <img src=\"bees-with-color/bee-A2DF.svg\" width=\"200\">\n                    <p><span class=\"greenText\"><b>Successful harvest!</b></span><br>Your pay has increased by $0.02. Your bonus pay is now $0.64.</p>\n            ","response":0,"trial_type":"html-button-response","trial_index":124,"time_elapsed":195459,"internal_node_id":"0.0-4.0-1.56","subject_id":"5c3f8bdf342ae0000111a3e1","study_id":"6197b3f67c2b5cd3b6d9596a","session_id":"6197b9f2c682e6f85ae8b463","condition":"contingent","relevant_dimensions":["wings","pattern"],"bee_group":{"antennae":"X","wings":"1","pattern":"D","legs":"X"},"bonus":0.3600000000000013},{"rt":828,"stimulus":"bees-with-color/bee-A2SM.svg","response":0,"trial_type":"image-button-response","trial_index":125,"time_elapsed":196289,"internal_node_id":"0.0-4.0-0.57","subject_id":"5c3f8bdf342ae0000111a3e1","study_id":"6197b3f67c2b5cd3b6d9596a","session_id":"6197b9f2c682e6f85ae8b463","condition":"contingent","relevant_dimensions":["wings","pattern"],"bee_group":{"antennae":"X","wings":"1","pattern":"D","legs":"X"},"action":"harvest","summary":"good-harvest","bonus":0.3600000000000013},{"rt":599,"stimulus":"\n                    <p><b>Action: <em>harvest</em></b></p>\n                    <p>This is the bee that you just saw.</p>\n                    <img src=\"bees-with-color/bee-A2SM.svg\" width=\"200\">\n                    <p><span class=\"greenText\"><b>Successful harvest!</b></span><br>Your pay has increased by $0.02. Your bonus pay is now $0.66.</p>\n            ","response":0,"trial_type":"html-button-response","trial_index":126,"time_elapsed":196889,"internal_node_id":"0.0-4.0-1.57","subject_id":"5c3f8bdf342ae0000111a3e1","study_id":"6197b3f67c2b5cd3b6d9596a","session_id":"6197b9f2c682e6f85ae8b463","condition":"contingent","relevant_dimensions":["wings","pattern"],"bee_group":{"antennae":"X","wings":"1","pattern":"D","legs":"X"},"bonus":0.3600000000000013},{"rt":764,"stimulus":"bees-with-color/bee-A2SF.svg","response":0,"trial_type":"image-button-response","trial_index":127,"time_elapsed":197653,"internal_node_id":"0.0-4.0-0.58","subject_id":"5c3f8bdf342ae0000111a3e1","study_id":"6197b3f67c2b5cd3b6d9596a","session_id":"6197b9f2c682e6f85ae8b463","condition":"contingent","relevant_dimensions":["wings","pattern"],"bee_group":{"antennae":"X","wings":"1","pattern":"D","legs":"X"},"action":"harvest","summary":"good-harvest","bonus":0.3600000000000013},{"rt":901,"stimulus":"\n                    <p><b>Action: <em>harvest</em></b></p>\n                    <p>This is the bee that you just saw.</p>\n                    <img src=\"bees-with-color/bee-A2SF.svg\" width=\"200\">\n                    <p><span class=\"greenText\"><b>Successful harvest!</b></span><br>Your pay has increased by $0.02. Your bonus pay is now $0.68.</p>\n            ","response":0,"trial_type":"html-button-response","trial_index":128,"time_elapsed":198556,"internal_node_id":"0.0-4.0-1.58","subject_id":"5c3f8bdf342ae0000111a3e1","study_id":"6197b3f67c2b5cd3b6d9596a","session_id":"6197b9f2c682e6f85ae8b463","condition":"contingent","relevant_dimensions":["wings","pattern"],"bee_group":{"antennae":"X","wings":"1","pattern":"D","legs":"X"},"bonus":0.3600000000000013},{"rt":829,"stimulus":"bees-with-color/bee-A1SM.svg","response":1,"trial_type":"image-button-response","trial_index":129,"time_elapsed":199386,"internal_node_id":"0.0-4.0-0.59","subject_id":"5c3f8bdf342ae0000111a3e1","study_id":"6197b3f67c2b5cd3b6d9596a","session_id":"6197b9f2c682e6f85ae8b463","condition":"contingent","relevant_dimensions":["wings","pattern"],"bee_group":{"antennae":"X","wings":"1","pattern":"D","legs":"X"},"action":"avoid","summary":"bad-avoid","bonus":0.3600000000000013},{"rt":598,"stimulus":"\n                    <p><b>Action: <em>avoid</em></b></p>\n                    <p>This is the bee that you just saw.</p>\n                    <img src=\"bees-with-color/bee-A1SM.svg\" width=\"200\">\n                    <p><br>Your bonus pay is unchanged, and remains at $0.68.</p>\n            ","response":0,"trial_type":"html-button-response","trial_index":130,"time_elapsed":199984,"internal_node_id":"0.0-4.0-1.59","subject_id":"5c3f8bdf342ae0000111a3e1","study_id":"6197b3f67c2b5cd3b6d9596a","session_id":"6197b9f2c682e6f85ae8b463","condition":"contingent","relevant_dimensions":["wings","pattern"],"bee_group":{"antennae":"X","wings":"1","pattern":"D","legs":"X"},"bonus":0.3600000000000013},{"rt":1247,"stimulus":"bees-with-color/bee-B1DF.svg","response":0,"trial_type":"image-button-response","trial_index":131,"time_elapsed":201233,"internal_node_id":"0.0-4.0-0.60","subject_id":"5c3f8bdf342ae0000111a3e1","study_id":"6197b3f67c2b5cd3b6d9596a","session_id":"6197b9f2c682e6f85ae8b463","condition":"contingent","relevant_dimensions":["wings","pattern"],"bee_group":{"antennae":"X","wings":"1","pattern":"D","legs":"X"},"action":"harvest","summary":"bad-harvest","bonus":0.3600000000000013},{"rt":828,"stimulus":"\n                    <p><b>Action: <em>harvest</em></b></p>\n                    <p>This is the bee that you just saw.</p>\n                    <img src=\"bees-with-color/bee-B1DF.svg\" width=\"200\">\n                    <p><span class=\"redText\">Bad choice, the bee was angry.</span><br><b>You have been stung!</b><br>Your pay has been decreased by $0.10. Your bonus pay is now $0.58.</p>\n            ","response":0,"trial_type":"html-button-response","trial_index":132,"time_elapsed":202062,"internal_node_id":"0.0-4.0-1.60","subject_id":"5c3f8bdf342ae0000111a3e1","study_id":"6197b3f67c2b5cd3b6d9596a","session_id":"6197b9f2c682e6f85ae8b463","condition":"contingent","relevant_dimensions":["wings","pattern"],"bee_group":{"antennae":"X","wings":"1","pattern":"D","legs":"X"},"bonus":0.3600000000000013},{"rt":697,"stimulus":"bees-with-color/bee-B2SM.svg","response":0,"trial_type":"image-button-response","trial_index":133,"time_elapsed":202760,"internal_node_id":"0.0-4.0-0.61","subject_id":"5c3f8bdf342ae0000111a3e1","study_id":"6197b3f67c2b5cd3b6d9596a","session_id":"6197b9f2c682e6f85ae8b463","condition":"contingent","relevant_dimensions":["wings","pattern"],"bee_group":{"antennae":"X","wings":"1","pattern":"D","legs":"X"},"action":"harvest","summary":"good-harvest","bonus":0.3600000000000013},{"rt":574,"stimulus":"\n                    <p><b>Action: <em>harvest</em></b></p>\n                    <p>This is the bee that you just saw.</p>\n                    <img src=\"bees-with-color/bee-B2SM.svg\" width=\"200\">\n                    <p><span class=\"greenText\"><b>Successful harvest!</b></span><br>Your pay has increased by $0.02. Your bonus pay is now $0.60.</p>\n            ","response":0,"trial_type":"html-button-response","trial_index":134,"time_elapsed":203335,"internal_node_id":"0.0-4.0-1.61","subject_id":"5c3f8bdf342ae0000111a3e1","study_id":"6197b3f67c2b5cd3b6d9596a","session_id":"6197b9f2c682e6f85ae8b463","condition":"contingent","relevant_dimensions":["wings","pattern"],"bee_group":{"antennae":"X","wings":"1","pattern":"D","legs":"X"},"bonus":0.3600000000000013},{"rt":1001,"stimulus":"bees-with-color/bee-B2SF.svg","response":0,"trial_type":"image-button-response","trial_index":135,"time_elapsed":204337,"internal_node_id":"0.0-4.0-0.62","subject_id":"5c3f8bdf342ae0000111a3e1","study_id":"6197b3f67c2b5cd3b6d9596a","session_id":"6197b9f2c682e6f85ae8b463","condition":"contingent","relevant_dimensions":["wings","pattern"],"bee_group":{"antennae":"X","wings":"1","pattern":"D","legs":"X"},"action":"harvest","summary":"good-harvest","bonus":0.3600000000000013},{"rt":722,"stimulus":"\n                    <p><b>Action: <em>harvest</em></b></p>\n                    <p>This is the bee that you just saw.</p>\n                    <img src=\"bees-with-color/bee-B2SF.svg\" width=\"200\">\n                    <p><span class=\"greenText\"><b>Successful harvest!</b></span><br>Your pay has increased by $0.02. Your bonus pay is now $0.62.</p>\n            ","response":0,"trial_type":"html-button-response","trial_index":136,"time_elapsed":205059,"internal_node_id":"0.0-4.0-1.62","subject_id":"5c3f8bdf342ae0000111a3e1","study_id":"6197b3f67c2b5cd3b6d9596a","session_id":"6197b9f2c682e6f85ae8b463","condition":"contingent","relevant_dimensions":["wings","pattern"],"bee_group":{"antennae":"X","wings":"1","pattern":"D","legs":"X"},"bonus":0.3600000000000013},{"rt":649,"stimulus":"bees-with-color/bee-A1DM.svg","response":0,"trial_type":"image-button-response","trial_index":137,"time_elapsed":205709,"internal_node_id":"0.0-4.0-0.63","subject_id":"5c3f8bdf342ae0000111a3e1","study_id":"6197b3f67c2b5cd3b6d9596a","session_id":"6197b9f2c682e6f85ae8b463","condition":"contingent","relevant_dimensions":["wings","pattern"],"bee_group":{"antennae":"X","wings":"1","pattern":"D","legs":"X"},"action":"harvest","summary":"bad-harvest","bonus":0.3600000000000013},{"rt":746,"stimulus":"\n                    <p><b>Action: <em>harvest</em></b></p>\n                    <p>This is the bee that you just saw.</p>\n                    <img src=\"bees-with-color/bee-A1DM.svg\" width=\"200\">\n                    <p><span class=\"redText\">Bad choice, the bee was angry.</span><br><b>You have been stung!</b><br>Your pay has been decreased by $0.10. Your bonus pay is now $0.52.</p>\n            ","response":0,"trial_type":"html-button-response","trial_index":138,"time_elapsed":206456,"internal_node_id":"0.0-4.0-1.63","subject_id":"5c3f8bdf342ae0000111a3e1","study_id":"6197b3f67c2b5cd3b6d9596a","session_id":"6197b9f2c682e6f85ae8b463","condition":"contingent","relevant_dimensions":["wings","pattern"],"bee_group":{"antennae":"X","wings":"1","pattern":"D","legs":"X"},"bonus":0.3600000000000013},{"rt":4443,"stimulus":"You have completed the first part of this experiment.<br><br>You will now begin a shorter second part, in which you will receive no feedback.<br>The same rules regarding bonus pay apply.<br><br>Press any key to begin.","response":"j","trial_type":"html-keyboard-response","trial_index":139,"time_elapsed":210900,"internal_node_id":"0.0-5.0","subject_id":"5c3f8bdf342ae0000111a3e1","study_id":"6197b3f67c2b5cd3b6d9596a","session_id":"6197b9f2c682e6f85ae8b463","condition":"contingent","relevant_dimensions":["wings","pattern"],"bee_group":{"antennae":"X","wings":"1","pattern":"D","legs":"X"},"bonus":0.3600000000000013},{"rt":2501,"stimulus":"bees-with-color/bee-B2DF.svg","response":0,"trial_type":"image-button-response","trial_index":140,"time_elapsed":213403,"internal_node_id":"0.0-6.0-0.0","subject_id":"5c3f8bdf342ae0000111a3e1","study_id":"6197b3f67c2b5cd3b6d9596a","session_id":"6197b9f2c682e6f85ae8b463","condition":"contingent","relevant_dimensions":["wings","pattern"],"bee_group":{"antennae":"X","wings":"1","pattern":"D","legs":"X"},"bonus":0.3600000000000013},{"rt":1288,"stimulus":"bees-with-color/bee-A2SF.svg","response":1,"trial_type":"image-button-response","trial_index":141,"time_elapsed":214693,"internal_node_id":"0.0-6.0-0.1","subject_id":"5c3f8bdf342ae0000111a3e1","study_id":"6197b3f67c2b5cd3b6d9596a","session_id":"6197b9f2c682e6f85ae8b463","condition":"contingent","relevant_dimensions":["wings","pattern"],"bee_group":{"antennae":"X","wings":"1","pattern":"D","legs":"X"},"bonus":0.3600000000000013},{"rt":3186,"stimulus":"bees-with-color/bee-A2DM.svg","response":0,"trial_type":"image-button-response","trial_index":142,"time_elapsed":217880,"internal_node_id":"0.0-6.0-0.2","subject_id":"5c3f8bdf342ae0000111a3e1","study_id":"6197b3f67c2b5cd3b6d9596a","session_id":"6197b9f2c682e6f85ae8b463","condition":"contingent","relevant_dimensions":["wings","pattern"],"bee_group":{"antennae":"X","wings":"1","pattern":"D","legs":"X"},"bonus":0.3600000000000013},{"rt":7953,"stimulus":"bees-with-color/bee-B2SF.svg","response":0,"trial_type":"image-button-response","trial_index":143,"time_elapsed":225835,"internal_node_id":"0.0-6.0-0.3","subject_id":"5c3f8bdf342ae0000111a3e1","study_id":"6197b3f67c2b5cd3b6d9596a","session_id":"6197b9f2c682e6f85ae8b463","condition":"contingent","relevant_dimensions":["wings","pattern"],"bee_group":{"antennae":"X","wings":"1","pattern":"D","legs":"X"},"bonus":0.3600000000000013},{"rt":662,"stimulus":"bees-with-color/bee-A1DM.svg","response":0,"trial_type":"image-button-response","trial_index":144,"time_elapsed":226500,"internal_node_id":"0.0-6.0-0.4","subject_id":"5c3f8bdf342ae0000111a3e1","study_id":"6197b3f67c2b5cd3b6d9596a","session_id":"6197b9f2c682e6f85ae8b463","condition":"contingent","relevant_dimensions":["wings","pattern"],"bee_group":{"antennae":"X","wings":"1","pattern":"D","legs":"X"},"bonus":0.3600000000000013},{"rt":542,"stimulus":"bees-with-color/bee-A2SM.svg","response":0,"trial_type":"image-button-response","trial_index":145,"time_elapsed":227042,"internal_node_id":"0.0-6.0-0.5","subject_id":"5c3f8bdf342ae0000111a3e1","study_id":"6197b3f67c2b5cd3b6d9596a","session_id":"6197b9f2c682e6f85ae8b463","condition":"contingent","relevant_dimensions":["wings","pattern"],"bee_group":{"antennae":"X","wings":"1","pattern":"D","legs":"X"},"bonus":0.3600000000000013},{"rt":360,"stimulus":"bees-with-color/bee-A1SM.svg","response":0,"trial_type":"image-button-response","trial_index":146,"time_elapsed":227403,"internal_node_id":"0.0-6.0-0.6","subject_id":"5c3f8bdf342ae0000111a3e1","study_id":"6197b3f67c2b5cd3b6d9596a","session_id":"6197b9f2c682e6f85ae8b463","condition":"contingent","relevant_dimensions":["wings","pattern"],"bee_group":{"antennae":"X","wings":"1","pattern":"D","legs":"X"},"bonus":0.3600000000000013},{"rt":311,"stimulus":"bees-with-color/bee-A1DF.svg","response":0,"trial_type":"image-button-response","trial_index":147,"time_elapsed":227716,"internal_node_id":"0.0-6.0-0.7","subject_id":"5c3f8bdf342ae0000111a3e1","study_id":"6197b3f67c2b5cd3b6d9596a","session_id":"6197b9f2c682e6f85ae8b463","condition":"contingent","relevant_dimensions":["wings","pattern"],"bee_group":{"antennae":"X","wings":"1","pattern":"D","legs":"X"},"bonus":0.3600000000000013},{"rt":607,"stimulus":"bees-with-color/bee-B1DM.svg","response":1,"trial_type":"image-button-response","trial_index":148,"time_elapsed":228324,"internal_node_id":"0.0-6.0-0.8","subject_id":"5c3f8bdf342ae0000111a3e1","study_id":"6197b3f67c2b5cd3b6d9596a","session_id":"6197b9f2c682e6f85ae8b463","condition":"contingent","relevant_dimensions":["wings","pattern"],"bee_group":{"antennae":"X","wings":"1","pattern":"D","legs":"X"},"bonus":0.3600000000000013},{"rt":763,"stimulus":"bees-with-color/bee-B1SF.svg","response":0,"trial_type":"image-button-response","trial_index":149,"time_elapsed":229087,"internal_node_id":"0.0-6.0-0.9","subject_id":"5c3f8bdf342ae0000111a3e1","study_id":"6197b3f67c2b5cd3b6d9596a","session_id":"6197b9f2c682e6f85ae8b463","condition":"contingent","relevant_dimensions":["wings","pattern"],"bee_group":{"antennae":"X","wings":"1","pattern":"D","legs":"X"},"bonus":0.3600000000000013},{"rt":427,"stimulus":"bees-with-color/bee-B1SM.svg","response":0,"trial_type":"image-button-response","trial_index":150,"time_elapsed":229514,"internal_node_id":"0.0-6.0-0.10","subject_id":"5c3f8bdf342ae0000111a3e1","study_id":"6197b3f67c2b5cd3b6d9596a","session_id":"6197b9f2c682e6f85ae8b463","condition":"contingent","relevant_dimensions":["wings","pattern"],"bee_group":{"antennae":"X","wings":"1","pattern":"D","legs":"X"},"bonus":0.3600000000000013},{"rt":294,"stimulus":"bees-with-color/bee-B2SM.svg","response":0,"trial_type":"image-button-response","trial_index":151,"time_elapsed":229809,"internal_node_id":"0.0-6.0-0.11","subject_id":"5c3f8bdf342ae0000111a3e1","study_id":"6197b3f67c2b5cd3b6d9596a","session_id":"6197b9f2c682e6f85ae8b463","condition":"contingent","relevant_dimensions":["wings","pattern"],"bee_group":{"antennae":"X","wings":"1","pattern":"D","legs":"X"},"bonus":0.3600000000000013},{"rt":616,"stimulus":"bees-with-color/bee-A1SF.svg","response":1,"trial_type":"image-button-response","trial_index":152,"time_elapsed":230426,"internal_node_id":"0.0-6.0-0.12","subject_id":"5c3f8bdf342ae0000111a3e1","study_id":"6197b3f67c2b5cd3b6d9596a","session_id":"6197b9f2c682e6f85ae8b463","condition":"contingent","relevant_dimensions":["wings","pattern"],"bee_group":{"antennae":"X","wings":"1","pattern":"D","legs":"X"},"bonus":0.3600000000000013},{"rt":566,"stimulus":"bees-with-color/bee-B2DM.svg","response":1,"trial_type":"image-button-response","trial_index":153,"time_elapsed":230992,"internal_node_id":"0.0-6.0-0.13","subject_id":"5c3f8bdf342ae0000111a3e1","study_id":"6197b3f67c2b5cd3b6d9596a","session_id":"6197b9f2c682e6f85ae8b463","condition":"contingent","relevant_dimensions":["wings","pattern"],"bee_group":{"antennae":"X","wings":"1","pattern":"D","legs":"X"},"bonus":0.3600000000000013},{"rt":245,"stimulus":"bees-with-color/bee-A2DF.svg","response":1,"trial_type":"image-button-response","trial_index":154,"time_elapsed":231238,"internal_node_id":"0.0-6.0-0.14","subject_id":"5c3f8bdf342ae0000111a3e1","study_id":"6197b3f67c2b5cd3b6d9596a","session_id":"6197b9f2c682e6f85ae8b463","condition":"contingent","relevant_dimensions":["wings","pattern"],"bee_group":{"antennae":"X","wings":"1","pattern":"D","legs":"X"},"bonus":0.3600000000000013},{"rt":598,"stimulus":"bees-with-color/bee-B1DF.svg","response":0,"trial_type":"image-button-response","trial_index":155,"time_elapsed":231837,"internal_node_id":"0.0-6.0-0.15","subject_id":"5c3f8bdf342ae0000111a3e1","study_id":"6197b3f67c2b5cd3b6d9596a","session_id":"6197b9f2c682e6f85ae8b463","condition":"contingent","relevant_dimensions":["wings","pattern"],"bee_group":{"antennae":"X","wings":"1","pattern":"D","legs":"X"},"bonus":0.3600000000000013},{"rt":773,"stimulus":"bees-with-color/bee-B1SM.svg","response":0,"trial_type":"image-button-response","trial_index":156,"time_elapsed":232610,"internal_node_id":"0.0-6.0-0.16","subject_id":"5c3f8bdf342ae0000111a3e1","study_id":"6197b3f67c2b5cd3b6d9596a","session_id":"6197b9f2c682e6f85ae8b463","condition":"contingent","relevant_dimensions":["wings","pattern"],"bee_group":{"antennae":"X","wings":"1","pattern":"D","legs":"X"},"bonus":0.3600000000000013},{"rt":360,"stimulus":"bees-with-color/bee-B2DF.svg","response":0,"trial_type":"image-button-response","trial_index":157,"time_elapsed":232972,"internal_node_id":"0.0-6.0-0.17","subject_id":"5c3f8bdf342ae0000111a3e1","study_id":"6197b3f67c2b5cd3b6d9596a","session_id":"6197b9f2c682e6f85ae8b463","condition":"contingent","relevant_dimensions":["wings","pattern"],"bee_group":{"antennae":"X","wings":"1","pattern":"D","legs":"X"},"bonus":0.3600000000000013},{"rt":286,"stimulus":"bees-with-color/bee-B1DF.svg","response":0,"trial_type":"image-button-response","trial_index":158,"time_elapsed":233259,"internal_node_id":"0.0-6.0-0.18","subject_id":"5c3f8bdf342ae0000111a3e1","study_id":"6197b3f67c2b5cd3b6d9596a","session_id":"6197b9f2c682e6f85ae8b463","condition":"contingent","relevant_dimensions":["wings","pattern"],"bee_group":{"antennae":"X","wings":"1","pattern":"D","legs":"X"},"bonus":0.3600000000000013},{"rt":688,"stimulus":"bees-with-color/bee-A2SF.svg","response":1,"trial_type":"image-button-response","trial_index":159,"time_elapsed":233949,"internal_node_id":"0.0-6.0-0.19","subject_id":"5c3f8bdf342ae0000111a3e1","study_id":"6197b3f67c2b5cd3b6d9596a","session_id":"6197b9f2c682e6f85ae8b463","condition":"contingent","relevant_dimensions":["wings","pattern"],"bee_group":{"antennae":"X","wings":"1","pattern":"D","legs":"X"},"bonus":0.3600000000000013},{"rt":903,"stimulus":"bees-with-color/bee-B1SF.svg","response":1,"trial_type":"image-button-response","trial_index":160,"time_elapsed":234852,"internal_node_id":"0.0-6.0-0.20","subject_id":"5c3f8bdf342ae0000111a3e1","study_id":"6197b3f67c2b5cd3b6d9596a","session_id":"6197b9f2c682e6f85ae8b463","condition":"contingent","relevant_dimensions":["wings","pattern"],"bee_group":{"antennae":"X","wings":"1","pattern":"D","legs":"X"},"bonus":0.3600000000000013},{"rt":368,"stimulus":"bees-with-color/bee-A1DF.svg","response":1,"trial_type":"image-button-response","trial_index":161,"time_elapsed":235221,"internal_node_id":"0.0-6.0-0.21","subject_id":"5c3f8bdf342ae0000111a3e1","study_id":"6197b3f67c2b5cd3b6d9596a","session_id":"6197b9f2c682e6f85ae8b463","condition":"contingent","relevant_dimensions":["wings","pattern"],"bee_group":{"antennae":"X","wings":"1","pattern":"D","legs":"X"},"bonus":0.3600000000000013},{"rt":525,"stimulus":"bees-with-color/bee-A2DF.svg","response":0,"trial_type":"image-button-response","trial_index":162,"time_elapsed":235747,"internal_node_id":"0.0-6.0-0.22","subject_id":"5c3f8bdf342ae0000111a3e1","study_id":"6197b3f67c2b5cd3b6d9596a","session_id":"6197b9f2c682e6f85ae8b463","condition":"contingent","relevant_dimensions":["wings","pattern"],"bee_group":{"antennae":"X","wings":"1","pattern":"D","legs":"X"},"bonus":0.3600000000000013},{"rt":483,"stimulus":"bees-with-color/bee-B2SF.svg","response":0,"trial_type":"image-button-response","trial_index":163,"time_elapsed":236232,"internal_node_id":"0.0-6.0-0.23","subject_id":"5c3f8bdf342ae0000111a3e1","study_id":"6197b3f67c2b5cd3b6d9596a","session_id":"6197b9f2c682e6f85ae8b463","condition":"contingent","relevant_dimensions":["wings","pattern"],"bee_group":{"antennae":"X","wings":"1","pattern":"D","legs":"X"},"bonus":0.3600000000000013},{"rt":278,"stimulus":"bees-with-color/bee-B2DM.svg","response":0,"trial_type":"image-button-response","trial_index":164