[{"success":true,"trial_type":"fullscreen","trial_index":0,"time_elapsed":102944,"internal_node_id":"0.0-0.0","subject_id":"60b6b2c1e2d7a2576cef627f","study_id":"60edd13110225f80f9f3709b","session_id":"6196c7067b6f2322f57da390","condition":"contingent","relevant_dimensions":["antennae","legs"],"bee_group":{"antennae":"B","wings":"X","pattern":"X","legs":"M"},"bonus":0.7800000000000008},{"success":true,"timeout":false,"failed_images":[],"failed_audio":[],"failed_video":[],"trial_type":"preload","trial_index":1,"time_elapsed":105372,"internal_node_id":"0.0-1.0","subject_id":"60b6b2c1e2d7a2576cef627f","study_id":"60edd13110225f80f9f3709b","session_id":"6196c7067b6f2322f57da390","condition":"contingent","relevant_dimensions":["antennae","legs"],"bee_group":{"antennae":"B","wings":"X","pattern":"X","legs":"M"},"bonus":0.7800000000000008},{"rt":1944.800000000745,"stimulus":"Welcome! Press any key to begin.","response":"d","trial_type":"html-keyboard-response","trial_index":2,"time_elapsed":107317,"internal_node_id":"0.0-2.0","subject_id":"60b6b2c1e2d7a2576cef627f","study_id":"60edd13110225f80f9f3709b","session_id":"6196c7067b6f2322f57da390","condition":"contingent","relevant_dimensions":["antennae","legs"],"bee_group":{"antennae":"B","wings":"X","pattern":"X","legs":"M"},"bonus":0.7800000000000008},{"view_history":[{"page_index":0,"viewing_time":2741.5},{"page_index":1,"viewing_time":80233.19999999925},{"page_index":2,"viewing_time":24302.10000000149},{"page_index":3,"viewing_time":43749},{"page_index":4,"viewing_time":4478.39999999851},{"page_index":5,"viewing_time":7993},{"page_index":6,"viewing_time":6942.89999999851},{"page_index":7,"viewing_time":11279.60000000149},{"page_index":8,"viewing_time":5405},{"page_index":7,"viewing_time":12924.39999999851},{"page_index":8,"viewing_time":6480.70000000298},{"page_index":9,"viewing_time":7066.599999997765},{"page_index":10,"viewing_time":3766.400000002235},{"page_index":11,"viewing_time":10650.39999999851},{"page_index":12,"viewing_time":19964.60000000149},{"page_index":13,"viewing_time":2419.699999999255},{"page_index":14,"viewing_time":1484.199999999255}],"rt":251882.3999999985,"trial_type":"instructions","trial_index":3,"time_elapsed":359200,"internal_node_id":"0.0-3.0-0.0","subject_id":"60b6b2c1e2d7a2576cef627f","study_id":"60edd13110225f80f9f3709b","session_id":"6196c7067b6f2322f57da390","condition":"contingent","relevant_dimensions":["antennae","legs"],"bee_group":{"antennae":"B","wings":"X","pattern":"X","legs":"M"},"bonus":0.7800000000000008},{"rt":13363.199999999255,"response":{"Q0":["Two or six legs","Stripes or spots on body","Single or double wings","Antennae or no antennae"]},"question_order":[0],"trial_type":"survey-multi-select","trial_index":4,"time_elapsed":372566,"internal_node_id":"0.0-3.0-1.0","subject_id":"60b6b2c1e2d7a2576cef627f","study_id":"60edd13110225f80f9f3709b","session_id":"6196c7067b6f2322f57da390","condition":"contingent","relevant_dimensions":["antennae","legs"],"bee_group":{"antennae":"B","wings":"X","pattern":"X","legs":"M"},"correct":true,"bonus":0.7800000000000008},{"rt":59917.39999999851,"response":{"Q1":"No.","Q2":"Based on the four features of the bee.","Q3":"You do not learn if it was friendly or dangerous, and do not alter your bonus."},"question_order":[0,1,2],"trial_type":"survey-multi-choice","trial_index":5,"time_elapsed":432486,"internal_node_id":"0.0-3.0-2.0","subject_id":"60b6b2c1e2d7a2576cef627f","study_id":"60edd13110225f80f9f3709b","session_id":"6196c7067b6f2322f57da390","condition":"contingent","relevant_dimensions":["antennae","legs"],"bee_group":{"antennae":"B","wings":"X","pattern":"X","legs":"M"},"correct":true,"bonus":0.7800000000000008},{"rt":7947.60000000149,"stimulus":"<p>Congrats, you got everything right<br>When you're ready, click the button below to continue to the experiment.</p>","response":0,"trial_type":"html-button-response","trial_index":6,"time_elapsed":440435,"internal_node_id":"0.0-3.0-3.0","subject_id":"60b6b2c1e2d7a2576cef627f","study_id":"60edd13110225f80f9f3709b","session_id":"6196c7067b6f2322f57da390","condition":"contingent","relevant_dimensions":["antennae","legs"],"bee_group":{"antennae":"B","wings":"X","pattern":"X","legs":"M"},"bonus":0.7800000000000008},{"rt":9866.10000000149,"stimulus":"bees-with-color/bee-A1DF.svg","response":0,"trial_type":"image-button-response","trial_index":7,"time_elapsed":450304,"internal_node_id":"0.0-4.0-0.0","subject_id":"60b6b2c1e2d7a2576cef627f","study_id":"60edd13110225f80f9f3709b","session_id":"6196c7067b6f2322f57da390","condition":"contingent","relevant_dimensions":["antennae","legs"],"bee_group":{"antennae":"B","wings":"X","pattern":"X","legs":"M"},"action":"harvest","summary":"good-harvest","bonus":0.7800000000000008},{"rt":13819.10000000149,"stimulus":"\n                    <p><b>Action: <em>harvest</em></b></p>\n                    <p>This is the bee that you just saw.</p>\n                    <img src=\"bees-with-color/bee-A1DF.svg\" width=\"200\">\n                    <p><span class=\"greenText\"><b>Successful harvest!</b></span><br>Your pay has increased by $0.02. Your bonus pay is now $0.56.</p>\n            ","response":0,"trial_type":"html-button-response","trial_index":8,"time_elapsed":464125,"internal_node_id":"0.0-4.0-1.0","subject_id":"60b6b2c1e2d7a2576cef627f","study_id":"60edd13110225f80f9f3709b","session_id":"6196c7067b6f2322f57da390","condition":"contingent","relevant_dimensions":["antennae","legs"],"bee_group":{"antennae":"B","wings":"X","pattern":"X","legs":"M"},"bonus":0.7800000000000008},{"rt":2889.7999999970198,"stimulus":"bees-with-color/bee-A2SM.svg","response":0,"trial_type":"image-button-response","trial_index":9,"time_elapsed":467019,"internal_node_id":"0.0-4.0-0.1","subject_id":"60b6b2c1e2d7a2576cef627f","study_id":"60edd13110225f80f9f3709b","session_id":"6196c7067b6f2322f57da390","condition":"contingent","relevant_dimensions":["antennae","legs"],"bee_group":{"antennae":"B","wings":"X","pattern":"X","legs":"M"},"action":"harvest","summary":"good-harvest","bonus":0.7800000000000008},{"rt":2801.400000002235,"stimulus":"\n                    <p><b>Action: <em>harvest</em></b></p>\n                    <p>This is the bee that you just saw.</p>\n                    <img src=\"bees-with-color/bee-A2SM.svg\" width=\"200\">\n                    <p><span class=\"greenText\"><b>Successful harvest!</b></span><br>Your pay has increased by $0.02. Your bonus pay is now $0.58.</p>\n            ","response":0,"trial_type":"html-button-response","trial_index":10,"time_elapsed":469822,"internal_node_id":"0.0-4.0-1.1","subject_id":"60b6b2c1e2d7a2576cef627f","study_id":"60edd13110225f80f9f3709b","session_id":"6196c7067b6f2322f57da390","condition":"contingent","relevant_dimensions":["antennae","legs"],"bee_group":{"antennae":"B","wings":"X","pattern":"X","legs":"M"},"bonus":0.7800000000000008},{"rt":3687,"stimulus":"bees-with-color/bee-B1DM.svg","response":0,"trial_type":"image-button-response","trial_index":11,"time_elapsed":473511,"internal_node_id":"0.0-4.0-0.2","subject_id":"60b6b2c1e2d7a2576cef627f","study_id":"60edd13110225f80f9f3709b","session_id":"6196c7067b6f2322f57da390","condition":"contingent","relevant_dimensions":["antennae","legs"],"bee_group":{"antennae":"B","wings":"X","pattern":"X","legs":"M"},"action":"harvest","summary":"bad-harvest","bonus":0.7800000000000008},{"rt":36602.60000000149,"stimulus":"\n                    <p><b>Action: <em>harvest</em></b></p>\n                    <p>This is the bee that you just saw.</p>\n                    <img src=\"bees-with-color/bee-B1DM.svg\" width=\"200\">\n                    <p><span class=\"redText\">Bad choice, the bee was angry.</span><br><b>You have been stung!</b><br>Your pay has been decreased by $0.10. Your bonus pay is now $0.48.</p>\n            ","response":0,"trial_type":"html-button-response","trial_index":12,"time_elapsed":510115,"internal_node_id":"0.0-4.0-1.2","subject_id":"60b6b2c1e2d7a2576cef627f","study_id":"60edd13110225f80f9f3709b","session_id":"6196c7067b6f2322f57da390","condition":"contingent","relevant_dimensions":["antennae","legs"],"bee_group":{"antennae":"B","wings":"X","pattern":"X","legs":"M"},"bonus":0.7800000000000008},{"rt":6002.10000000149,"stimulus":"bees-with-color/bee-B2SF.svg","response":0,"trial_type":"image-button-response","trial_index":13,"time_elapsed":516119,"internal_node_id":"0.0-4.0-0.3","subject_id":"60b6b2c1e2d7a2576cef627f","study_id":"60edd13110225f80f9f3709b","session_id":"6196c7067b6f2322f57da390","condition":"contingent","relevant_dimensions":["antennae","legs"],"bee_group":{"antennae":"B","wings":"X","pattern":"X","legs":"M"},"action":"harvest","summary":"good-harvest","bonus":0.7800000000000008},{"rt":2120,"stimulus":"\n                    <p><b>Action: <em>harvest</em></b></p>\n                    <p>This is the bee that you just saw.</p>\n                    <img src=\"bees-with-color/bee-B2SF.svg\" width=\"200\">\n                    <p><span class=\"greenText\"><b>Successful harvest!</b></span><br>Your pay has increased by $0.02. Your bonus pay is now $0.50.</p>\n            ","response":0,"trial_type":"html-button-response","trial_index":14,"time_elapsed":518240,"internal_node_id":"0.0-4.0-1.3","subject_id":"60b6b2c1e2d7a2576cef627f","study_id":"60edd13110225f80f9f3709b","session_id":"6196c7067b6f2322f57da390","condition":"contingent","relevant_dimensions":["antennae","legs"],"bee_group":{"antennae":"B","wings":"X","pattern":"X","legs":"M"},"bonus":0.7800000000000008},{"rt":2284.10000000149,"stimulus":"bees-with-color/bee-B1SF.svg","response":0,"trial_type":"image-button-response","trial_index":15,"time_elapsed":520526,"internal_node_id":"0.0-4.0-0.4","subject_id":"60b6b2c1e2d7a2576cef627f","study_id":"60edd13110225f80f9f3709b","session_id":"6196c7067b6f2322f57da390","condition":"contingent","relevant_dimensions":["antennae","legs"],"bee_group":{"antennae":"B","wings":"X","pattern":"X","legs":"M"},"action":"harvest","summary":"good-harvest","bonus":0.7800000000000008},{"rt":1009.1000000014901,"stimulus":"\n                    <p><b>Action: <em>harvest</em></b></p>\n                    <p>This is the bee that you just saw.</p>\n                    <img src=\"bees-with-color/bee-B1SF.svg\" width=\"200\">\n                    <p><span class=\"greenText\"><b>Successful harvest!</b></span><br>Your pay has increased by $0.02. Your bonus pay is now $0.52.</p>\n            ","response":0,"trial_type":"html-button-response","trial_index":16,"time_elapsed":521537,"internal_node_id":"0.0-4.0-1.4","subject_id":"60b6b2c1e2d7a2576cef627f","study_id":"60edd13110225f80f9f3709b","session_id":"6196c7067b6f2322f57da390","condition":"contingent","relevant_dimensions":["antennae","legs"],"bee_group":{"antennae":"B","wings":"X","pattern":"X","legs":"M"},"bonus":0.7800000000000008},{"rt":2856.2000000029802,"stimulus":"bees-with-color/bee-B2DF.svg","response":0,"trial_type":"image-button-response","trial_index":17,"time_elapsed":524394,"internal_node_id":"0.0-4.0-0.5","subject_id":"60b6b2c1e2d7a2576cef627f","study_id":"60edd13110225f80f9f3709b","session_id":"6196c7067b6f2322f57da390","condition":"contingent","relevant_dimensions":["antennae","legs"],"bee_group":{"antennae":"B","wings":"X","pattern":"X","legs":"M"},"action":"harvest","summary":"good-harvest","bonus":0.7800000000000008},{"rt":1352.1000000014901,"stimulus":"\n                    <p><b>Action: <em>harvest</em></b></p>\n                    <p>This is the bee that you just saw.</p>\n                    <img src=\"bees-with-color/bee-B2DF.svg\" width=\"200\">\n                    <p><span class=\"greenText\"><b>Successful harvest!</b></span><br>Your pay has increased by $0.02. Your bonus pay is now $0.54.</p>\n            ","response":0,"trial_type":"html-button-response","trial_index":18,"time_elapsed":525748,"internal_node_id":"0.0-4.0-1.5","subject_id":"60b6b2c1e2d7a2576cef627f","study_id":"60edd13110225f80f9f3709b","session_id":"6196c7067b6f2322f57da390","condition":"contingent","relevant_dimensions":["antennae","legs"],"bee_group":{"antennae":"B","wings":"X","pattern":"X","legs":"M"},"bonus":0.7800000000000008},{"rt":1910.6000000014901,"stimulus":"bees-with-color/bee-A2DF.svg","response":0,"trial_type":"image-button-response","trial_index":19,"time_elapsed":527660,"internal_node_id":"0.0-4.0-0.6","subject_id":"60b6b2c1e2d7a2576cef627f","study_id":"60edd13110225f80f9f3709b","session_id":"6196c7067b6f2322f57da390","condition":"contingent","relevant_dimensions":["antennae","legs"],"bee_group":{"antennae":"B","wings":"X","pattern":"X","legs":"M"},"action":"harvest","summary":"good-harvest","bonus":0.7800000000000008},{"rt":878.6999999992549,"stimulus":"\n                    <p><b>Action: <em>harvest</em></b></p>\n                    <p>This is the bee that you just saw.</p>\n                    <img src=\"bees-with-color/bee-A2DF.svg\" width=\"200\">\n                    <p><span class=\"greenText\"><b>Successful harvest!</b></span><br>Your pay has increased by $0.02. Your bonus pay is now $0.56.</p>\n            ","response":0,"trial_type":"html-button-response","trial_index":20,"time_elapsed":528540,"internal_node_id":"0.0-4.0-1.6","subject_id":"60b6b2c1e2d7a2576cef627f","study_id":"60edd13110225f80f9f3709b","session_id":"6196c7067b6f2322f57da390","condition":"contingent","relevant_dimensions":["antennae","legs"],"bee_group":{"antennae":"B","wings":"X","pattern":"X","legs":"M"},"bonus":0.7800000000000008},{"rt":3116,"stimulus":"bees-with-color/bee-B2DM.svg","response":1,"trial_type":"image-button-response","trial_index":21,"time_elapsed":531658,"internal_node_id":"0.0-4.0-0.7","subject_id":"60b6b2c1e2d7a2576cef627f","study_id":"60edd13110225f80f9f3709b","session_id":"6196c7067b6f2322f57da390","condition":"contingent","relevant_dimensions":["antennae","legs"],"bee_group":{"antennae":"B","wings":"X","pattern":"X","legs":"M"},"action":"avoid","summary":"good-avoid","bonus":0.7800000000000008},{"rt":2576.300000000745,"stimulus":"\n                    <p><b>Action: <em>avoid</em></b></p>\n                    <p>This is the bee that you just saw.</p>\n                    <img src=\"bees-with-color/bee-B2DM.svg\" width=\"200\">\n                    <p><br>Your bonus pay is unchanged, and remains at $0.56.</p>\n            ","response":0,"trial_type":"html-button-response","trial_index":22,"time_elapsed":534235,"internal_node_id":"0.0-4.0-1.7","subject_id":"60b6b2c1e2d7a2576cef627f","study_id":"60edd13110225f80f9f3709b","session_id":"6196c7067b6f2322f57da390","condition":"contingent","relevant_dimensions":["antennae","legs"],"bee_group":{"antennae":"B","wings":"X","pattern":"X","legs":"M"},"bonus":0.7800000000000008},{"rt":6728.89999999851,"stimulus":"bees-with-color/bee-B1DF.svg","response":0,"trial_type":"image-button-response","trial_index":23,"time_elapsed":540965,"internal_node_id":"0.0-4.0-0.8","subject_id":"60b6b2c1e2d7a2576cef627f","study_id":"60edd13110225f80f9f3709b","session_id":"6196c7067b6f2322f57da390","condition":"contingent","relevant_dimensions":["antennae","legs"],"bee_group":{"antennae":"B","wings":"X","pattern":"X","legs":"M"},"action":"harvest","summary":"good-harvest","bonus":0.7800000000000008},{"rt":1630.5,"stimulus":"\n                    <p><b>Action: <em>harvest</em></b></p>\n                    <p>This is the bee that you just saw.</p>\n                    <img src=\"bees-with-color/bee-B1DF.svg\" width=\"200\">\n                    <p><span class=\"greenText\"><b>Successful harvest!</b></span><br>Your pay has increased by $0.02. Your bonus pay is now $0.58.</p>\n            ","response":0,"trial_type":"html-button-response","trial_index":24,"time_elapsed":542602,"internal_node_id":"0.0-4.0-1.8","subject_id":"60b6b2c1e2d7a2576cef627f","study_id":"60edd13110225f80f9f3709b","session_id":"6196c7067b6f2322f57da390","condition":"contingent","relevant_dimensions":["antennae","legs"],"bee_group":{"antennae":"B","wings":"X","pattern":"X","legs":"M"},"bonus":0.7800000000000008},{"rt":7493.89999999851,"stimulus":"bees-with-color/bee-A1SF.svg","response":0,"trial_type":"image-button-response","trial_index":25,"time_elapsed":550101,"internal_node_id":"0.0-4.0-0.9","subject_id":"60b6b2c1e2d7a2576cef627f","study_id":"60edd13110225f80f9f3709b","session_id":"6196c7067b6f2322f57da390","condition":"contingent","relevant_dimensions":["antennae","legs"],"bee_group":{"antennae":"B","wings":"X","pattern":"X","legs":"M"},"action":"harvest","summary":"good-harvest","bonus":0.7800000000000008},{"rt":1927.4000000022352,"stimulus":"\n                    <p><b>Action: <em>harvest</em></b></p>\n                    <p>This is the bee that you just saw.</p>\n                    <img src=\"bees-with-color/bee-A1SF.svg\" width=\"200\">\n                    <p><span class=\"greenText\"><b>Successful harvest!</b></span><br>Your pay has increased by $0.02. Your bonus pay is now $0.60.</p>\n            ","response":0,"trial_type":"html-button-response","trial_index":26,"time_elapsed":552039,"internal_node_id":"0.0-4.0-1.9","subject_id":"60b6b2c1e2d7a2576cef627f","study_id":"60edd13110225f80f9f3709b","session_id":"6196c7067b6f2322f57da390","condition":"contingent","relevant_dimensions":["antennae","legs"],"bee_group":{"antennae":"B","wings":"X","pattern":"X","legs":"M"},"bonus":0.7800000000000008},{"rt":3447.60000000149,"stimulus":"bees-with-color/bee-A1SM.svg","response":1,"trial_type":"image-button-response","trial_index":27,"time_elapsed":555488,"internal_node_id":"0.0-4.0-0.10","subject_id":"60b6b2c1e2d7a2576cef627f","study_id":"60edd13110225f80f9f3709b","session_id":"6196c7067b6f2322f57da390","condition":"contingent","relevant_dimensions":["antennae","legs"],"bee_group":{"antennae":"B","wings":"X","pattern":"X","legs":"M"},"action":"avoid","summary":"bad-avoid","bonus":0.7800000000000008},{"rt":1609.2000000029802,"stimulus":"\n                    <p><b>Action: <em>avoid</em></b></p>\n                    <p>This is the bee that you just saw.</p>\n                    <img src=\"bees-with-color/bee-A1SM.svg\" width=\"200\">\n                    <p><br>Your bonus pay is unchanged, and remains at $0.60.</p>\n            ","response":0,"trial_type":"html-button-response","trial_index":28,"time_elapsed":557099,"internal_node_id":"0.0-4.0-1.10","subject_id":"60b6b2c1e2d7a2576cef627f","study_id":"60edd13110225f80f9f3709b","session_id":"6196c7067b6f2322f57da390","condition":"contingent","relevant_dimensions":["antennae","legs"],"bee_group":{"antennae":"B","wings":"X","pattern":"X","legs":"M"},"bonus":0.7800000000000008},{"rt":3245.39999999851,"stimulus":"bees-with-color/bee-A1DM.svg","response":1,"trial_type":"image-button-response","trial_index":29,"time_elapsed":560346,"internal_node_id":"0.0-4.0-0.11","subject_id":"60b6b2c1e2d7a2576cef627f","study_id":"60edd13110225f80f9f3709b","session_id":"6196c7067b6f2322f57da390","condition":"contingent","relevant_dimensions":["antennae","legs"],"bee_group":{"antennae":"B","wings":"X","pattern":"X","legs":"M"},"action":"avoid","summary":"bad-avoid","bonus":0.7800000000000008},{"rt":1105,"stimulus":"\n                    <p><b>Action: <em>avoid</em></b></p>\n                    <p>This is the bee that you just saw.</p>\n                    <img src=\"bees-with-color/bee-A1DM.svg\" width=\"200\">\n                    <p><br>Your bonus pay is unchanged, and remains at $0.60.</p>\n            ","response":0,"trial_type":"html-button-response","trial_index":30,"time_elapsed":561453,"internal_node_id":"0.0-4.0-1.11","subject_id":"60b6b2c1e2d7a2576cef627f","study_id":"60edd13110225f80f9f3709b","session_id":"6196c7067b6f2322f57da390","condition":"contingent","relevant_dimensions":["antennae","legs"],"bee_group":{"antennae":"B","wings":"X","pattern":"X","legs":"M"},"bonus":0.7800000000000008},{"rt":2539.60000000149,"stimulus":"bees-with-color/bee-B2SM.svg","response":0,"trial_type":"image-button-response","trial_index":31,"time_elapsed":563994,"internal_node_id":"0.0-4.0-0.12","subject_id":"60b6b2c1e2d7a2576cef627f","study_id":"60edd13110225f80f9f3709b","session_id":"6196c7067b6f2322f57da390","condition":"contingent","relevant_dimensions":["antennae","legs"],"bee_group":{"antennae":"B","wings":"X","pattern":"X","legs":"M"},"action":"harvest","summary":"bad-harvest","bonus":0.7800000000000008},{"rt":2662.800000000745,"stimulus":"\n                    <p><b>Action: <em>harvest</em></b></p>\n                    <p>This is the bee that you just saw.</p>\n                    <img src=\"bees-with-color/bee-B2SM.svg\" width=\"200\">\n                    <p><span class=\"redText\">Bad choice, the bee was angry.</span><br><b>You have been stung!</b><br>Your pay has been decreased by $0.10. Your bonus pay is now $0.50.</p>\n            ","response":0,"trial_type":"html-button-response","trial_index":32,"time_elapsed":566659,"internal_node_id":"0.0-4.0-1.12","subject_id":"60b6b2c1e2d7a2576cef627f","study_id":"60edd13110225f80f9f3709b","session_id":"6196c7067b6f2322f57da390","condition":"contingent","relevant_dimensions":["antennae","legs"],"bee_group":{"antennae":"B","wings":"X","pattern":"X","legs":"M"},"bonus":0.7800000000000008},{"rt":1498,"stimulus":"bees-with-color/bee-A2DM.svg","response":0,"trial_type":"image-button-response","trial_index":33,"time_elapsed":568158,"internal_node_id":"0.0-4.0-0.13","subject_id":"60b6b2c1e2d7a2576cef627f","study_id":"60edd13110225f80f9f3709b","session_id":"6196c7067b6f2322f57da390","condition":"contingent","relevant_dimensions":["antennae","legs"],"bee_group":{"antennae":"B","wings":"X","pattern":"X","legs":"M"},"action":"harvest","summary":"good-harvest","bonus":0.7800000000000008},{"rt":1889.5,"stimulus":"\n                    <p><b>Action: <em>harvest</em></b></p>\n                    <p>This is the bee that you just saw.</p>\n                    <img src=\"bees-with-color/bee-A2DM.svg\" width=\"200\">\n                    <p><span class=\"greenText\"><b>Successful harvest!</b></span><br>Your pay has increased by $0.02. Your bonus pay is now $0.52.</p>\n            ","response":0,"trial_type":"html-button-response","trial_index":34,"time_elapsed":570049,"internal_node_id":"0.0-4.0-1.13","subject_id":"60b6b2c1e2d7a2576cef627f","study_id":"60edd13110225f80f9f3709b","session_id":"6196c7067b6f2322f57da390","condition":"contingent","relevant_dimensions":["antennae","legs"],"bee_group":{"antennae":"B","wings":"X","pattern":"X","legs":"M"},"bonus":0.7800000000000008},{"rt":1558,"stimulus":"bees-with-color/bee-B1SM.svg","response":1,"trial_type":"image-button-response","trial_index":35,"time_elapsed":571608,"internal_node_id":"0.0-4.0-0.14","subject_id":"60b6b2c1e2d7a2576cef627f","study_id":"60edd13110225f80f9f3709b","session_id":"6196c7067b6f2322f57da390","condition":"contingent","relevant_dimensions":["antennae","legs"],"bee_group":{"antennae":"B","wings":"X","pattern":"X","legs":"M"},"action":"avoid","summary":"good-avoid","bonus":0.7800000000000008},{"rt":559.8000000007451,"stimulus":"\n                    <p><b>Action: <em>avoid</em></b></p>\n                    <p>This is the bee that you just saw.</p>\n                    <img src=\"bees-with-color/bee-B1SM.svg\" width=\"200\">\n                    <p><br>Your bonus pay is unchanged, and remains at $0.52.</p>\n            ","response":0,"trial_type":"html-button-response","trial_index":36,"time_elapsed":572169,"internal_node_id":"0.0-4.0-1.14","subject_id":"60b6b2c1e2d7a2576cef627f","study_id":"60edd13110225f80f9f3709b","session_id":"6196c7067b6f2322f57da390","condition":"contingent","relevant_dimensions":["antennae","legs"],"bee_group":{"antennae":"B","wings":"X","pattern":"X","legs":"M"},"bonus":0.7800000000000008},{"rt":3114,"stimulus":"bees-with-color/bee-A2SF.svg","response":0,"trial_type":"image-button-response","trial_index":37,"time_elapsed":575285,"internal_node_id":"0.0-4.0-0.15","subject_id":"60b6b2c1e2d7a2576cef627f","study_id":"60edd13110225f80f9f3709b","session_id":"6196c7067b6f2322f57da390","condition":"contingent","relevant_dimensions":["antennae","legs"],"bee_group":{"antennae":"B","wings":"X","pattern":"X","legs":"M"},"action":"harvest","summary":"good-harvest","bonus":0.7800000000000008},{"rt":645.6000000014901,"stimulus":"\n                    <p><b>Action: <em>harvest</em></b></p>\n                    <p>This is the bee that you just saw.</p>\n                    <img src=\"bees-with-color/bee-A2SF.svg\" width=\"200\">\n                    <p><span class=\"greenText\"><b>Successful harvest!</b></span><br>Your pay has increased by $0.02. Your bonus pay is now $0.54.</p>\n            ","response":0,"trial_type":"html-button-response","trial_index":38,"time_elapsed":575932,"internal_node_id":"0.0-4.0-1.15","subject_id":"60b6b2c1e2d7a2576cef627f","study_id":"60edd13110225f80f9f3709b","session_id":"6196c7067b6f2322f57da390","condition":"contingent","relevant_dimensions":["antennae","legs"],"bee_group":{"antennae":"B","wings":"X","pattern":"X","legs":"M"},"bonus":0.7800000000000008},{"rt":8189.60000000149,"stimulus":"bees-with-color/bee-A1DM.svg","response":1,"trial_type":"image-button-response","trial_index":39,"time_elapsed":584123,"internal_node_id":"0.0-4.0-0.16","subject_id":"60b6b2c1e2d7a2576cef627f","study_id":"60edd13110225f80f9f3709b","session_id":"6196c7067b6f2322f57da390","condition":"contingent","relevant_dimensions":["antennae","legs"],"bee_group":{"antennae":"B","wings":"X","pattern":"X","legs":"M"},"action":"avoid","summary":"bad-avoid","bonus":0.7800000000000008},{"rt":663.2999999970198,"stimulus":"\n                    <p><b>Action: <em>avoid</em></b></p>\n                    <p>This is the bee that you just saw.</p>\n                    <img src=\"bees-with-color/bee-A1DM.svg\" width=\"200\">\n                    <p><br>Your bonus pay is unchanged, and remains at $0.54.</p>\n            ","response":0,"trial_type":"html-button-response","trial_index":40,"time_elapsed":584788,"internal_node_id":"0.0-4.0-1.16","subject_id":"60b6b2c1e2d7a2576cef627f","study_id":"60edd13110225f80f9f3709b","session_id":"6196c7067b6f2322f57da390","condition":"contingent","relevant_dimensions":["antennae","legs"],"bee_group":{"antennae":"B","wings":"X","pattern":"X","legs":"M"},"bonus":0.7800000000000008},{"rt":5818.699999999255,"stimulus":"bees-with-color/bee-B1SF.svg","response":0,"trial_type":"image-button-response","trial_index":41,"time_elapsed":590608,"internal_node_id":"0.0-4.0-0.17","subject_id":"60b6b2c1e2d7a2576cef627f","study_id":"60edd13110225f80f9f3709b","session_id":"6196c7067b6f2322f57da390","condition":"contingent","relevant_dimensions":["antennae","legs"],"bee_group":{"antennae":"B","wings":"X","pattern":"X","legs":"M"},"action":"harvest","summary":"good-harvest","bonus":0.7800000000000008},{"rt":947.3000000007451,"stimulus":"\n                    <p><b>Action: <em>harvest</em></b></p>\n                    <p>This is the bee that you just saw.</p>\n                    <img src=\"bees-with-color/bee-B1SF.svg\" width=\"200\">\n                    <p><span class=\"greenText\"><b>Successful harvest!</b></span><br>Your pay has increased by $0.02. Your bonus pay is now $0.56.</p>\n            ","response":0,"trial_type":"html-button-response","trial_index":42,"time_elapsed":591560,"internal_node_id":"0.0-4.0-1.17","subject_id":"60b6b2c1e2d7a2576cef627f","study_id":"60edd13110225f80f9f3709b","session_id":"6196c7067b6f2322f57da390","condition":"contingent","relevant_dimensions":["antennae","legs"],"bee_group":{"antennae":"B","wings":"X","pattern":"X","legs":"M"},"bonus":0.7800000000000008},{"rt":3501.699999999255,"stimulus":"bees-with-color/bee-B1SM.svg","response":1,"trial_type":"image-button-response","trial_index":43,"time_elapsed":595064,"internal_node_id":"0.0-4.0-0.18","subject_id":"60b6b2c1e2d7a2576cef627f","study_id":"60edd13110225f80f9f3709b","session_id":"6196c7067b6f2322f57da390","condition":"contingent","relevant_dimensions":["antennae","legs"],"bee_group":{"antennae":"B","wings":"X","pattern":"X","legs":"M"},"action":"avoid","summary":"good-avoid","bonus":0.7800000000000008},{"rt":870.5,"stimulus":"\n                    <p><b>Action: <em>avoid</em></b></p>\n                    <p>This is the bee that you just saw.</p>\n                    <img src=\"bees-with-color/bee-B1SM.svg\" width=\"200\">\n                    <p><br>Your bonus pay is unchanged, and remains at $0.56.</p>\n            ","response":0,"trial_type":"html-button-response","trial_index":44,"time_elapsed":595935,"internal_node_id":"0.0-4.0-1.18","subject_id":"60b6b2c1e2d7a2576cef627f","study_id":"60edd13110225f80f9f3709b","session_id":"6196c7067b6f2322f57da390","condition":"contingent","relevant_dimensions":["antennae","legs"],"bee_group":{"antennae":"B","wings":"X","pattern":"X","legs":"M"},"bonus":0.7800000000000008},{"rt":2766.300000000745,"stimulus":"bees-with-color/bee-B2DF.svg","response":0,"trial_type":"image-button-response","trial_index":45,"time_elapsed":598704,"internal_node_id":"0.0-4.0-0.19","subject_id":"60b6b2c1e2d7a2576cef627f","study_id":"60edd13110225f80f9f3709b","session_id":"6196c7067b6f2322f57da390","condition":"contingent","relevant_dimensions":["antennae","legs"],"bee_group":{"antennae":"B","wings":"X","pattern":"X","legs":"M"},"action":"harvest","summary":"good-harvest","bonus":0.7800000000000008},{"rt":796.0999999977648,"stimulus":"\n                    <p><b>Action: <em>harvest</em></b></p>\n                    <p>This is the bee that you just saw.</p>\n                    <img src=\"bees-with-color/bee-B2DF.svg\" width=\"200\">\n                    <p><span class=\"greenText\"><b>Successful harvest!</b></span><br>Your pay has increased by $0.02. Your bonus pay is now $0.58.</p>\n            ","response":0,"trial_type":"html-button-response","trial_index":46,"time_elapsed":599501,"internal_node_id":"0.0-4.0-1.19","subject_id":"60b6b2c1e2d7a2576cef627f","study_id":"60edd13110225f80f9f3709b","session_id":"6196c7067b6f2322f57da390","condition":"contingent","relevant_dimensions":["antennae","legs"],"bee_group":{"antennae":"B","wings":"X","pattern":"X","legs":"M"},"bonus":0.7800000000000008},{"rt":3196.599999997765,"stimulus":"bees-with-color/bee-B2SF.svg","response":1,"trial_type":"image-button-response","trial_index":47,"time_elapsed":602699,"internal_node_id":"0.0-4.0-0.20","subject_id":"60b6b2c1e2d7a2576cef627f","study_id":"60edd13110225f80f9f3709b","session_id":"6196c7067b6f2322f57da390","condition":"contingent","relevant_dimensions":["antennae","legs"],"bee_group":{"antennae":"B","wings":"X","pattern":"X","legs":"M"},"action":"avoid","summary":"bad-avoid","bonus":0.7800000000000008},{"rt":848.5,"stimulus":"\n                    <p><b>Action: <em>avoid</em></b></p>\n                    <p>This is the bee that you just saw.</p>\n                    <img src=\"bees-with-color/bee-B2SF.svg\" width=\"200\">\n                    <p><br>Your bonus pay is unchanged, and remains at $0.58.</p>\n            ","response":0,"trial_type":"html-button-response","trial_index":48,"time_elapsed":603549,"internal_node_id":"0.0-4.0-1.20","subject_id":"60b6b2c1e2d7a2576cef627f","study_id":"60edd13110225f80f9f3709b","session_id":"6196c7067b6f2322f57da390","condition":"contingent","relevant_dimensions":["antennae","legs"],"bee_group":{"antennae":"B","wings":"X","pattern":"X","legs":"M"},"bonus":0.7800000000000008},{"rt":6141.10000000149,"stimulus":"bees-with-color/bee-A2SM.svg","response":1,"trial_type":"image-button-response","trial_index":49,"time_elapsed":609692,"internal_node_id":"0.0-4.0-0.21","subject_id":"60b6b2c1e2d7a2576cef627f","study_id":"60edd13110225f80f9f3709b","session_id":"6196c7067b6f2322f57da390","condition":"contingent","relevant_dimensions":["antennae","legs"],"bee_group":{"antennae":"B","wings":"X","pattern":"X","legs":"M"},"action":"avoid","summary":"bad-avoid","bonus":0.7800000000000008},{"rt":712.6999999992549,"stimulus":"\n                    <p><b>Action: <em>avoid</em></b></p>\n                    <p>This is the bee that you just saw.</p>\n                    <img src=\"bees-with-color/bee-A2SM.svg\" width=\"200\">\n                    <p><br>Your bonus pay is unchanged, and remains at $0.58.</p>\n            ","response":0,"trial_type":"html-button-response","trial_index":50,"time_elapsed":610406,"internal_node_id":"0.0-4.0-1.21","subject_id":"60b6b2c1e2d7a2576cef627f","study_id":"60edd13110225f80f9f3709b","session_id":"6196c7067b6f2322f57da390","condition":"contingent","relevant_dimensions":["antennae","legs"],"bee_group":{"antennae":"B","wings":"X","pattern":"X","legs":"M"},"bonus":0.7800000000000008},{"rt":22694.199999999255,"stimulus":"bees-with-color/bee-B2SM.svg","response":1,"trial_type":"image-button-response","trial_index":51,"time_elapsed":633102,"internal_node_id":"0.0-4.0-0.22","subject_id":"60b6b2c1e2d7a2576cef627f","study_id":"60edd13110225f80f9f3709b","session_id":"6196c7067b6f2322f57da390","condition":"contingent","relevant_dimensions":["antennae","legs"],"bee_group":{"antennae":"B","wings":"X","pattern":"X","legs":"M"},"action":"avoid","summary":"good-avoid","bonus":0.7800000000000008},{"rt":631.1999999992549,"stimulus":"\n                    <p><b>Action: <em>avoid</em></b></p>\n                    <p>This is the bee that you just saw.</p>\n                    <img src=\"bees-with-color/bee-B2SM.svg\" width=\"200\">\n                    <p><br>Your bonus pay is unchanged, and remains at $0.58.</p>\n            ","response":0,"trial_type":"html-button-response","trial_index":52,"time_elapsed":633735,"internal_node_id":"0.0-4.0-1.22","subject_id":"60b6b2c1e2d7a2576cef627f","study_id":"60edd13110225f80f9f3709b","session_id":"6196c7067b6f2322f57da390","condition":"contingent","relevant_dimensions":["antennae","legs"],"bee_group":{"antennae":"B","wings":"X","pattern":"X","legs":"M"},"bonus":0.7800000000000008},{"rt":2341.800000000745,"stimulus":"bees-with-color/bee-A1SM.svg","response":1,"trial_type":"image-button-response","trial_index":53,"time_elapsed":636078,"internal_node_id":"0.0-4.0-0.23","subject_id":"60b6b2c1e2d7a2576cef627f","study_id":"60edd13110225f80f9f3709b","session_id":"6196c7067b6f2322f57da390","condition":"contingent","relevant_dimensions":["antennae","legs"],"bee_group":{"antennae":"B","wings":"X","pattern":"X","legs":"M"},"action":"avoid","summary":"bad-avoid","bonus":0.7800000000000008},{"rt":653.8000000007451,"stimulus":"\n                    <p><b>Action: <em>avoid</em></b></p>\n                    <p>This is the bee that you just saw.</p>\n                    <img src=\"bees-with-color/bee-A1SM.svg\" width=\"200\">\n                    <p><br>Your bonus pay is unchanged, and remains at $0.58.</p>\n            ","response":0,"trial_type":"html-button-response","trial_index":54,"time_elapsed":636733,"internal_node_id":"0.0-4.0-1.23","subject_id":"60b6b2c1e2d7a2576cef627f","study_id":"60edd13110225f80f9f3709b","session_id":"6196c7067b6f2322f57da390","condition":"contingent","relevant_dimensions":["antennae","legs"],"bee_group":{"antennae":"B","wings":"X","pattern":"X","legs":"M"},"bonus":0.7800000000000008},{"rt":5886.10000000149,"stimulus":"bees-with-color/bee-A2SF.svg","response":1,"trial_type":"image-button-response","trial_index":55,"time_elapsed":642621,"internal_node_id":"0.0-4.0-0.24","subject_id":"60b6b2c1e2d7a2576cef627f","study_id":"60edd13110225f80f9f3709b","session_id":"6196c7067b6f2322f57da390","condition":"contingent","relevant_dimensions":["antennae","legs"],"bee_group":{"antennae":"B","wings":"X","pattern":"X","legs":"M"},"action":"avoid","summary":"bad-avoid","bonus":0.7800000000000008},{"rt":511.30000000074506,"stimulus":"\n                    <p><b>Action: <em>avoid</em></b></p>\n                    <p>This is the bee that you just saw.</p>\n                    <img src=\"bees-with-color/bee-A2SF.svg\" width=\"200\">\n                    <p><br>Your bonus pay is unchanged, and remains at $0.58.</p>\n            ","response":0,"trial_type":"html-button-response","trial_index":56,"time_elapsed":643134,"internal_node_id":"0.0-4.0-1.24","subject_id":"60b6b2c1e2d7a2576cef627f","study_id":"60edd13110225f80f9f3709b","session_id":"6196c7067b6f2322f57da390","condition":"contingent","relevant_dimensions":["antennae","legs"],"bee_group":{"antennae":"B","wings":"X","pattern":"X","legs":"M"},"bonus":0.7800000000000008},{"rt":1497,"stimulus":"bees-with-color/bee-A2DM.svg","response":1,"trial_type":"image-button-response","trial_index":57,"time_elapsed":644632,"internal_node_id":"0.0-4.0-0.25","subject_id":"60b6b2c1e2d7a2576cef627f","study_id":"60edd13110225f80f9f3709b","session_id":"6196c7067b6f2322f57da390","condition":"contingent","relevant_dimensions":["antennae","legs"],"bee_group":{"antennae":"B","wings":"X","pattern":"X","legs":"M"},"action":"avoid","summary":"bad-avoid","bonus":0.7800000000000008},{"rt":467.8999999985099,"stimulus":"\n                    <p><b>Action: <em>avoid</em></b></p>\n                    <p>This is the bee that you just saw.</p>\n                    <img src=\"bees-with-color/bee-A2DM.svg\" width=\"200\">\n                    <p><br>Your bonus pay is unchanged, and remains at $0.58.</p>\n            ","response":0,"trial_type":"html-button-response","trial_index":58,"time_elapsed":645102,"internal_node_id":"0.0-4.0-1.25","subject_id":"60b6b2c1e2d7a2576cef627f","study_id":"60edd13110225f80f9f3709b","session_id":"6196c7067b6f2322f57da390","condition":"contingent","relevant_dimensions":["antennae","legs"],"bee_group":{"antennae":"B","wings":"X","pattern":"X","legs":"M"},"bonus":0.7800000000000008},{"rt":2689.099999997765,"stimulus":"bees-with-color/bee-A1SF.svg","response":0,"trial_type":"image-button-response","trial_index":59,"time_elapsed":647792,"internal_node_id":"0.0-4.0-0.26","subject_id":"60b6b2c1e2d7a2576cef627f","study_id":"60edd13110225f80f9f3709b","session_id":"6196c7067b6f2322f57da390","condition":"contingent","relevant_dimensions":["antennae","legs"],"bee_group":{"antennae":"B","wings":"X","pattern":"X","legs":"M"},"action":"harvest","summary":"good-harvest","bonus":0.7800000000000008},{"rt":577.5,"stimulus":"\n                    <p><b>Action: <em>harvest</em></b></p>\n                    <p>This is the bee that you just saw.</p>\n                    <img src=\"bees-with-color/bee-A1SF.svg\" width=\"200\">\n                    <p><span class=\"greenText\"><b>Successful harvest!</b></span><br>Your pay has increased by $0.02. Your bonus pay is now $0.60.</p>\n            ","response":0,"trial_type":"html-button-response","trial_index":60,"time_elapsed":648371,"internal_node_id":"0.0-4.0-1.26","subject_id":"60b6b2c1e2d7a2576cef627f","study_id":"60edd13110225f80f9f3709b","session_id":"6196c7067b6f2322f57da390","condition":"contingent","relevant_dimensions":["antennae","legs"],"bee_group":{"antennae":"B","wings":"X","pattern":"X","legs":"M"},"bonus":0.7800000000000008},{"rt":1570.6000000014901,"stimulus":"bees-with-color/bee-A2DF.svg","response":1,"trial_type":"image-button-response","trial_index":61,"time_elapsed":649943,"internal_node_id":"0.0-4.0-0.27","subject_id":"60b6b2c1e2d7a2576cef627f","study_id":"60edd13110225f80f9f3709b","session_id":"6196c7067b6f2322f57da390","condition":"contingent","relevant_dimensions":["antennae","legs"],"bee_group":{"antennae":"B","wings":"X","pattern":"X","legs":"M"},"action":"avoid","summary":"bad-avoid","bonus":0.7800000000000008},{"rt":611.2000000029802,"stimulus":"\n                    <p><b>Action: <em>avoid</em></b></p>\n                    <p>This is the bee that you just saw.</p>\n                    <img src=\"bees-with-color/bee-A2DF.svg\" width=\"200\">\n                    <p><br>Your bonus pay is unchanged, and remains at $0.60.</p>\n            ","response":0,"trial_type":"html-button-response","trial_index":62,"time_elapsed":650556,"internal_node_id":"0.0-4.0-1.27","subject_id":"60b6b2c1e2d7a2576cef627f","study_id":"60edd13110225f80f9f3709b","session_id":"6196c7067b6f2322f57da390","condition":"contingent","relevant_dimensions":["antennae","legs"],"bee_group":{"antennae":"B","wings":"X","pattern":"X","legs":"M"},"bonus":0.7800000000000008},{"rt":3087.5,"stimulus":"bees-with-color/bee-B1DF.svg","response":0,"trial_type":"image-button-response","trial_index":63,"time_elapsed":653645,"internal_node_id":"0.0-4.0-0.28","subject_id":"60b6b2c1e2d7a2576cef627f","study_id":"60edd13110225f80f9f3709b","session_id":"6196c7067b6f2322f57da390","condition":"contingent","relevant_dimensions":["antennae","legs"],"bee_group":{"antennae":"B","wings":"X","pattern":"X","legs":"M"},"action":"harvest","summary":"good-harvest","bonus":0.7800000000000008},{"rt":657.5,"stimulus":"\n                    <p><b>Action: <em>harvest</em></b></p>\n                    <p>This is the bee that you just saw.</p>\n                    <img src=\"bees-with-color/bee-B1DF.svg\" width=\"200\">\n                    <p><span class=\"greenText\"><b>Successful harvest!</b></span><br>Your pay has increased by $0.02. Your bonus pay is now $0.62.</p>\n            ","response":0,"trial_type":"html-button-response","trial_index":64,"time_elapsed":654304,"internal_node_id":"0.0-4.0-1.28","subject_id":"60b6b2c1e2d7a2576cef627f","study_id":"60edd13110225f80f9f3709b","session_id":"6196c7067b6f2322f57da390","condition":"contingent","relevant_dimensions":["antennae","legs"],"bee_group":{"antennae":"B","wings":"X","pattern":"X","legs":"M"},"bonus":0.7800000000000008},{"rt":2300.300000000745,"stimulus":"bees-with-color/bee-B2DM.svg","response":1,"trial_type":"image-button-response","trial_index":65,"time_elapsed":656606,"internal_node_id":"0.0-4.0-0.29","subject_id":"60b6b2c1e2d7a2576cef627f","study_id":"60edd13110225f80f9f3709b","session_id":"6196c7067b6f2322f57da390","condition":"contingent","relevant_dimensions":["antennae","legs"],"bee_group":{"antennae":"B","wings":"X","pattern":"X","legs":"M"},"action":"avoid","summary":"good-avoid","bonus":0.7800000000000008},{"rt":666.7000000029802,"stimulus":"\n                    <p><b>Action: <em>avoid</em></b></p>\n                    <p>This is the bee that you just saw.</p>\n                    <img src=\"bees-with-color/bee-B2DM.svg\" width=\"200\">\n                    <p><br>Your bonus pay is unchanged, and remains at $0.62.</p>\n            ","response":0,"trial_type":"html-button-response","trial_index":66,"time_elapsed":657274,"internal_node_id":"0.0-4.0-1.29","subject_id":"60b6b2c1e2d7a2576cef627f","study_id":"60edd13110225f80f9f3709b","session_id":"6196c7067b6f2322f57da390","condition":"contingent","relevant_dimensions":["antennae","legs"],"bee_group":{"antennae":"B","wings":"X","pattern":"X","legs":"M"},"bonus":0.7800000000000008},{"rt":2120,"stimulus":"bees-with-color/bee-A1DF.svg","response":0,"trial_type":"image-button-response","trial_index":67,"time_elapsed":659401,"internal_node_id":"0.0-4.0-0.30","subject_id":"60b6b2c1e2d7a2576cef627f","study_id":"60edd13110225f80f9f3709b","session_id":"6196c7067b6f2322f57da390","condition":"contingent","relevant_dimensions":["antennae","legs"],"bee_group":{"antennae":"B","wings":"X","pattern":"X","legs":"M"},"action":"harvest","summary":"good-harvest","bonus":0.7800000000000008},{"rt":605.5,"stimulus":"\n                    <p><b>Action: <em>harvest</em></b></p>\n                    <p>This is the bee that you just saw.</p>\n                    <img src=\"bees-with-color/bee-A1DF.svg\" width=\"200\">\n                    <p><span class=\"greenText\"><b>Successful harvest!</b></span><br>Your pay has increased by $0.02. Your bonus pay is now $0.64.</p>\n            ","response":0,"trial_type":"html-button-response","trial_index":68,"time_elapsed":660008,"internal_node_id":"0.0-4.0-1.30","subject_id":"60b6b2c1e2d7a2576cef627f","study_id":"60edd13110225f80f9f3709b","session_id":"6196c7067b6f2322f57da390","condition":"contingent","relevant_dimensions":["antennae","legs"],"bee_group":{"antennae":"B","wings":"X","pattern":"X","legs":"M"},"bonus":0.7800000000000008},{"rt":1372.7999999970198,"stimulus":"bees-with-color/bee-B1DM.svg","response":1,"trial_type":"image-button-response","trial_index":69,"time_elapsed":661382,"internal_node_id":"0.0-4.0-0.31","subject_id":"60b6b2c1e2d7a2576cef627f","study_id":"60edd13110225f80f9f3709b","session_id":"6196c7067b6f2322f57da390","condition":"contingent","relevant_dimensions":["antennae","legs"],"bee_group":{"antennae":"B","wings":"X","pattern":"X","legs":"M"},"action":"avoid","summary":"good-avoid","bonus":0.7800000000000008},{"rt":540.6999999992549,"stimulus":"\n                    <p><b>Action: <em>avoid</em></b></p>\n                    <p>This is the bee that you just saw.</p>\n                    <img src=\"bees-with-color/bee-B1DM.svg\" width=\"200\">\n                    <p><br>Your bonus pay is unchanged, and remains at $0.64.</p>\n            ","response":0,"trial_type":"html-button-response","trial_index":70,"time_elapsed":661924,"internal_node_id":"0.0-4.0-1.31","subject_id":"60b6b2c1e2d7a2576cef627f","study_id":"60edd13110225f80f9f3709b","session_id":"6196c7067b6f2322f57da390","condition":"contingent","relevant_dimensions":["antennae","legs"],"bee_group":{"antennae":"B","wings":"X","pattern":"X","legs":"M"},"bonus":0.7800000000000008},{"rt":1967.4000000022352,"stimulus":"bees-with-color/bee-B1DF.svg","response":0,"trial_type":"image-button-response","trial_index":71,"time_elapsed":663892,"internal_node_id":"0.0-4.0-0.32","subject_id":"60b6b2c1e2d7a2576cef627f","study_id":"60edd13110225f80f9f3709b","session_id":"6196c7067b6f2322f57da390","condition":"contingent","relevant_dimensions":["antennae","legs"],"bee_group":{"antennae":"B","wings":"X","pattern":"X","legs":"M"},"action":"harvest","summary":"good-harvest","bonus":0.7800000000000008},{"rt":618.6999999992549,"stimulus":"\n                    <p><b>Action: <em>harvest</em></b></p>\n                    <p>This is the bee that you just saw.</p>\n                    <img src=\"bees-with-color/bee-B1DF.svg\" width=\"200\">\n                    <p><span class=\"greenText\"><b>Successful harvest!</b></span><br>Your pay has increased by $0.02. Your bonus pay is now $0.66.</p>\n            ","response":0,"trial_type":"html-button-response","trial_index":72,"time_elapsed":664512,"internal_node_id":"0.0-4.0-1.32","subject_id":"60b6b2c1e2d7a2576cef627f","study_id":"60edd13110225f80f9f3709b","session_id":"6196c7067b6f2322f57da390","condition":"contingent","relevant_dimensions":["antennae","legs"],"bee_group":{"antennae":"B","wings":"X","pattern":"X","legs":"M"},"bonus":0.7800000000000008},{"rt":4463.300000000745,"stimulus":"bees-with-color/bee-B2SM.svg","response":1,"trial_type":"image-button-response","trial_index":73,"time_elapsed":668977,"internal_node_id":"0.0-4.0-0.33","subject_id":"60b6b2c1e2d7a2576cef627f","study_id":"60edd13110225f80f9f3709b","session_id":"6196c7067b6f2322f57da390","condition":"contingent","relevant_dimensions":["antennae","legs"],"bee_group":{"antennae":"B","wings":"X","pattern":"X","legs":"M"},"action":"avoid","summary":"good-avoid","bonus":0.7800000000000008},{"rt":540.1999999992549,"stimulus":"\n                    <p><b>Action: <em>avoid</em></b></p>\n                    <p>This is the bee that you just saw.</p>\n                    <img src=\"bees-with-color/bee-B2SM.svg\" width=\"200\">\n                    <p><br>Your bonus pay is unchanged, and remains at $0.66.</p>\n            ","response":0,"trial_type":"html-button-response","trial_index":74,"time_elapsed":669519,"internal_node_id":"0.0-4.0-1.33","subject_id":"60b6b2c1e2d7a2576cef627f","study_id":"60edd13110225f80f9f3709b","session_id":"6196c7067b6f2322f57da390","condition":"contingent","relevant_dimensions":["antennae","legs"],"bee_group":{"antennae":"B","wings":"X","pattern":"X","legs":"M"},"bonus":0.7800000000000008},{"rt":1139.4000000022352,"stimulus":"bees-with-color/bee-A1SM.svg","response":1,"trial_type":"image-button-response","trial_index":75,"time_elapsed":670659,"internal_node_id":"0.0-4.0-0.34","subject_id":"60b6b2c1e2d7a2576cef627f","study_id":"60edd13110225f80f9f3709b","session_id":"6196c7067b6f2322f57da390","condition":"contingent","relevant_dimensions":["antennae","legs"],"bee_group":{"antennae":"B","wings":"X","pattern":"X","legs":"M"},"action":"avoid","summary":"bad-avoid","bonus":0.7800000000000008},{"rt":496.30000000074506,"stimulus":"\n                    <p><b>Action: <em>avoid</em></b></p>\n                    <p>This is the bee that you just saw.</p>\n                    <img src=\"bees-with-color/bee-A1SM.svg\" width=\"200\">\n                    <p><br>Your bonus pay is unchanged, and remains at $0.66.</p>\n            ","response":0,"trial_type":"html-button-response","trial_index":76,"time_elapsed":671157,"internal_node_id":"0.0-4.0-1.34","subject_id":"60b6b2c1e2d7a2576cef627f","study_id":"60edd13110225f80f9f3709b","session_id":"6196c7067b6f2322f57da390","condition":"contingent","relevant_dimensions":["antennae","legs"],"bee_group":{"antennae":"B","wings":"X","pattern":"X","legs":"M"},"bonus":0.7800000000000008},{"rt":1544.9000000022352,"stimulus":"bees-with-color/bee-A2SM.svg","response":1,"trial_type":"image-button-response","trial_index":77,"time_elapsed":672704,"internal_node_id":"0.0-4.0-0.35","subject_id":"60b6b2c1e2d7a2576cef627f","study_id":"60edd13110225f80f9f3709b","session_id":"6196c7067b6f2322f57da390","condition":"contingent","relevant_dimensions":["antennae","legs"],"bee_group":{"antennae":"B","wings":"X","pattern":"X","legs":"M"},"action":"avoid","summary":"bad-avoid","bonus":0.7800000000000008},{"rt":508.1000000014901,"stimulus":"\n                    <p><b>Action: <em>avoid</em></b></p>\n                    <p>This is the bee that you just saw.</p>\n                    <img src=\"bees-with-color/bee-A2SM.svg\" width=\"200\">\n                    <p><br>Your bonus pay is unchanged, and remains at $0.66.</p>\n            ","response":0,"trial_type":"html-button-response","trial_index":78,"time_elapsed":673213,"internal_node_id":"0.0-4.0-1.35","subject_id":"60b6b2c1e2d7a2576cef627f","study_id":"60edd13110225f80f9f3709b","session_id":"6196c7067b6f2322f57da390","condition":"contingent","relevant_dimensions":["antennae","legs"],"bee_group":{"antennae":"B","wings":"X","pattern":"X","legs":"M"},"bonus":0.7800000000000008},{"rt":975.1999999992549,"stimulus":"bees-with-color/bee-A2DM.svg","response":1,"trial_type":"image-button-response","trial_index":79,"time_elapsed":674192,"internal_node_id":"0.0-4.0-0.36","subject_id":"60b6b2c1e2d7a2576cef627f","study_id":"60edd13110225f80f9f3709b","session_id":"6196c7067b6f2322f57da390","condition":"contingent","relevant_dimensions":["antennae","legs"],"bee_group":{"antennae":"B","wings":"X","pattern":"X","legs":"M"},"action":"avoid","summary":"bad-avoid","bonus":0.7800000000000008},{"rt":439.69999999925494,"stimulus":"\n                    <p><b>Action: <em>avoid</em></b></p>\n                    <p>This is the bee that you just saw.</p>\n                    <img src=\"bees-with-color/bee-A2DM.svg\" width=\"200\">\n                    <p><br>Your bonus pay is unchanged, and remains at $0.66.</p>\n            ","response":0,"trial_type":"html-button-response","trial_index":80,"time_elapsed":674634,"internal_node_id":"0.0-4.0-1.36","subject_id":"60b6b2c1e2d7a2576cef627f","study_id":"60edd13110225f80f9f3709b","session_id":"6196c7067b6f2322f57da390","condition":"contingent","relevant_dimensions":["antennae","legs"],"bee_group":{"antennae":"B","wings":"X","pattern":"X","legs":"M"},"bonus":0.7800000000000008},{"rt":1179.3999999985099,"stimulus":"bees-with-color/bee-B2DM.svg","response":1,"trial_type":"image-button-response","trial_index":81,"time_elapsed":675815,"internal_node_id":"0.0-4.0-0.37","subject_id":"60b6b2c1e2d7a2576cef627f","study_id":"60edd13110225f80f9f3709b","session_id":"6196c7067b6f2322f57da390","condition":"contingent","relevant_dimensions":["antennae","legs"],"bee_group":{"antennae":"B","wings":"X","pattern":"X","legs":"M"},"action":"avoid","summary":"good-avoid","bonus":0.7800000000000008},{"rt":417.6000000014901,"stimulus":"\n                    <p><b>Action: <em>avoid</em></b></p>\n                    <p>This is the bee that you just saw.</p>\n                    <img src=\"bees-with-color/bee-B2DM.svg\" width=\"200\">\n                    <p><br>Your bonus pay is unchanged, and remains at $0.66.</p>\n            ","response":0,"trial_type":"html-button-response","trial_index":82,"time_elapsed":676234,"internal_node_id":"0.0-4.0-1.37","subject_id":"60b6b2c1e2d7a2576cef627f","study_id":"60edd13110225f80f9f3709b","session_id":"6196c7067b6f2322f57da390","condition":"contingent","relevant_dimensions":["antennae","legs"],"bee_group":{"antennae":"B","wings":"X","pattern":"X","legs":"M"},"bonus":0.7800000000000008},{"rt":1601.7999999970198,"stimulus":"bees-with-color/bee-A1SF.svg","response":0,"trial_type":"image-button-response","trial_index":83,"time_elapsed":677837,"internal_node_id":"0.0-4.0-0.38","subject_id":"60b6b2c1e2d7a2576cef627f","study_id":"60edd13110225f80f9f3709b","session_id":"6196c7067b6f2322f57da390","condition":"contingent","relevant_dimensions":["antennae","legs"],"bee_group":{"antennae":"B","wings":"X","pattern":"X","legs":"M"},"action":"harvest","summary":"good-harvest","bonus":0.7800000000000008},{"rt":570.0999999977648,"stimulus":"\n                    <p><b>Action: <em>harvest</em></b></p>\n                    <p>This is the bee that you just saw.</p>\n                    <img src=\"bees-with-color/bee-A1SF.svg\" width=\"200\">\n                    <p><span class=\"greenText\"><b>Successful harvest!</b></span><br>Your pay has increased by $0.02. Your bonus pay is now $0.68.</p>\n            ","response":0,"trial_type":"html-button-response","trial_index":84,"time_elapsed":678409,"internal_node_id":"0.0-4.0-1.38","subject_id":"60b6b2c1e2d7a2576cef627f","study_id":"60edd13110225f80f9f3709b","session_id":"6196c7067b6f2322f57da390","condition":"contingent","relevant_dimensions":["antennae","legs"],"bee_group":{"antennae":"B","wings":"X","pattern":"X","legs":"M"},"bonus":0.7800000000000008},{"rt":1132,"stimulus":"bees-with-color/bee-A1DF.svg","response":0,"trial_type":"image-button-response","trial_index":85,"time_elapsed":679542,"internal_node_id":"0.0-4.0-0.39","subject_id":"60b6b2c1e2d7a2576cef627f","study_id":"60edd13110225f80f9f3709b","session_id":"6196c7067b6f2322f57da390","condition":"contingent","relevant_dimensions":["antennae","legs"],"bee_group":{"antennae":"B","wings":"X","pattern":"X","legs":"M"},"action":"harvest","summary":"good-harvest","bonus":0.7800000000000008},{"rt":713,"stimulus":"\n                    <p><b>Action: <em>harvest</em></b></p>\n                    <p>This is the bee that you just saw.</p>\n                    <img src=\"bees-with-color/bee-A1DF.svg\" width=\"200\">\n                    <p><span class=\"greenText\"><b>Successful harvest!</b></span><br>Your pay has increased by $0.02. Your bonus pay is now $0.70.</p>\n            ","response":0,"trial_type":"html-button-response","trial_index":86,"time_elapsed":680257,"internal_node_id":"0.0-4.0-1.39","subject_id":"60b6b2c1e2d7a2576cef627f","study_id":"60edd13110225f80f9f3709b","session_id":"6196c7067b6f2322f57da390","condition":"contingent","relevant_dimensions":["antennae","legs"],"bee_group":{"antennae":"B","wings":"X","pattern":"X","legs":"M"},"bonus":0.7800000000000008},{"rt":1441.300000000745,"stimulus":"bees-with-color/bee-A2SF.svg","response":1,"trial_type":"image-button-response","trial_index":87,"time_elapsed":681699,"internal_node_id":"0.0-4.0-0.40","subject_id":"60b6b2c1e2d7a2576cef627f","study_id":"60edd13110225f80f9f3709b","session_id":"6196c7067b6f2322f57da390","condition":"contingent","relevant_dimensions":["antennae","legs"],"bee_group":{"antennae":"B","wings":"X","pattern":"X","legs":"M"},"action":"avoid","summary":"bad-avoid","bonus":0.7800000000000008},{"rt":506.3999999985099,"stimulus":"\n                    <p><b>Action: <em>avoid</em></b></p>\n                    <p>This is the bee that you just saw.</p>\n                    <img src=\"bees-with-color/bee-A2SF.svg\" width=\"200\">\n                    <p><br>Your bonus pay is unchanged, and remains at $0.70.</p>\n            ","response":0,"trial_type":"html-button-response","trial_index":88,"time_elapsed":682207,"internal_node_id":"0.0-4.0-1.40","subject_id":"60b6b2c1e2d7a2576cef627f","study_id":"60edd13110225f80f9f3709b","session_id":"6196c7067b6f2322f57da390","condition":"contingent","relevant_dimensions":["antennae","legs"],"bee_group":{"antennae":"B","wings":"X","pattern":"X","legs":"M"},"bonus":0.7800000000000008},{"rt":1114.199999999255,"stimulus":"bees-with-color/bee-B1DM.svg","response":1,"trial_type":"image-button-response","trial_index":89,"time_elapsed":683323,"internal_node_id":"0.0-4.0-0.41","subject_id":"60b6b2c1e2d7a2576cef627f","study_id":"60edd13110225f80f9f3709b","session_id":"6196c7067b6f2322f57da390","condition":"contingent","relevant_dimensions":["antennae","legs"],"bee_group":{"antennae":"B","wings":"X","pattern":"X","legs":"M"},"action":"avoid","summary":"good-avoid","bonus":0.7800000000000008},{"rt":463.5999999977648,"stimulus":"\n                    <p><b>Action: <em>avoid</em></b></p>\n                    <p>This is the bee that you just saw.</p>\n                    <img src=\"bees-with-color/bee-B1DM.svg\" width=\"200\">\n                    <p><br>Your bonus pay is unchanged, and remains at $0.70.</p>\n            ","response":0,"trial_type":"html-button-response","trial_index":90,"time_elapsed":683787,"internal_node_id":"0.0-4.0-1.41","subject_id":"60b6b2c1e2d7a2576cef627f","study_id":"60edd13110225f80f9f3709b","session_id":"6196c7067b6f2322f57da390","condition":"contingent","relevant_dimensions":["antennae","legs"],"bee_group":{"antennae":"B","wings":"X","pattern":"X","legs":"M"},"bonus":0.7800000000000008},{"rt":1910,"stimulus":"bees-with-color/bee-B2SF.svg","response":1,"trial_type":"image-button-response","trial_index":91,"time_elapsed":685699,"internal_node_id":"0.0-4.0-0.42","subject_id":"60b6b2c1e2d7a2576cef627f","study_id":"60edd13110225f80f9f3709b","session_id":"6196c7067b6f2322f57da390","condition":"contingent","relevant_dimensions":["antennae","legs"],"bee_group":{"antennae":"B","wings":"X","pattern":"X","legs":"M"},"action":"avoid","summary":"bad-avoid","bonus":0.7800000000000008},{"rt":495.9000000022352,"stimulus":"\n                    <p><b>Action: <em>avoid</em></b></p>\n                    <p>This is the bee that you just saw.</p>\n                    <img src=\"bees-with-color/bee-B2SF.svg\" width=\"200\">\n                    <p><br>Your bonus pay is unchanged, and remains at $0.70.</p>\n            ","response":0,"trial_type":"html-button-response","trial_index":92,"time_elapsed":686196,"internal_node_id":"0.0-4.0-1.42","subject_id":"60b6b2c1e2d7a2576cef627f","study_id":"60edd13110225f80f9f3709b","session_id":"6196c7067b6f2322f57da390","condition":"contingent","relevant_dimensions":["antennae","legs"],"bee_group":{"antennae":"B","wings":"X","pattern":"X","legs":"M"},"bonus":0.7800000000000008},{"rt":932.6999999992549,"stimulus":"bees-with-color/bee-B1SM.svg","response":1,"trial_type":"image-button-response","trial_index":93,"time_elapsed":687130,"internal_node_id":"0.0-4.0-0.43","subject_id":"60b6b2c1e2d7a2576cef627f","study_id":"60edd13110225f80f9f3709b","session_id":"6196c7067b6f2322f57da390","condition":"contingent","relevant_dimensions":["antennae","legs"],"bee_group":{"antennae":"B","wings":"X","pattern":"X","legs":"M"},"action":"avoid","summary":"good-avoid","bonus":0.7800000000000008},{"rt":400.79999999701977,"stimulus":"\n                    <p><b>Action: <em>avoid</em></b></p>\n                    <p>This is the bee that you just saw.</p>\n                    <img src=\"bees-with-color/bee-B1SM.svg\" width=\"200\">\n                    <p><br>Your bonus pay is unchanged, and remains at $0.70.</p>\n            ","response":0,"trial_type":"html-button-response","trial_index":94,"time_elapsed":687532,"internal_node_id":"0.0-4.0-1.43","subject_id":"60b6b2c1e2d7a2576cef627f","study_id":"60edd13110225f80f9f3709b","session_id":"6196c7067b6f2322f57da390","condition":"contingent","relevant_dimensions":["antennae","legs"],"bee_group":{"antennae":"B","wings":"X","pattern":"X","legs":"M"},"bonus":0.7800000000000008},{"rt":1494.5999999977648,"stimulus":"bees-with-color/bee-B2DF.svg","response":1,"trial_type":"image-button-response","trial_index":95,"time_elapsed":689028,"internal_node_id":"0.0-4.0-0.44","subject_id":"60b6b2c1e2d7a2576cef627f","study_id":"60edd13110225f80f9f3709b","session_id":"6196c7067b6f2322f57da390","condition":"contingent","relevant_dimensions":["antennae","legs"],"bee_group":{"antennae":"B","wings":"X","pattern":"X","legs":"M"},"action":"avoid","summary":"bad-avoid","bonus":0.7800000000000008},{"rt":372.9000000022352,"stimulus":"\n                    <p><b>Action: <em>avoid</em></b></p>\n                    <p>This is the bee that you just saw.</p>\n                    <img src=\"bees-with-color/bee-B2DF.svg\" width=\"200\">\n                    <p><br>Your bonus pay is unchanged, and remains at $0.70.</p>\n            ","response":0,"trial_type":"html-button-response","trial_index":96,"time_elapsed":689402,"internal_node_id":"0.0-4.0-1.44","subject_id":"60b6b2c1e2d7a2576cef627f","study_id":"60edd13110225f80f9f3709b","session_id":"6196c7067b6f2322f57da390","condition":"contingent","relevant_dimensions":["antennae","legs"],"bee_group":{"antennae":"B","wings":"X","pattern":"X","legs":"M"},"bonus":0.7800000000000008},{"rt":1632.800000000745,"stimulus":"bees-with-color/bee-B1SF.svg","response":1,"trial_type":"image-button-response","trial_index":97,"time_elapsed":691036,"internal_node_id":"0.0-4.0-0.45","subject_id":"60b6b2c1e2d7a2576cef627f","study_id":"60edd13110225f80f9f3709b","session_id":"6196c7067b6f2322f57da390","condition":"contingent","relevant_dimensions":["antennae","legs"],"bee_group":{"antennae":"B","wings":"X","pattern":"X","legs":"M"},"action":"avoid","summary":"bad-avoid","bonus":0.7800000000000008},{"rt":391.80000000074506,"stimulus":"\n                    <p><b>Action: <em>avoid</em></b></p>\n                    <p>This is the bee that you just saw.</p>\n                    <img src=\"bees-with-color/bee-B1SF.svg\" width=\"200\">\n                    <p><br>Your bonus pay is unchanged, and remains at $0.70.</p>\n            ","response":0,"trial_type":"html-button-response","trial_index":98,"time_elapsed":691429,"internal_node_id":"0.0-4.0-1.45","subject_id":"60b6b2c1e2d7a2576cef627f","study_id":"60edd13110225f80f9f3709b","session_id":"6196c7067b6f2322f57da390","condition":"contingent","relevant_dimensions":["antennae","legs"],"bee_group":{"antennae":"B","wings":"X","pattern":"X","legs":"M"},"bonus":0.7800000000000008},{"rt":1761.199999999255,"stimulus":"bees-with-color/bee-A2DF.svg","response":1,"trial_type":"image-button-response","trial_index":99,"time_elapsed":693192,"internal_node_id":"0.0-4.0-0.46","subject_id":"60b6b2c1e2d7a2576cef627f","study_id":"60edd13110225f80f9f3709b","session_id":"6196c7067b6f2322f57da390","condition":"contingent","relevant_dimensions":["antennae","legs"],"bee_group":{"antennae":"B","wings":"X","pattern":"X","legs":"M"},"action":"avoid","summary":"bad-avoid","bonus":0.7800000000000008},{"rt":383.30000000074506,"stimulus":"\n                    <p><b>Action: <em>avoid</em></b></p>\n                    <p>This is the bee that you just saw.</p>\n                    <img src=\"bees-with-color/bee-A2DF.svg\" width=\"200\">\n                    <p><br>Your bonus pay is unchanged, and remains at $0.70.</p>\n            ","response":0,"trial_type":"html-button-response","trial_index":100,"time_elapsed":693577,"internal_node_id":"0.0-4.0-1.46","subject_id":"60b6b2c1e2d7a2576cef627f","study_id":"60edd13110225f80f9f3709b","session_id":"6196c7067b6f2322f57da390","condition":"contingent","relevant_dimensions":["antennae","legs"],"bee_group":{"antennae":"B","wings":"X","pattern":"X","legs":"M"},"bonus":0.7800000000000008},{"rt":1076.8999999985099,"stimulus":"bees-with-color/bee-A1DM.svg","response":1,"trial_type":"image-button-response","trial_index":101,"time_elapsed":694655,"internal_node_id":"0.0-4.0-0.47","subject_id":"60b6b2c1e2d7a2576cef627f","study_id":"60edd13110225f80f9f3709b","session_id":"6196c7067b6f2322f57da390","condition":"contingent","relevant_dimensions":["antennae","legs"],"bee_group":{"antennae":"B","wings":"X","pattern":"X","legs":"M"},"action":"avoid","summary":"bad-avoid","bonus":0.7800000000000008},{"rt":455.8999999985099,"stimulus":"\n                    <p><b>Action: <em>avoid</em></b></p>\n                    <p>This is the bee that you just saw.</p>\n                    <img src=\"bees-with-color/bee-A1DM.svg\" width=\"200\">\n                    <p><br>Your bonus pay is unchanged, and remains at $0.70.</p>\n            ","response":0,"trial_type":"html-button-response","trial_index":102,"time_elapsed":695113,"internal_node_id":"0.0-4.0-1.47","subject_id":"60b6b2c1e2d7a2576cef627f","study_id":"60edd13110225f80f9f3709b","session_id":"6196c7067b6f2322f57da390","condition":"contingent","relevant_dimensions":["antennae","legs"],"bee_group":{"antennae":"B","wings":"X","pattern":"X","legs":"M"},"bonus":0.7800000000000008},{"rt":1738.9000000022352,"stimulus":"bees-with-color/bee-B1DF.svg","response":0,"trial_type":"image-button-response","trial_index":103,"time_elapsed":696853,"internal_node_id":"0.0-4.0-0.48","subject_id":"60b6b2c1e2d7a2576cef627f","study_id":"60edd13110225f80f9f3709b","session_id":"6196c7067b6f2322f57da390","condition":"contingent","relevant_dimensions":["antennae","legs"],"bee_group":{"antennae":"B","wings":"X","pattern":"X","legs":"M"},"action":"harvest","summary":"good-harvest","bonus":0.7800000000000008},{"rt":520.3000000007451,"stimulus":"\n                    <p><b>Action: <em>harvest</em></b></p>\n                    <p>This is the bee that you just saw.</p>\n                    <img src=\"bees-with-color/bee-B1DF.svg\" width=\"200\">\n                    <p><span class=\"greenText\"><b>Successful harvest!</b></span><br>Your pay has increased by $0.02. Your bonus pay is now $0.72.</p>\n            ","response":0,"trial_type":"html-button-response","trial_index":104,"time_elapsed":697375,"internal_node_id":"0.0-4.0-1.48","subject_id":"60b6b2c1e2d7a2576cef627f","study_id":"60edd13110225f80f9f3709b","session_id":"6196c7067b6f2322f57da390","condition":"contingent","relevant_dimensions":["antennae","legs"],"bee_group":{"antennae":"B","wings":"X","pattern":"X","legs":"M"},"bonus":0.7800000000000008},{"rt":993.7999999970198,"stimulus":"bees-with-color/bee-B1SM.svg","response":1,"trial_type":"image-button-response","trial_index":105,"time_elapsed":698371,"internal_node_id":"0.0-4.0-0.49","subject_id":"60b6b2c1e2d7a2576cef627f","study_id":"60edd13110225f80f9f3709b","session_id":"6196c7067b6f2322f57da390","condition":"contingent","relevant_dimensions":["antennae","legs"],"bee_group":{"antennae":"B","wings":"X","pattern":"X","legs":"M"},"action":"avoid","summary":"good-avoid","bonus":0.7800000000000008},{"rt":514.7000000029802,"stimulus":"\n                    <p><b>Action: <em>avoid</em></b></p>\n                    <p>This is the bee that you just saw.</p>\n                    <img src=\"bees-with-color/bee-B1SM.svg\" width=\"200\">\n                    <p><br>Your bonus pay is unchanged, and remains at $0.72.</p>\n            ","response":0,"trial_type":"html-button-response","trial_index":106,"time_elapsed":698887,"internal_node_id":"0.0-4.0-1.49","subject_id":"60b6b2c1e2d7a2576cef627f","study_id":"60edd13110225f80f9f3709b","session_id":"6196c7067b6f2322f57da390","condition":"contingent","relevant_dimensions":["antennae","legs"],"bee_group":{"antennae":"B","wings":"X","pattern":"X","legs":"M"},"bonus":0.7800000000000008},{"rt":1314.800000000745,"stimulus":"bees-with-color/bee-B2DF.svg","response":1,"trial_type":"image-button-response","trial_index":107,"time_elapsed":700203,"internal_node_id":"0.0-4.0-0.50","subject_id":"60b6b2c1e2d7a2576cef627f","study_id":"60edd13110225f80f9f3709b","session_id":"6196c7067b6f2322f57da390","condition":"contingent","relevant_dimensions":["antennae","legs"],"bee_group":{"antennae":"B","wings":"X","pattern":"X","legs":"M"},"action":"avoid","summary":"bad-avoid","bonus":0.7800000000000008},{"rt":417.5999999977648,"stimulus":"\n                    <p><b>Action: <em>avoid</em></b></p>\n                    <p>This is the bee that you just saw.</p>\n                    <img src=\"bees-with-color/bee-B2DF.svg\" width=\"200\">\n                    <p><br>Your bonus pay is unchanged, and remains at $0.72.</p>\n            ","response":0,"trial_type":"html-button-response","trial_index":108,"time_elapsed":700623,"internal_node_id":"0.0-4.0-1.50","subject_id":"60b6b2c1e2d7a2576cef627f","study_id":"60edd13110225f80f9f3709b","session_id":"6196c7067b6f2322f57da390","condition":"contingent","relevant_dimensions":["antennae","legs"],"bee_group":{"antennae":"B","wings":"X","pattern":"X","legs":"M"},"bonus":0.7800000000000008},{"rt":1657.7000000029802,"stimulus":"bees-with-color/bee-A1SF.svg","response":1,"trial_type":"image-button-response","trial_index":109,"time_elapsed":702282,"internal_node_id":"0.0-4.0-0.51","subject_id":"60b6b2c1e2d7a2576cef627f","study_id":"60edd13110225f80f9f3709b","session_id":"6196c7067b6f2322f57da390","condition":"contingent","relevant_dimensions":["antennae","legs"],"bee_group":{"antennae":"B","wings":"X","pattern":"X","legs":"M"},"action":"avoid","summary":"bad-avoid","bonus":0.7800000000000008},{"rt":402.30000000074506,"stimulus":"\n                    <p><b>Action: <em>avoid</em></b></p>\n                    <p>This is the bee that you just saw.</p>\n                    <img src=\"bees-with-color/bee-A1SF.svg\" width=\"200\">\n                    <p><br>Your bonus pay is unchanged, and remains at $0.72.</p>\n            ","response":0,"trial_type":"html-button-response","trial_index":110,"time_elapsed":702686,"internal_node_id":"0.0-4.0-1.51","subject_id":"60b6b2c1e2d7a2576cef627f","study_id":"60edd13110225f80f9f3709b","session_id":"6196c7067b6f2322f57da390","condition":"contingent","relevant_dimensions":["antennae","legs"],"bee_group":{"antennae":"B","wings":"X","pattern":"X","legs":"M"},"bonus":0.7800000000000008},{"rt":964.4000000022352,"stimulus":"bees-with-color/bee-A1DM.svg","response":1,"trial_type":"image-button-response","trial_index":111,"time_elapsed":703652,"internal_node_id":"0.0-4.0-0.52","subject_id":"60b6b2c1e2d7a2576cef627f","study_id":"60edd13110225f80f9f3709b","session_id":"6196c7067b6f2322f57da390","condition":"contingent","relevant_dimensions":["antennae","legs"],"bee_group":{"antennae":"B","wings":"X","pattern":"X","legs":"M"},"action":"avoid","summary":"bad-avoid","bonus":0.7800000000000008},{"rt":480.5,"stimulus":"\n                    <p><b>Action: <em>avoid</em></b></p>\n                    <p>This is the bee that you just saw.</p>\n                    <img src=\"bees-with-color/bee-A1DM.svg\" width=\"200\">\n                    <p><br>Your bonus pay is unchanged, and remains at $0.72.</p>\n            ","response":0,"trial_type":"html-button-response","trial_index":112,"time_elapsed":704134,"internal_node_id":"0.0-4.0-1.52","subject_id":"60b6b2c1e2d7a2576cef627f","study_id":"60edd13110225f80f9f3709b","session_id":"6196c7067b6f2322f57da390","condition":"contingent","relevant_dimensions":["antennae","legs"],"bee_group":{"antennae":"B","wings":"X","pattern":"X","legs":"M"},"bonus":0.7800000000000008},{"rt":981,"stimulus":"bees-with-color/bee-B2SM.svg","response":1,"trial_type":"image-button-response","trial_index":113,"time_elapsed":705116,"internal_node_id":"0.0-4.0-0.53","subject_id":"60b6b2c1e2d7a2576cef627f","study_id":"60edd13110225f80f9f3709b","session_id":"6196c7067b6f2322f57da390","condition":"contingent","relevant_dimensions":["antennae","legs"],"bee_group":{"antennae":"B","wings":"X","pattern":"X","legs":"M"},"action":"avoid","summary":"good-avoid","bonus":0.7800000000000008},{"rt":361.80000000074506,"stimulus":"\n                    <p><b>Action: <em>avoid</em></b></p>\n                    <p>This is the bee that you just saw.</p>\n                    <img src=\"bees-with-color/bee-B2SM.svg\" width=\"200\">\n                    <p><br>Your bonus pay is unchanged, and remains at $0.72.</p>\n            ","response":0,"trial_type":"html-button-response","trial_index":114,"time_elapsed":705479,"internal_node_id":"0.0-4.0-1.53","subject_id":"60b6b2c1e2d7a2576cef627f","study_id":"60edd13110225f80f9f3709b","session_id":"6196c7067b6f2322f57da390","condition":"contingent","relevant_dimensions":["antennae","legs"],"bee_group":{"antennae":"B","wings":"X","pattern":"X","legs":"M"},"bonus":0.7800000000000008},{"rt":3017.300000000745,"stimulus":"bees-with-color/bee-B1SF.svg","response":0,"trial_type":"image-button-response","trial_index":115,"time_elapsed":708497,"internal_node_id":"0.0-4.0-0.54","subject_id":"60b6b2c1e2d7a2576cef627f","study_id":"60edd13110225f80f9f3709b","session_id":"6196c7067b6f2322f57da390","condition":"contingent","relevant_dimensions":["antennae","legs"],"bee_group":{"antennae":"B","wings":"X","pattern":"X","legs":"M"},"action":"harvest","summary":"good-harvest","bonus":0.7800000000000008},{"rt":807.6999999992549,"stimulus":"\n                    <p><b>Action: <em>harvest</em></b></p>\n                    <p>This is the bee that you just saw.</p>\n                    <img src=\"bees-with-color/bee-B1SF.svg\" width=\"200\">\n                    <p><span class=\"greenText\"><b>Successful harvest!</b></span><br>Your pay has increased by $0.02. Your bonus pay is now $0.74.</p>\n            ","response":0,"trial_type":"html-button-response","trial_index":116,"time_elapsed":709306,"internal_node_id":"0.0-4.0-1.54","subject_id":"60b6b2c1e2d7a2576cef627f","study_id":"60edd13110225f80f9f3709b","session_id":"6196c7067b6f2322f57da390","condition":"contingent","relevant_dimensions":["antennae","legs"],"bee_group":{"antennae":"B","wings":"X","pattern":"X","legs":"M"},"bonus":0.7800000000000008},{"rt":1182.199999999255,"stimulus":"bees-with-color/bee-A2SF.svg","response":1,"trial_type":"image-button-response","trial_index":117,"time_elapsed":710490,"internal_node_id":"0.0-4.0-0.55","subject_id":"60b6b2c1e2d7a2576cef627f","study_id":"60edd13110225f80f9f3709b","session_id":"6196c7067b6f2322f57da390","condition":"contingent","relevant_dimensions":["antennae","legs"],"bee_group":{"antennae":"B","wings":"X","pattern":"X","legs":"M"},"action":"avoid","summary":"bad-avoid","bonus":0.7800000000000008},{"rt":663.1999999992549,"stimulus":"\n                    <p><b>Action: <em>avoid</em></b></p>\n                    <p>This is the bee that you just saw.</p>\n                    <img src=\"bees-with-color/bee-A2SF.svg\" width=\"200\">\n                    <p><br>Your bonus pay is unchanged, and remains at $0.74.</p>\n            ","response":0,"trial_type":"html-button-response","trial_index":118,"time_elapsed":711155,"internal_node_id":"0.0-4.0-1.55","subject_id":"60b6b2c1e2d7a2576cef627f","study_id":"60edd13110225f80f9f3709b","session_id":"6196c7067b6f2322f57da390","condition":"contingent","relevant_dimensions":["antennae","legs"],"bee_group":{"antennae":"B","wings":"X","pattern":"X","legs":"M"},"bonus":0.7800000000000008},{"rt":1024.699999999255,"stimulus":"bees-with-color/bee-B2DM.svg","response":1,"trial_type":"image-button-response","trial_index":119,"time_elapsed":712181,"internal_node_id":"0.0-4.0-0.56","subject_id":"60b6b2c1e2d7a2576cef627f","study_id":"60edd13110225f80f9f3709b","session_id":"6196c7067b6f2322f57da390","condition":"contingent","relevant_dimensions":["antennae","legs"],"bee_group":{"antennae":"B","wings":"X","pattern":"X","legs":"M"},"action":"avoid","summary":"good-avoid","bonus":0.7800000000000008},{"rt":528.0999999977648,"stimulus":"\n                    <p><b>Action: <em>avoid</em></b></p>\n                    <p>This is the bee that you just saw.</p>\n                    <img src=\"bees-with-color/bee-B2DM.svg\" width=\"200\">\n                    <p><br>Your bonus pay is unchanged, and remains at $0.74.</p>\n            ","response":0,"trial_type":"html-button-response","trial_index":120,"time_elapsed":712710,"internal_node_id":"0.0-4.0-1.56","subject_id":"60b6b2c1e2d7a2576cef627f","study_id":"60edd13110225f80f9f3709b","session_id":"6196c7067b6f2322f57da390","condition":"contingent","relevant_dimensions":["antennae","legs"],"bee_group":{"antennae":"B","wings":"X","pattern":"X","legs":"M"},"bonus":0.7800000000000008},{"rt":812.4000000022352,"stimulus":"bees-with-color/bee-B1DM.svg","response":1,"trial_type":"image-button-response","trial_index":121,"time_elapsed":713530,"internal_node_id":"0.0-4.0-0.57","subject_id":"60b6b2c1e2d7a2576cef627f","study_id":"60edd13110225f80f9f3709b","session_id":"6196c7067b6f2322f57da390","condition":"contingent","relevant_dimensions":["antennae","legs"],"bee_group":{"antennae":"B","wings":"X","pattern":"X","legs":"M"},"action":"avoid","summary":"good-avoid","bonus":0.7800000000000008},{"rt":572.9000000022352,"stimulus":"\n                    <p><b>Action: <em>avoid</em></b></p>\n                    <p>This is the bee that you just saw.</p>\n                    <img src=\"bees-with-color/bee-B1DM.svg\" width=\"200\">\n                    <p><br>Your bonus pay is unchanged, and remains at $0.74.</p>\n            ","response":0,"trial_type":"html-button-response","trial_index":122,"time_elapsed":714104,"internal_node_id":"0.0-4.0-1.57","subject_id":"60b6b2c1e2d7a2576cef627f","study_id":"60edd13110225f80f9f3709b","session_id":"6196c7067b6f2322f57da390","condition":"contingent","relevant_dimensions":["antennae","legs"],"bee_group":{"antennae":"B","wings":"X","pattern":"X","legs":"M"},"bonus":0.7800000000000008},{"rt":847.4000000022352,"stimulus":"bees-with-color/bee-B2SF.svg","response":1,"trial_type":"image-button-response","trial_index":123,"time_elapsed":714953,"internal_node_id":"0.0-4.0-0.58","subject_id":"60b6b2c1e2d7a2576cef627f","study_id":"60edd13110225f80f9f3709b","session_id":"6196c7067b6f2322f57da390","condition":"contingent","relevant_dimensions":["antennae","legs"],"bee_group":{"antennae":"B","wings":"X","pattern":"X","legs":"M"},"action":"avoid","summary":"bad-avoid","bonus":0.7800000000000008},{"rt":325.4000000022352,"stimulus":"\n                    <p><b>Action: <em>avoid</em></b></p>\n                    <p>This is the bee that you just saw.</p>\n                    <img src=\"bees-with-color/bee-B2SF.svg\" width=\"200\">\n                    <p><br>Your bonus pay is unchanged, and remains at $0.74.</p>\n            ","response":0,"trial_type":"html-button-response","trial_index":124,"time_elapsed":715280,"internal_node_id":"0.0-4.0-1.58","subject_id":"60b6b2c1e2d7a2576cef627f","study_id":"60edd13110225f80f9f3709b","session_id":"6196c7067b6f2322f57da390","condition":"contingent","relevant_dimensions":["antennae","legs"],"bee_group":{"antennae":"B","wings":"X","pattern":"X","legs":"M"},"bonus":0.7800000000000008},{"rt":595.5999999977648,"stimulus":"bees-with-color/bee-A2DM.svg","response":1,"trial_type":"image-button-response","trial_index":125,"time_elapsed":715878,"internal_node_id":"0.0-4.0-0.59","subject_id":"60b6b2c1e2d7a2576cef627f","study_id":"60edd13110225f80f9f3709b","session_id":"6196c7067b6f2322f57da390","condition":"contingent","relevant_dimensions":["antennae","legs"],"bee_group":{"antennae":"B","wings":"X","pattern":"X","legs":"M"},"action":"avoid","summary":"bad-avoid","bonus":0.7800000000000008},{"rt":389.69999999925494,"stimulus":"\n                    <p><b>Action: <em>avoid</em></b></p>\n                    <p>This is the bee that you just saw.</p>\n                    <img src=\"bees-with-color/bee-A2DM.svg\" width=\"200\">\n                    <p><br>Your bonus pay is unchanged, and remains at $0.74.</p>\n            ","response":0,"trial_type":"html-button-response","trial_index":126,"time_elapsed":716269,"internal_node_id":"0.0-4.0-1.59","subject_id":"60b6b2c1e2d7a2576cef627f","study_id":"60edd13110225f80f9f3709b","session_id":"6196c7067b6f2322f57da390","condition":"contingent","relevant_dimensions":["antennae","legs"],"bee_group":{"antennae":"B","wings":"X","pattern":"X","legs":"M"},"bonus":0.7800000000000008},{"rt":607.9000000022352,"stimulus":"bees-with-color/bee-A1DF.svg","response":1,"trial_type":"image-button-response","trial_index":127,"time_elapsed":716878,"internal_node_id":"0.0-4.0-0.60","subject_id":"60b6b2c1e2d7a2576cef627f","study_id":"60edd13110225f80f9f3709b","session_id":"6196c7067b6f2322f57da390","condition":"contingent","relevant_dimensions":["antennae","legs"],"bee_group":{"antennae":"B","wings":"X","pattern":"X","legs":"M"},"action":"avoid","summary":"bad-avoid","bonus":0.7800000000000008},{"rt":331.9000000022352,"stimulus":"\n                    <p><b>Action: <em>avoid</em></b></p>\n                    <p>This is the bee that you just saw.</p>\n                    <img src=\"bees-with-color/bee-A1DF.svg\" width=\"200\">\n                    <p><br>Your bonus pay is unchanged, and remains at $0.74.</p>\n            ","response":0,"trial_type":"html-button-response","trial_index":128,"time_elapsed":717212,"internal_node_id":"0.0-4.0-1.60","subject_id":"60b6b2c1e2d7a2576cef627f","study_id":"60edd13110225f80f9f3709b","session_id":"6196c7067b6f2322f57da390","condition":"contingent","relevant_dimensions":["antennae","legs"],"bee_group":{"antennae":"B","wings":"X","pattern":"X","legs":"M"},"bonus":0.7800000000000008},{"rt":336,"stimulus":"bees-with-color/bee-A2SM.svg","response":1,"trial_type":"image-button-response","trial_index":129,"time_elapsed":717549,"internal_node_id":"0.0-4.0-0.61","subject_id":"60b6b2c1e2d7a2576cef627f","study_id":"60edd13110225f80f9f3709b","session_id":"6196c7067b6f2322f57da390","condition":"contingent","relevant_dimensions":["antennae","legs"],"bee_group":{"antennae":"B","wings":"X","pattern":"X","legs":"M"},"action":"avoid","summary":"bad-avoid","bonus":0.7800000000000008},{"rt":415.19999999925494,"stimulus":"\n                    <p><b>Action: <em>avoid</em></b></p>\n                    <p>This is the bee that you just saw.</p>\n                    <img src=\"bees-with-color/bee-A2SM.svg\" width=\"200\">\n                    <p><br>Your bonus pay is unchanged, and remains at $0.74.</p>\n            ","response":0,"trial_type":"html-button-response","trial_index":130,"time_elapsed":717966,"internal_node_id":"0.0-4.0-1.61","subject_id":"60b6b2c1e2d7a2576cef627f","study_id":"60edd13110225f80f9f3709b","session_id":"6196c7067b6f2322f57da390","condition":"contingent","relevant_dimensions":["antennae","legs"],"bee_group":{"antennae":"B","wings":"X","pattern":"X","legs":"M"},"bonus":0.7800000000000008},{"rt":412.8999999985099,"stimulus":"bees-with-color/bee-A2DF.svg","response":1,"trial_type":"image-button-response","trial_index":131,"time_elapsed":718380,"internal_node_id":"0.0-4.0-0.62","subject_id":"60b6b2c1e2d7a2576cef627f","study_id":"60edd13110225f80f9f3709b","session_id":"6196c7067b6f2322f57da390","condition":"contingent","relevant_dimensions":["antennae","legs"],"bee_group":{"antennae":"B","wings":"X","pattern":"X","legs":"M"},"action":"avoid","summary":"bad-avoid","bonus":0.7800000000000008},{"rt":627.6000000014901,"stimulus":"\n                    <p><b>Action: <em>avoid</em></b></p>\n                    <p>This is the bee that you just saw.</p>\n                    <img src=\"bees-with-color/bee-A2DF.svg\" width=\"200\">\n                    <p><br>Your bonus pay is unchanged, and remains at $0.74.</p>\n            ","response":0,"trial_type":"html-button-response","trial_index":132,"time_elapsed":719010,"internal_node_id":"0.0-4.0-1.62","subject_id":"60b6b2c1e2d7a2576cef627f","study_id":"60edd13110225f80f9f3709b","session_id":"6196c7067b6f2322f57da390","condition":"contingent","relevant_dimensions":["antennae","legs"],"bee_group":{"antennae":"B","wings":"X","pattern":"X","legs":"M"},"bonus":0.7800000000000008},{"rt":715.0999999977648,"stimulus":"bees-with-color/bee-A1SM.svg","response":1,"trial_type":"image-button-response","trial_index":133,"time_elapsed":719726,"internal_node_id":"0.0-4.0-0.63","subject_id":"60b6b2c1e2d7a2576cef627f","study_id":"60edd13110225f80f9f3709b","session_id":"6196c7067b6f2322f57da390","condition":"contingent","relevant_dimensions":["antennae","legs"],"bee_group":{"antennae":"B","wings":"X","pattern":"X","legs":"M"},"action":"avoid","summary":"bad-avoid","bonus":0.7800000000000008},{"rt":616.2999999970198,"stimulus":"\n                    <p><b>Action: <em>avoid</em></b></p>\n                    <p>This is the bee that you just saw.</p>\n                    <img src=\"bees-with-color/bee-A1SM.svg\" width=\"200\">\n                    <p><br>Your bonus pay is unchanged, and remains at $0.74.</p>\n            ","response":0,"trial_type":"html-button-response","trial_index":134,"time_elapsed":720344,"internal_node_id":"0.0-4.0-1.63","subject_id":"60b6b2c1e2d7a2576cef627f","study_id":"60edd13110225f80f9f3709b","session_id":"6196c7067b6f2322f57da390","condition":"contingent","relevant_dimensions":["antennae","legs"],"bee_group":{"antennae":"B","wings":"X","pattern":"X","legs":"M"},"bonus":0.7800000000000008},{"rt":3506.300000000745,"stimulus":"You have completed the first part of this experiment.<br><br>You will now begin a shorter second part, in which you will receive no feedback.<br>The same rules regarding bonus pay apply.<br><br>Press any key to begin.","response":"j","trial_type":"html-keyboard-response","trial_index":135,"time_elapsed":723851,"internal_node_id":"0.0-5.0","subject_id":"60b6b2c1e2d7a2576cef627f","study_id":"60edd13110225f80f9f3709b","session_id":"6196c7067b6f2322f57da390","condition":"contingent","relevant_dimensions":["antennae","legs"],"bee_group":{"antennae":"B","wings":"X","pattern":"X","legs":"M"},"bonus":0.7800000000000008},{"rt":9153.60000000149,"stimulus":"bees-with-color/bee-A1DM.svg","response":1,"trial_type":"image-button-response","trial_index":136,"time_elapsed":733009,"internal_node_id":"0.0-6.0-0.0","subject_id":"60b6b2c1e2d7a2576cef627f","study_id":"60edd13110225f80f9f3709b","session_id":"6196c7067b6f2322f57da390","condition":"contingent","relevant_dimensions":["antennae","legs"],"bee_group":{"antennae":"B","wings":"X","pattern":"X","legs":"M"},"bonus":0.7800000000000008},{"rt":3182.300000000745,"stimulus":"bees-with-color/bee-B1SM.svg","response":1,"trial_type":"image-button-response","trial_index":137,"time_elapsed":736194,"internal_node_id":"0.0-6.0-0.1","subject_id":"60b6b2c1e2d7a2576cef627f","study_id":"60edd13110225f80f9f3709b","session_id":"6196c7067b6f2322f57da390","condition":"contingent","relevant_dimensions":["antennae","legs"],"bee_group":{"antennae":"B","wings":"X","pattern":"X","legs":"M"},"bonus":0.7800000000000008},{"rt":2599.60000000149,"stimulus":"bees-with-color/bee-B2DM.svg","response":0,"trial_type":"image-button-response","trial_index":138,"time_elapsed":738795,"internal_node_id":"0.0-6.0-0.2","subject_id":"60b6b2c1e2d7a2576cef627f","study_id":"60edd13110225f80f9f3709b","session_id":"6196c7067b6f2322f57da390","condition":"contingent","relevant_dimensions":["antennae","legs"],"bee_group":{"antennae":"B","wings":"X","pattern":"X","legs":"M"},"bonus":0.7800000000000008},{"rt":1292.300000000745,"stimulus":"bees-with-color/bee-A1SF.svg","response":0,"trial_type":"image-button-response","trial_index":139,"time_elapsed":740090,"internal_node_id":"0.0-6.0-0.3","subject_id":"60b6b2c1e2d7a2576cef627f","study_id":"60edd13110225f80f9f3709b","session_id":"6196c7067b6f2322f57da390","condition":"contingent","relevant_dimensions":["antennae","legs"],"bee_group":{"antennae":"B","wings":"X","pattern":"X","legs":"M"},"bonus":0.7800000000000008},{"rt":6190.199999999255,"stimulus":"bees-with-color/bee-A1DF.svg","response":0,"trial_type":"image-button-response","trial_index":140,"time_elapsed":746282,"internal_node_id":"0.0-6.0-0.4","subject_id":"60b6b2c1e2d7a2576cef627f","study_id":"60edd13110225f80f9f3709b","session_id":"6196c7067b6f2322f57da390","condition":"contingent","relevant_dimensions":["antennae","legs"],"bee_group":{"antennae":"B","wings":"X","pattern":"X","legs":"M"},"bonus":0.7800000000000008},{"rt":1327.1000000014901,"stimulus":"bees-with-color/bee-B2SF.svg","response":1,"trial_type":"image-button-response","trial_index":141,"time_elapsed":747611,"internal_node_id":"0.0-6.0-0.5","subject_id":"60b6b2c1e2d7a2576cef627f","study_id":"60edd13110225f80f9f3709b","session_id":"6196c7067b6f2322f57da390","condition":"contingent","relevant_dimensions":["antennae","legs"],"bee_group":{"antennae":"B","wings":"X","pattern":"X","legs":"M"},"bonus":0.7800000000000008},{"rt":16287.800000000745,"stimulus":"bees-with-color/bee-A2DF.svg","response":1,"trial_type":"image-button-response","trial_index":142,"time_elapsed":763901,"internal_node_id":"0.0-6.0-0.6","subject_id":"60b6b2c1e2d7a2576cef627f","study_id":"60edd13110225f80f9f3709b","session_id":"6196c7067b6f2322f57da390","condition":"contingent","relevant_dimensions":["antennae","legs"],"bee_group":{"antennae":"B","wings":"X","pattern":"X","legs":"M"},"bonus":0.7800000000000008},{"rt":964.8000000007451,"stimulus":"bees-with-color/bee-B1SF.svg","response":0,"trial_type":"image-button-response","trial_index":143,"time_elapsed":764868,"internal_node_id":"0.0-6.0-0.7","subject_id":"60b6b2c1e2d7a2576cef627f","study_id":"60edd13110225f80f9f3709b","session_id":"6196c7067b6f2322f57da390","condition":"contingent","relevant_dimensions":["antennae","legs"],"bee_group":{"antennae":"B","wings":"X","pattern":"X","legs":"M"},"bonus":0.7800000000000008},{"rt":1120.5,"stimulus":"bees-with-color/bee-B1DF.svg","response":0,"trial_type":"image-button-response","trial_index":144,"time_elapsed":765990,"internal_node_id":"0.0-6.0-0.8","subject_id":"60b6b2c1e2d7a2576cef627f","study_id":"60edd13110225f80f9f3709b","session_id":"6196c7067b6f2322f57da390","condition":"contingent","relevant_dimensions":["antennae","legs"],"bee_group":{"antennae":"B","wings":"X","pattern":"X","legs":"M"},"bonus":0.7800000000000008},{"rt":1190.7000000029802,"stimulus":"bees-with-color/bee-A2SM.svg","response":1,"trial_type":"image-button-response","trial_index":145,"time_elapsed":767183,"internal_node_id":"0.0-6.0-0.9","subject_id":"60b6b2c1e2d7a2576cef627f","study_id":"60edd13110225f80f9f3709b","session_id":"6196c7067b6f2322f57da390","condition":"contingent","relevant_dimensions":["antennae","legs"],"bee_group":{"antennae":"B","wings":"X","pattern":"X","legs":"M"},"bonus":0.7800000000000008},{"rt":1019.7000000029802,"stimulus":"bees-with-color/bee-A2SF.svg","response":0,"trial_type":"image-button-response","trial_index":146,"time_elapsed":768209,"internal_node_id":"0.0-6.0-0.10","subject_id":"60b6b2c1e2d7a2576cef627f","study_id":"60edd13110225f80f9f3709b","session_id":"6196c7067b6f2322f57da390","condition":"contingent","relevant_dimensions":["antennae","legs"],"bee_group":{"antennae":"B","wings":"X","pattern":"X","legs":"M"},"bonus":0.7800000000000008},{"rt":795.3999999985099,"stimulus":"bees-with-color/bee-A2DM.svg","response":1,"trial_type":"image-button-response","trial_index":147,"time_elapsed":769007,"internal_node_id":"0.0-6.0-0.11","subject_id":"60b6b2c1e2d7a2576cef627f","study_id":"60edd13110225f80f9f3709b","session_id":"6196c7067b6f2322f57da390","condition":"contingent","relevant_dimensions":["antennae","legs"],"bee_group":{"antennae":"B","wings":"X","pattern":"X","legs":"M"},"bonus":0.7800000000000008},{"rt":3035.5,"stimulus":"bees-with-color/bee-B2SM.svg","response":0,"trial_type":"image-button-response","trial_index":148,"time_elapsed":772044,"internal_node_id":"0.0-6.0-0.12","subject_id":"60b6b2c1e2d7a2576cef627f","study_id":"60edd13110225f80f9f3709b","session_id":"6196c7067b6f2322f57da390","condition":"contingent","relevant_dimensions":["antennae","legs"],"bee_group":{"antennae":"B","wings":"X","pattern":"X","legs":"M"},"bonus":0.7800000000000008},{"rt":2743.5,"stimulus":"bees-with-color/bee-A1SM.svg","response":1,"trial_type":"image-button-response","trial_index":149,"time_elapsed":774790,"internal_node_id":"0.0-6.0-0.13","subject_id":"60b6b2c1e2d7a2576cef627f","study_id":"60edd13110225f80f9f3709b","session_id":"6196c7067b6f2322f57da390","condition":"contingent","relevant_dimensions":["antennae","legs"],"bee_group":{"antennae":"B","wings":"X","pattern":"X","legs":"M"},"bonus":0.7800000000000008},{"rt":1341.199999999255,"stimulus":"bees-with-color/bee-B1DM.svg","response":0,"trial_type":"image-button-response","trial_index":150,"time_elapsed":776133,"internal_node_id":"0.0-6.0-0.14","subject_id":"60b6b2c1e2d7a2576cef627f","study_id":"60edd13110225f80f9f3709b","session_id":"6196c7067b6f2322f57da390","condition":"contingent","relevant_dimensions":["antennae","legs"],"bee_group":{"antennae":"B","wings":"X","pattern":"X","legs":"M"},"bonus":0.7800000000000008},{"rt":1859.0999999977648,"stimulus":"bees-with-color/bee-B2DF.svg","response":0,"trial_type":"image-button-response","trial_index":151,"time_elapsed":777994,"internal_node_id":"0.0-6.0-0.15","subject_id":"60b6b2c1e2d7a2576cef627f","study_id":"60edd13110225f80f9f3709b","session_id":"6196c7067b6f2322f57da390","condition":"contingent","relevant_dimensions":["antennae","legs"],"bee_group":{"antennae":"B","wings":"X","pattern":"X","legs":"M"},"bonus":0.7800000000000008},{"rt":1220.5,"stimulus":"bees-with-color/bee-A1SF.svg","response":0,"trial_type":"image-button-response","trial_index":152,"time_elapsed":779216,"internal_node_id":"0.0-6.0-0.16","subject_id":"60b6b2c1e2d7a2576cef627f","study_id":"60edd13110225f80f9f3709b","session_id":"6196c7067b6f2322f57da390","condition":"contingent","relevant_dimensions":["antennae","legs"],"bee_group":{"antennae":"B","wings":"X","pattern":"X","legs":"M"},"bonus":0.7800000000000008},{"rt":1544.2000000029802,"stimulus":"bees-with-color/bee-A2DM.svg","response":1,"trial_type":"image-button-response","trial_index":153,"time_elapsed":780762,"internal_node_id":"0.0-6.0-0.17","subject_id":"60b6b2c1e2d7a2576cef627f","study_id":"60edd13110225f80f9f3709b","session_id":"6196c7067b6f2322f57da390","condition":"contingent","relevant_dimensions":["antennae","legs"],"bee_group":{"antennae":"B","wings":"X","pattern":"X","legs":"M"},"bonus":0.7800000000000008},{"rt":1315.800000000745,"stimulus":"bees-with-color/bee-A2SM.svg","response":0,"trial_type":"image-button-response","trial_index":154,"time_elapsed":782080,"internal_node_id":"0.0-6.0-0.18","subject_id":"60b6b2c1e2d7a2576cef627f","study_id":"60edd13110225f80f9f3709b","session_id":"6196c7067b6f2322f57da390","condition":"contingent","relevant_dimensions":["antennae","legs"],"bee_group":{"antennae":"B","wings":"X","pattern":"X","legs":"M"},"bonus":0.7800000000000008},{"rt":1979.8999999985099,"stimulus":"bees-with-color/bee-A2SF.svg","response":0,"trial_type":"image-button-response","trial_index":155,"time_elapsed":784061,"internal_node_id":"0.0-6.0-0.19","subject_id":"60b6b2c1e2d7a2576cef627f","study_id":"60edd13110225f80f9f3709b","session_id":"6196c7067b6f2322f57da390","condition":"contingent","relevant_dimensions":["antennae","legs"],"bee_group":{"antennae":"B","wings":"X","pattern":"X","legs":"M"},"bonus":0.7800000000000008},{"rt":1533.1000000014901,"stimulus":"bees-with-color/bee-A2DF.svg","response":0,"trial_type":"image-button-response","trial_index":156,"time_elapsed":785596,"internal_node_id":"0.0-6.0-0.20","subject_id":"60b6b2c1e2d7a2576cef627f","study_id":"60edd13110225f80f9f3709b","session_id":"6196c7067b6f2322f57da390","condition":"contingent","relevant_dimensions":["antennae","legs"],"bee_group":{"antennae":"B","wings":"X","pattern":"X","legs":"M"},"bonus":0.7800000000000008},{"rt":1383,"stimulus":"bees-with-color/bee-B1SM.svg","response":1,"trial_type":"image-button-response","trial_index":157,"time_elapsed":786980,"internal_node_id":"0.0-6.0-0.21","subject_id":"60b6b2c1e2d7a2576cef627f","study_id":"60edd13110225f80f9f3709b","session_id":"6196c7067b6f2322f57da390","condition":"contingent","relevant_dimensions":["antennae","legs"],"bee_group":{"antennae":"B","wings":"X","pattern":"X","legs":"M"},"bonus":0.7800000000000008},{"rt":1823.199999999255,"stimulus":"bees-with-color/bee-A1DM.svg","response":0,"trial_type":"image-button-response","trial_index":158,"time_elapsed":788805,"internal_node_id":"0.0-6.0-0.22","subject_id":"60b6b2c1e2d7a2576cef627f","study_id":"60edd13110225f80f9f3709b","session_id":"6196c7067b6f2322f57da390","condition":"contingent","relevant_dimensions":["antennae","legs"],"bee_group":{"antennae":"B","wings":"X","pattern":"X","legs":"M"},"bonus":0.7800000000000008},{"rt":837.5,"stimulus":"bees-with-color/bee-B1DM.svg","response":1,"trial_type":"image-button-response","trial_index":159,"time_elapsed":789644,"internal_node_id":"0.0-6.0-0.23","subject_id":"60b6b2c1e2d7a2576cef627f","study_id":"60edd13110225f80f9f3709b","session_id":"6196c7067b6f2322f57da390","condition":"contingent","relevant_dimensions":["antennae","legs"],"bee_group":{"antennae":"B","wings":"X","pattern":"X","legs":"M"},"bonus":0.7800000000000008},{"rt":1391.4000000022352,"stimulus":"bees-with-color/bee-A1SM.svg","response":0,"trial_type":"image-button-response","trial_index":160,"time_elapsed":791039,"internal_node_id":"0.0-6.0-0.24","subject_id":"60b6b2c1e2d7a2576cef627f","study_id":"60edd13110225f80f9f3709b","session_id":"6196c7067b6f2322f57da390","condition":"contingent","relevant_dimensions":["antennae","legs"],"bee_group":{"antennae":"B","wings":"X","pattern":"X","legs":"M"},"bonus":0.7800000000000008},{"rt":1807.0999999977648,"stimulus":"bees-with-color/bee-B2SM.svg","response":1,"trial_type":"image-button-response","trial_index":161,"time_elapsed":792848,"internal_node_id":"0.0-6.0-0.25","subject_id":"60b6b2c1e2d7a2576cef627f","study_id":"60edd13110225f80f9f3709b","session_id":"6196c7067b6f2322f57da390","condition":"contingent","relevant_dimensions":["antennae","legs"],"bee_group":{"antennae":"B","wings":"X","pattern":"X","legs":"M"},"bonus":0.7800000000000008},{"rt":815.1000000014901,"stimulus":"bees-with-color/bee-B1DF.svg","response":0,"trial_type":"image-button-response","trial_index":162,"time_elapsed":793665,"internal_node_id":"0.0-6.0-0.26","subject_id":"60b6b2c1e2d7a2576cef627f","study_id":"60edd13110225f80f9f3709b","session_id":"6196c7067b6f2322f57da390","condition":"contingent","relevant_dimensions":["antennae","legs"],"bee_group":{"antennae":"B","wings":"X","pattern":"X","legs":"M"},"bonus":0.7800000000000008},{"rt":633.6000000014901,"stimulus":"bees-with-color/bee-B1SF.svg","response":0,"trial_type":"image-button-response","trial_index":163,"time_elapsed":794300,"internal_node_id":"0.0-6.0-0.27","subject_id":"60b6b2c1e2d7a2576cef627f","study_id":"60edd13110225f80f9f3709b","session_id":"6196c7067b6f2322f57da390","condition":"contingent","relevant_dimensions":["antennae","legs"],"bee_group":{"antennae":"B","wings":"X","pattern":"X","legs":"M"},"bonus":0.7800000000000008},{"rt":909.4000000022352,"stimulus":"bees-with-color/bee-B2DM.svg","response":1,"trial_type":"image-button-response","trial_index":164,"time_elapsed":795212,"internal_node_id":"0.0-6.0-0.28","subject_id":"60b6b2c1e2d7a2576cef627f","study_id":"60edd13110225f80f9f3709b","session_id":"6196c7067b6f2322f57da390","condition":"contingent","relevant_dimensions":["antennae","legs"],"bee_group":{"antennae":"B","wings":"X","pattern":"X","legs":"M"},"bonus":0.7800000000000008},{"rt":805.6000000014901,"stimulus":"bees-with-color/bee-B2SF.svg","response":0,"trial_type":"image-button-response","trial_index":165,"time_elapsed":796019,"internal_node_id":"0.0-6.0-0.29","subject_id":"60b6b2c1e2d7a2576cef627f","study_id":"60edd13110225f80f9f3709b","session_id":"6196c7067b6f2322f57da390","condition":"contingent","relevant_dimensions":["antennae","legs"],"bee_group":{"antennae":"B","wings":"X","pattern":"X","legs":"M"},"bonus":0.7800000000000008},{"rt":1430.2999999970198,"stimulus":"bees-with-color/bee-A1DF.svg","response":0