[{"success":true,"trial_type":"fullscreen","trial_index":0,"time_elapsed":471914,"internal_node_id":"0.0-0.0","subject_id":"5f10955ff12b1836dcdd0d62","study_id":"60edd13110225f80f9f3709b","session_id":"6196bf618376cd07bf2cee06","condition":"contingent","relevant_dimensions":["antennae","pattern"],"bee_group":{"antennae":"A","wings":"X","pattern":"S","legs":"X"},"bonus":0.8600000000000009},{"success":true,"timeout":false,"failed_images":[],"failed_audio":[],"failed_video":[],"trial_type":"preload","trial_index":1,"time_elapsed":473875,"internal_node_id":"0.0-1.0","subject_id":"5f10955ff12b1836dcdd0d62","study_id":"60edd13110225f80f9f3709b","session_id":"6196bf618376cd07bf2cee06","condition":"contingent","relevant_dimensions":["antennae","pattern"],"bee_group":{"antennae":"A","wings":"X","pattern":"S","legs":"X"},"bonus":0.8600000000000009},{"rt":27475.60000000149,"stimulus":"Welcome! Press any key to begin.","response":"arrowup","trial_type":"html-keyboard-response","trial_index":2,"time_elapsed":501351,"internal_node_id":"0.0-2.0","subject_id":"5f10955ff12b1836dcdd0d62","study_id":"60edd13110225f80f9f3709b","session_id":"6196bf618376cd07bf2cee06","condition":"contingent","relevant_dimensions":["antennae","pattern"],"bee_group":{"antennae":"A","wings":"X","pattern":"S","legs":"X"},"bonus":0.8600000000000009},{"view_history":[{"page_index":0,"viewing_time":9168.19999999553},{"page_index":1,"viewing_time":34403.40000000596},{"page_index":0,"viewing_time":6280.79999999702},{"page_index":1,"viewing_time":7390},{"page_index":2,"viewing_time":13887.10000000149},{"page_index":3,"viewing_time":46336.10000000149},{"page_index":4,"viewing_time":6064.89999999851},{"page_index":5,"viewing_time":13263.19999999553},{"page_index":6,"viewing_time":35366.30000000447},{"page_index":7,"viewing_time":3748.7999999970198},{"page_index":8,"viewing_time":2391.89999999851},{"page_index":7,"viewing_time":1042},{"page_index":8,"viewing_time":1590},{"page_index":9,"viewing_time":4091},{"page_index":10,"viewing_time":2690.2000000029802},{"page_index":11,"viewing_time":16288.89999999851},{"page_index":10,"viewing_time":1208.1000000014901},{"page_index":9,"viewing_time":827.7000000029802},{"page_index":8,"viewing_time":5605.19999999553},{"page_index":9,"viewing_time":613},{"page_index":10,"viewing_time":626},{"page_index":11,"viewing_time":2458},{"page_index":12,"viewing_time":13717},{"page_index":13,"viewing_time":1177},{"page_index":14,"viewing_time":4129}],"rt":234364.5,"trial_type":"instructions","trial_index":3,"time_elapsed":735717,"internal_node_id":"0.0-3.0-0.0","subject_id":"5f10955ff12b1836dcdd0d62","study_id":"60edd13110225f80f9f3709b","session_id":"6196bf618376cd07bf2cee06","condition":"contingent","relevant_dimensions":["antennae","pattern"],"bee_group":{"antennae":"A","wings":"X","pattern":"S","legs":"X"},"bonus":0.8600000000000009},{"rt":16439.10000000149,"response":{"Q0":["Two or six legs","Stripes or spots on body","Single or double wings","Antennae or no antennae"]},"question_order":[0],"trial_type":"survey-multi-select","trial_index":4,"time_elapsed":752159,"internal_node_id":"0.0-3.0-1.0","subject_id":"5f10955ff12b1836dcdd0d62","study_id":"60edd13110225f80f9f3709b","session_id":"6196bf618376cd07bf2cee06","condition":"contingent","relevant_dimensions":["antennae","pattern"],"bee_group":{"antennae":"A","wings":"X","pattern":"S","legs":"X"},"correct":true,"bonus":0.8600000000000009},{"rt":21739.69999999553,"response":{"Q1":"No.","Q2":"Based on the four features of the bee.","Q3":"You do not learn if it was friendly or dangerous, and do not alter your bonus."},"question_order":[0,1,2],"trial_type":"survey-multi-choice","trial_index":5,"time_elapsed":773901,"internal_node_id":"0.0-3.0-2.0","subject_id":"5f10955ff12b1836dcdd0d62","study_id":"60edd13110225f80f9f3709b","session_id":"6196bf618376cd07bf2cee06","condition":"contingent","relevant_dimensions":["antennae","pattern"],"bee_group":{"antennae":"A","wings":"X","pattern":"S","legs":"X"},"correct":true,"bonus":0.8600000000000009},{"rt":4058.2000000029802,"stimulus":"<p>Congrats, you got everything right<br>When you're ready, click the button below to continue to the experiment.</p>","response":0,"trial_type":"html-button-response","trial_index":6,"time_elapsed":777962,"internal_node_id":"0.0-3.0-3.0","subject_id":"5f10955ff12b1836dcdd0d62","study_id":"60edd13110225f80f9f3709b","session_id":"6196bf618376cd07bf2cee06","condition":"contingent","relevant_dimensions":["antennae","pattern"],"bee_group":{"antennae":"A","wings":"X","pattern":"S","legs":"X"},"bonus":0.8600000000000009},{"rt":5075.89999999851,"stimulus":"bees-with-color/bee-A2SM.svg","response":0,"trial_type":"image-button-response","trial_index":7,"time_elapsed":783040,"internal_node_id":"0.0-4.0-0.0","subject_id":"5f10955ff12b1836dcdd0d62","study_id":"60edd13110225f80f9f3709b","session_id":"6196bf618376cd07bf2cee06","condition":"contingent","relevant_dimensions":["antennae","pattern"],"bee_group":{"antennae":"A","wings":"X","pattern":"S","legs":"X"},"action":"harvest","summary":"bad-harvest","bonus":0.8600000000000009},{"rt":8226.69999999553,"stimulus":"\n                    <p><b>Action: <em>harvest</em></b></p>\n                    <p>This is the bee that you just saw.</p>\n                    <img src=\"bees-with-color/bee-A2SM.svg\" width=\"200\">\n                    <p><span class=\"redText\">Bad choice, the bee was angry.</span><br><b>You have been stung!</b><br>Your pay has been decreased by $0.10. Your bonus pay is now $0.44.</p>\n            ","response":0,"trial_type":"html-button-response","trial_index":8,"time_elapsed":791269,"internal_node_id":"0.0-4.0-1.0","subject_id":"5f10955ff12b1836dcdd0d62","study_id":"60edd13110225f80f9f3709b","session_id":"6196bf618376cd07bf2cee06","condition":"contingent","relevant_dimensions":["antennae","pattern"],"bee_group":{"antennae":"A","wings":"X","pattern":"S","legs":"X"},"bonus":0.8600000000000009},{"rt":2729.5999999940395,"stimulus":"bees-with-color/bee-B2DM.svg","response":0,"trial_type":"image-button-response","trial_index":9,"time_elapsed":794000,"internal_node_id":"0.0-4.0-0.1","subject_id":"5f10955ff12b1836dcdd0d62","study_id":"60edd13110225f80f9f3709b","session_id":"6196bf618376cd07bf2cee06","condition":"contingent","relevant_dimensions":["antennae","pattern"],"bee_group":{"antennae":"A","wings":"X","pattern":"S","legs":"X"},"action":"harvest","summary":"good-harvest","bonus":0.8600000000000009},{"rt":4105.5,"stimulus":"\n                    <p><b>Action: <em>harvest</em></b></p>\n                    <p>This is the bee that you just saw.</p>\n                    <img src=\"bees-with-color/bee-B2DM.svg\" width=\"200\">\n                    <p><span class=\"greenText\"><b>Successful harvest!</b></span><br>Your pay has increased by $0.02. Your bonus pay is now $0.46.</p>\n            ","response":0,"trial_type":"html-button-response","trial_index":10,"time_elapsed":798107,"internal_node_id":"0.0-4.0-1.1","subject_id":"5f10955ff12b1836dcdd0d62","study_id":"60edd13110225f80f9f3709b","session_id":"6196bf618376cd07bf2cee06","condition":"contingent","relevant_dimensions":["antennae","pattern"],"bee_group":{"antennae":"A","wings":"X","pattern":"S","legs":"X"},"bonus":0.8600000000000009},{"rt":4732.4000000059605,"stimulus":"bees-with-color/bee-A1SM.svg","response":0,"trial_type":"image-button-response","trial_index":11,"time_elapsed":802841,"internal_node_id":"0.0-4.0-0.2","subject_id":"5f10955ff12b1836dcdd0d62","study_id":"60edd13110225f80f9f3709b","session_id":"6196bf618376cd07bf2cee06","condition":"contingent","relevant_dimensions":["antennae","pattern"],"bee_group":{"antennae":"A","wings":"X","pattern":"S","legs":"X"},"action":"harvest","summary":"bad-harvest","bonus":0.8600000000000009},{"rt":3103.60000000149,"stimulus":"\n                    <p><b>Action: <em>harvest</em></b></p>\n                    <p>This is the bee that you just saw.</p>\n                    <img src=\"bees-with-color/bee-A1SM.svg\" width=\"200\">\n                    <p><span class=\"redText\">Bad choice, the bee was angry.</span><br><b>You have been stung!</b><br>Your pay has been decreased by $0.10. Your bonus pay is now $0.36.</p>\n            ","response":0,"trial_type":"html-button-response","trial_index":12,"time_elapsed":805946,"internal_node_id":"0.0-4.0-1.2","subject_id":"5f10955ff12b1836dcdd0d62","study_id":"60edd13110225f80f9f3709b","session_id":"6196bf618376cd07bf2cee06","condition":"contingent","relevant_dimensions":["antennae","pattern"],"bee_group":{"antennae":"A","wings":"X","pattern":"S","legs":"X"},"bonus":0.8600000000000009},{"rt":2467.7000000029802,"stimulus":"bees-with-color/bee-B2SM.svg","response":0,"trial_type":"image-button-response","trial_index":13,"time_elapsed":808415,"internal_node_id":"0.0-4.0-0.3","subject_id":"5f10955ff12b1836dcdd0d62","study_id":"60edd13110225f80f9f3709b","session_id":"6196bf618376cd07bf2cee06","condition":"contingent","relevant_dimensions":["antennae","pattern"],"bee_group":{"antennae":"A","wings":"X","pattern":"S","legs":"X"},"action":"harvest","summary":"good-harvest","bonus":0.8600000000000009},{"rt":1091.9000000059605,"stimulus":"\n                    <p><b>Action: <em>harvest</em></b></p>\n                    <p>This is the bee that you just saw.</p>\n                    <img src=\"bees-with-color/bee-B2SM.svg\" width=\"200\">\n                    <p><span class=\"greenText\"><b>Successful harvest!</b></span><br>Your pay has increased by $0.02. Your bonus pay is now $0.38.</p>\n            ","response":0,"trial_type":"html-button-response","trial_index":14,"time_elapsed":809508,"internal_node_id":"0.0-4.0-1.3","subject_id":"5f10955ff12b1836dcdd0d62","study_id":"60edd13110225f80f9f3709b","session_id":"6196bf618376cd07bf2cee06","condition":"contingent","relevant_dimensions":["antennae","pattern"],"bee_group":{"antennae":"A","wings":"X","pattern":"S","legs":"X"},"bonus":0.8600000000000009},{"rt":2346.60000000149,"stimulus":"bees-with-color/bee-B1DM.svg","response":0,"trial_type":"image-button-response","trial_index":15,"time_elapsed":811856,"internal_node_id":"0.0-4.0-0.4","subject_id":"5f10955ff12b1836dcdd0d62","study_id":"60edd13110225f80f9f3709b","session_id":"6196bf618376cd07bf2cee06","condition":"contingent","relevant_dimensions":["antennae","pattern"],"bee_group":{"antennae":"A","wings":"X","pattern":"S","legs":"X"},"action":"harvest","summary":"good-harvest","bonus":0.8600000000000009},{"rt":1707.5,"stimulus":"\n                    <p><b>Action: <em>harvest</em></b></p>\n                    <p>This is the bee that you just saw.</p>\n                    <img src=\"bees-with-color/bee-B1DM.svg\" width=\"200\">\n                    <p><span class=\"greenText\"><b>Successful harvest!</b></span><br>Your pay has increased by $0.02. Your bonus pay is now $0.40.</p>\n            ","response":0,"trial_type":"html-button-response","trial_index":16,"time_elapsed":813565,"internal_node_id":"0.0-4.0-1.4","subject_id":"5f10955ff12b1836dcdd0d62","study_id":"60edd13110225f80f9f3709b","session_id":"6196bf618376cd07bf2cee06","condition":"contingent","relevant_dimensions":["antennae","pattern"],"bee_group":{"antennae":"A","wings":"X","pattern":"S","legs":"X"},"bonus":0.8600000000000009},{"rt":1527.6000000014901,"stimulus":"bees-with-color/bee-A2DF.svg","response":1,"trial_type":"image-button-response","trial_index":17,"time_elapsed":815094,"internal_node_id":"0.0-4.0-0.5","subject_id":"5f10955ff12b1836dcdd0d62","study_id":"60edd13110225f80f9f3709b","session_id":"6196bf618376cd07bf2cee06","condition":"contingent","relevant_dimensions":["antennae","pattern"],"bee_group":{"antennae":"A","wings":"X","pattern":"S","legs":"X"},"action":"avoid","summary":"bad-avoid","bonus":0.8600000000000009},{"rt":3294.2999999970198,"stimulus":"\n                    <p><b>Action: <em>avoid</em></b></p>\n                    <p>This is the bee that you just saw.</p>\n                    <img src=\"bees-with-color/bee-A2DF.svg\" width=\"200\">\n                    <p><br>Your bonus pay is unchanged, and remains at $0.40.</p>\n            ","response":0,"trial_type":"html-button-response","trial_index":18,"time_elapsed":818389,"internal_node_id":"0.0-4.0-1.5","subject_id":"5f10955ff12b1836dcdd0d62","study_id":"60edd13110225f80f9f3709b","session_id":"6196bf618376cd07bf2cee06","condition":"contingent","relevant_dimensions":["antennae","pattern"],"bee_group":{"antennae":"A","wings":"X","pattern":"S","legs":"X"},"bonus":0.8600000000000009},{"rt":2257.2000000029802,"stimulus":"bees-with-color/bee-A1DF.svg","response":0,"trial_type":"image-button-response","trial_index":19,"time_elapsed":820648,"internal_node_id":"0.0-4.0-0.6","subject_id":"5f10955ff12b1836dcdd0d62","study_id":"60edd13110225f80f9f3709b","session_id":"6196bf618376cd07bf2cee06","condition":"contingent","relevant_dimensions":["antennae","pattern"],"bee_group":{"antennae":"A","wings":"X","pattern":"S","legs":"X"},"action":"harvest","summary":"good-harvest","bonus":0.8600000000000009},{"rt":3022.0999999940395,"stimulus":"\n                    <p><b>Action: <em>harvest</em></b></p>\n                    <p>This is the bee that you just saw.</p>\n                    <img src=\"bees-with-color/bee-A1DF.svg\" width=\"200\">\n                    <p><span class=\"greenText\"><b>Successful harvest!</b></span><br>Your pay has increased by $0.02. Your bonus pay is now $0.42.</p>\n            ","response":0,"trial_type":"html-button-response","trial_index":20,"time_elapsed":823671,"internal_node_id":"0.0-4.0-1.6","subject_id":"5f10955ff12b1836dcdd0d62","study_id":"60edd13110225f80f9f3709b","session_id":"6196bf618376cd07bf2cee06","condition":"contingent","relevant_dimensions":["antennae","pattern"],"bee_group":{"antennae":"A","wings":"X","pattern":"S","legs":"X"},"bonus":0.8600000000000009},{"rt":3658.39999999851,"stimulus":"bees-with-color/bee-B1SM.svg","response":0,"trial_type":"image-button-response","trial_index":21,"time_elapsed":827331,"internal_node_id":"0.0-4.0-0.7","subject_id":"5f10955ff12b1836dcdd0d62","study_id":"60edd13110225f80f9f3709b","session_id":"6196bf618376cd07bf2cee06","condition":"contingent","relevant_dimensions":["antennae","pattern"],"bee_group":{"antennae":"A","wings":"X","pattern":"S","legs":"X"},"action":"harvest","summary":"good-harvest","bonus":0.8600000000000009},{"rt":1405,"stimulus":"\n                    <p><b>Action: <em>harvest</em></b></p>\n                    <p>This is the bee that you just saw.</p>\n                    <img src=\"bees-with-color/bee-B1SM.svg\" width=\"200\">\n                    <p><span class=\"greenText\"><b>Successful harvest!</b></span><br>Your pay has increased by $0.02. Your bonus pay is now $0.44.</p>\n            ","response":0,"trial_type":"html-button-response","trial_index":22,"time_elapsed":828737,"internal_node_id":"0.0-4.0-1.7","subject_id":"5f10955ff12b1836dcdd0d62","study_id":"60edd13110225f80f9f3709b","session_id":"6196bf618376cd07bf2cee06","condition":"contingent","relevant_dimensions":["antennae","pattern"],"bee_group":{"antennae":"A","wings":"X","pattern":"S","legs":"X"},"bonus":0.8600000000000009},{"rt":8034,"stimulus":"bees-with-color/bee-A1SF.svg","response":0,"trial_type":"image-button-response","trial_index":23,"time_elapsed":836773,"internal_node_id":"0.0-4.0-0.8","subject_id":"5f10955ff12b1836dcdd0d62","study_id":"60edd13110225f80f9f3709b","session_id":"6196bf618376cd07bf2cee06","condition":"contingent","relevant_dimensions":["antennae","pattern"],"bee_group":{"antennae":"A","wings":"X","pattern":"S","legs":"X"},"action":"harvest","summary":"bad-harvest","bonus":0.8600000000000009},{"rt":1098.8999999985099,"stimulus":"\n                    <p><b>Action: <em>harvest</em></b></p>\n                    <p>This is the bee that you just saw.</p>\n                    <img src=\"bees-with-color/bee-A1SF.svg\" width=\"200\">\n                    <p><span class=\"redText\">Bad choice, the bee was angry.</span><br><b>You have been stung!</b><br>Your pay has been decreased by $0.10. Your bonus pay is now $0.34.</p>\n            ","response":0,"trial_type":"html-button-response","trial_index":24,"time_elapsed":837873,"internal_node_id":"0.0-4.0-1.8","subject_id":"5f10955ff12b1836dcdd0d62","study_id":"60edd13110225f80f9f3709b","session_id":"6196bf618376cd07bf2cee06","condition":"contingent","relevant_dimensions":["antennae","pattern"],"bee_group":{"antennae":"A","wings":"X","pattern":"S","legs":"X"},"bonus":0.8600000000000009},{"rt":2067.2999999970198,"stimulus":"bees-with-color/bee-B2DF.svg","response":0,"trial_type":"image-button-response","trial_index":25,"time_elapsed":839942,"internal_node_id":"0.0-4.0-0.9","subject_id":"5f10955ff12b1836dcdd0d62","study_id":"60edd13110225f80f9f3709b","session_id":"6196bf618376cd07bf2cee06","condition":"contingent","relevant_dimensions":["antennae","pattern"],"bee_group":{"antennae":"A","wings":"X","pattern":"S","legs":"X"},"action":"harvest","summary":"good-harvest","bonus":0.8600000000000009},{"rt":910.1000000014901,"stimulus":"\n                    <p><b>Action: <em>harvest</em></b></p>\n                    <p>This is the bee that you just saw.</p>\n                    <img src=\"bees-with-color/bee-B2DF.svg\" width=\"200\">\n                    <p><span class=\"greenText\"><b>Successful harvest!</b></span><br>Your pay has increased by $0.02. Your bonus pay is now $0.36.</p>\n            ","response":0,"trial_type":"html-button-response","trial_index":26,"time_elapsed":840853,"internal_node_id":"0.0-4.0-1.9","subject_id":"5f10955ff12b1836dcdd0d62","study_id":"60edd13110225f80f9f3709b","session_id":"6196bf618376cd07bf2cee06","condition":"contingent","relevant_dimensions":["antennae","pattern"],"bee_group":{"antennae":"A","wings":"X","pattern":"S","legs":"X"},"bonus":0.8600000000000009},{"rt":4013.8000000044703,"stimulus":"bees-with-color/bee-A1DM.svg","response":1,"trial_type":"image-button-response","trial_index":27,"time_elapsed":844868,"internal_node_id":"0.0-4.0-0.10","subject_id":"5f10955ff12b1836dcdd0d62","study_id":"60edd13110225f80f9f3709b","session_id":"6196bf618376cd07bf2cee06","condition":"contingent","relevant_dimensions":["antennae","pattern"],"bee_group":{"antennae":"A","wings":"X","pattern":"S","legs":"X"},"action":"avoid","summary":"bad-avoid","bonus":0.8600000000000009},{"rt":993,"stimulus":"\n                    <p><b>Action: <em>avoid</em></b></p>\n                    <p>This is the bee that you just saw.</p>\n                    <img src=\"bees-with-color/bee-A1DM.svg\" width=\"200\">\n                    <p><br>Your bonus pay is unchanged, and remains at $0.36.</p>\n            ","response":0,"trial_type":"html-button-response","trial_index":28,"time_elapsed":845862,"internal_node_id":"0.0-4.0-1.10","subject_id":"5f10955ff12b1836dcdd0d62","study_id":"60edd13110225f80f9f3709b","session_id":"6196bf618376cd07bf2cee06","condition":"contingent","relevant_dimensions":["antennae","pattern"],"bee_group":{"antennae":"A","wings":"X","pattern":"S","legs":"X"},"bonus":0.8600000000000009},{"rt":9069,"stimulus":"bees-with-color/bee-A2DM.svg","response":0,"trial_type":"image-button-response","trial_index":29,"time_elapsed":854932,"internal_node_id":"0.0-4.0-0.11","subject_id":"5f10955ff12b1836dcdd0d62","study_id":"60edd13110225f80f9f3709b","session_id":"6196bf618376cd07bf2cee06","condition":"contingent","relevant_dimensions":["antennae","pattern"],"bee_group":{"antennae":"A","wings":"X","pattern":"S","legs":"X"},"action":"harvest","summary":"good-harvest","bonus":0.8600000000000009},{"rt":1361.8999999985099,"stimulus":"\n                    <p><b>Action: <em>harvest</em></b></p>\n                    <p>This is the bee that you just saw.</p>\n                    <img src=\"bees-with-color/bee-A2DM.svg\" width=\"200\">\n                    <p><span class=\"greenText\"><b>Successful harvest!</b></span><br>Your pay has increased by $0.02. Your bonus pay is now $0.38.</p>\n            ","response":0,"trial_type":"html-button-response","trial_index":30,"time_elapsed":856295,"internal_node_id":"0.0-4.0-1.11","subject_id":"5f10955ff12b1836dcdd0d62","study_id":"60edd13110225f80f9f3709b","session_id":"6196bf618376cd07bf2cee06","condition":"contingent","relevant_dimensions":["antennae","pattern"],"bee_group":{"antennae":"A","wings":"X","pattern":"S","legs":"X"},"bonus":0.8600000000000009},{"rt":3022.2000000029802,"stimulus":"bees-with-color/bee-B1SF.svg","response":0,"trial_type":"image-button-response","trial_index":31,"time_elapsed":859319,"internal_node_id":"0.0-4.0-0.12","subject_id":"5f10955ff12b1836dcdd0d62","study_id":"60edd13110225f80f9f3709b","session_id":"6196bf618376cd07bf2cee06","condition":"contingent","relevant_dimensions":["antennae","pattern"],"bee_group":{"antennae":"A","wings":"X","pattern":"S","legs":"X"},"action":"harvest","summary":"good-harvest","bonus":0.8600000000000009},{"rt":1933.7000000029802,"stimulus":"\n                    <p><b>Action: <em>harvest</em></b></p>\n                    <p>This is the bee that you just saw.</p>\n                    <img src=\"bees-with-color/bee-B1SF.svg\" width=\"200\">\n                    <p><span class=\"greenText\"><b>Successful harvest!</b></span><br>Your pay has increased by $0.02. Your bonus pay is now $0.40.</p>\n            ","response":0,"trial_type":"html-button-response","trial_index":32,"time_elapsed":861254,"internal_node_id":"0.0-4.0-1.12","subject_id":"5f10955ff12b1836dcdd0d62","study_id":"60edd13110225f80f9f3709b","session_id":"6196bf618376cd07bf2cee06","condition":"contingent","relevant_dimensions":["antennae","pattern"],"bee_group":{"antennae":"A","wings":"X","pattern":"S","legs":"X"},"bonus":0.8600000000000009},{"rt":3766.89999999851,"stimulus":"bees-with-color/bee-A2SF.svg","response":1,"trial_type":"image-button-response","trial_index":33,"time_elapsed":865022,"internal_node_id":"0.0-4.0-0.13","subject_id":"5f10955ff12b1836dcdd0d62","study_id":"60edd13110225f80f9f3709b","session_id":"6196bf618376cd07bf2cee06","condition":"contingent","relevant_dimensions":["antennae","pattern"],"bee_group":{"antennae":"A","wings":"X","pattern":"S","legs":"X"},"action":"avoid","summary":"good-avoid","bonus":0.8600000000000009},{"rt":1115.1999999955297,"stimulus":"\n                    <p><b>Action: <em>avoid</em></b></p>\n                    <p>This is the bee that you just saw.</p>\n                    <img src=\"bees-with-color/bee-A2SF.svg\" width=\"200\">\n                    <p><br>Your bonus pay is unchanged, and remains at $0.40.</p>\n            ","response":0,"trial_type":"html-button-response","trial_index":34,"time_elapsed":866138,"internal_node_id":"0.0-4.0-1.13","subject_id":"5f10955ff12b1836dcdd0d62","study_id":"60edd13110225f80f9f3709b","session_id":"6196bf618376cd07bf2cee06","condition":"contingent","relevant_dimensions":["antennae","pattern"],"bee_group":{"antennae":"A","wings":"X","pattern":"S","legs":"X"},"bonus":0.8600000000000009},{"rt":3635.89999999851,"stimulus":"bees-with-color/bee-B1DF.svg","response":0,"trial_type":"image-button-response","trial_index":35,"time_elapsed":869775,"internal_node_id":"0.0-4.0-0.14","subject_id":"5f10955ff12b1836dcdd0d62","study_id":"60edd13110225f80f9f3709b","session_id":"6196bf618376cd07bf2cee06","condition":"contingent","relevant_dimensions":["antennae","pattern"],"bee_group":{"antennae":"A","wings":"X","pattern":"S","legs":"X"},"action":"harvest","summary":"good-harvest","bonus":0.8600000000000009},{"rt":1559.8000000044703,"stimulus":"\n                    <p><b>Action: <em>harvest</em></b></p>\n                    <p>This is the bee that you just saw.</p>\n                    <img src=\"bees-with-color/bee-B1DF.svg\" width=\"200\">\n                    <p><span class=\"greenText\"><b>Successful harvest!</b></span><br>Your pay has increased by $0.02. Your bonus pay is now $0.42.</p>\n            ","response":0,"trial_type":"html-button-response","trial_index":36,"time_elapsed":871336,"internal_node_id":"0.0-4.0-1.14","subject_id":"5f10955ff12b1836dcdd0d62","study_id":"60edd13110225f80f9f3709b","session_id":"6196bf618376cd07bf2cee06","condition":"contingent","relevant_dimensions":["antennae","pattern"],"bee_group":{"antennae":"A","wings":"X","pattern":"S","legs":"X"},"bonus":0.8600000000000009},{"rt":1866.8000000044703,"stimulus":"bees-with-color/bee-B2SF.svg","response":0,"trial_type":"image-button-response","trial_index":37,"time_elapsed":873204,"internal_node_id":"0.0-4.0-0.15","subject_id":"5f10955ff12b1836dcdd0d62","study_id":"60edd13110225f80f9f3709b","session_id":"6196bf618376cd07bf2cee06","condition":"contingent","relevant_dimensions":["antennae","pattern"],"bee_group":{"antennae":"A","wings":"X","pattern":"S","legs":"X"},"action":"harvest","summary":"good-harvest","bonus":0.8600000000000009},{"rt":1330,"stimulus":"\n                    <p><b>Action: <em>harvest</em></b></p>\n                    <p>This is the bee that you just saw.</p>\n                    <img src=\"bees-with-color/bee-B2SF.svg\" width=\"200\">\n                    <p><span class=\"greenText\"><b>Successful harvest!</b></span><br>Your pay has increased by $0.02. Your bonus pay is now $0.44.</p>\n            ","response":0,"trial_type":"html-button-response","trial_index":38,"time_elapsed":874535,"internal_node_id":"0.0-4.0-1.15","subject_id":"5f10955ff12b1836dcdd0d62","study_id":"60edd13110225f80f9f3709b","session_id":"6196bf618376cd07bf2cee06","condition":"contingent","relevant_dimensions":["antennae","pattern"],"bee_group":{"antennae":"A","wings":"X","pattern":"S","legs":"X"},"bonus":0.8600000000000009},{"rt":1754.6000000014901,"stimulus":"bees-with-color/bee-B2DF.svg","response":0,"trial_type":"image-button-response","trial_index":39,"time_elapsed":876291,"internal_node_id":"0.0-4.0-0.16","subject_id":"5f10955ff12b1836dcdd0d62","study_id":"60edd13110225f80f9f3709b","session_id":"6196bf618376cd07bf2cee06","condition":"contingent","relevant_dimensions":["antennae","pattern"],"bee_group":{"antennae":"A","wings":"X","pattern":"S","legs":"X"},"action":"harvest","summary":"good-harvest","bonus":0.8600000000000009},{"rt":866.1999999955297,"stimulus":"\n                    <p><b>Action: <em>harvest</em></b></p>\n                    <p>This is the bee that you just saw.</p>\n                    <img src=\"bees-with-color/bee-B2DF.svg\" width=\"200\">\n                    <p><span class=\"greenText\"><b>Successful harvest!</b></span><br>Your pay has increased by $0.02. Your bonus pay is now $0.46.</p>\n            ","response":0,"trial_type":"html-button-response","trial_index":40,"time_elapsed":877158,"internal_node_id":"0.0-4.0-1.16","subject_id":"5f10955ff12b1836dcdd0d62","study_id":"60edd13110225f80f9f3709b","session_id":"6196bf618376cd07bf2cee06","condition":"contingent","relevant_dimensions":["antennae","pattern"],"bee_group":{"antennae":"A","wings":"X","pattern":"S","legs":"X"},"bonus":0.8600000000000009},{"rt":3353.7000000029802,"stimulus":"bees-with-color/bee-A2DM.svg","response":0,"trial_type":"image-button-response","trial_index":41,"time_elapsed":880513,"internal_node_id":"0.0-4.0-0.17","subject_id":"5f10955ff12b1836dcdd0d62","study_id":"60edd13110225f80f9f3709b","session_id":"6196bf618376cd07bf2cee06","condition":"contingent","relevant_dimensions":["antennae","pattern"],"bee_group":{"antennae":"A","wings":"X","pattern":"S","legs":"X"},"action":"harvest","summary":"good-harvest","bonus":0.8600000000000009},{"rt":1213.1000000014901,"stimulus":"\n                    <p><b>Action: <em>harvest</em></b></p>\n                    <p>This is the bee that you just saw.</p>\n                    <img src=\"bees-with-color/bee-A2DM.svg\" width=\"200\">\n                    <p><span class=\"greenText\"><b>Successful harvest!</b></span><br>Your pay has increased by $0.02. Your bonus pay is now $0.48.</p>\n            ","response":0,"trial_type":"html-button-response","trial_index":42,"time_elapsed":881727,"internal_node_id":"0.0-4.0-1.17","subject_id":"5f10955ff12b1836dcdd0d62","study_id":"60edd13110225f80f9f3709b","session_id":"6196bf618376cd07bf2cee06","condition":"contingent","relevant_dimensions":["antennae","pattern"],"bee_group":{"antennae":"A","wings":"X","pattern":"S","legs":"X"},"bonus":0.8600000000000009},{"rt":2994,"stimulus":"bees-with-color/bee-A1DM.svg","response":1,"trial_type":"image-button-response","trial_index":43,"time_elapsed":884722,"internal_node_id":"0.0-4.0-0.18","subject_id":"5f10955ff12b1836dcdd0d62","study_id":"60edd13110225f80f9f3709b","session_id":"6196bf618376cd07bf2cee06","condition":"contingent","relevant_dimensions":["antennae","pattern"],"bee_group":{"antennae":"A","wings":"X","pattern":"S","legs":"X"},"action":"avoid","summary":"bad-avoid","bonus":0.8600000000000009},{"rt":1479.1000000014901,"stimulus":"\n                    <p><b>Action: <em>avoid</em></b></p>\n                    <p>This is the bee that you just saw.</p>\n                    <img src=\"bees-with-color/bee-A1DM.svg\" width=\"200\">\n                    <p><br>Your bonus pay is unchanged, and remains at $0.48.</p>\n            ","response":0,"trial_type":"html-button-response","trial_index":44,"time_elapsed":886202,"internal_node_id":"0.0-4.0-1.18","subject_id":"5f10955ff12b1836dcdd0d62","study_id":"60edd13110225f80f9f3709b","session_id":"6196bf618376cd07bf2cee06","condition":"contingent","relevant_dimensions":["antennae","pattern"],"bee_group":{"antennae":"A","wings":"X","pattern":"S","legs":"X"},"bonus":0.8600000000000009},{"rt":3244.6999999955297,"stimulus":"bees-with-color/bee-A1DF.svg","response":0,"trial_type":"image-button-response","trial_index":45,"time_elapsed":889448,"internal_node_id":"0.0-4.0-0.19","subject_id":"5f10955ff12b1836dcdd0d62","study_id":"60edd13110225f80f9f3709b","session_id":"6196bf618376cd07bf2cee06","condition":"contingent","relevant_dimensions":["antennae","pattern"],"bee_group":{"antennae":"A","wings":"X","pattern":"S","legs":"X"},"action":"harvest","summary":"good-harvest","bonus":0.8600000000000009},{"rt":976.7000000029802,"stimulus":"\n                    <p><b>Action: <em>harvest</em></b></p>\n                    <p>This is the bee that you just saw.</p>\n                    <img src=\"bees-with-color/bee-A1DF.svg\" width=\"200\">\n                    <p><span class=\"greenText\"><b>Successful harvest!</b></span><br>Your pay has increased by $0.02. Your bonus pay is now $0.50.</p>\n            ","response":0,"trial_type":"html-button-response","trial_index":46,"time_elapsed":890426,"internal_node_id":"0.0-4.0-1.19","subject_id":"5f10955ff12b1836dcdd0d62","study_id":"60edd13110225f80f9f3709b","session_id":"6196bf618376cd07bf2cee06","condition":"contingent","relevant_dimensions":["antennae","pattern"],"bee_group":{"antennae":"A","wings":"X","pattern":"S","legs":"X"},"bonus":0.8600000000000009},{"rt":5560.70000000298,"stimulus":"bees-with-color/bee-A2DF.svg","response":1,"trial_type":"image-button-response","trial_index":47,"time_elapsed":895988,"internal_node_id":"0.0-4.0-0.20","subject_id":"5f10955ff12b1836dcdd0d62","study_id":"60edd13110225f80f9f3709b","session_id":"6196bf618376cd07bf2cee06","condition":"contingent","relevant_dimensions":["antennae","pattern"],"bee_group":{"antennae":"A","wings":"X","pattern":"S","legs":"X"},"action":"avoid","summary":"bad-avoid","bonus":0.8600000000000009},{"rt":910,"stimulus":"\n                    <p><b>Action: <em>avoid</em></b></p>\n                    <p>This is the bee that you just saw.</p>\n                    <img src=\"bees-with-color/bee-A2DF.svg\" width=\"200\">\n                    <p><br>Your bonus pay is unchanged, and remains at $0.50.</p>\n            ","response":0,"trial_type":"html-button-response","trial_index":48,"time_elapsed":896899,"internal_node_id":"0.0-4.0-1.20","subject_id":"5f10955ff12b1836dcdd0d62","study_id":"60edd13110225f80f9f3709b","session_id":"6196bf618376cd07bf2cee06","condition":"contingent","relevant_dimensions":["antennae","pattern"],"bee_group":{"antennae":"A","wings":"X","pattern":"S","legs":"X"},"bonus":0.8600000000000009},{"rt":9470.90000000596,"stimulus":"bees-with-color/bee-A1SM.svg","response":1,"trial_type":"image-button-response","trial_index":49,"time_elapsed":906371,"internal_node_id":"0.0-4.0-0.21","subject_id":"5f10955ff12b1836dcdd0d62","study_id":"60edd13110225f80f9f3709b","session_id":"6196bf618376cd07bf2cee06","condition":"contingent","relevant_dimensions":["antennae","pattern"],"bee_group":{"antennae":"A","wings":"X","pattern":"S","legs":"X"},"action":"avoid","summary":"good-avoid","bonus":0.8600000000000009},{"rt":952,"stimulus":"\n                    <p><b>Action: <em>avoid</em></b></p>\n                    <p>This is the bee that you just saw.</p>\n                    <img src=\"bees-with-color/bee-A1SM.svg\" width=\"200\">\n                    <p><br>Your bonus pay is unchanged, and remains at $0.50.</p>\n            ","response":0,"trial_type":"html-button-response","trial_index":50,"time_elapsed":907324,"internal_node_id":"0.0-4.0-1.21","subject_id":"5f10955ff12b1836dcdd0d62","study_id":"60edd13110225f80f9f3709b","session_id":"6196bf618376cd07bf2cee06","condition":"contingent","relevant_dimensions":["antennae","pattern"],"bee_group":{"antennae":"A","wings":"X","pattern":"S","legs":"X"},"bonus":0.8600000000000009},{"rt":8133,"stimulus":"bees-with-color/bee-B2DM.svg","response":0,"trial_type":"image-button-response","trial_index":51,"time_elapsed":915458,"internal_node_id":"0.0-4.0-0.22","subject_id":"5f10955ff12b1836dcdd0d62","study_id":"60edd13110225f80f9f3709b","session_id":"6196bf618376cd07bf2cee06","condition":"contingent","relevant_dimensions":["antennae","pattern"],"bee_group":{"antennae":"A","wings":"X","pattern":"S","legs":"X"},"action":"harvest","summary":"good-harvest","bonus":0.8600000000000009},{"rt":850.7999999970198,"stimulus":"\n                    <p><b>Action: <em>harvest</em></b></p>\n                    <p>This is the bee that you just saw.</p>\n                    <img src=\"bees-with-color/bee-B2DM.svg\" width=\"200\">\n                    <p><span class=\"greenText\"><b>Successful harvest!</b></span><br>Your pay has increased by $0.02. Your bonus pay is now $0.52.</p>\n            ","response":0,"trial_type":"html-button-response","trial_index":52,"time_elapsed":916310,"internal_node_id":"0.0-4.0-1.22","subject_id":"5f10955ff12b1836dcdd0d62","study_id":"60edd13110225f80f9f3709b","session_id":"6196bf618376cd07bf2cee06","condition":"contingent","relevant_dimensions":["antennae","pattern"],"bee_group":{"antennae":"A","wings":"X","pattern":"S","legs":"X"},"bonus":0.8600000000000009},{"rt":4272.80000000447,"stimulus":"bees-with-color/bee-A2SF.svg","response":0,"trial_type":"image-button-response","trial_index":53,"time_elapsed":920584,"internal_node_id":"0.0-4.0-0.23","subject_id":"5f10955ff12b1836dcdd0d62","study_id":"60edd13110225f80f9f3709b","session_id":"6196bf618376cd07bf2cee06","condition":"contingent","relevant_dimensions":["antennae","pattern"],"bee_group":{"antennae":"A","wings":"X","pattern":"S","legs":"X"},"action":"harvest","summary":"bad-harvest","bonus":0.8600000000000009},{"rt":2201.9000000059605,"stimulus":"\n                    <p><b>Action: <em>harvest</em></b></p>\n                    <p>This is the bee that you just saw.</p>\n                    <img src=\"bees-with-color/bee-A2SF.svg\" width=\"200\">\n                    <p><span class=\"redText\">Bad choice, the bee was angry.</span><br><b>You have been stung!</b><br>Your pay has been decreased by $0.10. Your bonus pay is now $0.42.</p>\n            ","response":0,"trial_type":"html-button-response","trial_index":54,"time_elapsed":922787,"internal_node_id":"0.0-4.0-1.23","subject_id":"5f10955ff12b1836dcdd0d62","study_id":"60edd13110225f80f9f3709b","session_id":"6196bf618376cd07bf2cee06","condition":"contingent","relevant_dimensions":["antennae","pattern"],"bee_group":{"antennae":"A","wings":"X","pattern":"S","legs":"X"},"bonus":0.8600000000000009},{"rt":2564.7000000029802,"stimulus":"bees-with-color/bee-A1SF.svg","response":0,"trial_type":"image-button-response","trial_index":55,"time_elapsed":925353,"internal_node_id":"0.0-4.0-0.24","subject_id":"5f10955ff12b1836dcdd0d62","study_id":"60edd13110225f80f9f3709b","session_id":"6196bf618376cd07bf2cee06","condition":"contingent","relevant_dimensions":["antennae","pattern"],"bee_group":{"antennae":"A","wings":"X","pattern":"S","legs":"X"},"action":"harvest","summary":"bad-harvest","bonus":0.8600000000000009},{"rt":931.7000000029802,"stimulus":"\n                    <p><b>Action: <em>harvest</em></b></p>\n                    <p>This is the bee that you just saw.</p>\n                    <img src=\"bees-with-color/bee-A1SF.svg\" width=\"200\">\n                    <p><span class=\"redText\">Bad choice, the bee was angry.</span><br><b>You have been stung!</b><br>Your pay has been decreased by $0.10. Your bonus pay is now $0.32.</p>\n            ","response":0,"trial_type":"html-button-response","trial_index":56,"time_elapsed":926286,"internal_node_id":"0.0-4.0-1.24","subject_id":"5f10955ff12b1836dcdd0d62","study_id":"60edd13110225f80f9f3709b","session_id":"6196bf618376cd07bf2cee06","condition":"contingent","relevant_dimensions":["antennae","pattern"],"bee_group":{"antennae":"A","wings":"X","pattern":"S","legs":"X"},"bonus":0.8600000000000009},{"rt":3177.89999999851,"stimulus":"bees-with-color/bee-A2SM.svg","response":0,"trial_type":"image-button-response","trial_index":57,"time_elapsed":929465,"internal_node_id":"0.0-4.0-0.25","subject_id":"5f10955ff12b1836dcdd0d62","study_id":"60edd13110225f80f9f3709b","session_id":"6196bf618376cd07bf2cee06","condition":"contingent","relevant_dimensions":["antennae","pattern"],"bee_group":{"antennae":"A","wings":"X","pattern":"S","legs":"X"},"action":"harvest","summary":"bad-harvest","bonus":0.8600000000000009},{"rt":887.5,"stimulus":"\n                    <p><b>Action: <em>harvest</em></b></p>\n                    <p>This is the bee that you just saw.</p>\n                    <img src=\"bees-with-color/bee-A2SM.svg\" width=\"200\">\n                    <p><span class=\"redText\">Bad choice, the bee was angry.</span><br><b>You have been stung!</b><br>Your pay has been decreased by $0.10. Your bonus pay is now $0.22.</p>\n            ","response":0,"trial_type":"html-button-response","trial_index":58,"time_elapsed":930354,"internal_node_id":"0.0-4.0-1.25","subject_id":"5f10955ff12b1836dcdd0d62","study_id":"60edd13110225f80f9f3709b","session_id":"6196bf618376cd07bf2cee06","condition":"contingent","relevant_dimensions":["antennae","pattern"],"bee_group":{"antennae":"A","wings":"X","pattern":"S","legs":"X"},"bonus":0.8600000000000009},{"rt":1117.7999999970198,"stimulus":"bees-with-color/bee-B1DF.svg","response":0,"trial_type":"image-button-response","trial_index":59,"time_elapsed":931473,"internal_node_id":"0.0-4.0-0.26","subject_id":"5f10955ff12b1836dcdd0d62","study_id":"60edd13110225f80f9f3709b","session_id":"6196bf618376cd07bf2cee06","condition":"contingent","relevant_dimensions":["antennae","pattern"],"bee_group":{"antennae":"A","wings":"X","pattern":"S","legs":"X"},"action":"harvest","summary":"good-harvest","bonus":0.8600000000000009},{"rt":825.8000000044703,"stimulus":"\n                    <p><b>Action: <em>harvest</em></b></p>\n                    <p>This is the bee that you just saw.</p>\n                    <img src=\"bees-with-color/bee-B1DF.svg\" width=\"200\">\n                    <p><span class=\"greenText\"><b>Successful harvest!</b></span><br>Your pay has increased by $0.02. Your bonus pay is now $0.24.</p>\n            ","response":0,"trial_type":"html-button-response","trial_index":60,"time_elapsed":932300,"internal_node_id":"0.0-4.0-1.26","subject_id":"5f10955ff12b1836dcdd0d62","study_id":"60edd13110225f80f9f3709b","session_id":"6196bf618376cd07bf2cee06","condition":"contingent","relevant_dimensions":["antennae","pattern"],"bee_group":{"antennae":"A","wings":"X","pattern":"S","legs":"X"},"bonus":0.8600000000000009},{"rt":4131.19999999553,"stimulus":"bees-with-color/bee-B2SM.svg","response":1,"trial_type":"image-button-response","trial_index":61,"time_elapsed":936432,"internal_node_id":"0.0-4.0-0.27","subject_id":"5f10955ff12b1836dcdd0d62","study_id":"60edd13110225f80f9f3709b","session_id":"6196bf618376cd07bf2cee06","condition":"contingent","relevant_dimensions":["antennae","pattern"],"bee_group":{"antennae":"A","wings":"X","pattern":"S","legs":"X"},"action":"avoid","summary":"bad-avoid","bonus":0.8600000000000009},{"rt":569.7000000029802,"stimulus":"\n                    <p><b>Action: <em>avoid</em></b></p>\n                    <p>This is the bee that you just saw.</p>\n                    <img src=\"bees-with-color/bee-B2SM.svg\" width=\"200\">\n                    <p><br>Your bonus pay is unchanged, and remains at $0.24.</p>\n            ","response":0,"trial_type":"html-button-response","trial_index":62,"time_elapsed":937003,"internal_node_id":"0.0-4.0-1.27","subject_id":"5f10955ff12b1836dcdd0d62","study_id":"60edd13110225f80f9f3709b","session_id":"6196bf618376cd07bf2cee06","condition":"contingent","relevant_dimensions":["antennae","pattern"],"bee_group":{"antennae":"A","wings":"X","pattern":"S","legs":"X"},"bonus":0.8600000000000009},{"rt":3133.10000000149,"stimulus":"bees-with-color/bee-B1SM.svg","response":0,"trial_type":"image-button-response","trial_index":63,"time_elapsed":940137,"internal_node_id":"0.0-4.0-0.28","subject_id":"5f10955ff12b1836dcdd0d62","study_id":"60edd13110225f80f9f3709b","session_id":"6196bf618376cd07bf2cee06","condition":"contingent","relevant_dimensions":["antennae","pattern"],"bee_group":{"antennae":"A","wings":"X","pattern":"S","legs":"X"},"action":"harvest","summary":"good-harvest","bonus":0.8600000000000009},{"rt":670.6999999955297,"stimulus":"\n                    <p><b>Action: <em>harvest</em></b></p>\n                    <p>This is the bee that you just saw.</p>\n                    <img src=\"bees-with-color/bee-B1SM.svg\" width=\"200\">\n                    <p><span class=\"greenText\"><b>Successful harvest!</b></span><br>Your pay has increased by $0.02. Your bonus pay is now $0.26.</p>\n            ","response":0,"trial_type":"html-button-response","trial_index":64,"time_elapsed":940809,"internal_node_id":"0.0-4.0-1.28","subject_id":"5f10955ff12b1836dcdd0d62","study_id":"60edd13110225f80f9f3709b","session_id":"6196bf618376cd07bf2cee06","condition":"contingent","relevant_dimensions":["antennae","pattern"],"bee_group":{"antennae":"A","wings":"X","pattern":"S","legs":"X"},"bonus":0.8600000000000009},{"rt":1544.6999999955297,"stimulus":"bees-with-color/bee-B1SF.svg","response":0,"trial_type":"image-button-response","trial_index":65,"time_elapsed":942355,"internal_node_id":"0.0-4.0-0.29","subject_id":"5f10955ff12b1836dcdd0d62","study_id":"60edd13110225f80f9f3709b","session_id":"6196bf618376cd07bf2cee06","condition":"contingent","relevant_dimensions":["antennae","pattern"],"bee_group":{"antennae":"A","wings":"X","pattern":"S","legs":"X"},"action":"harvest","summary":"good-harvest","bonus":0.8600000000000009},{"rt":661.3999999985099,"stimulus":"\n                    <p><b>Action: <em>harvest</em></b></p>\n                    <p>This is the bee that you just saw.</p>\n                    <img src=\"bees-with-color/bee-B1SF.svg\" width=\"200\">\n                    <p><span class=\"greenText\"><b>Successful harvest!</b></span><br>Your pay has increased by $0.02. Your bonus pay is now $0.28.</p>\n            ","response":0,"trial_type":"html-button-response","trial_index":66,"time_elapsed":943017,"internal_node_id":"0.0-4.0-1.29","subject_id":"5f10955ff12b1836dcdd0d62","study_id":"60edd13110225f80f9f3709b","session_id":"6196bf618376cd07bf2cee06","condition":"contingent","relevant_dimensions":["antennae","pattern"],"bee_group":{"antennae":"A","wings":"X","pattern":"S","legs":"X"},"bonus":0.8600000000000009},{"rt":4234.39999999851,"stimulus":"bees-with-color/bee-B1DM.svg","response":0,"trial_type":"image-button-response","trial_index":67,"time_elapsed":947253,"internal_node_id":"0.0-4.0-0.30","subject_id":"5f10955ff12b1836dcdd0d62","study_id":"60edd13110225f80f9f3709b","session_id":"6196bf618376cd07bf2cee06","condition":"contingent","relevant_dimensions":["antennae","pattern"],"bee_group":{"antennae":"A","wings":"X","pattern":"S","legs":"X"},"action":"harvest","summary":"good-harvest","bonus":0.8600000000000009},{"rt":660,"stimulus":"\n                    <p><b>Action: <em>harvest</em></b></p>\n                    <p>This is the bee that you just saw.</p>\n                    <img src=\"bees-with-color/bee-B1DM.svg\" width=\"200\">\n                    <p><span class=\"greenText\"><b>Successful harvest!</b></span><br>Your pay has increased by $0.02. Your bonus pay is now $0.30.</p>\n            ","response":0,"trial_type":"html-button-response","trial_index":68,"time_elapsed":947914,"internal_node_id":"0.0-4.0-1.30","subject_id":"5f10955ff12b1836dcdd0d62","study_id":"60edd13110225f80f9f3709b","session_id":"6196bf618376cd07bf2cee06","condition":"contingent","relevant_dimensions":["antennae","pattern"],"bee_group":{"antennae":"A","wings":"X","pattern":"S","legs":"X"},"bonus":0.8600000000000009},{"rt":2855.5,"stimulus":"bees-with-color/bee-B2SF.svg","response":0,"trial_type":"image-button-response","trial_index":69,"time_elapsed":950771,"internal_node_id":"0.0-4.0-0.31","subject_id":"5f10955ff12b1836dcdd0d62","study_id":"60edd13110225f80f9f3709b","session_id":"6196bf618376cd07bf2cee06","condition":"contingent","relevant_dimensions":["antennae","pattern"],"bee_group":{"antennae":"A","wings":"X","pattern":"S","legs":"X"},"action":"harvest","summary":"good-harvest","bonus":0.8600000000000009},{"rt":613.2999999970198,"stimulus":"\n                    <p><b>Action: <em>harvest</em></b></p>\n                    <p>This is the bee that you just saw.</p>\n                    <img src=\"bees-with-color/bee-B2SF.svg\" width=\"200\">\n                    <p><span class=\"greenText\"><b>Successful harvest!</b></span><br>Your pay has increased by $0.02. Your bonus pay is now $0.32.</p>\n            ","response":0,"trial_type":"html-button-response","trial_index":70,"time_elapsed":951385,"internal_node_id":"0.0-4.0-1.31","subject_id":"5f10955ff12b1836dcdd0d62","study_id":"60edd13110225f80f9f3709b","session_id":"6196bf618376cd07bf2cee06","condition":"contingent","relevant_dimensions":["antennae","pattern"],"bee_group":{"antennae":"A","wings":"X","pattern":"S","legs":"X"},"bonus":0.8600000000000009},{"rt":5372.79999999702,"stimulus":"bees-with-color/bee-B2SM.svg","response":1,"trial_type":"image-button-response","trial_index":71,"time_elapsed":956760,"internal_node_id":"0.0-4.0-0.32","subject_id":"5f10955ff12b1836dcdd0d62","study_id":"60edd13110225f80f9f3709b","session_id":"6196bf618376cd07bf2cee06","condition":"contingent","relevant_dimensions":["antennae","pattern"],"bee_group":{"antennae":"A","wings":"X","pattern":"S","legs":"X"},"action":"avoid","summary":"bad-avoid","bonus":0.8600000000000009},{"rt":622.8999999985099,"stimulus":"\n                    <p><b>Action: <em>avoid</em></b></p>\n                    <p>This is the bee that you just saw.</p>\n                    <img src=\"bees-with-color/bee-B2SM.svg\" width=\"200\">\n                    <p><br>Your bonus pay is unchanged, and remains at $0.32.</p>\n            ","response":0,"trial_type":"html-button-response","trial_index":72,"time_elapsed":957384,"internal_node_id":"0.0-4.0-1.32","subject_id":"5f10955ff12b1836dcdd0d62","study_id":"60edd13110225f80f9f3709b","session_id":"6196bf618376cd07bf2cee06","condition":"contingent","relevant_dimensions":["antennae","pattern"],"bee_group":{"antennae":"A","wings":"X","pattern":"S","legs":"X"},"bonus":0.8600000000000009},{"rt":3298,"stimulus":"bees-with-color/bee-B1SM.svg","response":1,"trial_type":"image-button-response","trial_index":73,"time_elapsed":960683,"internal_node_id":"0.0-4.0-0.33","subject_id":"5f10955ff12b1836dcdd0d62","study_id":"60edd13110225f80f9f3709b","session_id":"6196bf618376cd07bf2cee06","condition":"contingent","relevant_dimensions":["antennae","pattern"],"bee_group":{"antennae":"A","wings":"X","pattern":"S","legs":"X"},"action":"avoid","summary":"bad-avoid","bonus":0.8600000000000009},{"rt":575.6000000014901,"stimulus":"\n                    <p><b>Action: <em>avoid</em></b></p>\n                    <p>This is the bee that you just saw.</p>\n                    <img src=\"bees-with-color/bee-B1SM.svg\" width=\"200\">\n                    <p><br>Your bonus pay is unchanged, and remains at $0.32.</p>\n            ","response":0,"trial_type":"html-button-response","trial_index":74,"time_elapsed":961259,"internal_node_id":"0.0-4.0-1.33","subject_id":"5f10955ff12b1836dcdd0d62","study_id":"60edd13110225f80f9f3709b","session_id":"6196bf618376cd07bf2cee06","condition":"contingent","relevant_dimensions":["antennae","pattern"],"bee_group":{"antennae":"A","wings":"X","pattern":"S","legs":"X"},"bonus":0.8600000000000009},{"rt":2376.1999999955297,"stimulus":"bees-with-color/bee-B2DM.svg","response":0,"trial_type":"image-button-response","trial_index":75,"time_elapsed":963637,"internal_node_id":"0.0-4.0-0.34","subject_id":"5f10955ff12b1836dcdd0d62","study_id":"60edd13110225f80f9f3709b","session_id":"6196bf618376cd07bf2cee06","condition":"contingent","relevant_dimensions":["antennae","pattern"],"bee_group":{"antennae":"A","wings":"X","pattern":"S","legs":"X"},"action":"harvest","summary":"good-harvest","bonus":0.8600000000000009},{"rt":1794.3000000044703,"stimulus":"\n                    <p><b>Action: <em>harvest</em></b></p>\n                    <p>This is the bee that you just saw.</p>\n                    <img src=\"bees-with-color/bee-B2DM.svg\" width=\"200\">\n                    <p><span class=\"greenText\"><b>Successful harvest!</b></span><br>Your pay has increased by $0.02. Your bonus pay is now $0.34.</p>\n            ","response":0,"trial_type":"html-button-response","trial_index":76,"time_elapsed":965432,"internal_node_id":"0.0-4.0-1.34","subject_id":"5f10955ff12b1836dcdd0d62","study_id":"60edd13110225f80f9f3709b","session_id":"6196bf618376cd07bf2cee06","condition":"contingent","relevant_dimensions":["antennae","pattern"],"bee_group":{"antennae":"A","wings":"X","pattern":"S","legs":"X"},"bonus":0.8600000000000009},{"rt":6394.60000000149,"stimulus":"bees-with-color/bee-A1SM.svg","response":1,"trial_type":"image-button-response","trial_index":77,"time_elapsed":971828,"internal_node_id":"0.0-4.0-0.35","subject_id":"5f10955ff12b1836dcdd0d62","study_id":"60edd13110225f80f9f3709b","session_id":"6196bf618376cd07bf2cee06","condition":"contingent","relevant_dimensions":["antennae","pattern"],"bee_group":{"antennae":"A","wings":"X","pattern":"S","legs":"X"},"action":"avoid","summary":"good-avoid","bonus":0.8600000000000009},{"rt":1111.7999999970198,"stimulus":"\n                    <p><b>Action: <em>avoid</em></b></p>\n                    <p>This is the bee that you just saw.</p>\n                    <img src=\"bees-with-color/bee-A1SM.svg\" width=\"200\">\n                    <p><br>Your bonus pay is unchanged, and remains at $0.34.</p>\n            ","response":0,"trial_type":"html-button-response","trial_index":78,"time_elapsed":972941,"internal_node_id":"0.0-4.0-1.35","subject_id":"5f10955ff12b1836dcdd0d62","study_id":"60edd13110225f80f9f3709b","session_id":"6196bf618376cd07bf2cee06","condition":"contingent","relevant_dimensions":["antennae","pattern"],"bee_group":{"antennae":"A","wings":"X","pattern":"S","legs":"X"},"bonus":0.8600000000000009},{"rt":1370.6999999955297,"stimulus":"bees-with-color/bee-B1SF.svg","response":0,"trial_type":"image-button-response","trial_index":79,"time_elapsed":974313,"internal_node_id":"0.0-4.0-0.36","subject_id":"5f10955ff12b1836dcdd0d62","study_id":"60edd13110225f80f9f3709b","session_id":"6196bf618376cd07bf2cee06","condition":"contingent","relevant_dimensions":["antennae","pattern"],"bee_group":{"antennae":"A","wings":"X","pattern":"S","legs":"X"},"action":"harvest","summary":"good-harvest","bonus":0.8600000000000009},{"rt":730.8999999985099,"stimulus":"\n                    <p><b>Action: <em>harvest</em></b></p>\n                    <p>This is the bee that you just saw.</p>\n                    <img src=\"bees-with-color/bee-B1SF.svg\" width=\"200\">\n                    <p><span class=\"greenText\"><b>Successful harvest!</b></span><br>Your pay has increased by $0.02. Your bonus pay is now $0.36.</p>\n            ","response":0,"trial_type":"html-button-response","trial_index":80,"time_elapsed":975045,"internal_node_id":"0.0-4.0-1.36","subject_id":"5f10955ff12b1836dcdd0d62","study_id":"60edd13110225f80f9f3709b","session_id":"6196bf618376cd07bf2cee06","condition":"contingent","relevant_dimensions":["antennae","pattern"],"bee_group":{"antennae":"A","wings":"X","pattern":"S","legs":"X"},"bonus":0.8600000000000009},{"rt":3146,"stimulus":"bees-with-color/bee-A1DM.svg","response":0,"trial_type":"image-button-response","trial_index":81,"time_elapsed":978192,"internal_node_id":"0.0-4.0-0.37","subject_id":"5f10955ff12b1836dcdd0d62","study_id":"60edd13110225f80f9f3709b","session_id":"6196bf618376cd07bf2cee06","condition":"contingent","relevant_dimensions":["antennae","pattern"],"bee_group":{"antennae":"A","wings":"X","pattern":"S","legs":"X"},"action":"harvest","summary":"good-harvest","bonus":0.8600000000000009},{"rt":608.8999999985099,"stimulus":"\n                    <p><b>Action: <em>harvest</em></b></p>\n                    <p>This is the bee that you just saw.</p>\n                    <img src=\"bees-with-color/bee-A1DM.svg\" width=\"200\">\n                    <p><span class=\"greenText\"><b>Successful harvest!</b></span><br>Your pay has increased by $0.02. Your bonus pay is now $0.38.</p>\n            ","response":0,"trial_type":"html-button-response","trial_index":82,"time_elapsed":978802,"internal_node_id":"0.0-4.0-1.37","subject_id":"5f10955ff12b1836dcdd0d62","study_id":"60edd13110225f80f9f3709b","session_id":"6196bf618376cd07bf2cee06","condition":"contingent","relevant_dimensions":["antennae","pattern"],"bee_group":{"antennae":"A","wings":"X","pattern":"S","legs":"X"},"bonus":0.8600000000000009},{"rt":3123.5999999940395,"stimulus":"bees-with-color/bee-A1SF.svg","response":1,"trial_type":"image-button-response","trial_index":83,"time_elapsed":981927,"internal_node_id":"0.0-4.0-0.38","subject_id":"5f10955ff12b1836dcdd0d62","study_id":"60edd13110225f80f9f3709b","session_id":"6196bf618376cd07bf2cee06","condition":"contingent","relevant_dimensions":["antennae","pattern"],"bee_group":{"antennae":"A","wings":"X","pattern":"S","legs":"X"},"action":"avoid","summary":"good-avoid","bonus":0.8600000000000009},{"rt":543,"stimulus":"\n                    <p><b>Action: <em>avoid</em></b></p>\n                    <p>This is the bee that you just saw.</p>\n                    <img src=\"bees-with-color/bee-A1SF.svg\" width=\"200\">\n                    <p><br>Your bonus pay is unchanged, and remains at $0.38.</p>\n            ","response":0,"trial_type":"html-button-response","trial_index":84,"time_elapsed":982471,"internal_node_id":"0.0-4.0-1.38","subject_id":"5f10955ff12b1836dcdd0d62","study_id":"60edd13110225f80f9f3709b","session_id":"6196bf618376cd07bf2cee06","condition":"contingent","relevant_dimensions":["antennae","pattern"],"bee_group":{"antennae":"A","wings":"X","pattern":"S","legs":"X"},"bonus":0.8600000000000009},{"rt":1504.6999999955297,"stimulus":"bees-with-color/bee-A2DF.svg","response":0,"trial_type":"image-button-response","trial_index":85,"time_elapsed":983977,"internal_node_id":"0.0-4.0-0.39","subject_id":"5f10955ff12b1836dcdd0d62","study_id":"60edd13110225f80f9f3709b","session_id":"6196bf618376cd07bf2cee06","condition":"contingent","relevant_dimensions":["antennae","pattern"],"bee_group":{"antennae":"A","wings":"X","pattern":"S","legs":"X"},"action":"harvest","summary":"good-harvest","bonus":0.8600000000000009},{"rt":703.2000000029802,"stimulus":"\n                    <p><b>Action: <em>harvest</em></b></p>\n                    <p>This is the bee that you just saw.</p>\n                    <img src=\"bees-with-color/bee-A2DF.svg\" width=\"200\">\n                    <p><span class=\"greenText\"><b>Successful harvest!</b></span><br>Your pay has increased by $0.02. Your bonus pay is now $0.40.</p>\n            ","response":0,"trial_type":"html-button-response","trial_index":86,"time_elapsed":984681,"internal_node_id":"0.0-4.0-1.39","subject_id":"5f10955ff12b1836dcdd0d62","study_id":"60edd13110225f80f9f3709b","session_id":"6196bf618376cd07bf2cee06","condition":"contingent","relevant_dimensions":["antennae","pattern"],"bee_group":{"antennae":"A","wings":"X","pattern":"S","legs":"X"},"bonus":0.8600000000000009},{"rt":1211,"stimulus":"bees-with-color/bee-B1DF.svg","response":0,"trial_type":"image-button-response","trial_index":87,"time_elapsed":985893,"internal_node_id":"0.0-4.0-0.40","subject_id":"5f10955ff12b1836dcdd0d62","study_id":"60edd13110225f80f9f3709b","session_id":"6196bf618376cd07bf2cee06","condition":"contingent","relevant_dimensions":["antennae","pattern"],"bee_group":{"antennae":"A","wings":"X","pattern":"S","legs":"X"},"action":"harvest","summary":"good-harvest","bonus":0.8600000000000009},{"rt":591,"stimulus":"\n                    <p><b>Action: <em>harvest</em></b></p>\n                    <p>This is the bee that you just saw.</p>\n                    <img src=\"bees-with-color/bee-B1DF.svg\" width=\"200\">\n                    <p><span class=\"greenText\"><b>Successful harvest!</b></span><br>Your pay has increased by $0.02. Your bonus pay is now $0.42.</p>\n            ","response":0,"trial_type":"html-button-response","trial_index":88,"time_elapsed":986485,"internal_node_id":"0.0-4.0-1.40","subject_id":"5f10955ff12b1836dcdd0d62","study_id":"60edd13110225f80f9f3709b","session_id":"6196bf618376cd07bf2cee06","condition":"contingent","relevant_dimensions":["antennae","pattern"],"bee_group":{"antennae":"A","wings":"X","pattern":"S","legs":"X"},"bonus":0.8600000000000009},{"rt":1530.1999999955297,"stimulus":"bees-with-color/bee-B1DM.svg","response":0,"trial_type":"image-button-response","trial_index":89,"time_elapsed":988016,"internal_node_id":"0.0-4.0-0.41","subject_id":"5f10955ff12b1836dcdd0d62","study_id":"60edd13110225f80f9f3709b","session_id":"6196bf618376cd07bf2cee06","condition":"contingent","relevant_dimensions":["antennae","pattern"],"bee_group":{"antennae":"A","wings":"X","pattern":"S","legs":"X"},"action":"harvest","summary":"good-harvest","bonus":0.8600000000000009},{"rt":796.8999999985099,"stimulus":"\n                    <p><b>Action: <em>harvest</em></b></p>\n                    <p>This is the bee that you just saw.</p>\n                    <img src=\"bees-with-color/bee-B1DM.svg\" width=\"200\">\n                    <p><span class=\"greenText\"><b>Successful harvest!</b></span><br>Your pay has increased by $0.02. Your bonus pay is now $0.44.</p>\n            ","response":0,"trial_type":"html-button-response","trial_index":90,"time_elapsed":988814,"internal_node_id":"0.0-4.0-1.41","subject_id":"5f10955ff12b1836dcdd0d62","study_id":"60edd13110225f80f9f3709b","session_id":"6196bf618376cd07bf2cee06","condition":"contingent","relevant_dimensions":["antennae","pattern"],"bee_group":{"antennae":"A","wings":"X","pattern":"S","legs":"X"},"bonus":0.8600000000000009},{"rt":1657.1000000014901,"stimulus":"bees-with-color/bee-B2DF.svg","response":0,"trial_type":"image-button-response","trial_index":91,"time_elapsed":990472,"internal_node_id":"0.0-4.0-0.42","subject_id":"5f10955ff12b1836dcdd0d62","study_id":"60edd13110225f80f9f3709b","session_id":"6196bf618376cd07bf2cee06","condition":"contingent","relevant_dimensions":["antennae","pattern"],"bee_group":{"antennae":"A","wings":"X","pattern":"S","legs":"X"},"action":"harvest","summary":"good-harvest","bonus":0.8600000000000009},{"rt":640.8999999985099,"stimulus":"\n                    <p><b>Action: <em>harvest</em></b></p>\n                    <p>This is the bee that you just saw.</p>\n                    <img src=\"bees-with-color/bee-B2DF.svg\" width=\"200\">\n                    <p><span class=\"greenText\"><b>Successful harvest!</b></span><br>Your pay has increased by $0.02. Your bonus pay is now $0.46.</p>\n            ","response":0,"trial_type":"html-button-response","trial_index":92,"time_elapsed":991114,"internal_node_id":"0.0-4.0-1.42","subject_id":"5f10955ff12b1836dcdd0d62","study_id":"60edd13110225f80f9f3709b","session_id":"6196bf618376cd07bf2cee06","condition":"contingent","relevant_dimensions":["antennae","pattern"],"bee_group":{"antennae":"A","wings":"X","pattern":"S","legs":"X"},"bonus":0.8600000000000009},{"rt":3541.10000000149,"stimulus":"bees-with-color/bee-A2SM.svg","response":1,"trial_type":"image-button-response","trial_index":93,"time_elapsed":994656,"internal_node_id":"0.0-4.0-0.43","subject_id":"5f10955ff12b1836dcdd0d62","study_id":"60edd13110225f80f9f3709b","session_id":"6196bf618376cd07bf2cee06","condition":"contingent","relevant_dimensions":["antennae","pattern"],"bee_group":{"antennae":"A","wings":"X","pattern":"S","legs":"X"},"action":"avoid","summary":"good-avoid","bonus":0.8600000000000009},{"rt":889.6999999955297,"stimulus":"\n                    <p><b>Action: <em>avoid</em></b></p>\n                    <p>This is the bee that you just saw.</p>\n                    <img src=\"bees-with-color/bee-A2SM.svg\" width=\"200\">\n                    <p><br>Your bonus pay is unchanged, and remains at $0.46.</p>\n            ","response":0,"trial_type":"html-button-response","trial_index":94,"time_elapsed":995547,"internal_node_id":"0.0-4.0-1.43","subject_id":"5f10955ff12b1836dcdd0d62","study_id":"60edd13110225f80f9f3709b","session_id":"6196bf618376cd07bf2cee06","condition":"contingent","relevant_dimensions":["antennae","pattern"],"bee_group":{"antennae":"A","wings":"X","pattern":"S","legs":"X"},"bonus":0.8600000000000009},{"rt":1368.6000000014901,"stimulus":"bees-with-color/bee-B2SF.svg","response":0,"trial_type":"image-button-response","trial_index":95,"time_elapsed":996917,"internal_node_id":"0.0-4.0-0.44","subject_id":"5f10955ff12b1836dcdd0d62","study_id":"60edd13110225f80f9f3709b","session_id":"6196bf618376cd07bf2cee06","condition":"contingent","relevant_dimensions":["antennae","pattern"],"bee_group":{"antennae":"A","wings":"X","pattern":"S","legs":"X"},"action":"harvest","summary":"good-harvest","bonus":0.8600000000000009},{"rt":868,"stimulus":"\n                    <p><b>Action: <em>harvest</em></b></p>\n                    <p>This is the bee that you just saw.</p>\n                    <img src=\"bees-with-color/bee-B2SF.svg\" width=\"200\">\n                    <p><span class=\"greenText\"><b>Successful harvest!</b></span><br>Your pay has increased by $0.02. Your bonus pay is now $0.48.</p>\n            ","response":0,"trial_type":"html-button-response","trial_index":96,"time_elapsed":997786,"internal_node_id":"0.0-4.0-1.44","subject_id":"5f10955ff12b1836dcdd0d62","study_id":"60edd13110225f80f9f3709b","session_id":"6196bf618376cd07bf2cee06","condition":"contingent","relevant_dimensions":["antennae","pattern"],"bee_group":{"antennae":"A","wings":"X","pattern":"S","legs":"X"},"bonus":0.8600000000000009},{"rt":2066.10000000149,"stimulus":"bees-with-color/bee-A1DF.svg","response":0,"trial_type":"image-button-response","trial_index":97,"time_elapsed":999853,"internal_node_id":"0.0-4.0-0.45","subject_id":"5f10955ff12b1836dcdd0d62","study_id":"60edd13110225f80f9f3709b","session_id":"6196bf618376cd07bf2cee06","condition":"contingent","relevant_dimensions":["antennae","pattern"],"bee_group":{"antennae":"A","wings":"X","pattern":"S","legs":"X"},"action":"harvest","summary":"good-harvest","bonus":0.8600000000000009},{"rt":766,"stimulus":"\n                    <p><b>Action: <em>harvest</em></b></p>\n                    <p>This is the bee that you just saw.</p>\n                    <img src=\"bees-with-color/bee-A1DF.svg\" width=\"200\">\n                    <p><span class=\"greenText\"><b>Successful harvest!</b></span><br>Your pay has increased by $0.02. Your bonus pay is now $0.50.</p>\n            ","response":0,"trial_type":"html-button-response","trial_index":98,"time_elapsed":1000620,"internal_node_id":"0.0-4.0-1.45","subject_id":"5f10955ff12b1836dcdd0d62","study_id":"60edd13110225f80f9f3709b","session_id":"6196bf618376cd07bf2cee06","condition":"contingent","relevant_dimensions":["antennae","pattern"],"bee_group":{"antennae":"A","wings":"X","pattern":"S","legs":"X"},"bonus":0.8600000000000009},{"rt":4351.10000000149,"stimulus":"bees-with-color/bee-A2DM.svg","response":1,"trial_type":"image-button-response","trial_index":99,"time_elapsed":1004972,"internal_node_id":"0.0-4.0-0.46","subject_id":"5f10955ff12b1836dcdd0d62","study_id":"60edd13110225f80f9f3709b","session_id":"6196bf618376cd07bf2cee06","condition":"contingent","relevant_dimensions":["antennae","pattern"],"bee_group":{"antennae":"A","wings":"X","pattern":"S","legs":"X"},"action":"avoid","summary":"bad-avoid","bonus":0.8600000000000009},{"rt":562.6999999955297,"stimulus":"\n                    <p><b>Action: <em>avoid</em></b></p>\n                    <p>This is the bee that you just saw.</p>\n                    <img src=\"bees-with-color/bee-A2DM.svg\" width=\"200\">\n                    <p><br>Your bonus pay is unchanged, and remains at $0.50.</p>\n            ","response":0,"trial_type":"html-button-response","trial_index":100,"time_elapsed":1005536,"internal_node_id":"0.0-4.0-1.46","subject_id":"5f10955ff12b1836dcdd0d62","study_id":"60edd13110225f80f9f3709b","session_id":"6196bf618376cd07bf2cee06","condition":"contingent","relevant_dimensions":["antennae","pattern"],"bee_group":{"antennae":"A","wings":"X","pattern":"S","legs":"X"},"bonus":0.8600000000000009},{"rt":2484.6999999955297,"stimulus":"bees-with-color/bee-A2SF.svg","response":1,"trial_type":"image-button-response","trial_index":101,"time_elapsed":1008022,"internal_node_id":"0.0-4.0-0.47","subject_id":"5f10955ff12b1836dcdd0d62","study_id":"60edd13110225f80f9f3709b","session_id":"6196bf618376cd07bf2cee06","condition":"contingent","relevant_dimensions":["antennae","pattern"],"bee_group":{"antennae":"A","wings":"X","pattern":"S","legs":"X"},"action":"avoid","summary":"good-avoid","bonus":0.8600000000000009},{"rt":554,"stimulus":"\n                    <p><b>Action: <em>avoid</em></b></p>\n                    <p>This is the bee that you just saw.</p>\n                    <img src=\"bees-with-color/bee-A2SF.svg\" width=\"200\">\n                    <p><br>Your bonus pay is unchanged, and remains at $0.50.</p>\n            ","response":0,"trial_type":"html-button-response","trial_index":102,"time_elapsed":1008577,"internal_node_id":"0.0-4.0-1.47","subject_id":"5f10955ff12b1836dcdd0d62","study_id":"60edd13110225f80f9f3709b","session_id":"6196bf618376cd07bf2cee06","condition":"contingent","relevant_dimensions":["antennae","pattern"],"bee_group":{"antennae":"A","wings":"X","pattern":"S","legs":"X"},"bonus":0.8600000000000009},{"rt":1154.7999999970198,"stimulus":"bees-with-color/bee-B2DF.svg","response":0,"trial_type":"image-button-response","trial_index":103,"time_elapsed":1009733,"internal_node_id":"0.0-4.0-0.48","subject_id":"5f10955ff12b1836dcdd0d62","study_id":"60edd13110225f80f9f3709b","session_id":"6196bf618376cd07bf2cee06","condition":"contingent","relevant_dimensions":["antennae","pattern"],"bee_group":{"antennae":"A","wings":"X","pattern":"S","legs":"X"},"action":"harvest","summary":"good-harvest","bonus":0.8600000000000009},{"rt":657.1000000014901,"stimulus":"\n                    <p><b>Action: <em>harvest</em></b></p>\n                    <p>This is the bee that you just saw.</p>\n                    <img src=\"bees-with-color/bee-B2DF.svg\" width=\"200\">\n                    <p><span class=\"greenText\"><b>Successful harvest!</b></span><br>Your pay has increased by $0.02. Your bonus pay is now $0.52.</p>\n            ","response":0,"trial_type":"html-button-response","trial_index":104,"time_elapsed":1010391,"internal_node_id":"0.0-4.0-1.48","subject_id":"5f10955ff12b1836dcdd0d62","study_id":"60edd13110225f80f9f3709b","session_id":"6196bf618376cd07bf2cee06","condition":"contingent","relevant_dimensions":["antennae","pattern"],"bee_group":{"antennae":"A","wings":"X","pattern":"S","legs":"X"},"bonus":0.8600000000000009},{"rt":1648.8999999985099,"stimulus":"bees-with-color/bee-B1SF.svg","response":0,"trial_type":"image-button-response","trial_index":105,"time_elapsed":1012041,"internal_node_id":"0.0-4.0-0.49","subject_id":"5f10955ff12b1836dcdd0d62","study_id":"60edd13110225f80f9f3709b","session_id":"6196bf618376cd07bf2cee06","condition":"contingent","relevant_dimensions":["antennae","pattern"],"bee_group":{"antennae":"A","wings":"X","pattern":"S","legs":"X"},"action":"harvest","summary":"good-harvest","bonus":0.8600000000000009},{"rt":688.2000000029802,"stimulus":"\n                    <p><b>Action: <em>harvest</em></b></p>\n                    <p>This is the bee that you just saw.</p>\n                    <img src=\"bees-with-color/bee-B1SF.svg\" width=\"200\">\n                    <p><span class=\"greenText\"><b>Successful harvest!</b></span><br>Your pay has increased by $0.02. Your bonus pay is now $0.54.</p>\n            ","response":0,"trial_type":"html-button-response","trial_index":106,"time_elapsed":1012730,"internal_node_id":"0.0-4.0-1.49","subject_id":"5f10955ff12b1836dcdd0d62","study_id":"60edd13110225f80f9f3709b","session_id":"6196bf618376cd07bf2cee06","condition":"contingent","relevant_dimensions":["antennae","pattern"],"bee_group":{"antennae":"A","wings":"X","pattern":"S","legs":"X"},"bonus":0.8600000000000009},{"rt":8950.89999999851,"stimulus":"bees-with-color/bee-A2SF.svg","response":1,"trial_type":"image-button-response","trial_index":107,"time_elapsed":1021682,"internal_node_id":"0.0-4.0-0.50","subject_id":"5f10955ff12b1836dcdd0d62","study_id":"60edd13110225f80f9f3709b","session_id":"6196bf618376cd07bf2cee06","condition":"contingent","relevant_dimensions":["antennae","pattern"],"bee_group":{"antennae":"A","wings":"X","pattern":"S","legs":"X"},"action":"avoid","summary":"good-avoid","bonus":0.8600000000000009},{"rt":821.6999999955297,"stimulus":"\n                    <p><b>Action: <em>avoid</em></b></p>\n                    <p>This is the bee that you just saw.</p>\n                    <img src=\"bees-with-color/bee-A2SF.svg\" width=\"200\">\n                    <p><br>Your bonus pay is unchanged, and remains at $0.54.</p>\n            ","response":0,"trial_type":"html-button-response","trial_index":108,"time_elapsed":1022505,"internal_node_id":"0.0-4.0-1.50","subject_id":"5f10955ff12b1836dcdd0d62","study_id":"60edd13110225f80f9f3709b","session_id":"6196bf618376cd07bf2cee06","condition":"contingent","relevant_dimensions":["antennae","pattern"],"bee_group":{"antennae":"A","wings":"X","pattern":"S","legs":"X"},"bonus":0.8600000000000009},{"rt":1406.7999999970198,"stimulus":"bees-with-color/bee-B2DM.svg","response":1,"trial_type":"image-button-response","trial_index":109,"time_elapsed":1023913,"internal_node_id":"0.0-4.0-0.51","subject_id":"5f10955ff12b1836dcdd0d62","study_id":"60edd13110225f80f9f3709b","session_id":"6196bf618376cd07bf2cee06","condition":"contingent","relevant_dimensions":["antennae","pattern"],"bee_group":{"antennae":"A","wings":"X","pattern":"S","legs":"X"},"action":"avoid","summary":"bad-avoid","bonus":0.8600000000000009},{"rt":1188.6999999955297,"stimulus":"\n                    <p><b>Action: <em>avoid</em></b></p>\n                    <p>This is the bee that you just saw.</p>\n                    <img src=\"bees-with-color/bee-B2DM.svg\" width=\"200\">\n                    <p><br>Your bonus pay is unchanged, and remains at $0.54.</p>\n            ","response":0,"trial_type":"html-button-response","trial_index":110,"time_elapsed":1025103,"internal_node_id":"0.0-4.0-1.51","subject_id":"5f10955ff12b1836dcdd0d62","study_id":"60edd13110225f80f9f3709b","session_id":"6196bf618376cd07bf2cee06","condition":"contingent","relevant_dimensions":["antennae","pattern"],"bee_group":{"antennae":"A","wings":"X","pattern":"S","legs":"X"},"bonus":0.8600000000000009},{"rt":3819.10000000149,"stimulus":"bees-with-color/bee-A2SM.svg","response":1,"trial_type":"image-button-response","trial_index":111,"time_elapsed":1028923,"internal_node_id":"0.0-4.0-0.52","subject_id":"5f10955ff12b1836dcdd0d62","study_id":"60edd13110225f80f9f3709b","session_id":"6196bf618376cd07bf2cee06","condition":"contingent","relevant_dimensions":["antennae","pattern"],"bee_group":{"antennae":"A","wings":"X","pattern":"S","legs":"X"},"action":"avoid","summary":"good-avoid","bonus":0.8600000000000009},{"rt":706.2999999970198,"stimulus":"\n                    <p><b>Action: <em>avoid</em></b></p>\n                    <p>This is the bee that you just saw.</p>\n                    <img src=\"bees-with-color/bee-A2SM.svg\" width=\"200\">\n                    <p><br>Your bonus pay is unchanged, and remains at $0.54.</p>\n            ","response":0,"trial_type":"html-button-response","trial_index":112,"time_elapsed":1029630,"internal_node_id":"0.0-4.0-1.52","subject_id":"5f10955ff12b1836dcdd0d62","study_id":"60edd13110225f80f9f3709b","session_id":"6196bf618376cd07bf2cee06","condition":"contingent","relevant_dimensions":["antennae","pattern"],"bee_group":{"antennae":"A","wings":"X","pattern":"S","legs":"X"},"bonus":0.8600000000000009},{"rt":1651.2999999970198,"stimulus":"bees-with-color/bee-A2DF.svg","response":1,"trial_type":"image-button-response","trial_index":113,"time_elapsed":1031283,"internal_node_id":"0.0-4.0-0.53","subject_id":"5f10955ff12b1836dcdd0d62","study_id":"60edd13110225f80f9f3709b","session_id":"6196bf618376cd07bf2cee06","condition":"contingent","relevant_dimensions":["antennae","pattern"],"bee_group":{"antennae":"A","wings":"X","pattern":"S","legs":"X"},"action":"avoid","summary":"bad-avoid","bonus":0.8600000000000009},{"rt":1604.2000000029802,"stimulus":"\n                    <p><b>Action: <em>avoid</em></b></p>\n                    <p>This is the bee that you just saw.</p>\n                    <img src=\"bees-with-color/bee-A2DF.svg\" width=\"200\">\n                    <p><br>Your bonus pay is unchanged, and remains at $0.54.</p>\n            ","response":0,"trial_type":"html-button-response","trial_index":114,"time_elapsed":1032888,"internal_node_id":"0.0-4.0-1.53","subject_id":"5f10955ff12b1836dcdd0d62","study_id":"60edd13110225f80f9f3709b","session_id":"6196bf618376cd07bf2cee06","condition":"contingent","relevant_dimensions":["antennae","pattern"],"bee_group":{"antennae":"A","wings":"X","pattern":"S","legs":"X"},"bonus":0.8600000000000009},{"rt":1353.6999999955297,"stimulus":"bees-with-color/bee-B2SF.svg","response":0,"trial_type":"image-button-response","trial_index":115,"time_elapsed":1034243,"internal_node_id":"0.0-4.0-0.54","subject_id":"5f10955ff12b1836dcdd0d62","study_id":"60edd13110225f80f9f3709b","session_id":"6196bf618376cd07bf2cee06","condition":"contingent","relevant_dimensions":["antennae","pattern"],"bee_group":{"antennae":"A","wings":"X","pattern":"S","legs":"X"},"action":"harvest","summary":"good-harvest","bonus":0.8600000000000009},{"rt":599.1000000014901,"stimulus":"\n                    <p><b>Action: <em>harvest</em></b></p>\n                    <p>This is the bee that you just saw.</p>\n                    <img src=\"bees-with-color/bee-B2SF.svg\" width=\"200\">\n                    <p><span class=\"greenText\"><b>Successful harvest!</b></span><br>Your pay has increased by $0.02. Your bonus pay is now $0.56.</p>\n            ","response":0,"trial_type":"html-button-response","trial_index":116,"time_elapsed":1034843,"internal_node_id":"0.0-4.0-1.54","subject_id":"5f10955ff12b1836dcdd0d62","study_id":"60edd13110225f80f9f3709b","session_id":"6196bf618376cd07bf2cee06","condition":"contingent","relevant_dimensions":["antennae","pattern"],"bee_group":{"antennae":"A","wings":"X","pattern":"S","legs":"X"},"bonus":0.8600000000000009},{"rt":1237.7999999970198,"stimulus":"bees-with-color/bee-B1DM.svg","response":0,"trial_type":"image-button-response","trial_index":117,"time_elapsed":1036082,"internal_node_id":"0.0-4.0-0.55","subject_id":"5f10955ff12b1836dcdd0d62","study_id":"60edd13110225f80f9f3709b","session_id":"6196bf618376cd07bf2cee06","condition":"contingent","relevant_dimensions":["antennae","pattern"],"bee_group":{"antennae":"A","wings":"X","pattern":"S","legs":"X"},"action":"harvest","summary":"good-harvest","bonus":0.8600000000000009},{"rt":703.2000000029802,"stimulus":"\n                    <p><b>Action: <em>harvest</em></b></p>\n                    <p>This is the bee that you just saw.</p>\n                    <img src=\"bees-with-color/bee-B1DM.svg\" width=\"200\">\n                    <p><span class=\"greenText\"><b>Successful harvest!</b></span><br>Your pay has increased by $0.02. Your bonus pay is now $0.58.</p>\n            ","response":0,"trial_type":"html-button-response","trial_index":118,"time_elapsed":1036786,"internal_node_id":"0.0-4.0-1.55","subject_id":"5f10955ff12b1836dcdd0d62","study_id":"60edd13110225f80f9f3709b","session_id":"6196bf618376cd07bf2cee06","condition":"contingent","relevant_dimensions":["antennae","pattern"],"bee_group":{"antennae":"A","wings":"X","pattern":"S","legs":"X"},"bonus":0.8600000000000009},{"rt":1647.2000000029802,"stimulus":"bees-with-color/bee-A1DM.svg","response":1,"trial_type":"image-button-response","trial_index":119,"time_elapsed":1038434,"internal_node_id":"0.0-4.0-0.56","subject_id":"5f10955ff12b1836dcdd0d62","study_id":"60edd13110225f80f9f3709b","session_id":"6196bf618376cd07bf2cee06","condition":"contingent","relevant_dimensions":["antennae","pattern"],"bee_group":{"antennae":"A","wings":"X","pattern":"S","legs":"X"},"action":"avoid","summary":"bad-avoid","bonus":0.8600000000000009},{"rt":1003.7999999970198,"stimulus":"\n                    <p><b>Action: <em>avoid</em></b></p>\n                    <p>This is the bee that you just saw.</p>\n                    <img src=\"bees-with-color/bee-A1DM.svg\" width=\"200\">\n                    <p><br>Your bonus pay is unchanged, and remains at $0.58.</p>\n            ","response":0,"trial_type":"html-button-response","trial_index":120,"time_elapsed":1039439,"internal_node_id":"0.0-4.0-1.56","subject_id":"5f10955ff12b1836dcdd0d62","study_id":"60edd13110225f80f9f3709b","session_id":"6196bf618376cd07bf2cee06","condition":"contingent","relevant_dimensions":["antennae","pattern"],"bee_group":{"antennae":"A","wings":"X","pattern":"S","legs":"X"},"bonus":0.8600000000000009},{"rt":2603.89999999851,"stimulus":"bees-with-color/bee-A2DM.svg","response":1,"trial_type":"image-button-response","trial_index":121,"time_elapsed":1042044,"internal_node_id":"0.0-4.0-0.57","subject_id":"5f10955ff12b1836dcdd0d62","study_id":"60edd13110225f80f9f3709b","session_id":"6196bf618376cd07bf2cee06","condition":"contingent","relevant_dimensions":["antennae","pattern"],"bee_group":{"antennae":"A","wings":"X","pattern":"S","legs":"X"},"action":"avoid","summary":"bad-avoid","bonus":0.8600000000000009},{"rt":608,"stimulus":"\n                    <p><b>Action: <em>avoid</em></b></p>\n                    <p>This is the bee that you just saw.</p>\n                    <img src=\"bees-with-color/bee-A2DM.svg\" width=\"200\">\n                    <p><br>Your bonus pay is unchanged, and remains at $0.58.</p>\n            ","response":0,"trial_type":"html-button-response","trial_index":122,"time_elapsed":1042653,"internal_node_id":"0.0-4.0-1.57","subject_id":"5f10955ff12b1836dcdd0d62","study_id":"60edd13110225f80f9f3709b","session_id":"6196bf618376cd07bf2cee06","condition":"contingent","relevant_dimensions":["antennae","pattern"],"bee_group":{"antennae":"A","wings":"X","pattern":"S","legs":"X"},"bonus":0.8600000000000009},{"rt":14772,"stimulus":"bees-with-color/bee-A1SF.svg","response":1,"trial_type":"image-button-response","trial_index":123,"time_elapsed":1057426,"internal_node_id":"0.0-4.0-0.58","subject_id":"5f10955ff12b1836dcdd0d62","study_id":"60edd13110225f80f9f3709b","session_id":"6196bf618376cd07bf2cee06","condition":"contingent","relevant_dimensions":["antennae","pattern"],"bee_group":{"antennae":"A","wings":"X","pattern":"S","legs":"X"},"action":"avoid","summary":"good-avoid","bonus":0.8600000000000009},{"rt":626.8999999985099,"stimulus":"\n                    <p><b>Action: <em>avoid</em></b></p>\n                    <p>This is the bee that you just saw.</p>\n                    <img src=\"bees-with-color/bee-A1SF.svg\" width=\"200\">\n                    <p><br>Your bonus pay is unchanged, and remains at $0.58.</p>\n            ","response":0,"trial_type":"html-button-response","trial_index":124,"time_elapsed":1058054,"internal_node_id":"0.0-4.0-1.58","subject_id":"5f10955ff12b1836dcdd0d62","study_id":"60edd13110225f80f9f3709b","session_id":"6196bf618376cd07bf2cee06","condition":"contingent","relevant_dimensions":["antennae","pattern"],"bee_group":{"antennae":"A","wings":"X","pattern":"S","legs":"X"},"bonus":0.8600000000000009},{"rt":1605,"stimulus":"bees-with-color/bee-B1SM.svg","response":1,"trial_type":"image-button-response","trial_index":125,"time_elapsed":1059660,"internal_node_id":"0.0-4.0-0.59","subject_id":"5f10955ff12b1836dcdd0d62","study_id":"60edd13110225f80f9f3709b","session_id":"6196bf618376cd07bf2cee06","condition":"contingent","relevant_dimensions":["antennae","pattern"],"bee_group":{"antennae":"A","wings":"X","pattern":"S","legs":"X"},"action":"avoid","summary":"bad-avoid","bonus":0.8600000000000009},{"rt":549.8999999985099,"stimulus":"\n                    <p><b>Action: <em>avoid</em></b></p>\n                    <p>This is the bee that you just saw.</p>\n                    <img src=\"bees-with-color/bee-B1SM.svg\" width=\"200\">\n                    <p><br>Your bonus pay is unchanged, and remains at $0.58.</p>\n            ","response":0,"trial_type":"html-button-response","trial_index":126,"time_elapsed":1060211,"internal_node_id":"0.0-4.0-1.59","subject_id":"5f10955ff12b1836dcdd0d62","study_id":"60edd13110225f80f9f3709b","session_id":"6196bf618376cd07bf2cee06","condition":"contingent","relevant_dimensions":["antennae","pattern"],"bee_group":{"antennae":"A","wings":"X","pattern":"S","legs":"X"},"bonus":0.8600000000000009},{"rt":1238.8999999985099,"stimulus":"bees-with-color/bee-A1DF.svg","response":0,"trial_type":"image-button-response","trial_index":127,"time_elapsed":1061451,"internal_node_id":"0.0-4.0-0.60","subject_id":"5f10955ff12b1836dcdd0d62","study_id":"60edd13110225f80f9f3709b","session_id":"6196bf618376cd07bf2cee06","condition":"contingent","relevant_dimensions":["antennae","pattern"],"bee_group":{"antennae":"A","wings":"X","pattern":"S","legs":"X"},"action":"harvest","summary":"good-harvest","bonus":0.8600000000000009},{"rt":755.8999999985099,"stimulus":"\n                    <p><b>Action: <em>harvest</em></b></p>\n                    <p>This is the bee that you just saw.</p>\n                    <img src=\"bees-with-color/bee-A1DF.svg\" width=\"200\">\n                    <p><span class=\"greenText\"><b>Successful harvest!</b></span><br>Your pay has increased by $0.02. Your bonus pay is now $0.60.</p>\n            ","response":0,"trial_type":"html-button-response","trial_index":128,"time_elapsed":1062208,"internal_node_id":"0.0-4.0-1.60","subject_id":"5f10955ff12b1836dcdd0d62","study_id":"60edd13110225f80f9f3709b","session_id":"6196bf618376cd07bf2cee06","condition":"contingent","relevant_dimensions":["antennae","pattern"],"bee_group":{"antennae":"A","wings":"X","pattern":"S","legs":"X"},"bonus":0.8600000000000009},{"rt":2797.10000000149,"stimulus":"bees-with-color/bee-B2SM.svg","response":1,"trial_type":"image-button-response","trial_index":129,"time_elapsed":1065006,"internal_node_id":"0.0-4.0-0.61","subject_id":"5f10955ff12b1836dcdd0d62","study_id":"60edd13110225f80f9f3709b","session_id":"6196bf618376cd07bf2cee06","condition":"contingent","relevant_dimensions":["antennae","pattern"],"bee_group":{"antennae":"A","wings":"X","pattern":"S","legs":"X"},"action":"avoid","summary":"bad-avoid","bonus":0.8600000000000009},{"rt":694.8000000044703,"stimulus":"\n                    <p><b>Action: <em>avoid</em></b></p>\n                    <p>This is the bee that you just saw.</p>\n                    <img src=\"bees-with-color/bee-B2SM.svg\" width=\"200\">\n                    <p><br>Your bonus pay is unchanged, and remains at $0.60.</p>\n            ","response":0,"trial_type":"html-button-response","trial_index":130,"time_elapsed":1065702,"internal_node_id":"0.0-4.0-1.61","subject_id":"5f10955ff12b1836dcdd0d62","study_id":"60edd13110225f80f9f3709b","session_id":"6196bf618376cd07bf2cee06","condition":"contingent","relevant_dimensions":["antennae","pattern"],"bee_group":{"antennae":"A","wings":"X","pattern":"S","legs":"X"},"bonus":0.8600000000000009},{"rt":3398.89999999851,"stimulus":"bees-with-color/bee-A1SM.svg","response":1,"trial_type":"image-button-response","trial_index":131,"time_elapsed":1069102,"internal_node_id":"0.0-4.0-0.62","subject_id":"5f10955ff12b1836dcdd0d62","study_id":"60edd13110225f80f9f3709b","session_id":"6196bf618376cd07bf2cee06","condition":"contingent","relevant_dimensions":["antennae","pattern"],"bee_group":{"antennae":"A","wings":"X","pattern":"S","legs":"X"},"action":"avoid","summary":"good-avoid","bonus":0.8600000000000009},{"rt":646.0999999940395,"stimulus":"\n                    <p><b>Action: <em>avoid</em></b></p>\n                    <p>This is the bee that you just saw.</p>\n                    <img src=\"bees-with-color/bee-A1SM.svg\" width=\"200\">\n                    <p><br>Your bonus pay is unchanged, and remains at $0.60.</p>\n            ","response":0,"trial_type":"html-button-response","trial_index":132,"time_elapsed":1069749,"internal_node_id":"0.0-4.0-1.62","subject_id":"5f10955ff12b1836dcdd0d62","study_id":"60edd13110225f80f9f3709b","session_id":"6196bf618376cd07bf2cee06","condition":"contingent","relevant_dimensions":["antennae","pattern"],"bee_group":{"antennae":"A","wings":"X","pattern":"S","legs":"X"},"bonus":0.8600000000000009},{"rt":983.5,"stimulus":"bees-with-color/bee-B1DF.svg","response":0,"trial_type":"image-button-response","trial_index":133,"time_elapsed":1070734,"internal_node_id":"0.0-4.0-0.63","subject_id":"5f10955ff12b1836dcdd0d62","study_id":"60edd13110225f80f9f3709b","session_id":"6196bf618376cd07bf2cee06","condition":"contingent","relevant_dimensions":["antennae","pattern"],"bee_group":{"antennae":"A","wings":"X","pattern":"S","legs":"X"},"action":"harvest","summary":"good-harvest","bonus":0.8600000000000009},{"rt":861.8000000044703,"stimulus":"\n                    <p><b>Action: <em>harvest</em></b></p>\n                    <p>This is the bee that you just saw.</p>\n                    <img src=\"bees-with-color/bee-B1DF.svg\" width=\"200\">\n                    <p><span class=\"greenText\"><b>Successful harvest!</b></span><br>Your pay has increased by $0.02. Your bonus pay is now $0.62.</p>\n            ","response":0,"trial_type":"html-button-response","trial_index":134,"time_elapsed":1071597,"internal_node_id":"0.0-4.0-1.63","subject_id":"5f10955ff12b1836dcdd0d62","study_id":"60edd13110225f80f9f3709b","session_id":"6196bf618376cd07bf2cee06","condition":"contingent","relevant_dimensions":["antennae","pattern"],"bee_group":{"antennae":"A","wings":"X","pattern":"S","legs":"X"},"bonus":0.8600000000000009},{"rt":10663.70000000298,"stimulus":"You have completed the first part of this experiment.<br><br>You will now begin a shorter second part, in which you will receive no feedback.<br>The same rules regarding bonus pay apply.<br><br>Press any key to begin.","response":"arrowup","trial_type":"html-keyboard-response","trial_index":135,"time_elapsed":1082262,"internal_node_id":"0.0-5.0","subject_id":"5f10955ff12b1836dcdd0d62","study_id":"60edd13110225f80f9f3709b","session_id":"6196bf618376cd07bf2cee06","condition":"contingent","relevant_dimensions":["antennae","pattern"],"bee_group":{"antennae":"A","wings":"X","pattern":"S","legs":"X"},"bonus":0.8600000000000009},{"rt":5641.29999999702,"stimulus":"bees-with-color/bee-B2SM.svg","response":1,"trial_type":"image-button-response","trial_index":136,"time_elapsed":1087911,"internal_node_id":"0.0-6.0-0.0","subject_id":"5f10955ff12b1836dcdd0d62","study_id":"60edd13110225f80f9f3709b","session_id":"6196bf618376cd07bf2cee06","condition":"contingent","relevant_dimensions":["antennae","pattern"],"bee_group":{"antennae":"A","wings":"X","pattern":"S","legs":"X"},"bonus":0.8600000000000009},{"rt":8022,"stimulus":"bees-with-color/bee-B1DM.svg","response":1,"trial_type":"image-button-response","trial_index":137,"time_elapsed":1095935,"internal_node_id":"0.0-6.0-0.1","subject_id":"5f10955ff12b1836dcdd0d62","study_id":"60edd13110225f80f9f3709b","session_id":"6196bf618376cd07bf2cee06","condition":"contingent","relevant_dimensions":["antennae","pattern"],"bee_group":{"antennae":"A","wings":"X","pattern":"S","legs":"X"},"bonus":0.8600000000000009},{"rt":2554.10000000149,"stimulus":"bees-with-color/bee-B2DM.svg","response":1,"trial_type":"image-button-response","trial_index":138,"time_elapsed":1098491,"internal_node_id":"0.0-6.0-0.2","subject_id":"5f10955ff12b1836dcdd0d62","study_id":"60edd13110225f80f9f3709b","session_id":"6196bf618376cd07bf2cee06","condition":"contingent","relevant_dimensions":["antennae","pattern"],"bee_group":{"antennae":"A","wings":"X","pattern":"S","legs":"X"},"bonus":0.8600000000000009},{"rt":1897,"stimulus":"bees-with-color/bee-A2SM.svg","response":1,"trial_type":"image-button-response","trial_index":139,"time_elapsed":1100390,"internal_node_id":"0.0-6.0-0.3","subject_id":"5f10955ff12b1836dcdd0d62","study_id":"60edd13110225f80f9f3709b","session_id":"6196bf618376cd07bf2cee06","condition":"contingent","relevant_dimensions":["antennae","pattern"],"bee_group":{"antennae":"A","wings":"X","pattern":"S","legs":"X"},"bonus":0.8600000000000009},{"rt":1754.6999999955297,"stimulus":"bees-with-color/bee-A1SF.svg","response":1,"trial_type":"image-button-response","trial_index":140,"time_elapsed":1102146,"internal_node_id":"0.0-6.0-0.4","subject_id":"5f10955ff12b1836dcdd0d62","study_id":"60edd13110225f80f9f3709b","session_id":"6196bf618376cd07bf2cee06","condition":"contingent","relevant_dimensions":["antennae","pattern"],"bee_group":{"antennae":"A","wings":"X","pattern":"S","legs":"X"},"bonus":0.8600000000000009},{"rt":2706.60000000149,"stimulus":"bees-with-color/bee-A2DF.svg","response":0,"trial_type":"image-button-response","trial_index":141,"time_elapsed":1104854,"internal_node_id":"0.0-6.0-0.5","subject_id":"5f10955ff12b1836dcdd0d62","study_id":"60edd13110225f80f9f3709b","session_id":"6196bf618376cd07bf2cee06","condition":"contingent","relevant_dimensions":["antennae","pattern"],"bee_group":{"antennae":"A","wings":"X","pattern":"S","legs":"X"},"bonus":0.8600000000000009},{"rt":1346.2000000029802,"stimulus":"bees-with-color/bee-A1DM.svg","response":1,"trial_type":"image-button-response","trial_index":142,"time_elapsed":1106202,"internal_node_id":"0.0-6.0-0.6","subject_id":"5f10955ff12b1836dcdd0d62","study_id":"60edd13110225f80f9f3709b","session_id":"6196bf618376cd07bf2cee06","condition":"contingent","relevant_dimensions":["antennae","pattern"],"bee_group":{"antennae":"A","wings":"X","pattern":"S","legs":"X"},"bonus":0.8600000000000009},{"rt":4436.70000000298,"stimulus":"bees-with-color/bee-A2DM.svg","response":1,"trial_type":"image-button-response","trial_index":143,"time_elapsed":1110640,"internal_node_id":"0.0-6.0-0.7","subject_id":"5f10955ff12b1836dcdd0d62","study_id":"60edd13110225f80f9f3709b","session_id":"6196bf618376cd07bf2cee06","condition":"contingent","relevant_dimensions":["antennae","pattern"],"bee_group":{"antennae":"A","wings":"X","pattern":"S","legs":"X"},"bonus":0.8600000000000009},{"rt":1056.3000000044703,"stimulus":"bees-with-color/bee-B1SF.svg","response":0,"trial_type":"image-button-response","trial_index":144,"time_elapsed":1111698,"internal_node_id":"0.0-6.0-0.8","subject_id":"5f10955ff12b1836dcdd0d62","study_id":"60edd13110225f80f9f3709b","session_id":"6196bf618376cd07bf2cee06","condition":"contingent","relevant_dimensions":["antennae","pattern"],"bee_group":{"antennae":"A","wings":"X","pattern":"S","legs":"X"},"bonus":0.8600000000000009},{"rt":904.5,"stimulus":"bees-with-color/bee-B1DF.svg","response":0,"trial_type":"image-button-response","trial_index":145,"time_elapsed":1112604,"internal_node_id":"0.0-6.0-0.9","subject_id":"5f10955ff12b1836dcdd0d62","study_id":"60edd13110225f80f9f3709b","session_id":"6196bf618376cd07bf2cee06","condition":"contingent","relevant_dimensions":["antennae","pattern"],"bee_group":{"antennae":"A","wings":"X","pattern":"S","legs":"X"},"bonus":0.8600000000000009},{"rt":1829.6999999955297,"stimulus":"bees-with-color/bee-B1SM.svg","response":0,"trial_type":"image-button-response","trial_index":146,"time_elapsed":1114435,"internal_node_id":"0.0-6.0-0.10","subject_id":"5f10955ff12b1836dcdd0d62","study_id":"60edd13110225f80f9f3709b","session_id":"6196bf618376cd07bf2cee06","condition":"contingent","relevant_dimensions":["antennae","pattern"],"bee_group":{"antennae":"A","wings":"X","pattern":"S","legs":"X"},"bonus":0.8600000000000009},{"rt":4609.4000000059605,"stimulus":"bees-with-color/bee-A2SF.svg","response":1,"trial_type":"image-button-response","trial_index":147,"time_elapsed":1119046,"internal_node_id":"0.0-6.0-0.11","subject_id":"5f10955ff12b1836dcdd0d62","study_id":"60edd13110225f80f9f3709b","session_id":"6196bf618376cd07bf2cee06","condition":"contingent","relevant_dimensions":["antennae","pattern"],"bee_group":{"antennae":"A","wings":"X","pattern":"S","legs":"X"},"bonus":0.8600000000000009},{"rt":1784.4000000059605,"stimulus":"bees-with-color/bee-A1SM.svg","response":1,"trial_type":"image-button-response","trial_index":148,"time_elapsed":1120832,"internal_node_id":"0.0-6.0-0.12","subject_id":"5f10955ff12b1836dcdd0d62","study_id":"60edd13110225f80f9f3709b","session_id":"6196bf618376cd07bf2cee06","condition":"contingent","relevant_dimensions":["antennae","pattern"],"bee_group":{"antennae":"A","wings":"X","pattern":"S","legs":"X"},"bonus":0.8600000000000009},{"rt":996.2000000029802,"stimulus":"bees-with-color/bee-B2SF.svg","response":0,"trial_type":"image-button-response","trial_index":149,"time_elapsed":1121829,"internal_node_id":"0.0-6.0-0.13","subject_id":"5f10955ff12b1836dcdd0d62","study_id":"60edd13110225f80f9f3709b","session_id":"6196bf618376cd07bf2cee06","condition":"contingent","relevant_dimensions":["antennae","pattern"],"bee_group":{"antennae":"A","wings":"X","pattern":"S","legs":"X"},"bonus":0.8600000000000009},{"rt":13611.10000000149,"stimulus":"bees-with-color/bee-A1DF.svg","response":0,"trial_type":"image-button-response","trial_index":150,"time_elapsed":1135442,"internal_node_id":"0.0-6.0-0.14","subject_id":"5f10955ff12b1836dcdd0d62","study_id":"60edd13110225f80f9f3709b","session_id":"6196bf618376cd07bf2cee06","condition":"contingent","relevant_dimensions":["antennae","pattern"],"bee_group":{"antennae":"A","wings":"X","pattern":"S","legs":"X"},"bonus":0.8600000000000009},{"rt":1709.1000000014901,"stimulus":"bees-with-color/bee-B2DF.svg","response":0,"trial_type":"image-button-response","trial_index":151,"time_elapsed":1137153,"internal_node_id":"0.0-6.0-0.15","subject_id":"5f10955ff12b1836dcdd0d62","study_id":"60edd13110225f80f9f3709b","session_id":"6196bf618376cd07bf2cee06","condition":"contingent","relevant_dimensions":["antennae","pattern"],"bee_group":{"antennae":"A","wings":"X","pattern":"S","legs":"X"},"bonus":0.8600000000000009},{"rt":1842.8999999985099,"stimulus":"bees-with-color/bee-B1SM.svg","response":0,"trial_type":"image-button-response","trial_index":152,"time_elapsed":1138997,"internal_node_id":"0.0-6.0-0.16","subject_id":"5f10955ff12b1836dcdd0d62","study_id":"60edd13110225f80f9f3709b","session_id":"6196bf618376cd07bf2cee06","condition":"contingent","relevant_dimensions":["antennae","pattern"],"bee_group":{"antennae":"A","wings":"X","pattern":"S","legs":"X"},"bonus":0.8600000000000009},{"rt":887.5,"stimulus":"bees-with-color/bee-B1DM.svg","response":1,"trial_type":"image-button-response","trial_index":153,"time_elapsed":1139886,"internal_node_id":"0.0-6.0-0.17","subject_id":"5f10955ff12b1836dcdd0d62","study_id":"60edd13110225f80f9f3709b","session_id":"6196bf618376cd07bf2cee06","condition":"contingent","relevant_dimensions":["antennae","pattern"],"bee_group":{"antennae":"A","wings":"X","pattern":"S","legs":"X"},"bonus":0.8600000000000009},{"rt":2357.8000000044703,"stimulus":"bees-with-color/bee-B2DM.svg","response":1,"trial_type":"image-button-response","trial_index":154,"time_elapsed":1142245,"internal_node_id":"0.0-6.0-0.18","subject_id":"5f10955ff12b1836dcdd0d62","study_id":"60edd13110225f80f9f3709b","session_id":"6196bf618376cd07bf2cee06","condition":"contingent","relevant_dimensions":["antennae","pattern"],"bee_group":{"antennae":"A","wings":"X","pattern":"S","legs":"X"},"bonus":0.8600000000000009},{"rt":1031,"stimulus":"bees-with-color/bee-B2DF.svg","response":0,"trial_type":"image-button-response","trial_index":155,"time_elapsed":1143277,"internal_node_id":"0.0-6.0-0.19","subject_id":"5f10955ff12b1836dcdd0d62","study_id":"60edd13110225f80f9f3709b","session_id":"6196bf618376cd07bf2cee06","condition":"contingent","relevant_dimensions":["antennae","pattern"],"bee_group":{"antennae":"A","wings":"X","pattern":"S","legs":"X"},"bonus":0.8600000000000009},{"rt":1027.3000000044703,"stimulus":"bees-with-color/bee-A1SF.svg","response":1,"trial_type":"image-button-response","trial_index":156,"time_elapsed":1144306,"internal_node_id":"0.0-6.0-0.20","subject_id":"5f10955ff12b1836dcdd0d62","study_id":"60edd13110225f80f9f3709b","session_id":"6196bf618376cd07bf2cee06","condition":"contingent","relevant_dimensions":["antennae","pattern"],"bee_group":{"antennae":"A","wings":"X","pattern":"S","legs":"X"},"bonus":0.8600000000000009},{"rt":1069.1000000014901,"stimulus":"bees-with-color/bee-B1SF.svg","response":0,"trial_type":"image-button-response","trial_index":157,"time_elapsed":1145376,"internal_node_id":"0.0-6.0-0.21","subject_id":"5f10955ff12b1836dcdd0d62","study_id":"60edd13110225f80f9f3709b","session_id":"6196bf618376cd07bf2cee06","condition":"contingent","relevant_dimensions":["antennae","pattern"],"bee_group":{"antennae":"A","wings":"X","pattern":"S","legs":"X"},"bonus":0.8600000000000009},{"rt":4269.69999999553,"stimulus":"bees-with-color/bee-A2SM.svg","response":1,"trial_type":"image-button-response","trial_index":158,"time_elapsed":1149647,"internal_node_id":"0.0-6.0-0.22","subject_id":"5f10955ff12b1836dcdd0d62","study_id":"60edd13110225f80f9f3709b","session_id":"6196bf618376cd07bf2cee06","condition":"contingent","relevant_dimensions":["antennae","pattern"],"bee_group":{"antennae":"A","wings":"X","pattern":"S","legs":"X"},"bonus":0.8600000000000009},{"rt":952.5,"stimulus":"bees-with-color/bee-A1DM.svg","response":1,"trial_type":"image-button-response","trial_index":159,"time_elapsed":1150601,"internal_node_id":"0.0-6.0-0.23","subject_id":"5f10955ff12b1836dcdd0d62","study_id":"60edd13110225f80f9f3709b","session_id":"6196bf618376cd07bf2cee06","condition":"contingent","relevant_dimensions":["antennae","pattern"],"bee_group":{"antennae":"A","wings":"X","pattern":"S","legs":"X"},"bonus":0.8600000000000009},{"rt":1569.8000000044703,"stimulus":"bees-with-color/bee-A1SM.svg","response":1,"trial_type":"image-button-response","trial_index":160,"time_elapsed":1152172,"internal_node_id":"0.0-6.0-0.24","subject_id":"5f10955ff12b1836dcdd0d62","study_id":"60edd13110225f80f9f3709b","session_id":"6196bf618376cd07bf2cee06","condition":"contingent","relevant_dimensions":["antennae","pattern"],"bee_group":{"antennae":"A","wings":"X","pattern":"S","legs":"X"},"bonus":0.8600000000000009},{"rt":2084.5999999940395,"stimulus":"bees-with-color/bee-B2SM.svg","respo