[{"success":true,"trial_type":"fullscreen","trial_index":0,"time_elapsed":6031,"internal_node_id":"0.0-0.0","subject_id":"602d29200724e36ae7a9def2","study_id":"6197b3f67c2b5cd3b6d9596a","session_id":"619be588c629f0d0caefe556","condition":"full-information","relevant_dimensions":["wings","pattern"],"bee_group":{"antennae":"X","wings":"2","pattern":"D","legs":"X"},"bonus":1.1200000000000008},{"success":true,"timeout":false,"failed_images":[],"failed_audio":[],"failed_video":[],"trial_type":"preload","trial_index":1,"time_elapsed":11930,"internal_node_id":"0.0-1.0","subject_id":"602d29200724e36ae7a9def2","study_id":"6197b3f67c2b5cd3b6d9596a","session_id":"619be588c629f0d0caefe556","condition":"full-information","relevant_dimensions":["wings","pattern"],"bee_group":{"antennae":"X","wings":"2","pattern":"D","legs":"X"},"bonus":1.1200000000000008},{"rt":2553.5,"stimulus":"Welcome! Press any key to begin.","response":" ","trial_type":"html-keyboard-response","trial_index":2,"time_elapsed":14486,"internal_node_id":"0.0-2.0","subject_id":"602d29200724e36ae7a9def2","study_id":"6197b3f67c2b5cd3b6d9596a","session_id":"619be588c629f0d0caefe556","condition":"full-information","relevant_dimensions":["wings","pattern"],"bee_group":{"antennae":"X","wings":"2","pattern":"D","legs":"X"},"bonus":1.1200000000000008},{"view_history":[{"page_index":0,"viewing_time":16784.799999998882},{"page_index":1,"viewing_time":134702.30000000075},{"page_index":2,"viewing_time":141998.69999999925},{"page_index":3,"viewing_time":103874.90000000037},{"page_index":4,"viewing_time":25385.5},{"page_index":5,"viewing_time":19315.199999999255},{"page_index":6,"viewing_time":68721.90000000037},{"page_index":7,"viewing_time":13966.700000001118},{"page_index":8,"viewing_time":8190},{"page_index":9,"viewing_time":4067.5},{"page_index":10,"viewing_time":3057.699999999255},{"page_index":11,"viewing_time":85735.40000000037},{"page_index":12,"viewing_time":87273.79999999888},{"page_index":13,"viewing_time":3108.60000000149},{"page_index":14,"viewing_time":3654.5}],"rt":719837.7999999989,"trial_type":"instructions","trial_index":3,"time_elapsed":734324,"internal_node_id":"0.0-3.0-0.0","subject_id":"602d29200724e36ae7a9def2","study_id":"6197b3f67c2b5cd3b6d9596a","session_id":"619be588c629f0d0caefe556","condition":"full-information","relevant_dimensions":["wings","pattern"],"bee_group":{"antennae":"X","wings":"2","pattern":"D","legs":"X"},"bonus":1.1200000000000008},{"rt":48801.5,"response":{"Q0":["Stripes or spots on body","Single or double wings","Antennae or no antennae"]},"question_order":[0],"trial_type":"survey-multi-select","trial_index":4,"time_elapsed":783129,"internal_node_id":"0.0-3.0-1.0","subject_id":"602d29200724e36ae7a9def2","study_id":"6197b3f67c2b5cd3b6d9596a","session_id":"619be588c629f0d0caefe556","condition":"full-information","relevant_dimensions":["wings","pattern"],"bee_group":{"antennae":"X","wings":"2","pattern":"D","legs":"X"},"correct":false,"bonus":1.1200000000000008},{"rt":62241.09999999963,"response":{"Q1":"No.","Q2":"Based on the four features of the bee.","Q3":"You learn if it was friendly or dangerous, but do not alter your bonus."},"question_order":[0,1,2],"trial_type":"survey-multi-choice","trial_index":5,"time_elapsed":845371,"internal_node_id":"0.0-3.0-2.0","subject_id":"602d29200724e36ae7a9def2","study_id":"6197b3f67c2b5cd3b6d9596a","session_id":"619be588c629f0d0caefe556","condition":"full-information","relevant_dimensions":["wings","pattern"],"bee_group":{"antennae":"X","wings":"2","pattern":"D","legs":"X"},"correct":true,"bonus":1.1200000000000008},{"rt":5492.299999998882,"stimulus":"<p>You did not answer all comprehension questions correctly.<br>Press <b>continue</b> to review the instructions again.</p>","response":0,"trial_type":"html-button-response","trial_index":6,"time_elapsed":850866,"internal_node_id":"0.0-3.0-3.0","subject_id":"602d29200724e36ae7a9def2","study_id":"6197b3f67c2b5cd3b6d9596a","session_id":"619be588c629f0d0caefe556","condition":"full-information","relevant_dimensions":["wings","pattern"],"bee_group":{"antennae":"X","wings":"2","pattern":"D","legs":"X"},"bonus":1.1200000000000008},{"view_history":[{"page_index":0,"viewing_time":8798.200000001118},{"page_index":1,"viewing_time":96218.19999999925},{"page_index":2,"viewing_time":25300.700000001118},{"page_index":3,"viewing_time":27477.099999999627},{"page_index":4,"viewing_time":25023.599999999627},{"page_index":5,"viewing_time":18959.800000000745},{"page_index":6,"viewing_time":15407.89999999851},{"page_index":7,"viewing_time":3318.5},{"page_index":8,"viewing_time":3605},{"page_index":9,"viewing_time":6057.700000001118},{"page_index":10,"viewing_time":1993.0999999996275},{"page_index":11,"viewing_time":9967.199999999255},{"page_index":12,"viewing_time":3759.60000000149},{"page_index":13,"viewing_time":2003.699999999255},{"page_index":14,"viewing_time":1237.800000000745}],"rt":249128.5,"trial_type":"instructions","trial_index":7,"time_elapsed":1099995,"internal_node_id":"0.0-3.0-4.0-0.0","subject_id":"602d29200724e36ae7a9def2","study_id":"6197b3f67c2b5cd3b6d9596a","session_id":"619be588c629f0d0caefe556","condition":"full-information","relevant_dimensions":["wings","pattern"],"bee_group":{"antennae":"X","wings":"2","pattern":"D","legs":"X"},"bonus":1.1200000000000008},{"rt":27684.200000001118,"response":{"Q0":["Two or six legs","Stripes or spots on body","Single or double wings","Antennae or no antennae"]},"question_order":[0],"trial_type":"survey-multi-select","trial_index":8,"time_elapsed":1127682,"internal_node_id":"0.0-3.0-4.0-1.0","subject_id":"602d29200724e36ae7a9def2","study_id":"6197b3f67c2b5cd3b6d9596a","session_id":"619be588c629f0d0caefe556","condition":"full-information","relevant_dimensions":["wings","pattern"],"bee_group":{"antennae":"X","wings":"2","pattern":"D","legs":"X"},"correct":true,"bonus":1.1200000000000008},{"rt":22630.60000000149,"response":{"Q1":"No.","Q2":"Based on the four features of the bee.","Q3":"You learn if it was friendly or dangerous, but do not alter your bonus."},"question_order":[0,1,2],"trial_type":"survey-multi-choice","trial_index":9,"time_elapsed":1150314,"internal_node_id":"0.0-3.0-4.0-2.0","subject_id":"602d29200724e36ae7a9def2","study_id":"6197b3f67c2b5cd3b6d9596a","session_id":"619be588c629f0d0caefe556","condition":"full-information","relevant_dimensions":["wings","pattern"],"bee_group":{"antennae":"X","wings":"2","pattern":"D","legs":"X"},"correct":true,"bonus":1.1200000000000008},{"rt":2904.7000000011176,"stimulus":"<p>Congrats, you got everything right<br>When you're ready, click the button below to continue to the experiment.</p>","response":0,"trial_type":"html-button-response","trial_index":10,"time_elapsed":1153220,"internal_node_id":"0.0-3.0-4.0-3.0","subject_id":"602d29200724e36ae7a9def2","study_id":"6197b3f67c2b5cd3b6d9596a","session_id":"619be588c629f0d0caefe556","condition":"full-information","relevant_dimensions":["wings","pattern"],"bee_group":{"antennae":"X","wings":"2","pattern":"D","legs":"X"},"bonus":1.1200000000000008},{"rt":7976.9000000003725,"stimulus":"bees-with-color/bee-B2DF.svg","response":0,"trial_type":"image-button-response","trial_index":11,"time_elapsed":1161199,"internal_node_id":"0.0-4.0-0.0","subject_id":"602d29200724e36ae7a9def2","study_id":"6197b3f67c2b5cd3b6d9596a","session_id":"619be588c629f0d0caefe556","condition":"full-information","relevant_dimensions":["wings","pattern"],"bee_group":{"antennae":"X","wings":"2","pattern":"D","legs":"X"},"action":"harvest","summary":"bad-harvest","bonus":1.1200000000000008},{"rt":14160,"stimulus":"\n                    <p><b>Action: <em>harvest</em></b></p>\n                    <p>This is the bee that you just saw.</p>\n                    <img src=\"bees-with-color/bee-B2DF.svg\" width=\"200\">\n                    <p><span class=\"redText\">Bad choice, the bee was angry.</span><br><b>You have been stung!</b><br>Your pay has been decreased by $0.10. Your bonus pay is now $0.44.</p>\n            ","response":0,"trial_type":"html-button-response","trial_index":12,"time_elapsed":1175361,"internal_node_id":"0.0-4.0-1.0","subject_id":"602d29200724e36ae7a9def2","study_id":"6197b3f67c2b5cd3b6d9596a","session_id":"619be588c629f0d0caefe556","condition":"full-information","relevant_dimensions":["wings","pattern"],"bee_group":{"antennae":"X","wings":"2","pattern":"D","legs":"X"},"bonus":1.1200000000000008},{"rt":10271.099999999627,"stimulus":"bees-with-color/bee-B2SM.svg","response":0,"trial_type":"image-button-response","trial_index":13,"time_elapsed":1185634,"internal_node_id":"0.0-4.0-0.1","subject_id":"602d29200724e36ae7a9def2","study_id":"6197b3f67c2b5cd3b6d9596a","session_id":"619be588c629f0d0caefe556","condition":"full-information","relevant_dimensions":["wings","pattern"],"bee_group":{"antennae":"X","wings":"2","pattern":"D","legs":"X"},"action":"harvest","summary":"good-harvest","bonus":1.1200000000000008},{"rt":9112.799999998882,"stimulus":"\n                    <p><b>Action: <em>harvest</em></b></p>\n                    <p>This is the bee that you just saw.</p>\n                    <img src=\"bees-with-color/bee-B2SM.svg\" width=\"200\">\n                    <p><span class=\"greenText\"><b>Successful harvest!</b></span><br>Your pay has increased by $0.02. Your bonus pay is now $0.46.</p>\n            ","response":0,"trial_type":"html-button-response","trial_index":14,"time_elapsed":1194748,"internal_node_id":"0.0-4.0-1.1","subject_id":"602d29200724e36ae7a9def2","study_id":"6197b3f67c2b5cd3b6d9596a","session_id":"619be588c629f0d0caefe556","condition":"full-information","relevant_dimensions":["wings","pattern"],"bee_group":{"antennae":"X","wings":"2","pattern":"D","legs":"X"},"bonus":1.1200000000000008},{"rt":3737.5999999996275,"stimulus":"bees-with-color/bee-B1SM.svg","response":0,"trial_type":"image-button-response","trial_index":15,"time_elapsed":1198488,"internal_node_id":"0.0-4.0-0.2","subject_id":"602d29200724e36ae7a9def2","study_id":"6197b3f67c2b5cd3b6d9596a","session_id":"619be588c629f0d0caefe556","condition":"full-information","relevant_dimensions":["wings","pattern"],"bee_group":{"antennae":"X","wings":"2","pattern":"D","legs":"X"},"action":"harvest","summary":"good-harvest","bonus":1.1200000000000008},{"rt":2185.5999999996275,"stimulus":"\n                    <p><b>Action: <em>harvest</em></b></p>\n                    <p>This is the bee that you just saw.</p>\n                    <img src=\"bees-with-color/bee-B1SM.svg\" width=\"200\">\n                    <p><span class=\"greenText\"><b>Successful harvest!</b></span><br>Your pay has increased by $0.02. Your bonus pay is now $0.48.</p>\n            ","response":0,"trial_type":"html-button-response","trial_index":16,"time_elapsed":1200676,"internal_node_id":"0.0-4.0-1.2","subject_id":"602d29200724e36ae7a9def2","study_id":"6197b3f67c2b5cd3b6d9596a","session_id":"619be588c629f0d0caefe556","condition":"full-information","relevant_dimensions":["wings","pattern"],"bee_group":{"antennae":"X","wings":"2","pattern":"D","legs":"X"},"bonus":1.1200000000000008},{"rt":4338,"stimulus":"bees-with-color/bee-A1SF.svg","response":1,"trial_type":"image-button-response","trial_index":17,"time_elapsed":1205016,"internal_node_id":"0.0-4.0-0.3","subject_id":"602d29200724e36ae7a9def2","study_id":"6197b3f67c2b5cd3b6d9596a","session_id":"619be588c629f0d0caefe556","condition":"full-information","relevant_dimensions":["wings","pattern"],"bee_group":{"antennae":"X","wings":"2","pattern":"D","legs":"X"},"action":"avoid","summary":"bad-avoid","bonus":1.1200000000000008},{"rt":7407,"stimulus":"\n                    <p><b>Action: <em>avoid</em></b></p>\n                    <p>This is the bee that you just saw.</p>\n                    <img src=\"bees-with-color/bee-A1SF.svg\" width=\"200\">\n                    <p><span class=\"redText\">Bad choice,</span> the bee was friendly.<br>Your bonus pay is unchanged, and remains at $0.48.</p>\n            ","response":0,"trial_type":"html-button-response","trial_index":18,"time_elapsed":1212425,"internal_node_id":"0.0-4.0-1.3","subject_id":"602d29200724e36ae7a9def2","study_id":"6197b3f67c2b5cd3b6d9596a","session_id":"619be588c629f0d0caefe556","condition":"full-information","relevant_dimensions":["wings","pattern"],"bee_group":{"antennae":"X","wings":"2","pattern":"D","legs":"X"},"bonus":1.1200000000000008},{"rt":6476.4000000003725,"stimulus":"bees-with-color/bee-B1DF.svg","response":1,"trial_type":"image-button-response","trial_index":19,"time_elapsed":1218903,"internal_node_id":"0.0-4.0-0.4","subject_id":"602d29200724e36ae7a9def2","study_id":"6197b3f67c2b5cd3b6d9596a","session_id":"619be588c629f0d0caefe556","condition":"full-information","relevant_dimensions":["wings","pattern"],"bee_group":{"antennae":"X","wings":"2","pattern":"D","legs":"X"},"action":"avoid","summary":"bad-avoid","bonus":1.1200000000000008},{"rt":2184.89999999851,"stimulus":"\n                    <p><b>Action: <em>avoid</em></b></p>\n                    <p>This is the bee that you just saw.</p>\n                    <img src=\"bees-with-color/bee-B1DF.svg\" width=\"200\">\n                    <p><span class=\"redText\">Bad choice,</span> the bee was friendly.<br>Your bonus pay is unchanged, and remains at $0.48.</p>\n            ","response":0,"trial_type":"html-button-response","trial_index":20,"time_elapsed":1221089,"internal_node_id":"0.0-4.0-1.4","subject_id":"602d29200724e36ae7a9def2","study_id":"6197b3f67c2b5cd3b6d9596a","session_id":"619be588c629f0d0caefe556","condition":"full-information","relevant_dimensions":["wings","pattern"],"bee_group":{"antennae":"X","wings":"2","pattern":"D","legs":"X"},"bonus":1.1200000000000008},{"rt":5931.800000000745,"stimulus":"bees-with-color/bee-A2DM.svg","response":0,"trial_type":"image-button-response","trial_index":21,"time_elapsed":1227023,"internal_node_id":"0.0-4.0-0.5","subject_id":"602d29200724e36ae7a9def2","study_id":"6197b3f67c2b5cd3b6d9596a","session_id":"619be588c629f0d0caefe556","condition":"full-information","relevant_dimensions":["wings","pattern"],"bee_group":{"antennae":"X","wings":"2","pattern":"D","legs":"X"},"action":"harvest","summary":"bad-harvest","bonus":1.1200000000000008},{"rt":1654.0999999996275,"stimulus":"\n                    <p><b>Action: <em>harvest</em></b></p>\n                    <p>This is the bee that you just saw.</p>\n                    <img src=\"bees-with-color/bee-A2DM.svg\" width=\"200\">\n                    <p><span class=\"redText\">Bad choice, the bee was angry.</span><br><b>You have been stung!</b><br>Your pay has been decreased by $0.10. Your bonus pay is now $0.38.</p>\n            ","response":0,"trial_type":"html-button-response","trial_index":22,"time_elapsed":1228678,"internal_node_id":"0.0-4.0-1.5","subject_id":"602d29200724e36ae7a9def2","study_id":"6197b3f67c2b5cd3b6d9596a","session_id":"619be588c629f0d0caefe556","condition":"full-information","relevant_dimensions":["wings","pattern"],"bee_group":{"antennae":"X","wings":"2","pattern":"D","legs":"X"},"bonus":1.1200000000000008},{"rt":5900.300000000745,"stimulus":"bees-with-color/bee-A2SM.svg","response":0,"trial_type":"image-button-response","trial_index":23,"time_elapsed":1234580,"internal_node_id":"0.0-4.0-0.6","subject_id":"602d29200724e36ae7a9def2","study_id":"6197b3f67c2b5cd3b6d9596a","session_id":"619be588c629f0d0caefe556","condition":"full-information","relevant_dimensions":["wings","pattern"],"bee_group":{"antennae":"X","wings":"2","pattern":"D","legs":"X"},"action":"harvest","summary":"good-harvest","bonus":1.1200000000000008},{"rt":5270.0999999996275,"stimulus":"\n                    <p><b>Action: <em>harvest</em></b></p>\n                    <p>This is the bee that you just saw.</p>\n                    <img src=\"bees-with-color/bee-A2SM.svg\" width=\"200\">\n                    <p><span class=\"greenText\"><b>Successful harvest!</b></span><br>Your pay has increased by $0.02. Your bonus pay is now $0.40.</p>\n            ","response":0,"trial_type":"html-button-response","trial_index":24,"time_elapsed":1239851,"internal_node_id":"0.0-4.0-1.6","subject_id":"602d29200724e36ae7a9def2","study_id":"6197b3f67c2b5cd3b6d9596a","session_id":"619be588c629f0d0caefe556","condition":"full-information","relevant_dimensions":["wings","pattern"],"bee_group":{"antennae":"X","wings":"2","pattern":"D","legs":"X"},"bonus":1.1200000000000008},{"rt":3686.5,"stimulus":"bees-with-color/bee-B1SF.svg","response":0,"trial_type":"image-button-response","trial_index":25,"time_elapsed":1243540,"internal_node_id":"0.0-4.0-0.7","subject_id":"602d29200724e36ae7a9def2","study_id":"6197b3f67c2b5cd3b6d9596a","session_id":"619be588c629f0d0caefe556","condition":"full-information","relevant_dimensions":["wings","pattern"],"bee_group":{"antennae":"X","wings":"2","pattern":"D","legs":"X"},"action":"harvest","summary":"good-harvest","bonus":1.1200000000000008},{"rt":1968,"stimulus":"\n                    <p><b>Action: <em>harvest</em></b></p>\n                    <p>This is the bee that you just saw.</p>\n                    <img src=\"bees-with-color/bee-B1SF.svg\" width=\"200\">\n                    <p><span class=\"greenText\"><b>Successful harvest!</b></span><br>Your pay has increased by $0.02. Your bonus pay is now $0.42.</p>\n            ","response":0,"trial_type":"html-button-response","trial_index":26,"time_elapsed":1245509,"internal_node_id":"0.0-4.0-1.7","subject_id":"602d29200724e36ae7a9def2","study_id":"6197b3f67c2b5cd3b6d9596a","session_id":"619be588c629f0d0caefe556","condition":"full-information","relevant_dimensions":["wings","pattern"],"bee_group":{"antennae":"X","wings":"2","pattern":"D","legs":"X"},"bonus":1.1200000000000008},{"rt":2529.7999999988824,"stimulus":"bees-with-color/bee-A2SF.svg","response":1,"trial_type":"image-button-response","trial_index":27,"time_elapsed":1248041,"internal_node_id":"0.0-4.0-0.8","subject_id":"602d29200724e36ae7a9def2","study_id":"6197b3f67c2b5cd3b6d9596a","session_id":"619be588c629f0d0caefe556","condition":"full-information","relevant_dimensions":["wings","pattern"],"bee_group":{"antennae":"X","wings":"2","pattern":"D","legs":"X"},"action":"avoid","summary":"bad-avoid","bonus":1.1200000000000008},{"rt":1636.199999999255,"stimulus":"\n                    <p><b>Action: <em>avoid</em></b></p>\n                    <p>This is the bee that you just saw.</p>\n                    <img src=\"bees-with-color/bee-A2SF.svg\" width=\"200\">\n                    <p><span class=\"redText\">Bad choice,</span> the bee was friendly.<br>Your bonus pay is unchanged, and remains at $0.42.</p>\n            ","response":0,"trial_type":"html-button-response","trial_index":28,"time_elapsed":1249678,"internal_node_id":"0.0-4.0-1.8","subject_id":"602d29200724e36ae7a9def2","study_id":"6197b3f67c2b5cd3b6d9596a","session_id":"619be588c629f0d0caefe556","condition":"full-information","relevant_dimensions":["wings","pattern"],"bee_group":{"antennae":"X","wings":"2","pattern":"D","legs":"X"},"bonus":1.1200000000000008},{"rt":5047.299999998882,"stimulus":"bees-with-color/bee-A1DF.svg","response":0,"trial_type":"image-button-response","trial_index":29,"time_elapsed":1254728,"internal_node_id":"0.0-4.0-0.9","subject_id":"602d29200724e36ae7a9def2","study_id":"6197b3f67c2b5cd3b6d9596a","session_id":"619be588c629f0d0caefe556","condition":"full-information","relevant_dimensions":["wings","pattern"],"bee_group":{"antennae":"X","wings":"2","pattern":"D","legs":"X"},"action":"harvest","summary":"good-harvest","bonus":1.1200000000000008},{"rt":1916.9000000003725,"stimulus":"\n                    <p><b>Action: <em>harvest</em></b></p>\n                    <p>This is the bee that you just saw.</p>\n                    <img src=\"bees-with-color/bee-A1DF.svg\" width=\"200\">\n                    <p><span class=\"greenText\"><b>Successful harvest!</b></span><br>Your pay has increased by $0.02. Your bonus pay is now $0.44.</p>\n            ","response":0,"trial_type":"html-button-response","trial_index":30,"time_elapsed":1256646,"internal_node_id":"0.0-4.0-1.9","subject_id":"602d29200724e36ae7a9def2","study_id":"6197b3f67c2b5cd3b6d9596a","session_id":"619be588c629f0d0caefe556","condition":"full-information","relevant_dimensions":["wings","pattern"],"bee_group":{"antennae":"X","wings":"2","pattern":"D","legs":"X"},"bonus":1.1200000000000008},{"rt":6745.9000000003725,"stimulus":"bees-with-color/bee-B2DM.svg","response":0,"trial_type":"image-button-response","trial_index":31,"time_elapsed":1263394,"internal_node_id":"0.0-4.0-0.10","subject_id":"602d29200724e36ae7a9def2","study_id":"6197b3f67c2b5cd3b6d9596a","session_id":"619be588c629f0d0caefe556","condition":"full-information","relevant_dimensions":["wings","pattern"],"bee_group":{"antennae":"X","wings":"2","pattern":"D","legs":"X"},"action":"harvest","summary":"bad-harvest","bonus":1.1200000000000008},{"rt":2005.199999999255,"stimulus":"\n                    <p><b>Action: <em>harvest</em></b></p>\n                    <p>This is the bee that you just saw.</p>\n                    <img src=\"bees-with-color/bee-B2DM.svg\" width=\"200\">\n                    <p><span class=\"redText\">Bad choice, the bee was angry.</span><br><b>You have been stung!</b><br>Your pay has been decreased by $0.10. Your bonus pay is now $0.34.</p>\n            ","response":0,"trial_type":"html-button-response","trial_index":32,"time_elapsed":1265401,"internal_node_id":"0.0-4.0-1.10","subject_id":"602d29200724e36ae7a9def2","study_id":"6197b3f67c2b5cd3b6d9596a","session_id":"619be588c629f0d0caefe556","condition":"full-information","relevant_dimensions":["wings","pattern"],"bee_group":{"antennae":"X","wings":"2","pattern":"D","legs":"X"},"bonus":1.1200000000000008},{"rt":5300.799999998882,"stimulus":"bees-with-color/bee-B2SF.svg","response":0,"trial_type":"image-button-response","trial_index":33,"time_elapsed":1270703,"internal_node_id":"0.0-4.0-0.11","subject_id":"602d29200724e36ae7a9def2","study_id":"6197b3f67c2b5cd3b6d9596a","session_id":"619be588c629f0d0caefe556","condition":"full-information","relevant_dimensions":["wings","pattern"],"bee_group":{"antennae":"X","wings":"2","pattern":"D","legs":"X"},"action":"harvest","summary":"good-harvest","bonus":1.1200000000000008},{"rt":1675.300000000745,"stimulus":"\n                    <p><b>Action: <em>harvest</em></b></p>\n                    <p>This is the bee that you just saw.</p>\n                    <img src=\"bees-with-color/bee-B2SF.svg\" width=\"200\">\n                    <p><span class=\"greenText\"><b>Successful harvest!</b></span><br>Your pay has increased by $0.02. Your bonus pay is now $0.36.</p>\n            ","response":0,"trial_type":"html-button-response","trial_index":34,"time_elapsed":1272380,"internal_node_id":"0.0-4.0-1.11","subject_id":"602d29200724e36ae7a9def2","study_id":"6197b3f67c2b5cd3b6d9596a","session_id":"619be588c629f0d0caefe556","condition":"full-information","relevant_dimensions":["wings","pattern"],"bee_group":{"antennae":"X","wings":"2","pattern":"D","legs":"X"},"bonus":1.1200000000000008},{"rt":17520.099999999627,"stimulus":"bees-with-color/bee-B1DM.svg","response":0,"trial_type":"image-button-response","trial_index":35,"time_elapsed":1289902,"internal_node_id":"0.0-4.0-0.12","subject_id":"602d29200724e36ae7a9def2","study_id":"6197b3f67c2b5cd3b6d9596a","session_id":"619be588c629f0d0caefe556","condition":"full-information","relevant_dimensions":["wings","pattern"],"bee_group":{"antennae":"X","wings":"2","pattern":"D","legs":"X"},"action":"harvest","summary":"good-harvest","bonus":1.1200000000000008},{"rt":2768.0999999996275,"stimulus":"\n                    <p><b>Action: <em>harvest</em></b></p>\n                    <p>This is the bee that you just saw.</p>\n                    <img src=\"bees-with-color/bee-B1DM.svg\" width=\"200\">\n                    <p><span class=\"greenText\"><b>Successful harvest!</b></span><br>Your pay has increased by $0.02. Your bonus pay is now $0.38.</p>\n            ","response":0,"trial_type":"html-button-response","trial_index":36,"time_elapsed":1292671,"internal_node_id":"0.0-4.0-1.12","subject_id":"602d29200724e36ae7a9def2","study_id":"6197b3f67c2b5cd3b6d9596a","session_id":"619be588c629f0d0caefe556","condition":"full-information","relevant_dimensions":["wings","pattern"],"bee_group":{"antennae":"X","wings":"2","pattern":"D","legs":"X"},"bonus":1.1200000000000008},{"rt":143669.69999999925,"stimulus":"bees-with-color/bee-A1SM.svg","response":0,"trial_type":"image-button-response","trial_index":37,"time_elapsed":1436343,"internal_node_id":"0.0-4.0-0.13","subject_id":"602d29200724e36ae7a9def2","study_id":"6197b3f67c2b5cd3b6d9596a","session_id":"619be588c629f0d0caefe556","condition":"full-information","relevant_dimensions":["wings","pattern"],"bee_group":{"antennae":"X","wings":"2","pattern":"D","legs":"X"},"action":"harvest","summary":"good-harvest","bonus":1.1200000000000008},{"rt":5017.699999999255,"stimulus":"\n                    <p><b>Action: <em>harvest</em></b></p>\n                    <p>This is the bee that you just saw.</p>\n                    <img src=\"bees-with-color/bee-A1SM.svg\" width=\"200\">\n                    <p><span class=\"greenText\"><b>Successful harvest!</b></span><br>Your pay has increased by $0.02. Your bonus pay is now $0.40.</p>\n            ","response":0,"trial_type":"html-button-response","trial_index":38,"time_elapsed":1441362,"internal_node_id":"0.0-4.0-1.13","subject_id":"602d29200724e36ae7a9def2","study_id":"6197b3f67c2b5cd3b6d9596a","session_id":"619be588c629f0d0caefe556","condition":"full-information","relevant_dimensions":["wings","pattern"],"bee_group":{"antennae":"X","wings":"2","pattern":"D","legs":"X"},"bonus":1.1200000000000008},{"rt":12018.5,"stimulus":"bees-with-color/bee-A1DM.svg","response":1,"trial_type":"image-button-response","trial_index":39,"time_elapsed":1453382,"internal_node_id":"0.0-4.0-0.14","subject_id":"602d29200724e36ae7a9def2","study_id":"6197b3f67c2b5cd3b6d9596a","session_id":"619be588c629f0d0caefe556","condition":"full-information","relevant_dimensions":["wings","pattern"],"bee_group":{"antennae":"X","wings":"2","pattern":"D","legs":"X"},"action":"avoid","summary":"bad-avoid","bonus":1.1200000000000008},{"rt":10746.400000000373,"stimulus":"\n                    <p><b>Action: <em>avoid</em></b></p>\n                    <p>This is the bee that you just saw.</p>\n                    <img src=\"bees-with-color/bee-A1DM.svg\" width=\"200\">\n                    <p><span class=\"redText\">Bad choice,</span> the bee was friendly.<br>Your bonus pay is unchanged, and remains at $0.40.</p>\n            ","response":0,"trial_type":"html-button-response","trial_index":40,"time_elapsed":1464130,"internal_node_id":"0.0-4.0-1.14","subject_id":"602d29200724e36ae7a9def2","study_id":"6197b3f67c2b5cd3b6d9596a","session_id":"619be588c629f0d0caefe556","condition":"full-information","relevant_dimensions":["wings","pattern"],"bee_group":{"antennae":"X","wings":"2","pattern":"D","legs":"X"},"bonus":1.1200000000000008},{"rt":10770.800000000745,"stimulus":"bees-with-color/bee-A2DF.svg","response":0,"trial_type":"image-button-response","trial_index":41,"time_elapsed":1474903,"internal_node_id":"0.0-4.0-0.15","subject_id":"602d29200724e36ae7a9def2","study_id":"6197b3f67c2b5cd3b6d9596a","session_id":"619be588c629f0d0caefe556","condition":"full-information","relevant_dimensions":["wings","pattern"],"bee_group":{"antennae":"X","wings":"2","pattern":"D","legs":"X"},"action":"harvest","summary":"bad-harvest","bonus":1.1200000000000008},{"rt":7023.0999999996275,"stimulus":"\n                    <p><b>Action: <em>harvest</em></b></p>\n                    <p>This is the bee that you just saw.</p>\n                    <img src=\"bees-with-color/bee-A2DF.svg\" width=\"200\">\n                    <p><span class=\"redText\">Bad choice, the bee was angry.</span><br><b>You have been stung!</b><br>Your pay has been decreased by $0.10. Your bonus pay is now $0.30.</p>\n            ","response":0,"trial_type":"html-button-response","trial_index":42,"time_elapsed":1481927,"internal_node_id":"0.0-4.0-1.15","subject_id":"602d29200724e36ae7a9def2","study_id":"6197b3f67c2b5cd3b6d9596a","session_id":"619be588c629f0d0caefe556","condition":"full-information","relevant_dimensions":["wings","pattern"],"bee_group":{"antennae":"X","wings":"2","pattern":"D","legs":"X"},"bonus":1.1200000000000008},{"rt":14095.699999999255,"stimulus":"bees-with-color/bee-B2DF.svg","response":0,"trial_type":"image-button-response","trial_index":43,"time_elapsed":1496025,"internal_node_id":"0.0-4.0-0.16","subject_id":"602d29200724e36ae7a9def2","study_id":"6197b3f67c2b5cd3b6d9596a","session_id":"619be588c629f0d0caefe556","condition":"full-information","relevant_dimensions":["wings","pattern"],"bee_group":{"antennae":"X","wings":"2","pattern":"D","legs":"X"},"action":"harvest","summary":"bad-harvest","bonus":1.1200000000000008},{"rt":5710.4000000003725,"stimulus":"\n                    <p><b>Action: <em>harvest</em></b></p>\n                    <p>This is the bee that you just saw.</p>\n                    <img src=\"bees-with-color/bee-B2DF.svg\" width=\"200\">\n                    <p><span class=\"redText\">Bad choice, the bee was angry.</span><br><b>You have been stung!</b><br>Your pay has been decreased by $0.10. Your bonus pay is now $0.20.</p>\n            ","response":0,"trial_type":"html-button-response","trial_index":44,"time_elapsed":1501736,"internal_node_id":"0.0-4.0-1.16","subject_id":"602d29200724e36ae7a9def2","study_id":"6197b3f67c2b5cd3b6d9596a","session_id":"619be588c629f0d0caefe556","condition":"full-information","relevant_dimensions":["wings","pattern"],"bee_group":{"antennae":"X","wings":"2","pattern":"D","legs":"X"},"bonus":1.1200000000000008},{"rt":17050.400000000373,"stimulus":"bees-with-color/bee-A1DM.svg","response":0,"trial_type":"image-button-response","trial_index":45,"time_elapsed":1518788,"internal_node_id":"0.0-4.0-0.17","subject_id":"602d29200724e36ae7a9def2","study_id":"6197b3f67c2b5cd3b6d9596a","session_id":"619be588c629f0d0caefe556","condition":"full-information","relevant_dimensions":["wings","pattern"],"bee_group":{"antennae":"X","wings":"2","pattern":"D","legs":"X"},"action":"harvest","summary":"good-harvest","bonus":1.1200000000000008},{"rt":5892,"stimulus":"\n                    <p><b>Action: <em>harvest</em></b></p>\n                    <p>This is the bee that you just saw.</p>\n                    <img src=\"bees-with-color/bee-A1DM.svg\" width=\"200\">\n                    <p><span class=\"greenText\"><b>Successful harvest!</b></span><br>Your pay has increased by $0.02. Your bonus pay is now $0.22.</p>\n            ","response":0,"trial_type":"html-button-response","trial_index":46,"time_elapsed":1524681,"internal_node_id":"0.0-4.0-1.17","subject_id":"602d29200724e36ae7a9def2","study_id":"6197b3f67c2b5cd3b6d9596a","session_id":"619be588c629f0d0caefe556","condition":"full-information","relevant_dimensions":["wings","pattern"],"bee_group":{"antennae":"X","wings":"2","pattern":"D","legs":"X"},"bonus":1.1200000000000008},{"rt":19555.300000000745,"stimulus":"bees-with-color/bee-A2DM.svg","response":0,"trial_type":"image-button-response","trial_index":47,"time_elapsed":1544239,"internal_node_id":"0.0-4.0-0.18","subject_id":"602d29200724e36ae7a9def2","study_id":"6197b3f67c2b5cd3b6d9596a","session_id":"619be588c629f0d0caefe556","condition":"full-information","relevant_dimensions":["wings","pattern"],"bee_group":{"antennae":"X","wings":"2","pattern":"D","legs":"X"},"action":"harvest","summary":"bad-harvest","bonus":1.1200000000000008},{"rt":19711.5,"stimulus":"\n                    <p><b>Action: <em>harvest</em></b></p>\n                    <p>This is the bee that you just saw.</p>\n                    <img src=\"bees-with-color/bee-A2DM.svg\" width=\"200\">\n                    <p><span class=\"redText\">Bad choice, the bee was angry.</span><br><b>You have been stung!</b><br>Your pay has been decreased by $0.10. Your bonus pay is now $0.12.</p>\n            ","response":0,"trial_type":"html-button-response","trial_index":48,"time_elapsed":1563951,"internal_node_id":"0.0-4.0-1.18","subject_id":"602d29200724e36ae7a9def2","study_id":"6197b3f67c2b5cd3b6d9596a","session_id":"619be588c629f0d0caefe556","condition":"full-information","relevant_dimensions":["wings","pattern"],"bee_group":{"antennae":"X","wings":"2","pattern":"D","legs":"X"},"bonus":1.1200000000000008},{"rt":13477.099999999627,"stimulus":"bees-with-color/bee-B2SM.svg","response":0,"trial_type":"image-button-response","trial_index":49,"time_elapsed":1577430,"internal_node_id":"0.0-4.0-0.19","subject_id":"602d29200724e36ae7a9def2","study_id":"6197b3f67c2b5cd3b6d9596a","session_id":"619be588c629f0d0caefe556","condition":"full-information","relevant_dimensions":["wings","pattern"],"bee_group":{"antennae":"X","wings":"2","pattern":"D","legs":"X"},"action":"harvest","summary":"good-harvest","bonus":1.1200000000000008},{"rt":19205.599999999627,"stimulus":"\n                    <p><b>Action: <em>harvest</em></b></p>\n                    <p>This is the bee that you just saw.</p>\n                    <img src=\"bees-with-color/bee-B2SM.svg\" width=\"200\">\n                    <p><span class=\"greenText\"><b>Successful harvest!</b></span><br>Your pay has increased by $0.02. Your bonus pay is now $0.14.</p>\n            ","response":0,"trial_type":"html-button-response","trial_index":50,"time_elapsed":1596637,"internal_node_id":"0.0-4.0-1.19","subject_id":"602d29200724e36ae7a9def2","study_id":"6197b3f67c2b5cd3b6d9596a","session_id":"619be588c629f0d0caefe556","condition":"full-information","relevant_dimensions":["wings","pattern"],"bee_group":{"antennae":"X","wings":"2","pattern":"D","legs":"X"},"bonus":1.1200000000000008},{"rt":30518.5,"stimulus":"bees-with-color/bee-A1DF.svg","response":0,"trial_type":"image-button-response","trial_index":51,"time_elapsed":1627157,"internal_node_id":"0.0-4.0-0.20","subject_id":"602d29200724e36ae7a9def2","study_id":"6197b3f67c2b5cd3b6d9596a","session_id":"619be588c629f0d0caefe556","condition":"full-information","relevant_dimensions":["wings","pattern"],"bee_group":{"antennae":"X","wings":"2","pattern":"D","legs":"X"},"action":"harvest","summary":"good-harvest","bonus":1.1200000000000008},{"rt":2282,"stimulus":"\n                    <p><b>Action: <em>harvest</em></b></p>\n                    <p>This is the bee that you just saw.</p>\n                    <img src=\"bees-with-color/bee-A1DF.svg\" width=\"200\">\n                    <p><span class=\"greenText\"><b>Successful harvest!</b></span><br>Your pay has increased by $0.02. Your bonus pay is now $0.16.</p>\n            ","response":0,"trial_type":"html-button-response","trial_index":52,"time_elapsed":1629441,"internal_node_id":"0.0-4.0-1.20","subject_id":"602d29200724e36ae7a9def2","study_id":"6197b3f67c2b5cd3b6d9596a","session_id":"619be588c629f0d0caefe556","condition":"full-information","relevant_dimensions":["wings","pattern"],"bee_group":{"antennae":"X","wings":"2","pattern":"D","legs":"X"},"bonus":1.1200000000000008},{"rt":16899.199999999255,"stimulus":"bees-with-color/bee-A1SM.svg","response":0,"trial_type":"image-button-response","trial_index":53,"time_elapsed":1646342,"internal_node_id":"0.0-4.0-0.21","subject_id":"602d29200724e36ae7a9def2","study_id":"6197b3f67c2b5cd3b6d9596a","session_id":"619be588c629f0d0caefe556","condition":"full-information","relevant_dimensions":["wings","pattern"],"bee_group":{"antennae":"X","wings":"2","pattern":"D","legs":"X"},"action":"harvest","summary":"good-harvest","bonus":1.1200000000000008},{"rt":10507.900000000373,"stimulus":"\n                    <p><b>Action: <em>harvest</em></b></p>\n                    <p>This is the bee that you just saw.</p>\n                    <img src=\"bees-with-color/bee-A1SM.svg\" width=\"200\">\n                    <p><span class=\"greenText\"><b>Successful harvest!</b></span><br>Your pay has increased by $0.02. Your bonus pay is now $0.18.</p>\n            ","response":0,"trial_type":"html-button-response","trial_index":54,"time_elapsed":1656852,"internal_node_id":"0.0-4.0-1.21","subject_id":"602d29200724e36ae7a9def2","study_id":"6197b3f67c2b5cd3b6d9596a","session_id":"619be588c629f0d0caefe556","condition":"full-information","relevant_dimensions":["wings","pattern"],"bee_group":{"antennae":"X","wings":"2","pattern":"D","legs":"X"},"bonus":1.1200000000000008},{"rt":15467.199999999255,"stimulus":"bees-with-color/bee-B1DM.svg","response":1,"trial_type":"image-button-response","trial_index":55,"time_elapsed":1672321,"internal_node_id":"0.0-4.0-0.22","subject_id":"602d29200724e36ae7a9def2","study_id":"6197b3f67c2b5cd3b6d9596a","session_id":"619be588c629f0d0caefe556","condition":"full-information","relevant_dimensions":["wings","pattern"],"bee_group":{"antennae":"X","wings":"2","pattern":"D","legs":"X"},"action":"avoid","summary":"bad-avoid","bonus":1.1200000000000008},{"rt":4725.799999998882,"stimulus":"\n                    <p><b>Action: <em>avoid</em></b></p>\n                    <p>This is the bee that you just saw.</p>\n                    <img src=\"bees-with-color/bee-B1DM.svg\" width=\"200\">\n                    <p><span class=\"redText\">Bad choice,</span> the bee was friendly.<br>Your bonus pay is unchanged, and remains at $0.18.</p>\n            ","response":0,"trial_type":"html-button-response","trial_index":56,"time_elapsed":1677049,"internal_node_id":"0.0-4.0-1.22","subject_id":"602d29200724e36ae7a9def2","study_id":"6197b3f67c2b5cd3b6d9596a","session_id":"619be588c629f0d0caefe556","condition":"full-information","relevant_dimensions":["wings","pattern"],"bee_group":{"antennae":"X","wings":"2","pattern":"D","legs":"X"},"bonus":1.1200000000000008},{"rt":13844.89999999851,"stimulus":"bees-with-color/bee-A1SF.svg","response":1,"trial_type":"image-button-response","trial_index":57,"time_elapsed":1690896,"internal_node_id":"0.0-4.0-0.23","subject_id":"602d29200724e36ae7a9def2","study_id":"6197b3f67c2b5cd3b6d9596a","session_id":"619be588c629f0d0caefe556","condition":"full-information","relevant_dimensions":["wings","pattern"],"bee_group":{"antennae":"X","wings":"2","pattern":"D","legs":"X"},"action":"avoid","summary":"bad-avoid","bonus":1.1200000000000008},{"rt":12206.199999999255,"stimulus":"\n                    <p><b>Action: <em>avoid</em></b></p>\n                    <p>This is the bee that you just saw.</p>\n                    <img src=\"bees-with-color/bee-A1SF.svg\" width=\"200\">\n                    <p><span class=\"redText\">Bad choice,</span> the bee was friendly.<br>Your bonus pay is unchanged, and remains at $0.18.</p>\n            ","response":0,"trial_type":"html-button-response","trial_index":58,"time_elapsed":1703104,"internal_node_id":"0.0-4.0-1.23","subject_id":"602d29200724e36ae7a9def2","study_id":"6197b3f67c2b5cd3b6d9596a","session_id":"619be588c629f0d0caefe556","condition":"full-information","relevant_dimensions":["wings","pattern"],"bee_group":{"antennae":"X","wings":"2","pattern":"D","legs":"X"},"bonus":1.1200000000000008},{"rt":8642.400000000373,"stimulus":"bees-with-color/bee-B1SF.svg","response":0,"trial_type":"image-button-response","trial_index":59,"time_elapsed":1711750,"internal_node_id":"0.0-4.0-0.24","subject_id":"602d29200724e36ae7a9def2","study_id":"6197b3f67c2b5cd3b6d9596a","session_id":"619be588c629f0d0caefe556","condition":"full-information","relevant_dimensions":["wings","pattern"],"bee_group":{"antennae":"X","wings":"2","pattern":"D","legs":"X"},"action":"harvest","summary":"good-harvest","bonus":1.1200000000000008},{"rt":3435.199999999255,"stimulus":"\n                    <p><b>Action: <em>harvest</em></b></p>\n                    <p>This is the bee that you just saw.</p>\n                    <img src=\"bees-with-color/bee-B1SF.svg\" width=\"200\">\n                    <p><span class=\"greenText\"><b>Successful harvest!</b></span><br>Your pay has increased by $0.02. Your bonus pay is now $0.20.</p>\n            ","response":0,"trial_type":"html-button-response","trial_index":60,"time_elapsed":1715187,"internal_node_id":"0.0-4.0-1.24","subject_id":"602d29200724e36ae7a9def2","study_id":"6197b3f67c2b5cd3b6d9596a","session_id":"619be588c629f0d0caefe556","condition":"full-information","relevant_dimensions":["wings","pattern"],"bee_group":{"antennae":"X","wings":"2","pattern":"D","legs":"X"},"bonus":1.1200000000000008},{"rt":11681.099999999627,"stimulus":"bees-with-color/bee-B1DF.svg","response":1,"trial_type":"image-button-response","trial_index":61,"time_elapsed":1726870,"internal_node_id":"0.0-4.0-0.25","subject_id":"602d29200724e36ae7a9def2","study_id":"6197b3f67c2b5cd3b6d9596a","session_id":"619be588c629f0d0caefe556","condition":"full-information","relevant_dimensions":["wings","pattern"],"bee_group":{"antennae":"X","wings":"2","pattern":"D","legs":"X"},"action":"avoid","summary":"bad-avoid","bonus":1.1200000000000008},{"rt":5500.699999999255,"stimulus":"\n                    <p><b>Action: <em>avoid</em></b></p>\n                    <p>This is the bee that you just saw.</p>\n                    <img src=\"bees-with-color/bee-B1DF.svg\" width=\"200\">\n                    <p><span class=\"redText\">Bad choice,</span> the bee was friendly.<br>Your bonus pay is unchanged, and remains at $0.20.</p>\n            ","response":0,"trial_type":"html-button-response","trial_index":62,"time_elapsed":1732372,"internal_node_id":"0.0-4.0-1.25","subject_id":"602d29200724e36ae7a9def2","study_id":"6197b3f67c2b5cd3b6d9596a","session_id":"619be588c629f0d0caefe556","condition":"full-information","relevant_dimensions":["wings","pattern"],"bee_group":{"antennae":"X","wings":"2","pattern":"D","legs":"X"},"bonus":1.1200000000000008},{"rt":25117.800000000745,"stimulus":"bees-with-color/bee-A2SM.svg","response":0,"trial_type":"image-button-response","trial_index":63,"time_elapsed":1757491,"internal_node_id":"0.0-4.0-0.26","subject_id":"602d29200724e36ae7a9def2","study_id":"6197b3f67c2b5cd3b6d9596a","session_id":"619be588c629f0d0caefe556","condition":"full-information","relevant_dimensions":["wings","pattern"],"bee_group":{"antennae":"X","wings":"2","pattern":"D","legs":"X"},"action":"harvest","summary":"good-harvest","bonus":1.1200000000000008},{"rt":10975.799999998882,"stimulus":"\n                    <p><b>Action: <em>harvest</em></b></p>\n                    <p>This is the bee that you just saw.</p>\n                    <img src=\"bees-with-color/bee-A2SM.svg\" width=\"200\">\n                    <p><span class=\"greenText\"><b>Successful harvest!</b></span><br>Your pay has increased by $0.02. Your bonus pay is now $0.22.</p>\n            ","response":0,"trial_type":"html-button-response","trial_index":64,"time_elapsed":1768468,"internal_node_id":"0.0-4.0-1.26","subject_id":"602d29200724e36ae7a9def2","study_id":"6197b3f67c2b5cd3b6d9596a","session_id":"619be588c629f0d0caefe556","condition":"full-information","relevant_dimensions":["wings","pattern"],"bee_group":{"antennae":"X","wings":"2","pattern":"D","legs":"X"},"bonus":1.1200000000000008},{"rt":45377.59999999963,"stimulus":"bees-with-color/bee-B2SF.svg","response":0,"trial_type":"image-button-response","trial_index":65,"time_elapsed":1813847,"internal_node_id":"0.0-4.0-0.27","subject_id":"602d29200724e36ae7a9def2","study_id":"6197b3f67c2b5cd3b6d9596a","session_id":"619be588c629f0d0caefe556","condition":"full-information","relevant_dimensions":["wings","pattern"],"bee_group":{"antennae":"X","wings":"2","pattern":"D","legs":"X"},"action":"harvest","summary":"good-harvest","bonus":1.1200000000000008},{"rt":4583.299999998882,"stimulus":"\n                    <p><b>Action: <em>harvest</em></b></p>\n                    <p>This is the bee that you just saw.</p>\n                    <img src=\"bees-with-color/bee-B2SF.svg\" width=\"200\">\n                    <p><span class=\"greenText\"><b>Successful harvest!</b></span><br>Your pay has increased by $0.02. Your bonus pay is now $0.24.</p>\n            ","response":0,"trial_type":"html-button-response","trial_index":66,"time_elapsed":1818432,"internal_node_id":"0.0-4.0-1.27","subject_id":"602d29200724e36ae7a9def2","study_id":"6197b3f67c2b5cd3b6d9596a","session_id":"619be588c629f0d0caefe556","condition":"full-information","relevant_dimensions":["wings","pattern"],"bee_group":{"antennae":"X","wings":"2","pattern":"D","legs":"X"},"bonus":1.1200000000000008},{"rt":27710.39999999851,"stimulus":"bees-with-color/bee-B1SM.svg","response":0,"trial_type":"image-button-response","trial_index":67,"time_elapsed":1846144,"internal_node_id":"0.0-4.0-0.28","subject_id":"602d29200724e36ae7a9def2","study_id":"6197b3f67c2b5cd3b6d9596a","session_id":"619be588c629f0d0caefe556","condition":"full-information","relevant_dimensions":["wings","pattern"],"bee_group":{"antennae":"X","wings":"2","pattern":"D","legs":"X"},"action":"harvest","summary":"good-harvest","bonus":1.1200000000000008},{"rt":4088.099999997765,"stimulus":"\n                    <p><b>Action: <em>harvest</em></b></p>\n                    <p>This is the bee that you just saw.</p>\n                    <img src=\"bees-with-color/bee-B1SM.svg\" width=\"200\">\n                    <p><span class=\"greenText\"><b>Successful harvest!</b></span><br>Your pay has increased by $0.02. Your bonus pay is now $0.26.</p>\n            ","response":0,"trial_type":"html-button-response","trial_index":68,"time_elapsed":1850233,"internal_node_id":"0.0-4.0-1.28","subject_id":"602d29200724e36ae7a9def2","study_id":"6197b3f67c2b5cd3b6d9596a","session_id":"619be588c629f0d0caefe556","condition":"full-information","relevant_dimensions":["wings","pattern"],"bee_group":{"antennae":"X","wings":"2","pattern":"D","legs":"X"},"bonus":1.1200000000000008},{"rt":19591.89999999851,"stimulus":"bees-with-color/bee-A2SF.svg","response":0,"trial_type":"image-button-response","trial_index":69,"time_elapsed":1869827,"internal_node_id":"0.0-4.0-0.29","subject_id":"602d29200724e36ae7a9def2","study_id":"6197b3f67c2b5cd3b6d9596a","session_id":"619be588c629f0d0caefe556","condition":"full-information","relevant_dimensions":["wings","pattern"],"bee_group":{"antennae":"X","wings":"2","pattern":"D","legs":"X"},"action":"harvest","summary":"good-harvest","bonus":1.1200000000000008},{"rt":7132.199999999255,"stimulus":"\n                    <p><b>Action: <em>harvest</em></b></p>\n                    <p>This is the bee that you just saw.</p>\n                    <img src=\"bees-with-color/bee-A2SF.svg\" width=\"200\">\n                    <p><span class=\"greenText\"><b>Successful harvest!</b></span><br>Your pay has increased by $0.02. Your bonus pay is now $0.28.</p>\n            ","response":0,"trial_type":"html-button-response","trial_index":70,"time_elapsed":1876960,"internal_node_id":"0.0-4.0-1.29","subject_id":"602d29200724e36ae7a9def2","study_id":"6197b3f67c2b5cd3b6d9596a","session_id":"619be588c629f0d0caefe556","condition":"full-information","relevant_dimensions":["wings","pattern"],"bee_group":{"antennae":"X","wings":"2","pattern":"D","legs":"X"},"bonus":1.1200000000000008},{"rt":25178,"stimulus":"bees-with-color/bee-B2DM.svg","response":0,"trial_type":"image-button-response","trial_index":71,"time_elapsed":1902140,"internal_node_id":"0.0-4.0-0.30","subject_id":"602d29200724e36ae7a9def2","study_id":"6197b3f67c2b5cd3b6d9596a","session_id":"619be588c629f0d0caefe556","condition":"full-information","relevant_dimensions":["wings","pattern"],"bee_group":{"antennae":"X","wings":"2","pattern":"D","legs":"X"},"action":"harvest","summary":"bad-harvest","bonus":1.1200000000000008},{"rt":6510.39999999851,"stimulus":"\n                    <p><b>Action: <em>harvest</em></b></p>\n                    <p>This is the bee that you just saw.</p>\n                    <img src=\"bees-with-color/bee-B2DM.svg\" width=\"200\">\n                    <p><span class=\"redText\">Bad choice, the bee was angry.</span><br><b>You have been stung!</b><br>Your pay has been decreased by $0.10. Your bonus pay is now $0.18.</p>\n            ","response":0,"trial_type":"html-button-response","trial_index":72,"time_elapsed":1908652,"internal_node_id":"0.0-4.0-1.30","subject_id":"602d29200724e36ae7a9def2","study_id":"6197b3f67c2b5cd3b6d9596a","session_id":"619be588c629f0d0caefe556","condition":"full-information","relevant_dimensions":["wings","pattern"],"bee_group":{"antennae":"X","wings":"2","pattern":"D","legs":"X"},"bonus":1.1200000000000008},{"rt":14181.300000000745,"stimulus":"bees-with-color/bee-A2DF.svg","response":1,"trial_type":"image-button-response","trial_index":73,"time_elapsed":1922834,"internal_node_id":"0.0-4.0-0.31","subject_id":"602d29200724e36ae7a9def2","study_id":"6197b3f67c2b5cd3b6d9596a","session_id":"619be588c629f0d0caefe556","condition":"full-information","relevant_dimensions":["wings","pattern"],"bee_group":{"antennae":"X","wings":"2","pattern":"D","legs":"X"},"action":"avoid","summary":"good-avoid","bonus":1.1200000000000008},{"rt":3092,"stimulus":"\n                    <p><b>Action: <em>avoid</em></b></p>\n                    <p>This is the bee that you just saw.</p>\n                    <img src=\"bees-with-color/bee-A2DF.svg\" width=\"200\">\n                    <p><span class=\"greenText\">Good choice!</span>  This bee would have stung you.<br>Your bonus pay is unchanged, and remains at $0.18.</p>\n            ","response":0,"trial_type":"html-button-response","trial_index":74,"time_elapsed":1925928,"internal_node_id":"0.0-4.0-1.31","subject_id":"602d29200724e36ae7a9def2","study_id":"6197b3f67c2b5cd3b6d9596a","session_id":"619be588c629f0d0caefe556","condition":"full-information","relevant_dimensions":["wings","pattern"],"bee_group":{"antennae":"X","wings":"2","pattern":"D","legs":"X"},"bonus":1.1200000000000008},{"rt":17280.699999999255,"stimulus":"bees-with-color/bee-A1DF.svg","response":0,"trial_type":"image-button-response","trial_index":75,"time_elapsed":1943210,"internal_node_id":"0.0-4.0-0.32","subject_id":"602d29200724e36ae7a9def2","study_id":"6197b3f67c2b5cd3b6d9596a","session_id":"619be588c629f0d0caefe556","condition":"full-information","relevant_dimensions":["wings","pattern"],"bee_group":{"antennae":"X","wings":"2","pattern":"D","legs":"X"},"action":"harvest","summary":"good-harvest","bonus":1.1200000000000008},{"rt":4925.5,"stimulus":"\n                    <p><b>Action: <em>harvest</em></b></p>\n                    <p>This is the bee that you just saw.</p>\n                    <img src=\"bees-with-color/bee-A1DF.svg\" width=\"200\">\n                    <p><span class=\"greenText\"><b>Successful harvest!</b></span><br>Your pay has increased by $0.02. Your bonus pay is now $0.20.</p>\n            ","response":0,"trial_type":"html-button-response","trial_index":76,"time_elapsed":1948137,"internal_node_id":"0.0-4.0-1.32","subject_id":"602d29200724e36ae7a9def2","study_id":"6197b3f67c2b5cd3b6d9596a","session_id":"619be588c629f0d0caefe556","condition":"full-information","relevant_dimensions":["wings","pattern"],"bee_group":{"antennae":"X","wings":"2","pattern":"D","legs":"X"},"bonus":1.1200000000000008},{"rt":17161,"stimulus":"bees-with-color/bee-B1SM.svg","response":0,"trial_type":"image-button-response","trial_index":77,"time_elapsed":1965300,"internal_node_id":"0.0-4.0-0.33","subject_id":"602d29200724e36ae7a9def2","study_id":"6197b3f67c2b5cd3b6d9596a","session_id":"619be588c629f0d0caefe556","condition":"full-information","relevant_dimensions":["wings","pattern"],"bee_group":{"antennae":"X","wings":"2","pattern":"D","legs":"X"},"action":"harvest","summary":"good-harvest","bonus":1.1200000000000008},{"rt":3393.2000000029802,"stimulus":"\n                    <p><b>Action: <em>harvest</em></b></p>\n                    <p>This is the bee that you just saw.</p>\n                    <img src=\"bees-with-color/bee-B1SM.svg\" width=\"200\">\n                    <p><span class=\"greenText\"><b>Successful harvest!</b></span><br>Your pay has increased by $0.02. Your bonus pay is now $0.22.</p>\n            ","response":0,"trial_type":"html-button-response","trial_index":78,"time_elapsed":1968695,"internal_node_id":"0.0-4.0-1.33","subject_id":"602d29200724e36ae7a9def2","study_id":"6197b3f67c2b5cd3b6d9596a","session_id":"619be588c629f0d0caefe556","condition":"full-information","relevant_dimensions":["wings","pattern"],"bee_group":{"antennae":"X","wings":"2","pattern":"D","legs":"X"},"bonus":1.1200000000000008},{"rt":17011.39999999851,"stimulus":"bees-with-color/bee-A2SF.svg","response":0,"trial_type":"image-button-response","trial_index":79,"time_elapsed":1985708,"internal_node_id":"0.0-4.0-0.34","subject_id":"602d29200724e36ae7a9def2","study_id":"6197b3f67c2b5cd3b6d9596a","session_id":"619be588c629f0d0caefe556","condition":"full-information","relevant_dimensions":["wings","pattern"],"bee_group":{"antennae":"X","wings":"2","pattern":"D","legs":"X"},"action":"harvest","summary":"good-harvest","bonus":1.1200000000000008},{"rt":2321.699999999255,"stimulus":"\n                    <p><b>Action: <em>harvest</em></b></p>\n                    <p>This is the bee that you just saw.</p>\n                    <img src=\"bees-with-color/bee-A2SF.svg\" width=\"200\">\n                    <p><span class=\"greenText\"><b>Successful harvest!</b></span><br>Your pay has increased by $0.02. Your bonus pay is now $0.24.</p>\n            ","response":0,"trial_type":"html-button-response","trial_index":80,"time_elapsed":1988032,"internal_node_id":"0.0-4.0-1.34","subject_id":"602d29200724e36ae7a9def2","study_id":"6197b3f67c2b5cd3b6d9596a","session_id":"619be588c629f0d0caefe556","condition":"full-information","relevant_dimensions":["wings","pattern"],"bee_group":{"antennae":"X","wings":"2","pattern":"D","legs":"X"},"bonus":1.1200000000000008},{"rt":9678.39999999851,"stimulus":"bees-with-color/bee-B1SF.svg","response":0,"trial_type":"image-button-response","trial_index":81,"time_elapsed":1997712,"internal_node_id":"0.0-4.0-0.35","subject_id":"602d29200724e36ae7a9def2","study_id":"6197b3f67c2b5cd3b6d9596a","session_id":"619be588c629f0d0caefe556","condition":"full-information","relevant_dimensions":["wings","pattern"],"bee_group":{"antennae":"X","wings":"2","pattern":"D","legs":"X"},"action":"harvest","summary":"good-harvest","bonus":1.1200000000000008},{"rt":3168,"stimulus":"\n                    <p><b>Action: <em>harvest</em></b></p>\n                    <p>This is the bee that you just saw.</p>\n                    <img src=\"bees-with-color/bee-B1SF.svg\" width=\"200\">\n                    <p><span class=\"greenText\"><b>Successful harvest!</b></span><br>Your pay has increased by $0.02. Your bonus pay is now $0.26.</p>\n            ","response":0,"trial_type":"html-button-response","trial_index":82,"time_elapsed":2000882,"internal_node_id":"0.0-4.0-1.35","subject_id":"602d29200724e36ae7a9def2","study_id":"6197b3f67c2b5cd3b6d9596a","session_id":"619be588c629f0d0caefe556","condition":"full-information","relevant_dimensions":["wings","pattern"],"bee_group":{"antennae":"X","wings":"2","pattern":"D","legs":"X"},"bonus":1.1200000000000008},{"rt":27014.5,"stimulus":"bees-with-color/bee-B2DM.svg","response":1,"trial_type":"image-button-response","trial_index":83,"time_elapsed":2027898,"internal_node_id":"0.0-4.0-0.36","subject_id":"602d29200724e36ae7a9def2","study_id":"6197b3f67c2b5cd3b6d9596a","session_id":"619be588c629f0d0caefe556","condition":"full-information","relevant_dimensions":["wings","pattern"],"bee_group":{"antennae":"X","wings":"2","pattern":"D","legs":"X"},"action":"avoid","summary":"good-avoid","bonus":1.1200000000000008},{"rt":5204,"stimulus":"\n                    <p><b>Action: <em>avoid</em></b></p>\n                    <p>This is the bee that you just saw.</p>\n                    <img src=\"bees-with-color/bee-B2DM.svg\" width=\"200\">\n                    <p><span class=\"greenText\">Good choice!</span>  This bee would have stung you.<br>Your bonus pay is unchanged, and remains at $0.26.</p>\n            ","response":0,"trial_type":"html-button-response","trial_index":84,"time_elapsed":2033103,"internal_node_id":"0.0-4.0-1.36","subject_id":"602d29200724e36ae7a9def2","study_id":"6197b3f67c2b5cd3b6d9596a","session_id":"619be588c629f0d0caefe556","condition":"full-information","relevant_dimensions":["wings","pattern"],"bee_group":{"antennae":"X","wings":"2","pattern":"D","legs":"X"},"bonus":1.1200000000000008},{"rt":23999.199999999255,"stimulus":"bees-with-color/bee-A2DF.svg","response":1,"trial_type":"image-button-response","trial_index":85,"time_elapsed":2057105,"internal_node_id":"0.0-4.0-0.37","subject_id":"602d29200724e36ae7a9def2","study_id":"6197b3f67c2b5cd3b6d9596a","session_id":"619be588c629f0d0caefe556","condition":"full-information","relevant_dimensions":["wings","pattern"],"bee_group":{"antennae":"X","wings":"2","pattern":"D","legs":"X"},"action":"avoid","summary":"good-avoid","bonus":1.1200000000000008},{"rt":2430.5,"stimulus":"\n                    <p><b>Action: <em>avoid</em></b></p>\n                    <p>This is the bee that you just saw.</p>\n                    <img src=\"bees-with-color/bee-A2DF.svg\" width=\"200\">\n                    <p><span class=\"greenText\">Good choice!</span>  This bee would have stung you.<br>Your bonus pay is unchanged, and remains at $0.26.</p>\n            ","response":0,"trial_type":"html-button-response","trial_index":86,"time_elapsed":2059538,"internal_node_id":"0.0-4.0-1.37","subject_id":"602d29200724e36ae7a9def2","study_id":"6197b3f67c2b5cd3b6d9596a","session_id":"619be588c629f0d0caefe556","condition":"full-information","relevant_dimensions":["wings","pattern"],"bee_group":{"antennae":"X","wings":"2","pattern":"D","legs":"X"},"bonus":1.1200000000000008},{"rt":15198.300000000745,"stimulus":"bees-with-color/bee-A1SM.svg","response":0,"trial_type":"image-button-response","trial_index":87,"time_elapsed":2074738,"internal_node_id":"0.0-4.0-0.38","subject_id":"602d29200724e36ae7a9def2","study_id":"6197b3f67c2b5cd3b6d9596a","session_id":"619be588c629f0d0caefe556","condition":"full-information","relevant_dimensions":["wings","pattern"],"bee_group":{"antennae":"X","wings":"2","pattern":"D","legs":"X"},"action":"harvest","summary":"good-harvest","bonus":1.1200000000000008},{"rt":1500.300000000745,"stimulus":"\n                    <p><b>Action: <em>harvest</em></b></p>\n                    <p>This is the bee that you just saw.</p>\n                    <img src=\"bees-with-color/bee-A1SM.svg\" width=\"200\">\n                    <p><span class=\"greenText\"><b>Successful harvest!</b></span><br>Your pay has increased by $0.02. Your bonus pay is now $0.28.</p>\n            ","response":0,"trial_type":"html-button-response","trial_index":88,"time_elapsed":2076239,"internal_node_id":"0.0-4.0-1.38","subject_id":"602d29200724e36ae7a9def2","study_id":"6197b3f67c2b5cd3b6d9596a","session_id":"619be588c629f0d0caefe556","condition":"full-information","relevant_dimensions":["wings","pattern"],"bee_group":{"antennae":"X","wings":"2","pattern":"D","legs":"X"},"bonus":1.1200000000000008},{"rt":30017.300000000745,"stimulus":"bees-with-color/bee-B2SF.svg","response":0,"trial_type":"image-button-response","trial_index":89,"time_elapsed":2106258,"internal_node_id":"0.0-4.0-0.39","subject_id":"602d29200724e36ae7a9def2","study_id":"6197b3f67c2b5cd3b6d9596a","session_id":"619be588c629f0d0caefe556","condition":"full-information","relevant_dimensions":["wings","pattern"],"bee_group":{"antennae":"X","wings":"2","pattern":"D","legs":"X"},"action":"harvest","summary":"good-harvest","bonus":1.1200000000000008},{"rt":1453.300000000745,"stimulus":"\n                    <p><b>Action: <em>harvest</em></b></p>\n                    <p>This is the bee that you just saw.</p>\n                    <img src=\"bees-with-color/bee-B2SF.svg\" width=\"200\">\n                    <p><span class=\"greenText\"><b>Successful harvest!</b></span><br>Your pay has increased by $0.02. Your bonus pay is now $0.30.</p>\n            ","response":0,"trial_type":"html-button-response","trial_index":90,"time_elapsed":2107713,"internal_node_id":"0.0-4.0-1.39","subject_id":"602d29200724e36ae7a9def2","study_id":"6197b3f67c2b5cd3b6d9596a","session_id":"619be588c629f0d0caefe556","condition":"full-information","relevant_dimensions":["wings","pattern"],"bee_group":{"antennae":"X","wings":"2","pattern":"D","legs":"X"},"bonus":1.1200000000000008},{"rt":29056.89999999851,"stimulus":"bees-with-color/bee-B1DM.svg","response":1,"trial_type":"image-button-response","trial_index":91,"time_elapsed":2136771,"internal_node_id":"0.0-4.0-0.40","subject_id":"602d29200724e36ae7a9def2","study_id":"6197b3f67c2b5cd3b6d9596a","session_id":"619be588c629f0d0caefe556","condition":"full-information","relevant_dimensions":["wings","pattern"],"bee_group":{"antennae":"X","wings":"2","pattern":"D","legs":"X"},"action":"avoid","summary":"bad-avoid","bonus":1.1200000000000008},{"rt":9579.199999999255,"stimulus":"\n                    <p><b>Action: <em>avoid</em></b></p>\n                    <p>This is the bee that you just saw.</p>\n                    <img src=\"bees-with-color/bee-B1DM.svg\" width=\"200\">\n                    <p><span class=\"redText\">Bad choice,</span> the bee was friendly.<br>Your bonus pay is unchanged, and remains at $0.30.</p>\n            ","response":0,"trial_type":"html-button-response","trial_index":92,"time_elapsed":2146351,"internal_node_id":"0.0-4.0-1.40","subject_id":"602d29200724e36ae7a9def2","study_id":"6197b3f67c2b5cd3b6d9596a","session_id":"619be588c629f0d0caefe556","condition":"full-information","relevant_dimensions":["wings","pattern"],"bee_group":{"antennae":"X","wings":"2","pattern":"D","legs":"X"},"bonus":1.1200000000000008},{"rt":13992.199999999255,"stimulus":"bees-with-color/bee-A2DM.svg","response":1,"trial_type":"image-button-response","trial_index":93,"time_elapsed":2160345,"internal_node_id":"0.0-4.0-0.41","subject_id":"602d29200724e36ae7a9def2","study_id":"6197b3f67c2b5cd3b6d9596a","session_id":"619be588c629f0d0caefe556","condition":"full-information","relevant_dimensions":["wings","pattern"],"bee_group":{"antennae":"X","wings":"2","pattern":"D","legs":"X"},"action":"avoid","summary":"good-avoid","bonus":1.1200000000000008},{"rt":4245.199999999255,"stimulus":"\n                    <p><b>Action: <em>avoid</em></b></p>\n                    <p>This is the bee that you just saw.</p>\n                    <img src=\"bees-with-color/bee-A2DM.svg\" width=\"200\">\n                    <p><span class=\"greenText\">Good choice!</span>  This bee would have stung you.<br>Your bonus pay is unchanged, and remains at $0.30.</p>\n            ","response":0,"trial_type":"html-button-response","trial_index":94,"time_elapsed":2164591,"internal_node_id":"0.0-4.0-1.41","subject_id":"602d29200724e36ae7a9def2","study_id":"6197b3f67c2b5cd3b6d9596a","session_id":"619be588c629f0d0caefe556","condition":"full-information","relevant_dimensions":["wings","pattern"],"bee_group":{"antennae":"X","wings":"2","pattern":"D","legs":"X"},"bonus":1.1200000000000008},{"rt":12325.599999997765,"stimulus":"bees-with-color/bee-A1DM.svg","response":0,"trial_type":"image-button-response","trial_index":95,"time_elapsed":2176918,"internal_node_id":"0.0-4.0-0.42","subject_id":"602d29200724e36ae7a9def2","study_id":"6197b3f67c2b5cd3b6d9596a","session_id":"619be588c629f0d0caefe556","condition":"full-information","relevant_dimensions":["wings","pattern"],"bee_group":{"antennae":"X","wings":"2","pattern":"D","legs":"X"},"action":"harvest","summary":"good-harvest","bonus":1.1200000000000008},{"rt":3397.60000000149,"stimulus":"\n                    <p><b>Action: <em>harvest</em></b></p>\n                    <p>This is the bee that you just saw.</p>\n                    <img src=\"bees-with-color/bee-A1DM.svg\" width=\"200\">\n                    <p><span class=\"greenText\"><b>Successful harvest!</b></span><br>Your pay has increased by $0.02. Your bonus pay is now $0.32.</p>\n            ","response":0,"trial_type":"html-button-response","trial_index":96,"time_elapsed":2180316,"internal_node_id":"0.0-4.0-1.42","subject_id":"602d29200724e36ae7a9def2","study_id":"6197b3f67c2b5cd3b6d9596a","session_id":"619be588c629f0d0caefe556","condition":"full-information","relevant_dimensions":["wings","pattern"],"bee_group":{"antennae":"X","wings":"2","pattern":"D","legs":"X"},"bonus":1.1200000000000008},{"rt":17970,"stimulus":"bees-with-color/bee-B2DF.svg","response":1,"trial_type":"image-button-response","trial_index":97,"time_elapsed":2198288,"internal_node_id":"0.0-4.0-0.43","subject_id":"602d29200724e36ae7a9def2","study_id":"6197b3f67c2b5cd3b6d9596a","session_id":"619be588c629f0d0caefe556","condition":"full-information","relevant_dimensions":["wings","pattern"],"bee_group":{"antennae":"X","wings":"2","pattern":"D","legs":"X"},"action":"avoid","summary":"good-avoid","bonus":1.1200000000000008},{"rt":3062.89999999851,"stimulus":"\n                    <p><b>Action: <em>avoid</em></b></p>\n                    <p>This is the bee that you just saw.</p>\n                    <img src=\"bees-with-color/bee-B2DF.svg\" width=\"200\">\n                    <p><span class=\"greenText\">Good choice!</span>  This bee would have stung you.<br>Your bonus pay is unchanged, and remains at $0.32.</p>\n            ","response":0,"trial_type":"html-button-response","trial_index":98,"time_elapsed":2201353,"internal_node_id":"0.0-4.0-1.43","subject_id":"602d29200724e36ae7a9def2","study_id":"6197b3f67c2b5cd3b6d9596a","session_id":"619be588c629f0d0caefe556","condition":"full-information","relevant_dimensions":["wings","pattern"],"bee_group":{"antennae":"X","wings":"2","pattern":"D","legs":"X"},"bonus":1.1200000000000008},{"rt":19308.300000000745,"stimulus":"bees-with-color/bee-A1SF.svg","response":0,"trial_type":"image-button-response","trial_index":99,"time_elapsed":2220663,"internal_node_id":"0.0-4.0-0.44","subject_id":"602d29200724e36ae7a9def2","study_id":"6197b3f67c2b5cd3b6d9596a","session_id":"619be588c629f0d0caefe556","condition":"full-information","relevant_dimensions":["wings","pattern"],"bee_group":{"antennae":"X","wings":"2","pattern":"D","legs":"X"},"action":"harvest","summary":"good-harvest","bonus":1.1200000000000008},{"rt":2818.199999999255,"stimulus":"\n                    <p><b>Action: <em>harvest</em></b></p>\n                    <p>This is the bee that you just saw.</p>\n                    <img src=\"bees-with-color/bee-A1SF.svg\" width=\"200\">\n                    <p><span class=\"greenText\"><b>Successful harvest!</b></span><br>Your pay has increased by $0.02. Your bonus pay is now $0.34.</p>\n            ","response":0,"trial_type":"html-button-response","trial_index":100,"time_elapsed":2223482,"internal_node_id":"0.0-4.0-1.44","subject_id":"602d29200724e36ae7a9def2","study_id":"6197b3f67c2b5cd3b6d9596a","session_id":"619be588c629f0d0caefe556","condition":"full-information","relevant_dimensions":["wings","pattern"],"bee_group":{"antennae":"X","wings":"2","pattern":"D","legs":"X"},"bonus":1.1200000000000008},{"rt":10929.300000000745,"stimulus":"bees-with-color/bee-A2SM.svg","response":0,"trial_type":"image-button-response","trial_index":101,"time_elapsed":2234413,"internal_node_id":"0.0-4.0-0.45","subject_id":"602d29200724e36ae7a9def2","study_id":"6197b3f67c2b5cd3b6d9596a","session_id":"619be588c629f0d0caefe556","condition":"full-information","relevant_dimensions":["wings","pattern"],"bee_group":{"antennae":"X","wings":"2","pattern":"D","legs":"X"},"action":"harvest","summary":"good-harvest","bonus":1.1200000000000008},{"rt":1295.7999999970198,"stimulus":"\n                    <p><b>Action: <em>harvest</em></b></p>\n                    <p>This is the bee that you just saw.</p>\n                    <img src=\"bees-with-color/bee-A2SM.svg\" width=\"200\">\n                    <p><span class=\"greenText\"><b>Successful harvest!</b></span><br>Your pay has increased by $0.02. Your bonus pay is now $0.36.</p>\n            ","response":0,"trial_type":"html-button-response","trial_index":102,"time_elapsed":2235711,"internal_node_id":"0.0-4.0-1.45","subject_id":"602d29200724e36ae7a9def2","study_id":"6197b3f67c2b5cd3b6d9596a","session_id":"619be588c629f0d0caefe556","condition":"full-information","relevant_dimensions":["wings","pattern"],"bee_group":{"antennae":"X","wings":"2","pattern":"D","legs":"X"},"bonus":1.1200000000000008},{"rt":8600.39999999851,"stimulus":"bees-with-color/bee-B1DF.svg","response":0,"trial_type":"image-button-response","trial_index":103,"time_elapsed":2244312,"internal_node_id":"0.0-4.0-0.46","subject_id":"602d29200724e36ae7a9def2","study_id":"6197b3f67c2b5cd3b6d9596a","session_id":"619be588c629f0d0caefe556","condition":"full-information","relevant_dimensions":["wings","pattern"],"bee_group":{"antennae":"X","wings":"2","pattern":"D","legs":"X"},"action":"harvest","summary":"good-harvest","bonus":1.1200000000000008},{"rt":4092.199999999255,"stimulus":"\n                    <p><b>Action: <em>harvest</em></b></p>\n                    <p>This is the bee that you just saw.</p>\n                    <img src=\"bees-with-color/bee-B1DF.svg\" width=\"200\">\n                    <p><span class=\"greenText\"><b>Successful harvest!</b></span><br>Your pay has increased by $0.02. Your bonus pay is now $0.38.</p>\n            ","response":0,"trial_type":"html-button-response","trial_index":104,"time_elapsed":2248405,"internal_node_id":"0.0-4.0-1.46","subject_id":"602d29200724e36ae7a9def2","study_id":"6197b3f67c2b5cd3b6d9596a","session_id":"619be588c629f0d0caefe556","condition":"full-information","relevant_dimensions":["wings","pattern"],"bee_group":{"antennae":"X","wings":"2","pattern":"D","legs":"X"},"bonus":1.1200000000000008},{"rt":11307.89999999851,"stimulus":"bees-with-color/bee-B2SM.svg","response":0,"trial_type":"image-button-response","trial_index":105,"time_elapsed":2259715,"internal_node_id":"0.0-4.0-0.47","subject_id":"602d29200724e36ae7a9def2","study_id":"6197b3f67c2b5cd3b6d9596a","session_id":"619be588c629f0d0caefe556","condition":"full-information","relevant_dimensions":["wings","pattern"],"bee_group":{"antennae":"X","wings":"2","pattern":"D","legs":"X"},"action":"harvest","summary":"good-harvest","bonus":1.1200000000000008},{"rt":1542,"stimulus":"\n                    <p><b>Action: <em>harvest</em></b></p>\n                    <p>This is the bee that you just saw.</p>\n                    <img src=\"bees-with-color/bee-B2SM.svg\" width=\"200\">\n                    <p><span class=\"greenText\"><b>Successful harvest!</b></span><br>Your pay has increased by $0.02. Your bonus pay is now $0.40.</p>\n            ","response":0,"trial_type":"html-button-response","trial_index":106,"time_elapsed":2261258,"internal_node_id":"0.0-4.0-1.47","subject_id":"602d29200724e36ae7a9def2","study_id":"6197b3f67c2b5cd3b6d9596a","session_id":"619be588c629f0d0caefe556","condition":"full-information","relevant_dimensions":["wings","pattern"],"bee_group":{"antennae":"X","wings":"2","pattern":"D","legs":"X"},"bonus":1.1200000000000008},{"rt":17707.699999999255,"stimulus":"bees-with-color/bee-A2DF.svg","response":1,"trial_type":"image-button-response","trial_index":107,"time_elapsed":2278967,"internal_node_id":"0.0-4.0-0.48","subject_id":"602d29200724e36ae7a9def2","study_id":"6197b3f67c2b5cd3b6d9596a","session_id":"619be588c629f0d0caefe556","condition":"full-information","relevant_dimensions":["wings","pattern"],"bee_group":{"antennae":"X","wings":"2","pattern":"D","legs":"X"},"action":"avoid","summary":"good-avoid","bonus":1.1200000000000008},{"rt":2378.699999999255,"stimulus":"\n                    <p><b>Action: <em>avoid</em></b></p>\n                    <p>This is the bee that you just saw.</p>\n                    <img src=\"bees-with-color/bee-A2DF.svg\" width=\"200\">\n                    <p><span class=\"greenText\">Good choice!</span>  This bee would have stung you.<br>Your bonus pay is unchanged, and remains at $0.40.</p>\n            ","response":0,"trial_type":"html-button-response","trial_index":108,"time_elapsed":2281348,"internal_node_id":"0.0-4.0-1.48","subject_id":"602d29200724e36ae7a9def2","study_id":"6197b3f67c2b5cd3b6d9596a","session_id":"619be588c629f0d0caefe556","condition":"full-information","relevant_dimensions":["wings","pattern"],"bee_group":{"antennae":"X","wings":"2","pattern":"D","legs":"X"},"bonus":1.1200000000000008},{"rt":9163.800000000745,"stimulus":"bees-with-color/bee-A2DM.svg","response":1,"trial_type":"image-button-response","trial_index":109,"time_elapsed":2290513,"internal_node_id":"0.0-4.0-0.49","subject_id":"602d29200724e36ae7a9def2","study_id":"6197b3f67c2b5cd3b6d9596a","session_id":"619be588c629f0d0caefe556","condition":"full-information","relevant_dimensions":["wings","pattern"],"bee_group":{"antennae":"X","wings":"2","pattern":"D","legs":"X"},"action":"avoid","summary":"good-avoid","bonus":1.1200000000000008},{"rt":1499.1000000014901,"stimulus":"\n                    <p><b>Action: <em>avoid</em></b></p>\n                    <p>This is the bee that you just saw.</p>\n                    <img src=\"bees-with-color/bee-A2DM.svg\" width=\"200\">\n                    <p><span class=\"greenText\">Good choice!</span>  This bee would have stung you.<br>Your bonus pay is unchanged, and remains at $0.40.</p>\n            ","response":0,"trial_type":"html-button-response","trial_index":110,"time_elapsed":2292014,"internal_node_id":"0.0-4.0-1.49","subject_id":"602d29200724e36ae7a9def2","study_id":"6197b3f67c2b5cd3b6d9596a","session_id":"619be588c629f0d0caefe556","condition":"full-information","relevant_dimensions":["wings","pattern"],"bee_group":{"antennae":"X","wings":"2","pattern":"D","legs":"X"},"bonus":1.1200000000000008},{"rt":10440.900000002235,"stimulus":"bees-with-color/bee-A1DM.svg","response":0,"trial_type":"image-button-response","trial_index":111,"time_elapsed":2302456,"internal_node_id":"0.0-4.0-0.50","subject_id":"602d29200724e36ae7a9def2","study_id":"6197b3f67c2b5cd3b6d9596a","session_id":"619be588c629f0d0caefe556","condition":"full-information","relevant_dimensions":["wings","pattern"],"bee_group":{"antennae":"X","wings":"2","pattern":"D","legs":"X"},"action":"harvest","summary":"good-harvest","bonus":1.1200000000000008},{"rt":1216.5,"stimulus":"\n                    <p><b>Action: <em>harvest</em></b></p>\n                    <p>This is the bee that you just saw.</p>\n                    <img src=\"bees-with-color/bee-A1DM.svg\" width=\"200\">\n                    <p><span class=\"greenText\"><b>Successful harvest!</b></span><br>Your pay has increased by $0.02. Your bonus pay is now $0.42.</p>\n            ","response":0,"trial_type":"html-button-response","trial_index":112,"time_elapsed":2303674,"internal_node_id":"0.0-4.0-1.50","subject_id":"602d29200724e36ae7a9def2","study_id":"6197b3f67c2b5cd3b6d9596a","session_id":"619be588c629f0d0caefe556","condition":"full-information","relevant_dimensions":["wings","pattern"],"bee_group":{"antennae":"X","wings":"2","pattern":"D","legs":"X"},"bonus":1.1200000000000008},{"rt":22626.29999999702,"stimulus":"bees-with-color/bee-A2SM.svg","response":0,"trial_type":"image-button-response","trial_index":113,"time_elapsed":2326302,"internal_node_id":"0.0-4.0-0.51","subject_id":"602d29200724e36ae7a9def2","study_id":"6197b3f67c2b5cd3b6d9596a","session_id":"619be588c629f0d0caefe556","condition":"full-information","relevant_dimensions":["wings","pattern"],"bee_group":{"antennae":"X","wings":"2","pattern":"D","legs":"X"},"action":"harvest","summary":"good-harvest","bonus":1.1200000000000008},{"rt":3246.39999999851,"stimulus":"\n                    <p><b>Action: <em>harvest</em></b></p>\n                    <p>This is the bee that you just saw.</p>\n                    <img src=\"bees-with-color/bee-A2SM.svg\" width=\"200\">\n                    <p><span class=\"greenText\"><b>Successful harvest!</b></span><br>Your pay has increased by $0.02. Your bonus pay is now $0.44.</p>\n            ","response":0,"trial_type":"html-button-response","trial_index":114,"time_elapsed":2329550,"internal_node_id":"0.0-4.0-1.51","subject_id":"602d29200724e36ae7a9def2","study_id":"6197b3f67c2b5cd3b6d9596a","session_id":"619be588c629f0d0caefe556","condition":"full-information","relevant_dimensions":["wings","pattern"],"bee_group":{"antennae":"X","wings":"2","pattern":"D","legs":"X"},"bonus":1.1200000000000008},{"rt":14553.300000000745,"stimulus":"bees-with-color/bee-A1SM.svg","response":0,"trial_type":"image-button-response","trial_index":115,"time_elapsed":2344106,"internal_node_id":"0.0-4.0-0.52","subject_id":"602d29200724e36ae7a9def2","study_id":"6197b3f67c2b5cd3b6d9596a","session_id":"619be588c629f0d0caefe556","condition":"full-information","relevant_dimensions":["wings","pattern"],"bee_group":{"antennae":"X","wings":"2","pattern":"D","legs":"X"},"action":"harvest","summary":"good-harvest","bonus":1.1200000000000008},{"rt":14956.5,"stimulus":"\n                    <p><b>Action: <em>harvest</em></b></p>\n                    <p>This is the bee that you just saw.</p>\n                    <img src=\"bees-with-color/bee-A1SM.svg\" width=\"200\">\n                    <p><span class=\"greenText\"><b>Successful harvest!</b></span><br>Your pay has increased by $0.02. Your bonus pay is now $0.46.</p>\n            ","response":0,"trial_type":"html-button-response","trial_index":116,"time_elapsed":2359066,"internal_node_id":"0.0-4.0-1.52","subject_id":"602d29200724e36ae7a9def2","study_id":"6197b3f67c2b5cd3b6d9596a","session_id":"619be588c629f0d0caefe556","condition":"full-information","relevant_dimensions":["wings","pattern"],"bee_group":{"antennae":"X","wings":"2","pattern":"D","legs":"X"},"bonus":1.1200000000000008},{"rt":12891.199999999255,"stimulus":"bees-with-color/bee-A2SF.svg","response":0,"trial_type":"image-button-response","trial_index":117,"time_elapsed":2371958,"internal_node_id":"0.0-4.0-0.53","subject_id":"602d29200724e36ae7a9def2","study_id":"6197b3f67c2b5cd3b6d9596a","session_id":"619be588c629f0d0caefe556","condition":"full-information","relevant_dimensions":["wings","pattern"],"bee_group":{"antennae":"X","wings":"2","pattern":"D","legs":"X"},"action":"harvest","summary":"good-harvest","bonus":1.1200000000000008},{"rt":1896.0999999977648,"stimulus":"\n                    <p><b>Action: <em>harvest</em></b></p>\n                    <p>This is the bee that you just saw.</p>\n                    <img src=\"bees-with-color/bee-A2SF.svg\" width=\"200\">\n                    <p><span class=\"greenText\"><b>Successful harvest!</b></span><br>Your pay has increased by $0.02. Your bonus pay is now $0.48.</p>\n            ","response":0,"trial_type":"html-button-response","trial_index":118,"time_elapsed":2373856,"internal_node_id":"0.0-4.0-1.53","subject_id":"602d29200724e36ae7a9def2","study_id":"6197b3f67c2b5cd3b6d9596a","session_id":"619be588c629f0d0caefe556","condition":"full-information","relevant_dimensions":["wings","pattern"],"bee_group":{"antennae":"X","wings":"2","pattern":"D","legs":"X"},"bonus":1.1200000000000008},{"rt":16245,"stimulus":"bees-with-color/bee-B2SM.svg","response":0,"trial_type":"image-button-response","trial_index":119,"time_elapsed":2390103,"internal_node_id":"0.0-4.0-0.54","subject_id":"602d29200724e36ae7a9def2","study_id":"6197b3f67c2b5cd3b6d9596a","session_id":"619be588c629f0d0caefe556","condition":"full-information","relevant_dimensions":["wings","pattern"],"bee_group":{"antennae":"X","wings":"2","pattern":"D","legs":"X"},"action":"harvest","summary":"good-harvest","bonus":1.1200000000000008},{"rt":1559,"stimulus":"\n                    <p><b>Action: <em>harvest</em></b></p>\n                    <p>This is the bee that you just saw.</p>\n                    <img src=\"bees-with-color/bee-B2SM.svg\" width=\"200\">\n                    <p><span class=\"greenText\"><b>Successful harvest!</b></span><br>Your pay has increased by $0.02. Your bonus pay is now $0.50.</p>\n            ","response":0,"trial_type":"html-button-response","trial_index":120,"time_elapsed":2391664,"internal_node_id":"0.0-4.0-1.54","subject_id":"602d29200724e36ae7a9def2","study_id":"6197b3f67c2b5cd3b6d9596a","session_id":"619be588c629f0d0caefe556","condition":"full-information","relevant_dimensions":["wings","pattern"],"bee_group":{"antennae":"X","wings":"2","pattern":"D","legs":"X"},"bonus":1.1200000000000008},{"rt":16121.5,"stimulus":"bees-with-color/bee-B1SM.svg","response":0,"trial_type":"image-button-response","trial_index":121,"time_elapsed":2407787,"internal_node_id":"0.0-4.0-0.55","subject_id":"602d29200724e36ae7a9def2","study_id":"6197b3f67c2b5cd3b6d9596a","session_id":"619be588c629f0d0caefe556","condition":"full-information","relevant_dimensions":["wings","pattern"],"bee_group":{"antennae":"X","wings":"2","pattern":"D","legs":"X"},"action":"harvest","summary":"good-harvest","bonus":1.1200000000000008},{"rt":3477.099999997765,"stimulus":"\n                    <p><b>Action: <em>harvest</em></b></p>\n                    <p>This is the bee that you just saw.</p>\n                    <img src=\"bees-with-color/bee-B1SM.svg\" width=\"200\">\n                    <p><span class=\"greenText\"><b>Successful harvest!</b></span><br>Your pay has increased by $0.02. Your bonus pay is now $0.52.</p>\n            ","response":0,"trial_type":"html-button-response","trial_index":122,"time_elapsed":2411266,"internal_node_id":"0.0-4.0-1.55","subject_id":"602d29200724e36ae7a9def2","study_id":"6197b3f67c2b5cd3b6d9596a","session_id":"619be588c629f0d0caefe556","condition":"full-information","relevant_dimensions":["wings","pattern"],"bee_group":{"antennae":"X","wings":"2","pattern":"D","legs":"X"},"bonus":1.1200000000000008},{"rt":20834.39999999851,"stimulus":"bees-with-color/bee-B1DM.svg","response":0,"trial_type":"image-button-response","trial_index":123,"time_elapsed":2432102,"internal_node_id":"0.0-4.0-0.56","subject_id":"602d29200724e36ae7a9def2","study_id":"6197b3f67c2b5cd3b6d9596a","session_id":"619be588c629f0d0caefe556","condition":"full-information","relevant_dimensions":["wings","pattern"],"bee_group":{"antennae":"X","wings":"2","pattern":"D","legs":"X"},"action":"harvest","summary":"good-harvest","bonus":1.1200000000000008},{"rt":9738.400000002235,"stimulus":"\n                    <p><b>Action: <em>harvest</em></b></p>\n                    <p>This is the bee that you just saw.</p>\n                    <img src=\"bees-with-color/bee-B1DM.svg\" width=\"200\">\n                    <p><span class=\"greenText\"><b>Successful harvest!</b></span><br>Your pay has increased by $0.02. Your bonus pay is now $0.54.</p>\n            ","response":0,"trial_type":"html-button-response","trial_index":124,"time_elapsed":2441843,"internal_node_id":"0.0-4.0-1.56","subject_id":"602d29200724e36ae7a9def2","study_id":"6197b3f67c2b5cd3b6d9596a","session_id":"619be588c629f0d0caefe556","condition":"full-information","relevant_dimensions":["wings","pattern"],"bee_group":{"antennae":"X","wings":"2","pattern":"D","legs":"X"},"bonus":1.1200000000000008},{"rt":13881.89999999851,"stimulus":"bees-with-color/bee-B1SF.svg","response":0,"trial_type":"image-button-response","trial_index":125,"time_elapsed":2455726,"internal_node_id":"0.0-4.0-0.57","subject_id":"602d29200724e36ae7a9def2","study_id":"6197b3f67c2b5cd3b6d9596a","session_id":"619be588c629f0d0caefe556","condition":"full-information","relevant_dimensions":["wings","pattern"],"bee_group":{"antennae":"X","wings":"2","pattern":"D","legs":"X"},"action":"harvest","summary":"good-harvest","bonus":1.1200000000000008},{"rt":1733.5,"stimulus":"\n                    <p><b>Action: <em>harvest</em></b></p>\n                    <p>This is the bee that you just saw.</p>\n                    <img src=\"bees-with-color/bee-B1SF.svg\" width=\"200\">\n                    <p><span class=\"greenText\"><b>Successful harvest!</b></span><br>Your pay has increased by $0.02. Your bonus pay is now $0.56.</p>\n            ","response":0,"trial_type":"html-button-response","trial_index":126,"time_elapsed":2457461,"internal_node_id":"0.0-4.0-1.57","subject_id":"602d29200724e36ae7a9def2","study_id":"6197b3f67c2b5cd3b6d9596a","session_id":"619be588c629f0d0caefe556","condition":"full-information","relevant_dimensions":["wings","pattern"],"bee_group":{"antennae":"X","wings":"2","pattern":"D","legs":"X"},"bonus":1.1200000000000008},{"rt":26441.5,"stimulus":"bees-with-color/bee-B2DM.svg","response":1,"trial_type":"image-button-response","trial_index":127,"time_elapsed":2483904,"internal_node_id":"0.0-4.0-0.58","subject_id":"602d29200724e36ae7a9def2","study_id":"6197b3f67c2b5cd3b6d9596a","session_id":"619be588c629f0d0caefe556","condition":"full-information","relevant_dimensions":["wings","pattern"],"bee_group":{"antennae":"X","wings":"2","pattern":"D","legs":"X"},"action":"avoid","summary":"good-avoid","bonus":1.1200000000000008},{"rt":1505,"stimulus":"\n                    <p><b>Action: <em>avoid</em></b></p>\n                    <p>This is the bee that you just saw.</p>\n                    <img src=\"bees-with-color/bee-B2DM.svg\" width=\"200\">\n                    <p><span class=\"greenText\">Good choice!</span>  This bee would have stung you.<br>Your bonus pay is unchanged, and remains at $0.56.</p>\n            ","response":0,"trial_type":"html-button-response","trial_index":128,"time_elapsed":2485410,"internal_node_id":"0.0-4.0-1.58","subject_id":"602d29200724e36ae7a9def2","study_id":"6197b3f67c2b5cd3b6d9596a","session_id":"619be588c629f0d0caefe556","condition":"full-information","relevant_dimensions":["wings","pattern"],"bee_group":{"antennae":"X","wings":"2","pattern":"D","legs":"X"},"bonus":1.1200000000000008},{"rt":23912.5,"stimulus":"bees-with-color/bee-B1DF.svg","response":0,"trial_type":"image-button-response","trial_index":129,"time_elapsed":2509325,"internal_node_id":"0.0-4.0-0.59","subject_id":"602d29200724e36ae7a9def2","study_id":"6197b3f67c2b5cd3b6d9596a","session_id":"619be588c629f0d0caefe556","condition":"full-information","relevant_dimensions":["wings","pattern"],"bee_group":{"antennae":"X","wings":"2","pattern":"D","legs":"X"},"action":"harvest","summary":"good-harvest","bonus":1.1200000000000008},{"rt":1958.199999999255,"stimulus":"\n                    <p><b>Action: <em>harvest</em></b></p>\n                    <p>This is the bee that you just saw.</p>\n                    <img src=\"bees-with-color/bee-B1DF.svg\" width=\"200\">\n                    <p><span class=\"greenText\"><b>Successful harvest!</b></span><br>Your pay has increased by $0.02. Your bonus pay is now $0.58.</p>\n            ","response":0,"trial_type":"html-button-response","trial_index":130,"time_elapsed":2511284,"internal_node_id":"0.0-4.0-1.59","subject_id":"602d29200724e36ae7a9def2","study_id":"6197b3f67c2b5cd3b6d9596a","session_id":"619be588c629f0d0caefe556","condition":"full-information","relevant_dimensions":["wings","pattern"],"bee_group":{"antennae":"X","wings":"2","pattern":"D","legs":"X"},"bonus":1.1200000000000008},{"rt":27146.5,"stimulus":"bees-with-color/bee-B2SF.svg","response":0,"trial_type":"image-button-response","trial_index":131,"time_elapsed":2538432,"internal_node_id":"0.0-4.0-0.60","subject_id":"602d29200724e36ae7a9def2","study_id":"6197b3f67c2b5cd3b6d9596a","session_id":"619be588c629f0d0caefe556","condition":"full-information","relevant_dimensions":["wings","pattern"],"bee_group":{"antennae":"X","wings":"2","pattern":"D","legs":"X"},"action":"harvest","summary":"good-harvest","bonus":1.1200000000000008},{"rt":1786.199999999255,"stimulus":"\n                    <p><b>Action: <em>harvest</em></b></p>\n                    <p>This is the bee that you just saw.</p>\n                    <img src=\"bees-with-color/bee-B2SF.svg\" width=\"200\">\n                    <p><span class=\"greenText\"><b>Successful harvest!</b></span><br>Your pay has increased by $0.02. Your bonus pay is now $0.60.</p>\n            ","response":0,"trial_type":"html-button-response","trial_index":132,"time_elapsed":2540220,"internal_node_id":"0.0-4.0-1.60","subject_id":"602d29200724e36ae7a9def2","study_id":"6197b3f67c2b5cd3b6d9596a","session_id":"619be588c629f0d0caefe556","condition":"full-information","relevant_dimensions":["wings","pattern"],"bee_group":{"antennae":"X","wings":"2","pattern":"D","legs":"X"},"bonus":1.1200000000000008},{"rt":24973.300000000745,"stimulus":"bees-with-color/bee-A1SF.svg","response":0,"trial_type":"image-button-response","trial_index":133,"time_elapsed":2565195,"internal_node_id":"0.0-4.0-0.61","subject_id":"602d29200724e36ae7a9def2","study_id":"6197b3f67c2b5cd3b6d9596a","session_id":"619be588c629f0d0caefe556","condition":"full-information","relevant_dimensions":["wings","pattern"],"bee_group":{"antennae":"X","wings":"2","pattern":"D","legs":"X"},"action":"harvest","summary":"good-harvest","bonus":1.1200000000000008},{"rt":1727.3999999985099,"stimulus":"\n                    <p><b>Action: <em>harvest</em></b></p>\n                    <p>This is the bee that you just saw.</p>\n                    <img src=\"bees-with-color/bee-A1SF.svg\" width=\"200\">\n                    <p><span class=\"greenText\"><b>Successful harvest!</b></span><br>Your pay has increased by $0.02. Your bonus pay is now $0.62.</p>\n            ","response":0,"trial_type":"html-button-response","trial_index":134,"time_elapsed":2566924,"internal_node_id":"0.0-4.0-1.61","subject_id":"602d29200724e36ae7a9def2","study_id":"6197b3f67c2b5cd3b6d9596a","session_id":"619be588c629f0d0caefe556","condition":"full-information","relevant_dimensions":["wings","pattern"],"bee_group":{"antennae":"X","wings":"2","pattern":"D","legs":"X"},"bonus":1.1200000000000008},{"rt":26148.800000000745,"stimulus":"bees-with-color/bee-A1DF.svg","response":0,"trial_type":"image-button-response","trial_index":135,"time_elapsed":2593074,"internal_node_id":"0.0-4.0-0.62","subject_id":"602d29200724e36ae7a9def2","study_id":"6197b3f67c2b5cd3b6d9596a","session_id":"619be588c629f0d0caefe556","condition":"full-information","relevant_dimensions":["wings","pattern"],"bee_group":{"antennae":"X","wings":"2","pattern":"D","legs":"X"},"action":"harvest","summary":"good-harvest","bonus":1.1200000000000008},{"rt":2797.800000000745,"stimulus":"\n                    <p><b>Action: <em>harvest</em></b></p>\n                    <p>This is the bee that you just saw.</p>\n                    <img src=\"bees-with-color/bee-A1DF.svg\" width=\"200\">\n                    <p><span class=\"greenText\"><b>Successful harvest!</b></span><br>Your pay has increased by $0.02. Your bonus pay is now $0.64.</p>\n            ","response":0,"trial_type":"html-button-response","trial_index":136,"time_elapsed":2595874,"internal_node_id":"0.0-4.0-1.62","subject_id":"602d29200724e36ae7a9def2","study_id":"6197b3f67c2b5cd3b6d9596a","session_id":"619be588c629f0d0caefe556","condition":"full-information","relevant_dimensions":["wings","pattern"],"bee_group":{"antennae":"X","wings":"2","pattern":"D","legs":"X"},"bonus":1.1200000000000008},{"rt":17749,"stimulus":"bees-with-color/bee-B2DF.svg","response":1,"trial_type":"image-button-response","trial_index":137,"time_elapsed":2613624,"internal_node_id":"0.0-4.0-0.63","subject_id":"602d29200724e36ae7a9def2","study_id":"6197b3f67c2b5cd3b6d9596a","session_id":"619be588c629f0d0caefe556","condition":"full-information","relevant_dimensions":["wings","pattern"],"bee_group":{"antennae":"X","wings":"2","pattern":"D","legs":"X"},"action":"avoid","summary":"good-avoid","bonus":1.1200000000000008},{"rt":1672.300000000745,"stimulus":"\n                    <p><b>Action: <em>avoid</em></b></p>\n                    <p>This is the bee that you just saw.</p>\n                    <img src=\"bees-with-color/bee-B2DF.svg\" width=\"200\">\n                    <p><span class=\"greenText\">Good choice!</span>  This bee would have stung you.<br>Your bonus pay is unchanged, and remains at $0.64.</p>\n            ","response":0,"trial_type":"html-button-response","trial_index":138,"time_elapsed":2615298,"internal_node_id":"0.0-4.0-1.63","subject_id":"602d29200724e36ae7a9def2","study_id":"6197b3f67c2b5cd3b6d9596a","session_id":"619be588c629f0d0caefe556","condition":"full-information","relevant_dimensions":["wings","pattern"],"bee_group":{"antennae":"X","wings":"2","pattern":"D","legs":"X"},"bonus":1.1200000000000008},{"rt":12507.70000000298,"stimulus":"You have completed the first part of this experiment.<br><br>You will now begin a shorter second part, in which you will receive no feedback.<br>The same rules regarding bonus pay apply.<br><br>Press any key to begin.","response":" ","trial_type":"html-keyboard-response","trial_index":139,"time_elapsed":2627808,"internal_node_id":"0.0-5.0","subject_id":"602d29200724e36ae7a9def2","study_id":"6197b3f67c2b5cd3b6d9596a","session_id":"619be588c629f0d0caefe556","condition":"full-information","relevant_dimensions":["wings","pattern"],"bee_group":{"antennae":"X","wings":"2","pattern":"D","legs":"X"},"bonus":1.1200000000000008},{"rt":39877.300000000745,"stimulus":"bees-with-color/bee-B1SF.svg","response":0,"trial_type":"image-button-response","trial_index":140,"time_elapsed":2667695,"internal_node_id":"0.0-6.0-0.0","subject_id":"602d29200724e36ae7a9def2","study_id":"6197b3f67c2b5cd3b6d9596a","session_id":"619be588c629f0d0caefe556","condition":"full-information","relevant_dimensions":["wings","pattern"],"bee_group":{"antennae":"X","wings":"2","pattern":"D","legs":"X"},"bonus":1.1200000000000008},{"rt":20965.39999999851,"stimulus":"bees-with-color/bee-A2DM.svg","response":1,"trial_type":"image-button-response","trial_index":141,"time_elapsed":2688663,"internal_node_id":"0.0-6.0-0.1","subject_id":"602d29200724e36ae7a9def2","study_id":"6197b3f67c2b5cd3b6d9596a","session_id":"619be588c629f0d0caefe556","condition":"full-information","relevant_dimensions":["wings","pattern"],"bee_group":{"antennae":"X","wings":"2","pattern":"D","legs":"X"},"bonus":1.1200000000000008},{"rt":13460.699999999255,"stimulus":"bees-with-color/bee-B1SM.svg","response":0,"trial_type":"image-button-response","trial_index":142,"time_elapsed":2702126,"internal_node_id":"0.0-6.0-0.2","subject_id":"602d29200724e36ae7a9def2","study_id":"6197b3f67c2b5cd3b6d9596a","session_id":"619be588c629f0d0caefe556","condition":"full-information","relevant_dimensions":["wings","pattern"],"bee_group":{"antennae":"X","wings":"2","pattern":"D","legs":"X"},"bonus":1.1200000000000008},{"rt":23021.60000000149,"stimulus":"bees-with-color/bee-B2DF.svg","response":1,"trial_type":"image-button-response","trial_index":143,"time_elapsed":2725151,"internal_node_id":"0.0-6.0-0.3","subject_id":"602d29200724e36ae7a9def2","study_id":"6197b3f67c2b5cd3b6d9596a","session_id":"619be588c629f0d0caefe556","condition":"full-information","relevant_dimensions":["wings","pattern"],"bee_group":{"antennae":"X","wings":"2","pattern":"D","legs":"X"},"bonus":1.1200000000000008},{"rt":31277.20000000298,"stimulus":"bees-with-color/bee-A2SM.svg","response":0,"trial_type":"image-button-response","trial_index":144,"time_elapsed":2756431,"internal_node_id":"0.0-6.0-0.4","subject_id":"602d29200724e36ae7a9def2","study_id":"6197b3f67c2b5cd3b6d9596a","session_id":"619be588c629f0d0caefe556","condition":"full-information","relevant_dimensions":["wings","pattern"],"bee_group":{"antennae":"X","wings":"2","pattern":"D","legs":"X"},"bonus":1.1200000000000008},{"rt":16924.29999999702,"stimulus":"bees-with-color/bee-A1SM.svg","response":0,"trial_type":"image-button-response","trial_index":145,"time_elapsed":2773358,"internal_node_id":"0.0-6.0-0.5","subject_id":"602d29200724e36ae7a9def2","study_id":"6197b3f67c2b5cd3b6d9596a","session_id":"619be588c629f0d0caefe556","condition":"full-information","relevant_dimensions":["wings","pattern"],"bee_group":{"antennae":"X","wings":"2","pattern":"D","legs":"X"},"bonus":1.1200000000000008},{"rt":15929.39999999851,"stimulus":"bees-with-color/bee-B1DM.svg","response":0,"trial_type":"image-button-response","trial_index":146,"time_elapsed":2789291,"internal_node_id":"0.0-6.0-0.6","subject_id":"602d29200724e36ae7a9def2","study_id":"6197b3f67c2b5cd3b6d9596a","session_id":"619be588c629f0d0caefe556","condition":"full-information","relevant_dimensions":["wings","pattern"],"bee_group":{"antennae":"X","wings":"2","pattern":"D","legs":"X"},"bonus":1.1200000000000008},{"rt":14019.5,"stimulus":"bees-with-color/bee-A1DF.svg","response":0,"trial_type":"image-button-response","trial_index":147,"time_elapsed":2803312,"internal_node_id":"0.0-6.0-0.7","subject_id":"602d29200724e36ae7a9def2","study_id":"6197b3f67c2b5cd3b6d9596a","session_id":"619be588c629f0d0caefe556","condition":"full-information","relevant_dimensions":["wings","pattern"],"bee_group":{"antennae":"X","wings":"2","pattern":"D","legs":"X"},"bonus":1.1200000000000008},{"rt":15662,"stimulus":"bees-with-color/bee-B1DF.svg","response":0,"trial_type":"image-button-response","trial_index":148,"time_elapsed":2818976,"internal_node_id":"0.0-6.0-0.8","subject_id":"602d29200724e36ae7a9def2","study_id":"6197b3f67c2b5cd3b6d9596a","session_id":"619be588c629f0d0caefe556","condition":"full-information","relevant_dimensions":["wings","pattern"],"bee_group":{"antennae":"X","wings":"2","pattern":"D","legs":"X"},"bonus":1.1200000000000008},{"rt":14208.10000000149,"stimulus":"bees-with-color/bee-A2DF.svg","response":1,"trial_type":"image-button-response","trial_index":149,"time_elapsed":2833186,"internal_node_id":"0.0-6.0-0.9","subject_id":"602d29200724e36ae7a9def2","study_id":"6197b3f67c2b5cd3b6d9596a","session_id":"619be588c629f0d0caefe556","condition":"full-information","relevant_dimensions":["wings","pattern"],"bee_group":{"antennae":"X","wings":"2","pattern":"D","legs":"X"},"bonus":1.1200000000000008},{"rt":14784.39999999851,"stimulus":"bees-with-color/bee-A1DM.svg","response":0,"trial_type":"image-button-response","trial_index":150,"time_elapsed":2847973,"internal_node_id":"0.0-6.0-0.10","subject_id":"602d29200724e36ae7a9def2","study_id":"6197b3f67c2b5cd3b6d9596a","session_id":"619be588c629f0d0caefe556","condition":"full-information","relevant_dimensions":["wings","pattern"],"bee_group":{"antennae":"X","wings":"2","pattern":"D","legs":"X"},"bonus":1.1200000000000008},{"rt":21303.699999999255,"stimulus":"bees-with-color/bee-B2SF.svg","response":0,"trial_type":"image-button-response","trial_index":151,"time_elapsed":2869278,"internal_node_id":"0.0-6.0-0.11","subject_id":"602d29200724e36ae7a9def2","study_id":"6197b3f67c2b5cd3b6d9596a","session_id":"619be588c629f0d0caefe556","condition":"full-information","relevant_dimensions":["wings","pattern"],"bee_group":{"antennae":"X","wings":"2","pattern":"D","legs":"X"},"bonus":1.1200000000000008},{"rt":24065.300000000745,"stimulus":"bees-with-color/bee-A1SF.svg","response":0,"trial_type":"image-button-response","trial_index":152,"time_elapsed":2893346,"internal_node_id":"0.0-6.0-0.12","subject_id":"602d29200724e36ae7a9def2","study_id":"6197b3f67c2b5cd3b6d9596a","session_id":"619be588c629f0d0caefe556","condition":"full-information","relevant_dimensions":["wings","pattern"],"bee_group":{"antennae":"X","wings":"2","pattern":"D","legs":"X"},"bonus":1.1200000000000008},{"rt":13566.10000000149,"stimulus":"bees-with-color/bee-B2DM.svg","response":1,"trial_type":"image-button-response","trial_index":153,"time_elapsed":2906915,"internal_node_id":"0.0-6.0-0.13","subject_id":"602d29200724e36ae7a9def2","study_id":"6197b3f67c2b5cd3b6d9596a","session_id":"619be588c629f0d0caefe556","condition":"full-information","relevant_dimensions":["wings","pattern"],"bee_group":{"antennae":"X","wings":"2","pattern":"D","legs":"X"},"bonus":1.1200000000000008},{"rt":12290.39999999851,"stimulus":"bees-with-color/bee-B2SM.svg","response":0,"trial_type":"image-button-response","trial_index":154,"time_elapsed":2919207,"internal_node_id":"0.0-6.0-0.14","subject_id":"602d29200724e36ae7a9def2","study_id":"6197b3f67c2b5cd3b6d9596a","session_id":"619be588c629f0d0caefe556","condition":"full-information","relevant_dimensions":["wings","pattern"],"bee_group":{"antennae":"X","wings":"2","pattern":"D","legs":"X"},"bon