[{"success":true,"trial_type":"fullscreen","trial_index":0,"time_elapsed":232328,"internal_node_id":"0.0-0.0","subject_id":"5f2eb919a638c92463503542","study_id":"6197b3f67c2b5cd3b6d9596a","session_id":"619beefc57904b8c099c8cd3","condition":"contingent","relevant_dimensions":["wings","legs"],"bee_group":{"antennae":"X","wings":"2","pattern":"X","legs":"M"},"bonus":0.42000000000000054},{"success":true,"timeout":false,"failed_images":[],"failed_audio":[],"failed_video":[],"trial_type":"preload","trial_index":1,"time_elapsed":234602,"internal_node_id":"0.0-1.0","subject_id":"5f2eb919a638c92463503542","study_id":"6197b3f67c2b5cd3b6d9596a","session_id":"619beefc57904b8c099c8cd3","condition":"contingent","relevant_dimensions":["wings","legs"],"bee_group":{"antennae":"X","wings":"2","pattern":"X","legs":"M"},"bonus":0.42000000000000054},{"rt":1429.5,"stimulus":"Welcome! Press any key to begin.","response":" ","trial_type":"html-keyboard-response","trial_index":2,"time_elapsed":236033,"internal_node_id":"0.0-2.0","subject_id":"5f2eb919a638c92463503542","study_id":"6197b3f67c2b5cd3b6d9596a","session_id":"619beefc57904b8c099c8cd3","condition":"contingent","relevant_dimensions":["wings","legs"],"bee_group":{"antennae":"X","wings":"2","pattern":"X","legs":"M"},"bonus":0.42000000000000054},{"view_history":[{"page_index":0,"viewing_time":8473.5},{"page_index":1,"viewing_time":17392.100000023842},{"page_index":2,"viewing_time":16247.600000023842},{"page_index":3,"viewing_time":44264.60000002384},{"page_index":4,"viewing_time":35575.299999952316},{"page_index":5,"viewing_time":8048.200000047684},{"page_index":6,"viewing_time":11791.699999928474},{"page_index":7,"viewing_time":10632.300000071526},{"page_index":8,"viewing_time":5856.799999952316},{"page_index":9,"viewing_time":7647.399999976158},{"page_index":10,"viewing_time":6687.700000047684},{"page_index":11,"viewing_time":75768},{"page_index":12,"viewing_time":34056.10000002384},{"page_index":13,"viewing_time":1431.8999999761581},{"page_index":14,"viewing_time":3416.2999999523163}],"rt":287289.8000000715,"trial_type":"instructions","trial_index":3,"time_elapsed":523326,"internal_node_id":"0.0-3.0-0.0","subject_id":"5f2eb919a638c92463503542","study_id":"6197b3f67c2b5cd3b6d9596a","session_id":"619beefc57904b8c099c8cd3","condition":"contingent","relevant_dimensions":["wings","legs"],"bee_group":{"antennae":"X","wings":"2","pattern":"X","legs":"M"},"bonus":0.42000000000000054},{"rt":17140,"response":{"Q0":["Two or six legs","Stripes or spots on body","Single or double wings","Antennae or no antennae"]},"question_order":[0],"trial_type":"survey-multi-select","trial_index":4,"time_elapsed":540470,"internal_node_id":"0.0-3.0-1.0","subject_id":"5f2eb919a638c92463503542","study_id":"6197b3f67c2b5cd3b6d9596a","session_id":"619beefc57904b8c099c8cd3","condition":"contingent","relevant_dimensions":["wings","legs"],"bee_group":{"antennae":"X","wings":"2","pattern":"X","legs":"M"},"correct":true,"bonus":0.42000000000000054},{"rt":39471,"response":{"Q1":"No.","Q2":"Based on the four features of the bee.","Q3":"You do not learn if it was friendly or dangerous, and do not alter your bonus."},"question_order":[0,1,2],"trial_type":"survey-multi-choice","trial_index":5,"time_elapsed":579943,"internal_node_id":"0.0-3.0-2.0","subject_id":"5f2eb919a638c92463503542","study_id":"6197b3f67c2b5cd3b6d9596a","session_id":"619beefc57904b8c099c8cd3","condition":"contingent","relevant_dimensions":["wings","legs"],"bee_group":{"antennae":"X","wings":"2","pattern":"X","legs":"M"},"correct":true,"bonus":0.42000000000000054},{"rt":4220.700000047684,"stimulus":"<p>Congrats, you got everything right<br>When you're ready, click the button below to continue to the experiment.</p>","response":0,"trial_type":"html-button-response","trial_index":6,"time_elapsed":584166,"internal_node_id":"0.0-3.0-3.0","subject_id":"5f2eb919a638c92463503542","study_id":"6197b3f67c2b5cd3b6d9596a","session_id":"619beefc57904b8c099c8cd3","condition":"contingent","relevant_dimensions":["wings","legs"],"bee_group":{"antennae":"X","wings":"2","pattern":"X","legs":"M"},"bonus":0.42000000000000054},{"rt":4725.700000047684,"stimulus":"bees-with-color/bee-B1DF.svg","response":1,"trial_type":"image-button-response","trial_index":7,"time_elapsed":588894,"internal_node_id":"0.0-4.0-0.0","subject_id":"5f2eb919a638c92463503542","study_id":"6197b3f67c2b5cd3b6d9596a","session_id":"619beefc57904b8c099c8cd3","condition":"contingent","relevant_dimensions":["wings","legs"],"bee_group":{"antennae":"X","wings":"2","pattern":"X","legs":"M"},"action":"avoid","summary":"bad-avoid","bonus":0.42000000000000054},{"rt":12020.700000047684,"stimulus":"\n                    <p><b>Action: <em>avoid</em></b></p>\n                    <p>This is the bee that you just saw.</p>\n                    <img src=\"bees-with-color/bee-B1DF.svg\" width=\"200\">\n                    <p><br>Your bonus pay is unchanged, and remains at $0.54.</p>\n            ","response":0,"trial_type":"html-button-response","trial_index":8,"time_elapsed":600918,"internal_node_id":"0.0-4.0-1.0","subject_id":"5f2eb919a638c92463503542","study_id":"6197b3f67c2b5cd3b6d9596a","session_id":"619beefc57904b8c099c8cd3","condition":"contingent","relevant_dimensions":["wings","legs"],"bee_group":{"antennae":"X","wings":"2","pattern":"X","legs":"M"},"bonus":0.42000000000000054},{"rt":3014.2999999523163,"stimulus":"bees-with-color/bee-B1DM.svg","response":0,"trial_type":"image-button-response","trial_index":9,"time_elapsed":603934,"internal_node_id":"0.0-4.0-0.1","subject_id":"5f2eb919a638c92463503542","study_id":"6197b3f67c2b5cd3b6d9596a","session_id":"619beefc57904b8c099c8cd3","condition":"contingent","relevant_dimensions":["wings","legs"],"bee_group":{"antennae":"X","wings":"2","pattern":"X","legs":"M"},"action":"harvest","summary":"good-harvest","bonus":0.42000000000000054},{"rt":4349.900000095367,"stimulus":"\n                    <p><b>Action: <em>harvest</em></b></p>\n                    <p>This is the bee that you just saw.</p>\n                    <img src=\"bees-with-color/bee-B1DM.svg\" width=\"200\">\n                    <p><span class=\"greenText\"><b>Successful harvest!</b></span><br>Your pay has increased by $0.02. Your bonus pay is now $0.56.</p>\n            ","response":0,"trial_type":"html-button-response","trial_index":10,"time_elapsed":608285,"internal_node_id":"0.0-4.0-1.1","subject_id":"5f2eb919a638c92463503542","study_id":"6197b3f67c2b5cd3b6d9596a","session_id":"619beefc57904b8c099c8cd3","condition":"contingent","relevant_dimensions":["wings","legs"],"bee_group":{"antennae":"X","wings":"2","pattern":"X","legs":"M"},"bonus":0.42000000000000054},{"rt":3573.899999976158,"stimulus":"bees-with-color/bee-B2DF.svg","response":0,"trial_type":"image-button-response","trial_index":11,"time_elapsed":611861,"internal_node_id":"0.0-4.0-0.2","subject_id":"5f2eb919a638c92463503542","study_id":"6197b3f67c2b5cd3b6d9596a","session_id":"619beefc57904b8c099c8cd3","condition":"contingent","relevant_dimensions":["wings","legs"],"bee_group":{"antennae":"X","wings":"2","pattern":"X","legs":"M"},"action":"harvest","summary":"good-harvest","bonus":0.42000000000000054},{"rt":2966.5,"stimulus":"\n                    <p><b>Action: <em>harvest</em></b></p>\n                    <p>This is the bee that you just saw.</p>\n                    <img src=\"bees-with-color/bee-B2DF.svg\" width=\"200\">\n                    <p><span class=\"greenText\"><b>Successful harvest!</b></span><br>Your pay has increased by $0.02. Your bonus pay is now $0.58.</p>\n            ","response":0,"trial_type":"html-button-response","trial_index":12,"time_elapsed":614829,"internal_node_id":"0.0-4.0-1.2","subject_id":"5f2eb919a638c92463503542","study_id":"6197b3f67c2b5cd3b6d9596a","session_id":"619beefc57904b8c099c8cd3","condition":"contingent","relevant_dimensions":["wings","legs"],"bee_group":{"antennae":"X","wings":"2","pattern":"X","legs":"M"},"bonus":0.42000000000000054},{"rt":2174.399999976158,"stimulus":"bees-with-color/bee-B1SM.svg","response":1,"trial_type":"image-button-response","trial_index":13,"time_elapsed":617005,"internal_node_id":"0.0-4.0-0.3","subject_id":"5f2eb919a638c92463503542","study_id":"6197b3f67c2b5cd3b6d9596a","session_id":"619beefc57904b8c099c8cd3","condition":"contingent","relevant_dimensions":["wings","legs"],"bee_group":{"antennae":"X","wings":"2","pattern":"X","legs":"M"},"action":"avoid","summary":"bad-avoid","bonus":0.42000000000000054},{"rt":3831.1999999284744,"stimulus":"\n                    <p><b>Action: <em>avoid</em></b></p>\n                    <p>This is the bee that you just saw.</p>\n                    <img src=\"bees-with-color/bee-B1SM.svg\" width=\"200\">\n                    <p><br>Your bonus pay is unchanged, and remains at $0.58.</p>\n            ","response":0,"trial_type":"html-button-response","trial_index":14,"time_elapsed":620838,"internal_node_id":"0.0-4.0-1.3","subject_id":"5f2eb919a638c92463503542","study_id":"6197b3f67c2b5cd3b6d9596a","session_id":"619beefc57904b8c099c8cd3","condition":"contingent","relevant_dimensions":["wings","legs"],"bee_group":{"antennae":"X","wings":"2","pattern":"X","legs":"M"},"bonus":0.42000000000000054},{"rt":2982.100000023842,"stimulus":"bees-with-color/bee-B2SM.svg","response":1,"trial_type":"image-button-response","trial_index":15,"time_elapsed":623821,"internal_node_id":"0.0-4.0-0.4","subject_id":"5f2eb919a638c92463503542","study_id":"6197b3f67c2b5cd3b6d9596a","session_id":"619beefc57904b8c099c8cd3","condition":"contingent","relevant_dimensions":["wings","legs"],"bee_group":{"antennae":"X","wings":"2","pattern":"X","legs":"M"},"action":"avoid","summary":"good-avoid","bonus":0.42000000000000054},{"rt":1735.5,"stimulus":"\n                    <p><b>Action: <em>avoid</em></b></p>\n                    <p>This is the bee that you just saw.</p>\n                    <img src=\"bees-with-color/bee-B2SM.svg\" width=\"200\">\n                    <p><br>Your bonus pay is unchanged, and remains at $0.58.</p>\n            ","response":0,"trial_type":"html-button-response","trial_index":16,"time_elapsed":625558,"internal_node_id":"0.0-4.0-1.4","subject_id":"5f2eb919a638c92463503542","study_id":"6197b3f67c2b5cd3b6d9596a","session_id":"619beefc57904b8c099c8cd3","condition":"contingent","relevant_dimensions":["wings","legs"],"bee_group":{"antennae":"X","wings":"2","pattern":"X","legs":"M"},"bonus":0.42000000000000054},{"rt":3989.7999999523163,"stimulus":"bees-with-color/bee-B2SF.svg","response":0,"trial_type":"image-button-response","trial_index":17,"time_elapsed":629549,"internal_node_id":"0.0-4.0-0.5","subject_id":"5f2eb919a638c92463503542","study_id":"6197b3f67c2b5cd3b6d9596a","session_id":"619beefc57904b8c099c8cd3","condition":"contingent","relevant_dimensions":["wings","legs"],"bee_group":{"antennae":"X","wings":"2","pattern":"X","legs":"M"},"action":"harvest","summary":"good-harvest","bonus":0.42000000000000054},{"rt":1326.7000000476837,"stimulus":"\n                    <p><b>Action: <em>harvest</em></b></p>\n                    <p>This is the bee that you just saw.</p>\n                    <img src=\"bees-with-color/bee-B2SF.svg\" width=\"200\">\n                    <p><span class=\"greenText\"><b>Successful harvest!</b></span><br>Your pay has increased by $0.02. Your bonus pay is now $0.60.</p>\n            ","response":0,"trial_type":"html-button-response","trial_index":18,"time_elapsed":630877,"internal_node_id":"0.0-4.0-1.5","subject_id":"5f2eb919a638c92463503542","study_id":"6197b3f67c2b5cd3b6d9596a","session_id":"619beefc57904b8c099c8cd3","condition":"contingent","relevant_dimensions":["wings","legs"],"bee_group":{"antennae":"X","wings":"2","pattern":"X","legs":"M"},"bonus":0.42000000000000054},{"rt":2142.4000000953674,"stimulus":"bees-with-color/bee-B2DM.svg","response":0,"trial_type":"image-button-response","trial_index":19,"time_elapsed":633022,"internal_node_id":"0.0-4.0-0.6","subject_id":"5f2eb919a638c92463503542","study_id":"6197b3f67c2b5cd3b6d9596a","session_id":"619beefc57904b8c099c8cd3","condition":"contingent","relevant_dimensions":["wings","legs"],"bee_group":{"antennae":"X","wings":"2","pattern":"X","legs":"M"},"action":"harvest","summary":"bad-harvest","bonus":0.42000000000000054},{"rt":4629.700000047684,"stimulus":"\n                    <p><b>Action: <em>harvest</em></b></p>\n                    <p>This is the bee that you just saw.</p>\n                    <img src=\"bees-with-color/bee-B2DM.svg\" width=\"200\">\n                    <p><span class=\"redText\">Bad choice, the bee was angry.</span><br><b>You have been stung!</b><br>Your pay has been decreased by $0.10. Your bonus pay is now $0.50.</p>\n            ","response":0,"trial_type":"html-button-response","trial_index":20,"time_elapsed":637653,"internal_node_id":"0.0-4.0-1.6","subject_id":"5f2eb919a638c92463503542","study_id":"6197b3f67c2b5cd3b6d9596a","session_id":"619beefc57904b8c099c8cd3","condition":"contingent","relevant_dimensions":["wings","legs"],"bee_group":{"antennae":"X","wings":"2","pattern":"X","legs":"M"},"bonus":0.42000000000000054},{"rt":2902.5,"stimulus":"bees-with-color/bee-A1DF.svg","response":1,"trial_type":"image-button-response","trial_index":21,"time_elapsed":640558,"internal_node_id":"0.0-4.0-0.7","subject_id":"5f2eb919a638c92463503542","study_id":"6197b3f67c2b5cd3b6d9596a","session_id":"619beefc57904b8c099c8cd3","condition":"contingent","relevant_dimensions":["wings","legs"],"bee_group":{"antennae":"X","wings":"2","pattern":"X","legs":"M"},"action":"avoid","summary":"bad-avoid","bonus":0.42000000000000054},{"rt":1342.7000000476837,"stimulus":"\n                    <p><b>Action: <em>avoid</em></b></p>\n                    <p>This is the bee that you just saw.</p>\n                    <img src=\"bees-with-color/bee-A1DF.svg\" width=\"200\">\n                    <p><br>Your bonus pay is unchanged, and remains at $0.50.</p>\n            ","response":0,"trial_type":"html-button-response","trial_index":22,"time_elapsed":641902,"internal_node_id":"0.0-4.0-1.7","subject_id":"5f2eb919a638c92463503542","study_id":"6197b3f67c2b5cd3b6d9596a","session_id":"619beefc57904b8c099c8cd3","condition":"contingent","relevant_dimensions":["wings","legs"],"bee_group":{"antennae":"X","wings":"2","pattern":"X","legs":"M"},"bonus":0.42000000000000054},{"rt":2005.6999999284744,"stimulus":"bees-with-color/bee-B1SF.svg","response":1,"trial_type":"image-button-response","trial_index":23,"time_elapsed":643909,"internal_node_id":"0.0-4.0-0.8","subject_id":"5f2eb919a638c92463503542","study_id":"6197b3f67c2b5cd3b6d9596a","session_id":"619beefc57904b8c099c8cd3","condition":"contingent","relevant_dimensions":["wings","legs"],"bee_group":{"antennae":"X","wings":"2","pattern":"X","legs":"M"},"action":"avoid","summary":"bad-avoid","bonus":0.42000000000000054},{"rt":1223,"stimulus":"\n                    <p><b>Action: <em>avoid</em></b></p>\n                    <p>This is the bee that you just saw.</p>\n                    <img src=\"bees-with-color/bee-B1SF.svg\" width=\"200\">\n                    <p><br>Your bonus pay is unchanged, and remains at $0.50.</p>\n            ","response":0,"trial_type":"html-button-response","trial_index":24,"time_elapsed":645133,"internal_node_id":"0.0-4.0-1.8","subject_id":"5f2eb919a638c92463503542","study_id":"6197b3f67c2b5cd3b6d9596a","session_id":"619beefc57904b8c099c8cd3","condition":"contingent","relevant_dimensions":["wings","legs"],"bee_group":{"antennae":"X","wings":"2","pattern":"X","legs":"M"},"bonus":0.42000000000000054},{"rt":1998.7000000476837,"stimulus":"bees-with-color/bee-A1DM.svg","response":0,"trial_type":"image-button-response","trial_index":25,"time_elapsed":647133,"internal_node_id":"0.0-4.0-0.9","subject_id":"5f2eb919a638c92463503542","study_id":"6197b3f67c2b5cd3b6d9596a","session_id":"619beefc57904b8c099c8cd3","condition":"contingent","relevant_dimensions":["wings","legs"],"bee_group":{"antennae":"X","wings":"2","pattern":"X","legs":"M"},"action":"harvest","summary":"good-harvest","bonus":0.42000000000000054},{"rt":966.3999999761581,"stimulus":"\n                    <p><b>Action: <em>harvest</em></b></p>\n                    <p>This is the bee that you just saw.</p>\n                    <img src=\"bees-with-color/bee-A1DM.svg\" width=\"200\">\n                    <p><span class=\"greenText\"><b>Successful harvest!</b></span><br>Your pay has increased by $0.02. Your bonus pay is now $0.52.</p>\n            ","response":0,"trial_type":"html-button-response","trial_index":26,"time_elapsed":648101,"internal_node_id":"0.0-4.0-1.9","subject_id":"5f2eb919a638c92463503542","study_id":"6197b3f67c2b5cd3b6d9596a","session_id":"619beefc57904b8c099c8cd3","condition":"contingent","relevant_dimensions":["wings","legs"],"bee_group":{"antennae":"X","wings":"2","pattern":"X","legs":"M"},"bonus":0.42000000000000054},{"rt":4806.399999976158,"stimulus":"bees-with-color/bee-A1SM.svg","response":1,"trial_type":"image-button-response","trial_index":27,"time_elapsed":652909,"internal_node_id":"0.0-4.0-0.10","subject_id":"5f2eb919a638c92463503542","study_id":"6197b3f67c2b5cd3b6d9596a","session_id":"619beefc57904b8c099c8cd3","condition":"contingent","relevant_dimensions":["wings","legs"],"bee_group":{"antennae":"X","wings":"2","pattern":"X","legs":"M"},"action":"avoid","summary":"bad-avoid","bonus":0.42000000000000054},{"rt":782.7000000476837,"stimulus":"\n                    <p><b>Action: <em>avoid</em></b></p>\n                    <p>This is the bee that you just saw.</p>\n                    <img src=\"bees-with-color/bee-A1SM.svg\" width=\"200\">\n                    <p><br>Your bonus pay is unchanged, and remains at $0.52.</p>\n            ","response":0,"trial_type":"html-button-response","trial_index":28,"time_elapsed":653693,"internal_node_id":"0.0-4.0-1.10","subject_id":"5f2eb919a638c92463503542","study_id":"6197b3f67c2b5cd3b6d9596a","session_id":"619beefc57904b8c099c8cd3","condition":"contingent","relevant_dimensions":["wings","legs"],"bee_group":{"antennae":"X","wings":"2","pattern":"X","legs":"M"},"bonus":0.42000000000000054},{"rt":3078.399999976158,"stimulus":"bees-with-color/bee-A2DM.svg","response":1,"trial_type":"image-button-response","trial_index":29,"time_elapsed":656773,"internal_node_id":"0.0-4.0-0.11","subject_id":"5f2eb919a638c92463503542","study_id":"6197b3f67c2b5cd3b6d9596a","session_id":"619beefc57904b8c099c8cd3","condition":"contingent","relevant_dimensions":["wings","legs"],"bee_group":{"antennae":"X","wings":"2","pattern":"X","legs":"M"},"action":"avoid","summary":"good-avoid","bonus":0.42000000000000054},{"rt":1630.7999999523163,"stimulus":"\n                    <p><b>Action: <em>avoid</em></b></p>\n                    <p>This is the bee that you just saw.</p>\n                    <img src=\"bees-with-color/bee-A2DM.svg\" width=\"200\">\n                    <p><br>Your bonus pay is unchanged, and remains at $0.52.</p>\n            ","response":0,"trial_type":"html-button-response","trial_index":30,"time_elapsed":658406,"internal_node_id":"0.0-4.0-1.11","subject_id":"5f2eb919a638c92463503542","study_id":"6197b3f67c2b5cd3b6d9596a","session_id":"619beefc57904b8c099c8cd3","condition":"contingent","relevant_dimensions":["wings","legs"],"bee_group":{"antennae":"X","wings":"2","pattern":"X","legs":"M"},"bonus":0.42000000000000054},{"rt":862,"stimulus":"bees-with-color/bee-A2DF.svg","response":0,"trial_type":"image-button-response","trial_index":31,"time_elapsed":659270,"internal_node_id":"0.0-4.0-0.12","subject_id":"5f2eb919a638c92463503542","study_id":"6197b3f67c2b5cd3b6d9596a","session_id":"619beefc57904b8c099c8cd3","condition":"contingent","relevant_dimensions":["wings","legs"],"bee_group":{"antennae":"X","wings":"2","pattern":"X","legs":"M"},"action":"harvest","summary":"good-harvest","bonus":0.42000000000000054},{"rt":966.2999999523163,"stimulus":"\n                    <p><b>Action: <em>harvest</em></b></p>\n                    <p>This is the bee that you just saw.</p>\n                    <img src=\"bees-with-color/bee-A2DF.svg\" width=\"200\">\n                    <p><span class=\"greenText\"><b>Successful harvest!</b></span><br>Your pay has increased by $0.02. Your bonus pay is now $0.54.</p>\n            ","response":0,"trial_type":"html-button-response","trial_index":32,"time_elapsed":660238,"internal_node_id":"0.0-4.0-1.12","subject_id":"5f2eb919a638c92463503542","study_id":"6197b3f67c2b5cd3b6d9596a","session_id":"619beefc57904b8c099c8cd3","condition":"contingent","relevant_dimensions":["wings","legs"],"bee_group":{"antennae":"X","wings":"2","pattern":"X","legs":"M"},"bonus":0.42000000000000054},{"rt":1637.1000000238419,"stimulus":"bees-with-color/bee-A2SM.svg","response":0,"trial_type":"image-button-response","trial_index":33,"time_elapsed":661877,"internal_node_id":"0.0-4.0-0.13","subject_id":"5f2eb919a638c92463503542","study_id":"6197b3f67c2b5cd3b6d9596a","session_id":"619beefc57904b8c099c8cd3","condition":"contingent","relevant_dimensions":["wings","legs"],"bee_group":{"antennae":"X","wings":"2","pattern":"X","legs":"M"},"action":"harvest","summary":"bad-harvest","bonus":0.42000000000000054},{"rt":846.3999999761581,"stimulus":"\n                    <p><b>Action: <em>harvest</em></b></p>\n                    <p>This is the bee that you just saw.</p>\n                    <img src=\"bees-with-color/bee-A2SM.svg\" width=\"200\">\n                    <p><span class=\"redText\">Bad choice, the bee was angry.</span><br><b>You have been stung!</b><br>Your pay has been decreased by $0.10. Your bonus pay is now $0.44.</p>\n            ","response":0,"trial_type":"html-button-response","trial_index":34,"time_elapsed":662725,"internal_node_id":"0.0-4.0-1.13","subject_id":"5f2eb919a638c92463503542","study_id":"6197b3f67c2b5cd3b6d9596a","session_id":"619beefc57904b8c099c8cd3","condition":"contingent","relevant_dimensions":["wings","legs"],"bee_group":{"antennae":"X","wings":"2","pattern":"X","legs":"M"},"bonus":0.42000000000000054},{"rt":1463.4000000953674,"stimulus":"bees-with-color/bee-A1SF.svg","response":1,"trial_type":"image-button-response","trial_index":35,"time_elapsed":664189,"internal_node_id":"0.0-4.0-0.14","subject_id":"5f2eb919a638c92463503542","study_id":"6197b3f67c2b5cd3b6d9596a","session_id":"619beefc57904b8c099c8cd3","condition":"contingent","relevant_dimensions":["wings","legs"],"bee_group":{"antennae":"X","wings":"2","pattern":"X","legs":"M"},"action":"avoid","summary":"bad-avoid","bonus":0.42000000000000054},{"rt":1510.1000000238419,"stimulus":"\n                    <p><b>Action: <em>avoid</em></b></p>\n                    <p>This is the bee that you just saw.</p>\n                    <img src=\"bees-with-color/bee-A1SF.svg\" width=\"200\">\n                    <p><br>Your bonus pay is unchanged, and remains at $0.44.</p>\n            ","response":0,"trial_type":"html-button-response","trial_index":36,"time_elapsed":665701,"internal_node_id":"0.0-4.0-1.14","subject_id":"5f2eb919a638c92463503542","study_id":"6197b3f67c2b5cd3b6d9596a","session_id":"619beefc57904b8c099c8cd3","condition":"contingent","relevant_dimensions":["wings","legs"],"bee_group":{"antennae":"X","wings":"2","pattern":"X","legs":"M"},"bonus":0.42000000000000054},{"rt":2087.1999999284744,"stimulus":"bees-with-color/bee-A2SF.svg","response":1,"trial_type":"image-button-response","trial_index":37,"time_elapsed":667790,"internal_node_id":"0.0-4.0-0.15","subject_id":"5f2eb919a638c92463503542","study_id":"6197b3f67c2b5cd3b6d9596a","session_id":"619beefc57904b8c099c8cd3","condition":"contingent","relevant_dimensions":["wings","legs"],"bee_group":{"antennae":"X","wings":"2","pattern":"X","legs":"M"},"action":"avoid","summary":"bad-avoid","bonus":0.42000000000000054},{"rt":853.6000000238419,"stimulus":"\n                    <p><b>Action: <em>avoid</em></b></p>\n                    <p>This is the bee that you just saw.</p>\n                    <img src=\"bees-with-color/bee-A2SF.svg\" width=\"200\">\n                    <p><br>Your bonus pay is unchanged, and remains at $0.44.</p>\n            ","response":0,"trial_type":"html-button-response","trial_index":38,"time_elapsed":668645,"internal_node_id":"0.0-4.0-1.15","subject_id":"5f2eb919a638c92463503542","study_id":"6197b3f67c2b5cd3b6d9596a","session_id":"619beefc57904b8c099c8cd3","condition":"contingent","relevant_dimensions":["wings","legs"],"bee_group":{"antennae":"X","wings":"2","pattern":"X","legs":"M"},"bonus":0.42000000000000054},{"rt":926.2000000476837,"stimulus":"bees-with-color/bee-A2SM.svg","response":0,"trial_type":"image-button-response","trial_index":39,"time_elapsed":669573,"internal_node_id":"0.0-4.0-0.16","subject_id":"5f2eb919a638c92463503542","study_id":"6197b3f67c2b5cd3b6d9596a","session_id":"619beefc57904b8c099c8cd3","condition":"contingent","relevant_dimensions":["wings","legs"],"bee_group":{"antennae":"X","wings":"2","pattern":"X","legs":"M"},"action":"harvest","summary":"bad-harvest","bonus":0.42000000000000054},{"rt":982.6000000238419,"stimulus":"\n                    <p><b>Action: <em>harvest</em></b></p>\n                    <p>This is the bee that you just saw.</p>\n                    <img src=\"bees-with-color/bee-A2SM.svg\" width=\"200\">\n                    <p><span class=\"redText\">Bad choice, the bee was angry.</span><br><b>You have been stung!</b><br>Your pay has been decreased by $0.10. Your bonus pay is now $0.34.</p>\n            ","response":0,"trial_type":"html-button-response","trial_index":40,"time_elapsed":670557,"internal_node_id":"0.0-4.0-1.16","subject_id":"5f2eb919a638c92463503542","study_id":"6197b3f67c2b5cd3b6d9596a","session_id":"619beefc57904b8c099c8cd3","condition":"contingent","relevant_dimensions":["wings","legs"],"bee_group":{"antennae":"X","wings":"2","pattern":"X","legs":"M"},"bonus":0.42000000000000054},{"rt":1638.7000000476837,"stimulus":"bees-with-color/bee-A2SF.svg","response":0,"trial_type":"image-button-response","trial_index":41,"time_elapsed":672197,"internal_node_id":"0.0-4.0-0.17","subject_id":"5f2eb919a638c92463503542","study_id":"6197b3f67c2b5cd3b6d9596a","session_id":"619beefc57904b8c099c8cd3","condition":"contingent","relevant_dimensions":["wings","legs"],"bee_group":{"antennae":"X","wings":"2","pattern":"X","legs":"M"},"action":"harvest","summary":"good-harvest","bonus":0.42000000000000054},{"rt":790.5,"stimulus":"\n                    <p><b>Action: <em>harvest</em></b></p>\n                    <p>This is the bee that you just saw.</p>\n                    <img src=\"bees-with-color/bee-A2SF.svg\" width=\"200\">\n                    <p><span class=\"greenText\"><b>Successful harvest!</b></span><br>Your pay has increased by $0.02. Your bonus pay is now $0.36.</p>\n            ","response":0,"trial_type":"html-button-response","trial_index":42,"time_elapsed":672989,"internal_node_id":"0.0-4.0-1.17","subject_id":"5f2eb919a638c92463503542","study_id":"6197b3f67c2b5cd3b6d9596a","session_id":"619beefc57904b8c099c8cd3","condition":"contingent","relevant_dimensions":["wings","legs"],"bee_group":{"antennae":"X","wings":"2","pattern":"X","legs":"M"},"bonus":0.42000000000000054},{"rt":1118.2000000476837,"stimulus":"bees-with-color/bee-A2DF.svg","response":0,"trial_type":"image-button-response","trial_index":43,"time_elapsed":674109,"internal_node_id":"0.0-4.0-0.18","subject_id":"5f2eb919a638c92463503542","study_id":"6197b3f67c2b5cd3b6d9596a","session_id":"619beefc57904b8c099c8cd3","condition":"contingent","relevant_dimensions":["wings","legs"],"bee_group":{"antennae":"X","wings":"2","pattern":"X","legs":"M"},"action":"harvest","summary":"good-harvest","bonus":0.42000000000000054},{"rt":702.2999999523163,"stimulus":"\n                    <p><b>Action: <em>harvest</em></b></p>\n                    <p>This is the bee that you just saw.</p>\n                    <img src=\"bees-with-color/bee-A2DF.svg\" width=\"200\">\n                    <p><span class=\"greenText\"><b>Successful harvest!</b></span><br>Your pay has increased by $0.02. Your bonus pay is now $0.38.</p>\n            ","response":0,"trial_type":"html-button-response","trial_index":44,"time_elapsed":674813,"internal_node_id":"0.0-4.0-1.18","subject_id":"5f2eb919a638c92463503542","study_id":"6197b3f67c2b5cd3b6d9596a","session_id":"619beefc57904b8c099c8cd3","condition":"contingent","relevant_dimensions":["wings","legs"],"bee_group":{"antennae":"X","wings":"2","pattern":"X","legs":"M"},"bonus":0.42000000000000054},{"rt":1959,"stimulus":"bees-with-color/bee-A1DF.svg","response":1,"trial_type":"image-button-response","trial_index":45,"time_elapsed":676773,"internal_node_id":"0.0-4.0-0.19","subject_id":"5f2eb919a638c92463503542","study_id":"6197b3f67c2b5cd3b6d9596a","session_id":"619beefc57904b8c099c8cd3","condition":"contingent","relevant_dimensions":["wings","legs"],"bee_group":{"antennae":"X","wings":"2","pattern":"X","legs":"M"},"action":"avoid","summary":"bad-avoid","bonus":0.42000000000000054},{"rt":743,"stimulus":"\n                    <p><b>Action: <em>avoid</em></b></p>\n                    <p>This is the bee that you just saw.</p>\n                    <img src=\"bees-with-color/bee-A1DF.svg\" width=\"200\">\n                    <p><br>Your bonus pay is unchanged, and remains at $0.38.</p>\n            ","response":0,"trial_type":"html-button-response","trial_index":46,"time_elapsed":677517,"internal_node_id":"0.0-4.0-1.19","subject_id":"5f2eb919a638c92463503542","study_id":"6197b3f67c2b5cd3b6d9596a","session_id":"619beefc57904b8c099c8cd3","condition":"contingent","relevant_dimensions":["wings","legs"],"bee_group":{"antennae":"X","wings":"2","pattern":"X","legs":"M"},"bonus":0.42000000000000054},{"rt":1582.8000000715256,"stimulus":"bees-with-color/bee-A1DM.svg","response":1,"trial_type":"image-button-response","trial_index":47,"time_elapsed":679101,"internal_node_id":"0.0-4.0-0.20","subject_id":"5f2eb919a638c92463503542","study_id":"6197b3f67c2b5cd3b6d9596a","session_id":"619beefc57904b8c099c8cd3","condition":"contingent","relevant_dimensions":["wings","legs"],"bee_group":{"antennae":"X","wings":"2","pattern":"X","legs":"M"},"action":"avoid","summary":"bad-avoid","bonus":0.42000000000000054},{"rt":719.3000000715256,"stimulus":"\n                    <p><b>Action: <em>avoid</em></b></p>\n                    <p>This is the bee that you just saw.</p>\n                    <img src=\"bees-with-color/bee-A1DM.svg\" width=\"200\">\n                    <p><br>Your bonus pay is unchanged, and remains at $0.38.</p>\n            ","response":0,"trial_type":"html-button-response","trial_index":48,"time_elapsed":679821,"internal_node_id":"0.0-4.0-1.20","subject_id":"5f2eb919a638c92463503542","study_id":"6197b3f67c2b5cd3b6d9596a","session_id":"619beefc57904b8c099c8cd3","condition":"contingent","relevant_dimensions":["wings","legs"],"bee_group":{"antennae":"X","wings":"2","pattern":"X","legs":"M"},"bonus":0.42000000000000054},{"rt":2734.100000023842,"stimulus":"bees-with-color/bee-B2DM.svg","response":0,"trial_type":"image-button-response","trial_index":49,"time_elapsed":682557,"internal_node_id":"0.0-4.0-0.21","subject_id":"5f2eb919a638c92463503542","study_id":"6197b3f67c2b5cd3b6d9596a","session_id":"619beefc57904b8c099c8cd3","condition":"contingent","relevant_dimensions":["wings","legs"],"bee_group":{"antennae":"X","wings":"2","pattern":"X","legs":"M"},"action":"harvest","summary":"bad-harvest","bonus":0.42000000000000054},{"rt":1286.7999999523163,"stimulus":"\n                    <p><b>Action: <em>harvest</em></b></p>\n                    <p>This is the bee that you just saw.</p>\n                    <img src=\"bees-with-color/bee-B2DM.svg\" width=\"200\">\n                    <p><span class=\"redText\">Bad choice, the bee was angry.</span><br><b>You have been stung!</b><br>Your pay has been decreased by $0.10. Your bonus pay is now $0.28.</p>\n            ","response":0,"trial_type":"html-button-response","trial_index":50,"time_elapsed":683845,"internal_node_id":"0.0-4.0-1.21","subject_id":"5f2eb919a638c92463503542","study_id":"6197b3f67c2b5cd3b6d9596a","session_id":"619beefc57904b8c099c8cd3","condition":"contingent","relevant_dimensions":["wings","legs"],"bee_group":{"antennae":"X","wings":"2","pattern":"X","legs":"M"},"bonus":0.42000000000000054},{"rt":1206.6999999284744,"stimulus":"bees-with-color/bee-B2DF.svg","response":0,"trial_type":"image-button-response","trial_index":51,"time_elapsed":685053,"internal_node_id":"0.0-4.0-0.22","subject_id":"5f2eb919a638c92463503542","study_id":"6197b3f67c2b5cd3b6d9596a","session_id":"619beefc57904b8c099c8cd3","condition":"contingent","relevant_dimensions":["wings","legs"],"bee_group":{"antennae":"X","wings":"2","pattern":"X","legs":"M"},"action":"harvest","summary":"good-harvest","bonus":0.42000000000000054},{"rt":773.7999999523163,"stimulus":"\n                    <p><b>Action: <em>harvest</em></b></p>\n                    <p>This is the bee that you just saw.</p>\n                    <img src=\"bees-with-color/bee-B2DF.svg\" width=\"200\">\n                    <p><span class=\"greenText\"><b>Successful harvest!</b></span><br>Your pay has increased by $0.02. Your bonus pay is now $0.30.</p>\n            ","response":0,"trial_type":"html-button-response","trial_index":52,"time_elapsed":685829,"internal_node_id":"0.0-4.0-1.22","subject_id":"5f2eb919a638c92463503542","study_id":"6197b3f67c2b5cd3b6d9596a","session_id":"619beefc57904b8c099c8cd3","condition":"contingent","relevant_dimensions":["wings","legs"],"bee_group":{"antennae":"X","wings":"2","pattern":"X","legs":"M"},"bonus":0.42000000000000054},{"rt":1024.7000000476837,"stimulus":"bees-with-color/bee-B1SM.svg","response":0,"trial_type":"image-button-response","trial_index":53,"time_elapsed":686854,"internal_node_id":"0.0-4.0-0.23","subject_id":"5f2eb919a638c92463503542","study_id":"6197b3f67c2b5cd3b6d9596a","session_id":"619beefc57904b8c099c8cd3","condition":"contingent","relevant_dimensions":["wings","legs"],"bee_group":{"antennae":"X","wings":"2","pattern":"X","legs":"M"},"action":"harvest","summary":"good-harvest","bonus":0.42000000000000054},{"rt":725,"stimulus":"\n                    <p><b>Action: <em>harvest</em></b></p>\n                    <p>This is the bee that you just saw.</p>\n                    <img src=\"bees-with-color/bee-B1SM.svg\" width=\"200\">\n                    <p><span class=\"greenText\"><b>Successful harvest!</b></span><br>Your pay has increased by $0.02. Your bonus pay is now $0.32.</p>\n            ","response":0,"trial_type":"html-button-response","trial_index":54,"time_elapsed":687581,"internal_node_id":"0.0-4.0-1.23","subject_id":"5f2eb919a638c92463503542","study_id":"6197b3f67c2b5cd3b6d9596a","session_id":"619beefc57904b8c099c8cd3","condition":"contingent","relevant_dimensions":["wings","legs"],"bee_group":{"antennae":"X","wings":"2","pattern":"X","legs":"M"},"bonus":0.42000000000000054},{"rt":1478.8999999761581,"stimulus":"bees-with-color/bee-B1DF.svg","response":0,"trial_type":"image-button-response","trial_index":55,"time_elapsed":689061,"internal_node_id":"0.0-4.0-0.24","subject_id":"5f2eb919a638c92463503542","study_id":"6197b3f67c2b5cd3b6d9596a","session_id":"619beefc57904b8c099c8cd3","condition":"contingent","relevant_dimensions":["wings","legs"],"bee_group":{"antennae":"X","wings":"2","pattern":"X","legs":"M"},"action":"harvest","summary":"good-harvest","bonus":0.42000000000000054},{"rt":807.2999999523163,"stimulus":"\n                    <p><b>Action: <em>harvest</em></b></p>\n                    <p>This is the bee that you just saw.</p>\n                    <img src=\"bees-with-color/bee-B1DF.svg\" width=\"200\">\n                    <p><span class=\"greenText\"><b>Successful harvest!</b></span><br>Your pay has increased by $0.02. Your bonus pay is now $0.34.</p>\n            ","response":0,"trial_type":"html-button-response","trial_index":56,"time_elapsed":689869,"internal_node_id":"0.0-4.0-1.24","subject_id":"5f2eb919a638c92463503542","study_id":"6197b3f67c2b5cd3b6d9596a","session_id":"619beefc57904b8c099c8cd3","condition":"contingent","relevant_dimensions":["wings","legs"],"bee_group":{"antennae":"X","wings":"2","pattern":"X","legs":"M"},"bonus":0.42000000000000054},{"rt":1501.2000000476837,"stimulus":"bees-with-color/bee-B1DM.svg","response":1,"trial_type":"image-button-response","trial_index":57,"time_elapsed":691373,"internal_node_id":"0.0-4.0-0.25","subject_id":"5f2eb919a638c92463503542","study_id":"6197b3f67c2b5cd3b6d9596a","session_id":"619beefc57904b8c099c8cd3","condition":"contingent","relevant_dimensions":["wings","legs"],"bee_group":{"antennae":"X","wings":"2","pattern":"X","legs":"M"},"action":"avoid","summary":"bad-avoid","bonus":0.42000000000000054},{"rt":870.3999999761581,"stimulus":"\n                    <p><b>Action: <em>avoid</em></b></p>\n                    <p>This is the bee that you just saw.</p>\n                    <img src=\"bees-with-color/bee-B1DM.svg\" width=\"200\">\n                    <p><br>Your bonus pay is unchanged, and remains at $0.34.</p>\n            ","response":0,"trial_type":"html-button-response","trial_index":58,"time_elapsed":692245,"internal_node_id":"0.0-4.0-1.25","subject_id":"5f2eb919a638c92463503542","study_id":"6197b3f67c2b5cd3b6d9596a","session_id":"619beefc57904b8c099c8cd3","condition":"contingent","relevant_dimensions":["wings","legs"],"bee_group":{"antennae":"X","wings":"2","pattern":"X","legs":"M"},"bonus":0.42000000000000054},{"rt":1446.2000000476837,"stimulus":"bees-with-color/bee-B2SF.svg","response":0,"trial_type":"image-button-response","trial_index":59,"time_elapsed":693693,"internal_node_id":"0.0-4.0-0.26","subject_id":"5f2eb919a638c92463503542","study_id":"6197b3f67c2b5cd3b6d9596a","session_id":"619beefc57904b8c099c8cd3","condition":"contingent","relevant_dimensions":["wings","legs"],"bee_group":{"antennae":"X","wings":"2","pattern":"X","legs":"M"},"action":"harvest","summary":"good-harvest","bonus":0.42000000000000054},{"rt":718.6999999284744,"stimulus":"\n                    <p><b>Action: <em>harvest</em></b></p>\n                    <p>This is the bee that you just saw.</p>\n                    <img src=\"bees-with-color/bee-B2SF.svg\" width=\"200\">\n                    <p><span class=\"greenText\"><b>Successful harvest!</b></span><br>Your pay has increased by $0.02. Your bonus pay is now $0.36.</p>\n            ","response":0,"trial_type":"html-button-response","trial_index":60,"time_elapsed":694413,"internal_node_id":"0.0-4.0-1.26","subject_id":"5f2eb919a638c92463503542","study_id":"6197b3f67c2b5cd3b6d9596a","session_id":"619beefc57904b8c099c8cd3","condition":"contingent","relevant_dimensions":["wings","legs"],"bee_group":{"antennae":"X","wings":"2","pattern":"X","legs":"M"},"bonus":0.42000000000000054},{"rt":1479.2999999523163,"stimulus":"bees-with-color/bee-A1SM.svg","response":1,"trial_type":"image-button-response","trial_index":61,"time_elapsed":695893,"internal_node_id":"0.0-4.0-0.27","subject_id":"5f2eb919a638c92463503542","study_id":"6197b3f67c2b5cd3b6d9596a","session_id":"619beefc57904b8c099c8cd3","condition":"contingent","relevant_dimensions":["wings","legs"],"bee_group":{"antennae":"X","wings":"2","pattern":"X","legs":"M"},"action":"avoid","summary":"bad-avoid","bonus":0.42000000000000054},{"rt":791.1000000238419,"stimulus":"\n                    <p><b>Action: <em>avoid</em></b></p>\n                    <p>This is the bee that you just saw.</p>\n                    <img src=\"bees-with-color/bee-A1SM.svg\" width=\"200\">\n                    <p><br>Your bonus pay is unchanged, and remains at $0.36.</p>\n            ","response":0,"trial_type":"html-button-response","trial_index":62,"time_elapsed":696686,"internal_node_id":"0.0-4.0-1.27","subject_id":"5f2eb919a638c92463503542","study_id":"6197b3f67c2b5cd3b6d9596a","session_id":"619beefc57904b8c099c8cd3","condition":"contingent","relevant_dimensions":["wings","legs"],"bee_group":{"antennae":"X","wings":"2","pattern":"X","legs":"M"},"bonus":0.42000000000000054},{"rt":1268.3999999761581,"stimulus":"bees-with-color/bee-B1SF.svg","response":1,"trial_type":"image-button-response","trial_index":63,"time_elapsed":697957,"internal_node_id":"0.0-4.0-0.28","subject_id":"5f2eb919a638c92463503542","study_id":"6197b3f67c2b5cd3b6d9596a","session_id":"619beefc57904b8c099c8cd3","condition":"contingent","relevant_dimensions":["wings","legs"],"bee_group":{"antennae":"X","wings":"2","pattern":"X","legs":"M"},"action":"avoid","summary":"bad-avoid","bonus":0.42000000000000054},{"rt":718.7999999523163,"stimulus":"\n                    <p><b>Action: <em>avoid</em></b></p>\n                    <p>This is the bee that you just saw.</p>\n                    <img src=\"bees-with-color/bee-B1SF.svg\" width=\"200\">\n                    <p><br>Your bonus pay is unchanged, and remains at $0.36.</p>\n            ","response":0,"trial_type":"html-button-response","trial_index":64,"time_elapsed":698677,"internal_node_id":"0.0-4.0-1.28","subject_id":"5f2eb919a638c92463503542","study_id":"6197b3f67c2b5cd3b6d9596a","session_id":"619beefc57904b8c099c8cd3","condition":"contingent","relevant_dimensions":["wings","legs"],"bee_group":{"antennae":"X","wings":"2","pattern":"X","legs":"M"},"bonus":0.42000000000000054},{"rt":3743.2000000476837,"stimulus":"bees-with-color/bee-A2DM.svg","response":1,"trial_type":"image-button-response","trial_index":65,"time_elapsed":702421,"internal_node_id":"0.0-4.0-0.29","subject_id":"5f2eb919a638c92463503542","study_id":"6197b3f67c2b5cd3b6d9596a","session_id":"619beefc57904b8c099c8cd3","condition":"contingent","relevant_dimensions":["wings","legs"],"bee_group":{"antennae":"X","wings":"2","pattern":"X","legs":"M"},"action":"avoid","summary":"good-avoid","bonus":0.42000000000000054},{"rt":694.8999999761581,"stimulus":"\n                    <p><b>Action: <em>avoid</em></b></p>\n                    <p>This is the bee that you just saw.</p>\n                    <img src=\"bees-with-color/bee-A2DM.svg\" width=\"200\">\n                    <p><br>Your bonus pay is unchanged, and remains at $0.36.</p>\n            ","response":0,"trial_type":"html-button-response","trial_index":66,"time_elapsed":703117,"internal_node_id":"0.0-4.0-1.29","subject_id":"5f2eb919a638c92463503542","study_id":"6197b3f67c2b5cd3b6d9596a","session_id":"619beefc57904b8c099c8cd3","condition":"contingent","relevant_dimensions":["wings","legs"],"bee_group":{"antennae":"X","wings":"2","pattern":"X","legs":"M"},"bonus":0.42000000000000054},{"rt":990.2000000476837,"stimulus":"bees-with-color/bee-A1SF.svg","response":0,"trial_type":"image-button-response","trial_index":67,"time_elapsed":704109,"internal_node_id":"0.0-4.0-0.30","subject_id":"5f2eb919a638c92463503542","study_id":"6197b3f67c2b5cd3b6d9596a","session_id":"619beefc57904b8c099c8cd3","condition":"contingent","relevant_dimensions":["wings","legs"],"bee_group":{"antennae":"X","wings":"2","pattern":"X","legs":"M"},"action":"harvest","summary":"good-harvest","bonus":0.42000000000000054},{"rt":886.7000000476837,"stimulus":"\n                    <p><b>Action: <em>harvest</em></b></p>\n                    <p>This is the bee that you just saw.</p>\n                    <img src=\"bees-with-color/bee-A1SF.svg\" width=\"200\">\n                    <p><span class=\"greenText\"><b>Successful harvest!</b></span><br>Your pay has increased by $0.02. Your bonus pay is now $0.38.</p>\n            ","response":0,"trial_type":"html-button-response","trial_index":68,"time_elapsed":704997,"internal_node_id":"0.0-4.0-1.30","subject_id":"5f2eb919a638c92463503542","study_id":"6197b3f67c2b5cd3b6d9596a","session_id":"619beefc57904b8c099c8cd3","condition":"contingent","relevant_dimensions":["wings","legs"],"bee_group":{"antennae":"X","wings":"2","pattern":"X","legs":"M"},"bonus":0.42000000000000054},{"rt":1198.8999999761581,"stimulus":"bees-with-color/bee-B2SM.svg","response":0,"trial_type":"image-button-response","trial_index":69,"time_elapsed":706197,"internal_node_id":"0.0-4.0-0.31","subject_id":"5f2eb919a638c92463503542","study_id":"6197b3f67c2b5cd3b6d9596a","session_id":"619beefc57904b8c099c8cd3","condition":"contingent","relevant_dimensions":["wings","legs"],"bee_group":{"antennae":"X","wings":"2","pattern":"X","legs":"M"},"action":"harvest","summary":"bad-harvest","bonus":0.42000000000000054},{"rt":1694.5,"stimulus":"\n                    <p><b>Action: <em>harvest</em></b></p>\n                    <p>This is the bee that you just saw.</p>\n                    <img src=\"bees-with-color/bee-B2SM.svg\" width=\"200\">\n                    <p><span class=\"redText\">Bad choice, the bee was angry.</span><br><b>You have been stung!</b><br>Your pay has been decreased by $0.10. Your bonus pay is now $0.28.</p>\n            ","response":0,"trial_type":"html-button-response","trial_index":70,"time_elapsed":707893,"internal_node_id":"0.0-4.0-1.31","subject_id":"5f2eb919a638c92463503542","study_id":"6197b3f67c2b5cd3b6d9596a","session_id":"619beefc57904b8c099c8cd3","condition":"contingent","relevant_dimensions":["wings","legs"],"bee_group":{"antennae":"X","wings":"2","pattern":"X","legs":"M"},"bonus":0.42000000000000054},{"rt":830.3999999761581,"stimulus":"bees-with-color/bee-B2SF.svg","response":1,"trial_type":"image-button-response","trial_index":71,"time_elapsed":708725,"internal_node_id":"0.0-4.0-0.32","subject_id":"5f2eb919a638c92463503542","study_id":"6197b3f67c2b5cd3b6d9596a","session_id":"619beefc57904b8c099c8cd3","condition":"contingent","relevant_dimensions":["wings","legs"],"bee_group":{"antennae":"X","wings":"2","pattern":"X","legs":"M"},"action":"avoid","summary":"bad-avoid","bonus":0.42000000000000054},{"rt":2670.5,"stimulus":"\n                    <p><b>Action: <em>avoid</em></b></p>\n                    <p>This is the bee that you just saw.</p>\n                    <img src=\"bees-with-color/bee-B2SF.svg\" width=\"200\">\n                    <p><br>Your bonus pay is unchanged, and remains at $0.28.</p>\n            ","response":0,"trial_type":"html-button-response","trial_index":72,"time_elapsed":711397,"internal_node_id":"0.0-4.0-1.32","subject_id":"5f2eb919a638c92463503542","study_id":"6197b3f67c2b5cd3b6d9596a","session_id":"619beefc57904b8c099c8cd3","condition":"contingent","relevant_dimensions":["wings","legs"],"bee_group":{"antennae":"X","wings":"2","pattern":"X","legs":"M"},"bonus":0.42000000000000054},{"rt":1055.1000000238419,"stimulus":"bees-with-color/bee-B1DF.svg","response":0,"trial_type":"image-button-response","trial_index":73,"time_elapsed":712453,"internal_node_id":"0.0-4.0-0.33","subject_id":"5f2eb919a638c92463503542","study_id":"6197b3f67c2b5cd3b6d9596a","session_id":"619beefc57904b8c099c8cd3","condition":"contingent","relevant_dimensions":["wings","legs"],"bee_group":{"antennae":"X","wings":"2","pattern":"X","legs":"M"},"action":"harvest","summary":"good-harvest","bonus":0.42000000000000054},{"rt":654.2999999523163,"stimulus":"\n                    <p><b>Action: <em>harvest</em></b></p>\n                    <p>This is the bee that you just saw.</p>\n                    <img src=\"bees-with-color/bee-B1DF.svg\" width=\"200\">\n                    <p><span class=\"greenText\"><b>Successful harvest!</b></span><br>Your pay has increased by $0.02. Your bonus pay is now $0.30.</p>\n            ","response":0,"trial_type":"html-button-response","trial_index":74,"time_elapsed":713109,"internal_node_id":"0.0-4.0-1.33","subject_id":"5f2eb919a638c92463503542","study_id":"6197b3f67c2b5cd3b6d9596a","session_id":"619beefc57904b8c099c8cd3","condition":"contingent","relevant_dimensions":["wings","legs"],"bee_group":{"antennae":"X","wings":"2","pattern":"X","legs":"M"},"bonus":0.42000000000000054},{"rt":719.1999999284744,"stimulus":"bees-with-color/bee-A1DF.svg","response":0,"trial_type":"image-button-response","trial_index":75,"time_elapsed":713829,"internal_node_id":"0.0-4.0-0.34","subject_id":"5f2eb919a638c92463503542","study_id":"6197b3f67c2b5cd3b6d9596a","session_id":"619beefc57904b8c099c8cd3","condition":"contingent","relevant_dimensions":["wings","legs"],"bee_group":{"antennae":"X","wings":"2","pattern":"X","legs":"M"},"action":"harvest","summary":"good-harvest","bonus":0.42000000000000054},{"rt":1214.3999999761581,"stimulus":"\n                    <p><b>Action: <em>harvest</em></b></p>\n                    <p>This is the bee that you just saw.</p>\n                    <img src=\"bees-with-color/bee-A1DF.svg\" width=\"200\">\n                    <p><span class=\"greenText\"><b>Successful harvest!</b></span><br>Your pay has increased by $0.02. Your bonus pay is now $0.32.</p>\n            ","response":0,"trial_type":"html-button-response","trial_index":76,"time_elapsed":715045,"internal_node_id":"0.0-4.0-1.34","subject_id":"5f2eb919a638c92463503542","study_id":"6197b3f67c2b5cd3b6d9596a","session_id":"619beefc57904b8c099c8cd3","condition":"contingent","relevant_dimensions":["wings","legs"],"bee_group":{"antennae":"X","wings":"2","pattern":"X","legs":"M"},"bonus":0.42000000000000054},{"rt":911.2999999523163,"stimulus":"bees-with-color/bee-B2SM.svg","response":0,"trial_type":"image-button-response","trial_index":77,"time_elapsed":715958,"internal_node_id":"0.0-4.0-0.35","subject_id":"5f2eb919a638c92463503542","study_id":"6197b3f67c2b5cd3b6d9596a","session_id":"619beefc57904b8c099c8cd3","condition":"contingent","relevant_dimensions":["wings","legs"],"bee_group":{"antennae":"X","wings":"2","pattern":"X","legs":"M"},"action":"harvest","summary":"bad-harvest","bonus":0.42000000000000054},{"rt":717.5999999046326,"stimulus":"\n                    <p><b>Action: <em>harvest</em></b></p>\n                    <p>This is the bee that you just saw.</p>\n                    <img src=\"bees-with-color/bee-B2SM.svg\" width=\"200\">\n                    <p><span class=\"redText\">Bad choice, the bee was angry.</span><br><b>You have been stung!</b><br>Your pay has been decreased by $0.10. Your bonus pay is now $0.22.</p>\n            ","response":0,"trial_type":"html-button-response","trial_index":78,"time_elapsed":716677,"internal_node_id":"0.0-4.0-1.35","subject_id":"5f2eb919a638c92463503542","study_id":"6197b3f67c2b5cd3b6d9596a","session_id":"619beefc57904b8c099c8cd3","condition":"contingent","relevant_dimensions":["wings","legs"],"bee_group":{"antennae":"X","wings":"2","pattern":"X","legs":"M"},"bonus":0.42000000000000054},{"rt":606.8999999761581,"stimulus":"bees-with-color/bee-A2DM.svg","response":0,"trial_type":"image-button-response","trial_index":79,"time_elapsed":717286,"internal_node_id":"0.0-4.0-0.36","subject_id":"5f2eb919a638c92463503542","study_id":"6197b3f67c2b5cd3b6d9596a","session_id":"619beefc57904b8c099c8cd3","condition":"contingent","relevant_dimensions":["wings","legs"],"bee_group":{"antennae":"X","wings":"2","pattern":"X","legs":"M"},"action":"harvest","summary":"bad-harvest","bonus":0.42000000000000054},{"rt":661.8999999761581,"stimulus":"\n                    <p><b>Action: <em>harvest</em></b></p>\n                    <p>This is the bee that you just saw.</p>\n                    <img src=\"bees-with-color/bee-A2DM.svg\" width=\"200\">\n                    <p><span class=\"redText\">Bad choice, the bee was angry.</span><br><b>You have been stung!</b><br>Your pay has been decreased by $0.10. Your bonus pay is now $0.12.</p>\n            ","response":0,"trial_type":"html-button-response","trial_index":80,"time_elapsed":717949,"internal_node_id":"0.0-4.0-1.36","subject_id":"5f2eb919a638c92463503542","study_id":"6197b3f67c2b5cd3b6d9596a","session_id":"619beefc57904b8c099c8cd3","condition":"contingent","relevant_dimensions":["wings","legs"],"bee_group":{"antennae":"X","wings":"2","pattern":"X","legs":"M"},"bonus":0.42000000000000054},{"rt":859.7000000476837,"stimulus":"bees-with-color/bee-B2DF.svg","response":0,"trial_type":"image-button-response","trial_index":81,"time_elapsed":718813,"internal_node_id":"0.0-4.0-0.37","subject_id":"5f2eb919a638c92463503542","study_id":"6197b3f67c2b5cd3b6d9596a","session_id":"619beefc57904b8c099c8cd3","condition":"contingent","relevant_dimensions":["wings","legs"],"bee_group":{"antennae":"X","wings":"2","pattern":"X","legs":"M"},"action":"harvest","summary":"good-harvest","bonus":0.42000000000000054},{"rt":846.1000000238419,"stimulus":"\n                    <p><b>Action: <em>harvest</em></b></p>\n                    <p>This is the bee that you just saw.</p>\n                    <img src=\"bees-with-color/bee-B2DF.svg\" width=\"200\">\n                    <p><span class=\"greenText\"><b>Successful harvest!</b></span><br>Your pay has increased by $0.02. Your bonus pay is now $0.14.</p>\n            ","response":0,"trial_type":"html-button-response","trial_index":82,"time_elapsed":719661,"internal_node_id":"0.0-4.0-1.37","subject_id":"5f2eb919a638c92463503542","study_id":"6197b3f67c2b5cd3b6d9596a","session_id":"619beefc57904b8c099c8cd3","condition":"contingent","relevant_dimensions":["wings","legs"],"bee_group":{"antennae":"X","wings":"2","pattern":"X","legs":"M"},"bonus":0.42000000000000054},{"rt":694.6000000238419,"stimulus":"bees-with-color/bee-B1DM.svg","response":0,"trial_type":"image-button-response","trial_index":83,"time_elapsed":720357,"internal_node_id":"0.0-4.0-0.38","subject_id":"5f2eb919a638c92463503542","study_id":"6197b3f67c2b5cd3b6d9596a","session_id":"619beefc57904b8c099c8cd3","condition":"contingent","relevant_dimensions":["wings","legs"],"bee_group":{"antennae":"X","wings":"2","pattern":"X","legs":"M"},"action":"harvest","summary":"good-harvest","bonus":0.42000000000000054},{"rt":654.6999999284744,"stimulus":"\n                    <p><b>Action: <em>harvest</em></b></p>\n                    <p>This is the bee that you just saw.</p>\n                    <img src=\"bees-with-color/bee-B1DM.svg\" width=\"200\">\n                    <p><span class=\"greenText\"><b>Successful harvest!</b></span><br>Your pay has increased by $0.02. Your bonus pay is now $0.16.</p>\n            ","response":0,"trial_type":"html-button-response","trial_index":84,"time_elapsed":721013,"internal_node_id":"0.0-4.0-1.38","subject_id":"5f2eb919a638c92463503542","study_id":"6197b3f67c2b5cd3b6d9596a","session_id":"619beefc57904b8c099c8cd3","condition":"contingent","relevant_dimensions":["wings","legs"],"bee_group":{"antennae":"X","wings":"2","pattern":"X","legs":"M"},"bonus":0.42000000000000054},{"rt":591.3999999761581,"stimulus":"bees-with-color/bee-B1SM.svg","response":0,"trial_type":"image-button-response","trial_index":85,"time_elapsed":721605,"internal_node_id":"0.0-4.0-0.39","subject_id":"5f2eb919a638c92463503542","study_id":"6197b3f67c2b5cd3b6d9596a","session_id":"619beefc57904b8c099c8cd3","condition":"contingent","relevant_dimensions":["wings","legs"],"bee_group":{"antennae":"X","wings":"2","pattern":"X","legs":"M"},"action":"harvest","summary":"good-harvest","bonus":0.42000000000000054},{"rt":638.6999999284744,"stimulus":"\n                    <p><b>Action: <em>harvest</em></b></p>\n                    <p>This is the bee that you just saw.</p>\n                    <img src=\"bees-with-color/bee-B1SM.svg\" width=\"200\">\n                    <p><span class=\"greenText\"><b>Successful harvest!</b></span><br>Your pay has increased by $0.02. Your bonus pay is now $0.18.</p>\n            ","response":0,"trial_type":"html-button-response","trial_index":86,"time_elapsed":722245,"internal_node_id":"0.0-4.0-1.39","subject_id":"5f2eb919a638c92463503542","study_id":"6197b3f67c2b5cd3b6d9596a","session_id":"619beefc57904b8c099c8cd3","condition":"contingent","relevant_dimensions":["wings","legs"],"bee_group":{"antennae":"X","wings":"2","pattern":"X","legs":"M"},"bonus":0.42000000000000054},{"rt":679,"stimulus":"bees-with-color/bee-A1DM.svg","response":0,"trial_type":"image-button-response","trial_index":87,"time_elapsed":722925,"internal_node_id":"0.0-4.0-0.40","subject_id":"5f2eb919a638c92463503542","study_id":"6197b3f67c2b5cd3b6d9596a","session_id":"619beefc57904b8c099c8cd3","condition":"contingent","relevant_dimensions":["wings","legs"],"bee_group":{"antennae":"X","wings":"2","pattern":"X","legs":"M"},"action":"harvest","summary":"good-harvest","bonus":0.42000000000000054},{"rt":607.8000000715256,"stimulus":"\n                    <p><b>Action: <em>harvest</em></b></p>\n                    <p>This is the bee that you just saw.</p>\n                    <img src=\"bees-with-color/bee-A1DM.svg\" width=\"200\">\n                    <p><span class=\"greenText\"><b>Successful harvest!</b></span><br>Your pay has increased by $0.02. Your bonus pay is now $0.20.</p>\n            ","response":0,"trial_type":"html-button-response","trial_index":88,"time_elapsed":723533,"internal_node_id":"0.0-4.0-1.40","subject_id":"5f2eb919a638c92463503542","study_id":"6197b3f67c2b5cd3b6d9596a","session_id":"619beefc57904b8c099c8cd3","condition":"contingent","relevant_dimensions":["wings","legs"],"bee_group":{"antennae":"X","wings":"2","pattern":"X","legs":"M"},"bonus":0.42000000000000054},{"rt":861.1000000238419,"stimulus":"bees-with-color/bee-B1SF.svg","response":0,"trial_type":"image-button-response","trial_index":89,"time_elapsed":724397,"internal_node_id":"0.0-4.0-0.41","subject_id":"5f2eb919a638c92463503542","study_id":"6197b3f67c2b5cd3b6d9596a","session_id":"619beefc57904b8c099c8cd3","condition":"contingent","relevant_dimensions":["wings","legs"],"bee_group":{"antennae":"X","wings":"2","pattern":"X","legs":"M"},"action":"harvest","summary":"good-harvest","bonus":0.42000000000000054},{"rt":822.7999999523163,"stimulus":"\n                    <p><b>Action: <em>harvest</em></b></p>\n                    <p>This is the bee that you just saw.</p>\n                    <img src=\"bees-with-color/bee-B1SF.svg\" width=\"200\">\n                    <p><span class=\"greenText\"><b>Successful harvest!</b></span><br>Your pay has increased by $0.02. Your bonus pay is now $0.22.</p>\n            ","response":0,"trial_type":"html-button-response","trial_index":90,"time_elapsed":725221,"internal_node_id":"0.0-4.0-1.41","subject_id":"5f2eb919a638c92463503542","study_id":"6197b3f67c2b5cd3b6d9596a","session_id":"619beefc57904b8c099c8cd3","condition":"contingent","relevant_dimensions":["wings","legs"],"bee_group":{"antennae":"X","wings":"2","pattern":"X","legs":"M"},"bonus":0.42000000000000054},{"rt":1015.1000000238419,"stimulus":"bees-with-color/bee-A2SM.svg","response":1,"trial_type":"image-button-response","trial_index":91,"time_elapsed":726237,"internal_node_id":"0.0-4.0-0.42","subject_id":"5f2eb919a638c92463503542","study_id":"6197b3f67c2b5cd3b6d9596a","session_id":"619beefc57904b8c099c8cd3","condition":"contingent","relevant_dimensions":["wings","legs"],"bee_group":{"antennae":"X","wings":"2","pattern":"X","legs":"M"},"action":"avoid","summary":"good-avoid","bonus":0.42000000000000054},{"rt":719.1000000238419,"stimulus":"\n                    <p><b>Action: <em>avoid</em></b></p>\n                    <p>This is the bee that you just saw.</p>\n                    <img src=\"bees-with-color/bee-A2SM.svg\" width=\"200\">\n                    <p><br>Your bonus pay is unchanged, and remains at $0.22.</p>\n            ","response":0,"trial_type":"html-button-response","trial_index":92,"time_elapsed":726958,"internal_node_id":"0.0-4.0-1.42","subject_id":"5f2eb919a638c92463503542","study_id":"6197b3f67c2b5cd3b6d9596a","session_id":"619beefc57904b8c099c8cd3","condition":"contingent","relevant_dimensions":["wings","legs"],"bee_group":{"antennae":"X","wings":"2","pattern":"X","legs":"M"},"bonus":0.42000000000000054},{"rt":1895.1999999284744,"stimulus":"bees-with-color/bee-A1SF.svg","response":1,"trial_type":"image-button-response","trial_index":93,"time_elapsed":728854,"internal_node_id":"0.0-4.0-0.43","subject_id":"5f2eb919a638c92463503542","study_id":"6197b3f67c2b5cd3b6d9596a","session_id":"619beefc57904b8c099c8cd3","condition":"contingent","relevant_dimensions":["wings","legs"],"bee_group":{"antennae":"X","wings":"2","pattern":"X","legs":"M"},"action":"avoid","summary":"bad-avoid","bonus":0.42000000000000054},{"rt":910.5,"stimulus":"\n                    <p><b>Action: <em>avoid</em></b></p>\n                    <p>This is the bee that you just saw.</p>\n                    <img src=\"bees-with-color/bee-A1SF.svg\" width=\"200\">\n                    <p><br>Your bonus pay is unchanged, and remains at $0.22.</p>\n            ","response":0,"trial_type":"html-button-response","trial_index":94,"time_elapsed":729766,"internal_node_id":"0.0-4.0-1.43","subject_id":"5f2eb919a638c92463503542","study_id":"6197b3f67c2b5cd3b6d9596a","session_id":"619beefc57904b8c099c8cd3","condition":"contingent","relevant_dimensions":["wings","legs"],"bee_group":{"antennae":"X","wings":"2","pattern":"X","legs":"M"},"bonus":0.42000000000000054},{"rt":959.1000000238419,"stimulus":"bees-with-color/bee-A2DF.svg","response":0,"trial_type":"image-button-response","trial_index":95,"time_elapsed":730726,"internal_node_id":"0.0-4.0-0.44","subject_id":"5f2eb919a638c92463503542","study_id":"6197b3f67c2b5cd3b6d9596a","session_id":"619beefc57904b8c099c8cd3","condition":"contingent","relevant_dimensions":["wings","legs"],"bee_group":{"antennae":"X","wings":"2","pattern":"X","legs":"M"},"action":"harvest","summary":"good-harvest","bonus":0.42000000000000054},{"rt":606.5999999046326,"stimulus":"\n                    <p><b>Action: <em>harvest</em></b></p>\n                    <p>This is the bee that you just saw.</p>\n                    <img src=\"bees-with-color/bee-A2DF.svg\" width=\"200\">\n                    <p><span class=\"greenText\"><b>Successful harvest!</b></span><br>Your pay has increased by $0.02. Your bonus pay is now $0.24.</p>\n            ","response":0,"trial_type":"html-button-response","trial_index":96,"time_elapsed":731334,"internal_node_id":"0.0-4.0-1.44","subject_id":"5f2eb919a638c92463503542","study_id":"6197b3f67c2b5cd3b6d9596a","session_id":"619beefc57904b8c099c8cd3","condition":"contingent","relevant_dimensions":["wings","legs"],"bee_group":{"antennae":"X","wings":"2","pattern":"X","legs":"M"},"bonus":0.42000000000000054},{"rt":613.5,"stimulus":"bees-with-color/bee-A2SF.svg","response":1,"trial_type":"image-button-response","trial_index":97,"time_elapsed":731950,"internal_node_id":"0.0-4.0-0.45","subject_id":"5f2eb919a638c92463503542","study_id":"6197b3f67c2b5cd3b6d9596a","session_id":"619beefc57904b8c099c8cd3","condition":"contingent","relevant_dimensions":["wings","legs"],"bee_group":{"antennae":"X","wings":"2","pattern":"X","legs":"M"},"action":"avoid","summary":"bad-avoid","bonus":0.42000000000000054},{"rt":694.5,"stimulus":"\n                    <p><b>Action: <em>avoid</em></b></p>\n                    <p>This is the bee that you just saw.</p>\n                    <img src=\"bees-with-color/bee-A2SF.svg\" width=\"200\">\n                    <p><br>Your bonus pay is unchanged, and remains at $0.24.</p>\n            ","response":0,"trial_type":"html-button-response","trial_index":98,"time_elapsed":732645,"internal_node_id":"0.0-4.0-1.45","subject_id":"5f2eb919a638c92463503542","study_id":"6197b3f67c2b5cd3b6d9596a","session_id":"619beefc57904b8c099c8cd3","condition":"contingent","relevant_dimensions":["wings","legs"],"bee_group":{"antennae":"X","wings":"2","pattern":"X","legs":"M"},"bonus":0.42000000000000054},{"rt":823.2000000476837,"stimulus":"bees-with-color/bee-A1SM.svg","response":1,"trial_type":"image-button-response","trial_index":99,"time_elapsed":733470,"internal_node_id":"0.0-4.0-0.46","subject_id":"5f2eb919a638c92463503542","study_id":"6197b3f67c2b5cd3b6d9596a","session_id":"619beefc57904b8c099c8cd3","condition":"contingent","relevant_dimensions":["wings","legs"],"bee_group":{"antennae":"X","wings":"2","pattern":"X","legs":"M"},"action":"avoid","summary":"bad-avoid","bonus":0.42000000000000054},{"rt":854.2999999523163,"stimulus":"\n                    <p><b>Action: <em>avoid</em></b></p>\n                    <p>This is the bee that you just saw.</p>\n                    <img src=\"bees-with-color/bee-A1SM.svg\" width=\"200\">\n                    <p><br>Your bonus pay is unchanged, and remains at $0.24.</p>\n            ","response":0,"trial_type":"html-button-response","trial_index":100,"time_elapsed":734326,"internal_node_id":"0.0-4.0-1.46","subject_id":"5f2eb919a638c92463503542","study_id":"6197b3f67c2b5cd3b6d9596a","session_id":"619beefc57904b8c099c8cd3","condition":"contingent","relevant_dimensions":["wings","legs"],"bee_group":{"antennae":"X","wings":"2","pattern":"X","legs":"M"},"bonus":0.42000000000000054},{"rt":1062.7000000476837,"stimulus":"bees-with-color/bee-B2DM.svg","response":1,"trial_type":"image-button-response","trial_index":101,"time_elapsed":735389,"internal_node_id":"0.0-4.0-0.47","subject_id":"5f2eb919a638c92463503542","study_id":"6197b3f67c2b5cd3b6d9596a","session_id":"619beefc57904b8c099c8cd3","condition":"contingent","relevant_dimensions":["wings","legs"],"bee_group":{"antennae":"X","wings":"2","pattern":"X","legs":"M"},"action":"avoid","summary":"good-avoid","bonus":0.42000000000000054},{"rt":830.8999999761581,"stimulus":"\n                    <p><b>Action: <em>avoid</em></b></p>\n                    <p>This is the bee that you just saw.</p>\n                    <img src=\"bees-with-color/bee-B2DM.svg\" width=\"200\">\n                    <p><br>Your bonus pay is unchanged, and remains at $0.24.</p>\n            ","response":0,"trial_type":"html-button-response","trial_index":102,"time_elapsed":736221,"internal_node_id":"0.0-4.0-1.47","subject_id":"5f2eb919a638c92463503542","study_id":"6197b3f67c2b5cd3b6d9596a","session_id":"619beefc57904b8c099c8cd3","condition":"contingent","relevant_dimensions":["wings","legs"],"bee_group":{"antennae":"X","wings":"2","pattern":"X","legs":"M"},"bonus":0.42000000000000054},{"rt":1359.1000000238419,"stimulus":"bees-with-color/bee-B1SF.svg","response":0,"trial_type":"image-button-response","trial_index":103,"time_elapsed":737582,"internal_node_id":"0.0-4.0-0.48","subject_id":"5f2eb919a638c92463503542","study_id":"6197b3f67c2b5cd3b6d9596a","session_id":"619beefc57904b8c099c8cd3","condition":"contingent","relevant_dimensions":["wings","legs"],"bee_group":{"antennae":"X","wings":"2","pattern":"X","legs":"M"},"action":"harvest","summary":"good-harvest","bonus":0.42000000000000054},{"rt":830.3999999761581,"stimulus":"\n                    <p><b>Action: <em>harvest</em></b></p>\n                    <p>This is the bee that you just saw.</p>\n                    <img src=\"bees-with-color/bee-B1SF.svg\" width=\"200\">\n                    <p><span class=\"greenText\"><b>Successful harvest!</b></span><br>Your pay has increased by $0.02. Your bonus pay is now $0.26.</p>\n            ","response":0,"trial_type":"html-button-response","trial_index":104,"time_elapsed":738413,"internal_node_id":"0.0-4.0-1.48","subject_id":"5f2eb919a638c92463503542","study_id":"6197b3f67c2b5cd3b6d9596a","session_id":"619beefc57904b8c099c8cd3","condition":"contingent","relevant_dimensions":["wings","legs"],"bee_group":{"antennae":"X","wings":"2","pattern":"X","legs":"M"},"bonus":0.42000000000000054},{"rt":1310.8999999761581,"stimulus":"bees-with-color/bee-A1DM.svg","response":1,"trial_type":"image-button-response","trial_index":105,"time_elapsed":739726,"internal_node_id":"0.0-4.0-0.49","subject_id":"5f2eb919a638c92463503542","study_id":"6197b3f67c2b5cd3b6d9596a","session_id":"619beefc57904b8c099c8cd3","condition":"contingent","relevant_dimensions":["wings","legs"],"bee_group":{"antennae":"X","wings":"2","pattern":"X","legs":"M"},"action":"avoid","summary":"bad-avoid","bonus":0.42000000000000054},{"rt":959.5999999046326,"stimulus":"\n                    <p><b>Action: <em>avoid</em></b></p>\n                    <p>This is the bee that you just saw.</p>\n                    <img src=\"bees-with-color/bee-A1DM.svg\" width=\"200\">\n                    <p><br>Your bonus pay is unchanged, and remains at $0.26.</p>\n            ","response":0,"trial_type":"html-button-response","trial_index":106,"time_elapsed":740686,"internal_node_id":"0.0-4.0-1.49","subject_id":"5f2eb919a638c92463503542","study_id":"6197b3f67c2b5cd3b6d9596a","session_id":"619beefc57904b8c099c8cd3","condition":"contingent","relevant_dimensions":["wings","legs"],"bee_group":{"antennae":"X","wings":"2","pattern":"X","legs":"M"},"bonus":0.42000000000000054},{"rt":621.7999999523163,"stimulus":"bees-with-color/bee-B2DF.svg","response":0,"trial_type":"image-button-response","trial_index":107,"time_elapsed":741309,"internal_node_id":"0.0-4.0-0.50","subject_id":"5f2eb919a638c92463503542","study_id":"6197b3f67c2b5cd3b6d9596a","session_id":"619beefc57904b8c099c8cd3","condition":"contingent","relevant_dimensions":["wings","legs"],"bee_group":{"antennae":"X","wings":"2","pattern":"X","legs":"M"},"action":"harvest","summary":"good-harvest","bonus":0.42000000000000054},{"rt":871.0999999046326,"stimulus":"\n                    <p><b>Action: <em>harvest</em></b></p>\n                    <p>This is the bee that you just saw.</p>\n                    <img src=\"bees-with-color/bee-B2DF.svg\" width=\"200\">\n                    <p><span class=\"greenText\"><b>Successful harvest!</b></span><br>Your pay has increased by $0.02. Your bonus pay is now $0.28.</p>\n            ","response":0,"trial_type":"html-button-response","trial_index":108,"time_elapsed":742182,"internal_node_id":"0.0-4.0-1.50","subject_id":"5f2eb919a638c92463503542","study_id":"6197b3f67c2b5cd3b6d9596a","session_id":"619beefc57904b8c099c8cd3","condition":"contingent","relevant_dimensions":["wings","legs"],"bee_group":{"antennae":"X","wings":"2","pattern":"X","legs":"M"},"bonus":0.42000000000000054},{"rt":742.3999999761581,"stimulus":"bees-with-color/bee-A2DM.svg","response":0,"trial_type":"image-button-response","trial_index":109,"time_elapsed":742925,"internal_node_id":"0.0-4.0-0.51","subject_id":"5f2eb919a638c92463503542","study_id":"6197b3f67c2b5cd3b6d9596a","session_id":"619beefc57904b8c099c8cd3","condition":"contingent","relevant_dimensions":["wings","legs"],"bee_group":{"antennae":"X","wings":"2","pattern":"X","legs":"M"},"action":"harvest","summary":"bad-harvest","bonus":0.42000000000000054},{"rt":814.8999999761581,"stimulus":"\n                    <p><b>Action: <em>harvest</em></b></p>\n                    <p>This is the bee that you just saw.</p>\n                    <img src=\"bees-with-color/bee-A2DM.svg\" width=\"200\">\n                    <p><span class=\"redText\">Bad choice, the bee was angry.</span><br><b>You have been stung!</b><br>Your pay has been decreased by $0.10. Your bonus pay is now $0.18.</p>\n            ","response":0,"trial_type":"html-button-response","trial_index":110,"time_elapsed":743742,"internal_node_id":"0.0-4.0-1.51","subject_id":"5f2eb919a638c92463503542","study_id":"6197b3f67c2b5cd3b6d9596a","session_id":"619beefc57904b8c099c8cd3","condition":"contingent","relevant_dimensions":["wings","legs"],"bee_group":{"antennae":"X","wings":"2","pattern":"X","legs":"M"},"bonus":0.42000000000000054},{"rt":862.5999999046326,"stimulus":"bees-with-color/bee-B2DM.svg","response":1,"trial_type":"image-button-response","trial_index":111,"time_elapsed":744605,"internal_node_id":"0.0-4.0-0.52","subject_id":"5f2eb919a638c92463503542","study_id":"6197b3f67c2b5cd3b6d9596a","session_id":"619beefc57904b8c099c8cd3","condition":"contingent","relevant_dimensions":["wings","legs"],"bee_group":{"antennae":"X","wings":"2","pattern":"X","legs":"M"},"action":"avoid","summary":"good-avoid","bonus":0.42000000000000054},{"rt":655,"stimulus":"\n                    <p><b>Action: <em>avoid</em></b></p>\n                    <p>This is the bee that you just saw.</p>\n                    <img src=\"bees-with-color/bee-B2DM.svg\" width=\"200\">\n                    <p><br>Your bonus pay is unchanged, and remains at $0.18.</p>\n            ","response":0,"trial_type":"html-button-response","trial_index":112,"time_elapsed":745262,"internal_node_id":"0.0-4.0-1.52","subject_id":"5f2eb919a638c92463503542","study_id":"6197b3f67c2b5cd3b6d9596a","session_id":"619beefc57904b8c099c8cd3","condition":"contingent","relevant_dimensions":["wings","legs"],"bee_group":{"antennae":"X","wings":"2","pattern":"X","legs":"M"},"bonus":0.42000000000000054},{"rt":567.0999999046326,"stimulus":"bees-with-color/bee-A2DF.svg","response":0,"trial_type":"image-button-response","trial_index":113,"time_elapsed":745830,"internal_node_id":"0.0-4.0-0.53","subject_id":"5f2eb919a638c92463503542","study_id":"6197b3f67c2b5cd3b6d9596a","session_id":"619beefc57904b8c099c8cd3","condition":"contingent","relevant_dimensions":["wings","legs"],"bee_group":{"antennae":"X","wings":"2","pattern":"X","legs":"M"},"action":"harvest","summary":"good-harvest","bonus":0.42000000000000054},{"rt":639,"stimulus":"\n                    <p><b>Action: <em>harvest</em></b></p>\n                    <p>This is the bee that you just saw.</p>\n                    <img src=\"bees-with-color/bee-A2DF.svg\" width=\"200\">\n                    <p><span class=\"greenText\"><b>Successful harvest!</b></span><br>Your pay has increased by $0.02. Your bonus pay is now $0.20.</p>\n            ","response":0,"trial_type":"html-button-response","trial_index":114,"time_elapsed":746470,"internal_node_id":"0.0-4.0-1.53","subject_id":"5f2eb919a638c92463503542","study_id":"6197b3f67c2b5cd3b6d9596a","session_id":"619beefc57904b8c099c8cd3","condition":"contingent","relevant_dimensions":["wings","legs"],"bee_group":{"antennae":"X","wings":"2","pattern":"X","legs":"M"},"bonus":0.42000000000000054},{"rt":894.1999999284744,"stimulus":"bees-with-color/bee-B1DF.svg","response":0,"trial_type":"image-button-response","trial_index":115,"time_elapsed":747366,"internal_node_id":"0.0-4.0-0.54","subject_id":"5f2eb919a638c92463503542","study_id":"6197b3f67c2b5cd3b6d9596a","session_id":"619beefc57904b8c099c8cd3","condition":"contingent","relevant_dimensions":["wings","legs"],"bee_group":{"antennae":"X","wings":"2","pattern":"X","legs":"M"},"action":"harvest","summary":"good-harvest","bonus":0.42000000000000054},{"rt":654.5,"stimulus":"\n                    <p><b>Action: <em>harvest</em></b></p>\n                    <p>This is the bee that you just saw.</p>\n                    <img src=\"bees-with-color/bee-B1DF.svg\" width=\"200\">\n                    <p><span class=\"greenText\"><b>Successful harvest!</b></span><br>Your pay has increased by $0.02. Your bonus pay is now $0.22.</p>\n            ","response":0,"trial_type":"html-button-response","trial_index":116,"time_elapsed":748021,"internal_node_id":"0.0-4.0-1.54","subject_id":"5f2eb919a638c92463503542","study_id":"6197b3f67c2b5cd3b6d9596a","session_id":"619beefc57904b8c099c8cd3","condition":"contingent","relevant_dimensions":["wings","legs"],"bee_group":{"antennae":"X","wings":"2","pattern":"X","legs":"M"},"bonus":0.42000000000000054},{"rt":783.3000000715256,"stimulus":"bees-with-color/bee-B2SF.svg","response":0,"trial_type":"image-button-response","trial_index":117,"time_elapsed":748806,"internal_node_id":"0.0-4.0-0.55","subject_id":"5f2eb919a638c92463503542","study_id":"6197b3f67c2b5cd3b6d9596a","session_id":"619beefc57904b8c099c8cd3","condition":"contingent","relevant_dimensions":["wings","legs"],"bee_group":{"antennae":"X","wings":"2","pattern":"X","legs":"M"},"action":"harvest","summary":"good-harvest","bonus":0.42000000000000054},{"rt":974.7000000476837,"stimulus":"\n                    <p><b>Action: <em>harvest</em></b></p>\n                    <p>This is the bee that you just saw.</p>\n                    <img src=\"bees-with-color/bee-B2SF.svg\" width=\"200\">\n                    <p><span class=\"greenText\"><b>Successful harvest!</b></span><br>Your pay has increased by $0.02. Your bonus pay is now $0.24.</p>\n            ","response":0,"trial_type":"html-button-response","trial_index":118,"time_elapsed":749782,"internal_node_id":"0.0-4.0-1.55","subject_id":"5f2eb919a638c92463503542","study_id":"6197b3f67c2b5cd3b6d9596a","session_id":"619beefc57904b8c099c8cd3","condition":"contingent","relevant_dimensions":["wings","legs"],"bee_group":{"antennae":"X","wings":"2","pattern":"X","legs":"M"},"bonus":0.42000000000000054},{"rt":1286.3000000715256,"stimulus":"bees-with-color/bee-A1DF.svg","response":0,"trial_type":"image-button-response","trial_index":119,"time_elapsed":751069,"internal_node_id":"0.0-4.0-0.56","subject_id":"5f2eb919a638c92463503542","study_id":"6197b3f67c2b5cd3b6d9596a","session_id":"619beefc57904b8c099c8cd3","condition":"contingent","relevant_dimensions":["wings","legs"],"bee_group":{"antennae":"X","wings":"2","pattern":"X","legs":"M"},"action":"harvest","summary":"good-harvest","bonus":0.42000000000000054},{"rt":903,"stimulus":"\n                    <p><b>Action: <em>harvest</em></b></p>\n                    <p>This is the bee that you just saw.</p>\n                    <img src=\"bees-with-color/bee-A1DF.svg\" width=\"200\">\n                    <p><span class=\"greenText\"><b>Successful harvest!</b></span><br>Your pay has increased by $0.02. Your bonus pay is now $0.26.</p>\n            ","response":0,"trial_type":"html-button-response","trial_index":120,"time_elapsed":751973,"internal_node_id":"0.0-4.0-1.56","subject_id":"5f2eb919a638c92463503542","study_id":"6197b3f67c2b5cd3b6d9596a","session_id":"619beefc57904b8c099c8cd3","condition":"contingent","relevant_dimensions":["wings","legs"],"bee_group":{"antennae":"X","wings":"2","pattern":"X","legs":"M"},"bonus":0.42000000000000054},{"rt":950.7000000476837,"stimulus":"bees-with-color/bee-A2SF.svg","response":0,"trial_type":"image-button-response","trial_index":121,"time_elapsed":752926,"internal_node_id":"0.0-4.0-0.57","subject_id":"5f2eb919a638c92463503542","study_id":"6197b3f67c2b5cd3b6d9596a","session_id":"619beefc57904b8c099c8cd3","condition":"contingent","relevant_dimensions":["wings","legs"],"bee_group":{"antennae":"X","wings":"2","pattern":"X","legs":"M"},"action":"harvest","summary":"good-harvest","bonus":0.42000000000000054},{"rt":758.7000000476837,"stimulus":"\n                    <p><b>Action: <em>harvest</em></b></p>\n                    <p>This is the bee that you just saw.</p>\n                    <img src=\"bees-with-color/bee-A2SF.svg\" width=\"200\">\n                    <p><span class=\"greenText\"><b>Successful harvest!</b></span><br>Your pay has increased by $0.02. Your bonus pay is now $0.28.</p>\n            ","response":0,"trial_type":"html-button-response","trial_index":122,"time_elapsed":753686,"internal_node_id":"0.0-4.0-1.57","subject_id":"5f2eb919a638c92463503542","study_id":"6197b3f67c2b5cd3b6d9596a","session_id":"619beefc57904b8c099c8cd3","condition":"contingent","relevant_dimensions":["wings","legs"],"bee_group":{"antennae":"X","wings":"2","pattern":"X","legs":"M"},"bonus":0.42000000000000054},{"rt":950.1999999284744,"stimulus":"bees-with-color/bee-B2SM.svg","response":0,"trial_type":"image-button-response","trial_index":123,"time_elapsed":754638,"internal_node_id":"0.0-4.0-0.58","subject_id":"5f2eb919a638c92463503542","study_id":"6197b3f67c2b5cd3b6d9596a","session_id":"619beefc57904b8c099c8cd3","condition":"contingent","relevant_dimensions":["wings","legs"],"bee_group":{"antennae":"X","wings":"2","pattern":"X","legs":"M"},"action":"harvest","summary":"bad-harvest","bonus":0.42000000000000054},{"rt":2038.6000000238419,"stimulus":"\n                    <p><b>Action: <em>harvest</em></b></p>\n                    <p>This is the bee that you just saw.</p>\n                    <img src=\"bees-with-color/bee-B2SM.svg\" width=\"200\">\n                    <p><span class=\"redText\">Bad choice, the bee was angry.</span><br><b>You have been stung!</b><br>Your pay has been decreased by $0.10. Your bonus pay is now $0.18.</p>\n            ","response":0,"trial_type":"html-button-response","trial_index":124,"time_elapsed":756678,"internal_node_id":"0.0-4.0-1.58","subject_id":"5f2eb919a638c92463503542","study_id":"6197b3f67c2b5cd3b6d9596a","session_id":"619beefc57904b8c099c8cd3","condition":"contingent","relevant_dimensions":["wings","legs"],"bee_group":{"antennae":"X","wings":"2","pattern":"X","legs":"M"},"bonus":0.42000000000000054},{"rt":1294.2999999523163,"stimulus":"bees-with-color/bee-A2SM.svg","response":1,"trial_type":"image-button-response","trial_index":125,"time_elapsed":757974,"internal_node_id":"0.0-4.0-0.59","subject_id":"5f2eb919a638c92463503542","study_id":"6197b3f67c2b5cd3b6d9596a","session_id":"619beefc57904b8c099c8cd3","condition":"contingent","relevant_dimensions":["wings","legs"],"bee_group":{"antennae":"X","wings":"2","pattern":"X","legs":"M"},"action":"avoid","summary":"good-avoid","bonus":0.42000000000000054},{"rt":702.7000000476837,"stimulus":"\n                    <p><b>Action: <em>avoid</em></b></p>\n                    <p>This is the bee that you just saw.</p>\n                    <img src=\"bees-with-color/bee-A2SM.svg\" width=\"200\">\n                    <p><br>Your bonus pay is unchanged, and remains at $0.18.</p>\n            ","response":0,"trial_type":"html-button-response","trial_index":126,"time_elapsed":758678,"internal_node_id":"0.0-4.0-1.59","subject_id":"5f2eb919a638c92463503542","study_id":"6197b3f67c2b5cd3b6d9596a","session_id":"619beefc57904b8c099c8cd3","condition":"contingent","relevant_dimensions":["wings","legs"],"bee_group":{"antennae":"X","wings":"2","pattern":"X","legs":"M"},"bonus":0.42000000000000054},{"rt":2855.6999999284744,"stimulus":"bees-with-color/bee-B1SM.svg","response":1,"trial_type":"image-button-response","trial_index":127,"time_elapsed":761534,"internal_node_id":"0.0-4.0-0.60","subject_id":"5f2eb919a638c92463503542","study_id":"6197b3f67c2b5cd3b6d9596a","session_id":"619beefc57904b8c099c8cd3","condition":"contingent","relevant_dimensions":["wings","legs"],"bee_group":{"antennae":"X","wings":"2","pattern":"X","legs":"M"},"action":"avoid","summary":"bad-avoid","bonus":0.42000000000000054},{"rt":621.6000000238419,"stimulus":"\n                    <p><b>Action: <em>avoid</em></b></p>\n                    <p>This is the bee that you just saw.</p>\n                    <img src=\"bees-with-color/bee-B1SM.svg\" width=\"200\">\n                    <p><br>Your bonus pay is unchanged, and remains at $0.18.</p>\n            ","response":0,"trial_type":"html-button-response","trial_index":128,"time_elapsed":762157,"internal_node_id":"0.0-4.0-1.60","subject_id":"5f2eb919a638c92463503542","study_id":"6197b3f67c2b5cd3b6d9596a","session_id":"619beefc57904b8c099c8cd3","condition":"contingent","relevant_dimensions":["wings","legs"],"bee_group":{"antennae":"X","wings":"2","pattern":"X","legs":"M"},"bonus":0.42000000000000054},{"rt":918.7999999523163,"stimulus":"bees-with-color/bee-A1SF.svg","response":0,"trial_type":"image-button-response","trial_index":129,"time_elapsed":763077,"internal_node_id":"0.0-4.0-0.61","subject_id":"5f2eb919a638c92463503542","study_id":"6197b3f67c2b5cd3b6d9596a","session_id":"619beefc57904b8c099c8cd3","condition":"contingent","relevant_dimensions":["wings","legs"],"bee_group":{"antennae":"X","wings":"2","pattern":"X","legs":"M"},"action":"harvest","summary":"good-harvest","bonus":0.42000000000000054},{"rt":782.7999999523163,"stimulus":"\n                    <p><b>Action: <em>harvest</em></b></p>\n                    <p>This is the bee that you just saw.</p>\n                    <img src=\"bees-with-color/bee-A1SF.svg\" width=\"200\">\n                    <p><span class=\"greenText\"><b>Successful harvest!</b></span><br>Your pay has increased by $0.02. Your bonus pay is now $0.20.</p>\n            ","response":0,"trial_type":"html-button-response","trial_index":130,"time_elapsed":763861,"internal_node_id":"0.0-4.0-1.61","subject_id":"5f2eb919a638c92463503542","study_id":"6197b3f67c2b5cd3b6d9596a","session_id":"619beefc57904b8c099c8cd3","condition":"contingent","relevant_dimensions":["wings","legs"],"bee_group":{"antennae":"X","wings":"2","pattern":"X","legs":"M"},"bonus":0.42000000000000054},{"rt":855.7000000476837,"stimulus":"bees-with-color/bee-A1SM.svg","response":0,"trial_type":"image-button-response","trial_index":131,"time_elapsed":764718,"internal_node_id":"0.0-4.0-0.62","subject_id":"5f2eb919a638c92463503542","study_id":"6197b3f67c2b5cd3b6d9596a","session_id":"619beefc57904b8c099c8cd3","condition":"contingent","relevant_dimensions":["wings","legs"],"bee_group":{"antennae":"X","wings":"2","pattern":"X","legs":"M"},"action":"harvest","summary":"good-harvest","bonus":0.42000000000000054},{"rt":990,"stimulus":"\n                    <p><b>Action: <em>harvest</em></b></p>\n                    <p>This is the bee that you just saw.</p>\n                    <img src=\"bees-with-color/bee-A1SM.svg\" width=\"200\">\n                    <p><span class=\"greenText\"><b>Successful harvest!</b></span><br>Your pay has increased by $0.02. Your bonus pay is now $0.22.</p>\n            ","response":0,"trial_type":"html-button-response","trial_index":132,"time_elapsed":765710,"internal_node_id":"0.0-4.0-1.62","subject_id":"5f2eb919a638c92463503542","study_id":"6197b3f67c2b5cd3b6d9596a","session_id":"619beefc57904b8c099c8cd3","condition":"contingent","relevant_dimensions":["wings","legs"],"bee_group":{"antennae":"X","wings":"2","pattern":"X","legs":"M"},"bonus":0.42000000000000054},{"rt":1918.8999999761581,"stimulus":"bees-with-color/bee-B1DM.svg","response":1,"trial_type":"image-button-response","trial_index":133,"time_elapsed":767630,"internal_node_id":"0.0-4.0-0.63","subject_id":"5f2eb919a638c92463503542","study_id":"6197b3f67c2b5cd3b6d9596a","session_id":"619beefc57904b8c099c8cd3","condition":"contingent","relevant_dimensions":["wings","legs"],"bee_group":{"antennae":"X","wings":"2","pattern":"X","legs":"M"},"action":"avoid","summary":"bad-avoid","bonus":0.42000000000000054},{"rt":1087.6000000238419,"stimulus":"\n                    <p><b>Action: <em>avoid</em></b></p>\n                    <p>This is the bee that you just saw.</p>\n                    <img src=\"bees-with-color/bee-B1DM.svg\" width=\"200\">\n                    <p><br>Your bonus pay is unchanged, and remains at $0.22.</p>\n            ","response":0,"trial_type":"html-button-response","trial_index":134,"time_elapsed":768718,"internal_node_id":"0.0-4.0-1.63","subject_id":"5f2eb919a638c92463503542","study_id":"6197b3f67c2b5cd3b6d9596a","session_id":"619beefc57904b8c099c8cd3","condition":"contingent","relevant_dimensions":["wings","legs"],"bee_group":{"antennae":"X","wings":"2","pattern":"X","legs":"M"},"bonus":0.42000000000000054},{"rt":8394.600000023842,"stimulus":"You have completed the first part of this experiment.<br><br>You will now begin a shorter second part, in which you will receive no feedback.<br>The same rules regarding bonus pay apply.<br><br>Press any key to begin.","response":" ","trial_type":"html-keyboard-response","trial_index":135,"time_elapsed":777115,"internal_node_id":"0.0-5.0","subject_id":"5f2eb919a638c92463503542","study_id":"6197b3f67c2b5cd3b6d9596a","session_id":"619beefc57904b8c099c8cd3","condition":"contingent","relevant_dimensions":["wings","legs"],"bee_group":{"antennae":"X","wings":"2","pattern":"X","legs":"M"},"bonus":0.42000000000000054},{"rt":2585,"stimulus":"bees-with-color/bee-A1SF.svg","response":1,"trial_type":"image-button-response","trial_index":136,"time_elapsed":779726,"internal_node_id":"0.0-6.0-0.0","subject_id":"5f2eb919a638c92463503542","study_id":"6197b3f67c2b5cd3b6d9596a","session_id":"619beefc57904b8c099c8cd3","condition":"contingent","relevant_dimensions":["wings","legs"],"bee_group":{"antennae":"X","wings":"2","pattern":"X","legs":"M"},"bonus":0.42000000000000054},{"rt":1726,"stimulus":"bees-with-color/bee-A2DF.svg","response":0,"trial_type":"image-button-response","trial_index":137,"time_elapsed":781453,"internal_node_id":"0.0-6.0-0.1","subject_id":"5f2eb919a638c92463503542","study_id":"6197b3f67c2b5cd3b6d9596a","session_id":"619beefc57904b8c099c8cd3","condition":"contingent","relevant_dimensions":["wings","legs"],"bee_group":{"antennae":"X","wings":"2","pattern":"X","legs":"M"},"bonus":0.42000000000000054},{"rt":2998.2999999523163,"stimulus":"bees-with-color/bee-B2DM.svg","response":1,"trial_type":"image-button-response","trial_index":138,"time_elapsed":784453,"internal_node_id":"0.0-6.0-0.2","subject_id":"5f2eb919a638c92463503542","study_id":"6197b3f67c2b5cd3b6d9596a","session_id":"619beefc57904b8c099c8cd3","condition":"contingent","relevant_dimensions":["wings","legs"],"bee_group":{"antennae":"X","wings":"2","pattern":"X","legs":"M"},"bonus":0.42000000000000054},{"rt":3622.399999976158,"stimulus":"bees-with-color/bee-A1SM.svg","response":1,"trial_type":"image-button-response","trial_index":139,"time_elapsed":788077,"internal_node_id":"0.0-6.0-0.3","subject_id":"5f2eb919a638c92463503542","study_id":"6197b3f67c2b5cd3b6d9596a","session_id":"619beefc57904b8c099c8cd3","condition":"contingent","relevant_dimensions":["wings","legs"],"bee_group":{"antennae":"X","wings":"2","pattern":"X","legs":"M"},"bonus":0.42000000000000054},{"rt":1029.7999999523163,"stimulus":"bees-with-color/bee-B1DM.svg","response":0,"trial_type":"image-button-response","trial_index":140,"time_elapsed":789109,"internal_node_id":"0.0-6.0-0.4","subject_id":"5f2eb919a638c92463503542","study_id":"6197b3f67c2b5cd3b6d9596a","session_id":"619beefc57904b8c099c8cd3","condition":"contingent","relevant_dimensions":["wings","legs"],"bee_group":{"antennae":"X","wings":"2","pattern":"X","legs":"M"},"bonus":0.42000000000000054},{"rt":1334.0999999046326,"stimulus":"bees-with-color/bee-B2SM.svg","response":1,"trial_type":"image-button-response","trial_index":141,"time_elapsed":790445,"internal_node_id":"0.0-6.0-0.5","subject_id":"5f2eb919a638c92463503542","study_id":"6197b3f67c2b5cd3b6d9596a","session_id":"619beefc57904b8c099c8cd3","condition":"contingent","relevant_dimensions":["wings","legs"],"bee_group":{"antennae":"X","wings":"2","pattern":"X","legs":"M"},"bonus":0.42000000000000054},{"rt":710.3999999761581,"stimulus":"bees-with-color/bee-B2SF.svg","response":0,"trial_type":"image-button-response","trial_index":142,"time_elapsed":791157,"internal_node_id":"0.0-6.0-0.6","subject_id":"5f2eb919a638c92463503542","study_id":"6197b3f67c2b5cd3b6d9596a","session_id":"619beefc57904b8c099c8cd3","condition":"contingent","relevant_dimensions":["wings","legs"],"bee_group":{"antennae":"X","wings":"2","pattern":"X","legs":"M"},"bonus":0.42000000000000054},{"rt":702.6000000238419,"stimulus":"bees-with-color/bee-B1DF.svg","response":0,"trial_type":"image-button-response","trial_index":143,"time_elapsed":791861,"internal_node_id":"0.0-6.0-0.7","subject_id":"5f2eb919a638c92463503542","study_id":"6197b3f67c2b5cd3b6d9596a","session_id":"619beefc57904b8c099c8cd3","condition":"contingent","relevant_dimensions":["wings","legs"],"bee_group":{"antennae":"X","wings":"2","pattern":"X","legs":"M"},"bonus":0.42000000000000054},{"rt":1070.6000000238419,"stimulus":"bees-with-color/bee-A2DM.svg","response":1,"trial_type":"image-button-response","trial_index":144,"time_elapsed":792934,"internal_node_id":"0.0-6.0-0.8","subject_id":"5f2eb919a638c92463503542","study_id":"6197b3f67c2b5cd3b6d9596a","session_id":"619beefc57904b8c099c8cd3","condition":"contingent","relevant_dimensions":["wings","legs"],"bee_group":{"antennae":"X","wings":"2","pattern":"X","legs":"M"},"bonus":0.42000000000000054},{"rt":757.7999999523163,"stimulus":"bees-with-color/bee-B2DF.svg","response":0,"trial_type":"image-button-response","trial_index":145,"time_elapsed":793693,"internal_node_id":"0.0-6.0-0.9","subject_id":"5f2eb919a638c92463503542","study_id":"6197b3f67c2b5cd3b6d9596a","session_id":"619beefc57904b8c099c8cd3","condition":"contingent","relevant_dimensions":["wings","legs"],"bee_group":{"antennae":"X","wings":"2","pattern":"X","legs":"M"},"bonus":0.42000000000000054},{"rt":904.6999999284744,"stimulus":"bees-with-color/bee-A1DF.svg","response":1,"trial_type":"image-button-response","trial_index":146,"time_elapsed":794600,"internal_node_id":"0.0-6.0-0.10","subject_id":"5f2eb919a638c92463503542","study_id":"6197b3f67c2b5cd3b6d9596a","session_id":"619beefc57904b8c099c8cd3","condition":"contingent","relevant_dimensions":["wings","legs"],"bee_group":{"antennae":"X","wings":"2","pattern":"X","legs":"M"},"bonus":0.42000000000000054},{"rt":507.2000000476837,"stimulus":"bees-with-color/bee-B1SM.svg","response":0,"trial_type":"image-button-response","trial_index":147,"time_elapsed":795109,"internal_node_id":"0.0-6.0-0.11","subject_id":"5f2eb919a638c92463503542","study_id":"6197b3f67c2b5cd3b6d9596a","session_id":"619beefc57904b8c099c8cd3","condition":"contingent","relevant_dimensions":["wings","legs"],"bee_group":{"antennae":"X","wings":"2","pattern":"X","legs":"M"},"bonus":0.42000000000000054},{"rt":789.6999999284744,"stimulus":"bees-with-color/bee-A1DM.svg","response":1,"trial_type":"image-button-response","trial_index":148,"time_elapsed":795901,"internal_node_id":"0.0-6.0-0.12","subject_id":"5f2eb919a638c92463503542","study_id":"6197b3f67c2b5cd3b6d9596a","session_id":"619beefc57904b8c099c8cd3","condition":"contingent","relevant_dimensions":["wings","legs"],"bee_group":{"antennae":"X","wings":"2","pattern":"X","legs":"M"},"bonus":0.42000000000000054},{"rt":582,"stimulus":"bees-with-color/bee-A2SM.svg","response":0,"trial_type":"image-button-response","trial_index":149,"time_elapsed":796485,"internal_node_id":"0.0-6.0-0.13","subject_id":"5f2eb919a638c92463503542","study_id":"6197b3f67c2b5cd3b6d9596a","session_id":"619beefc57904b8c099c8cd3","condition":"contingent","relevant_dimensions":["wings","legs"],"bee_group":{"antennae":"X","wings":"2","pattern":"X","legs":"M"},"bonus":0.42000000000000054},{"rt":606.3999999761581,"stimulus":"bees-with-color/bee-A2SF.svg","response":1,"trial_type":"image-button-response","trial_index":150,"time_elapsed":797093,"internal_node_id":"0.0-6.0-0.14","subject_id":"5f2eb919a638c92463503542","study_id":"6197b3f67c2b5cd3b6d9596a","session_id":"619beefc57904b8c099c8cd3","condition":"contingent","relevant_dimensions":["wings","legs"],"bee_group":{"antennae":"X","wings":"2","pattern":"X","legs":"M"},"bonus":0.42000000000000054},{"rt":758,"stimulus":"bees-with-color/bee-B1SF.svg","response":0,"trial_type":"image-button-response","trial_index":151,"time_elapsed":797853,"internal_node_id":"0.0-6.0-0.15","subject_id":"5f2eb919a638c92463503542","study_id":"6197b3f67c2b5cd3b6d9596a","session_id":"619beefc57904b8c099c8cd3","condition":"contingent","relevant_dimensions":["wings","legs"],"bee_group":{"antennae":"X","wings":"2","pattern":"X","legs":"M"},"bonus":0.42000000000000054},{"rt":1279.1000000238419,"stimulus":"bees-with-color/bee-A2DF.svg","response":0,"trial_type":"image-button-response","trial_index":152,"time_elapsed":799133,"internal_node_id":"0.0-6.0-0.16","subject_id":"5f2eb919a638c92463503542","study_id":"6197b3f67c2b5cd3b6d9596a","session_id":"619beefc57904b8c099c8cd3","condition":"contingent","relevant_dimensions":["wings","legs"],"bee_group":{"antennae":"X","wings":"2","pattern":"X","legs":"M"},"bonus":0.42000000000000054},{"rt":1085.3999999761581,"stimulus":"bees-with-color/bee-A1DF.svg","response":0,"trial_type":"image-button-response","trial_index":153,"time_elapsed":800221,"internal_node_id":"0.0-6.0-0.17","subject_id":"5f2eb919a638c92463503542","study_id":"6197b3f67c2b5cd3b6d9596a","session_id":"619beefc57904b8c099c8cd3","condition":"contingent","relevant_dimensions":["wings","legs"],"bee_group":{"antennae":"X","wings":"2","pattern":"X","legs":"M"},"bonus":0.42000000000000054},{"rt":1254.5,"stimulus":"bees-with-color/bee-B2DM.svg","response":1,"trial_type":"image-button-response","trial_index":154,"time_elapsed":801477,"internal_node_id":"0.0-6.0-0.18","subject_id":"5f2eb919a638c92463503542","study_id":"6197b3f67c2b5cd3b6d9596a","session_id":"619beefc57904b8c099c8cd3","condition":"contingent","relevant_dimensions":["wings","legs"],"bee_group":{"antennae":"X","wings":"2","pattern":"X","legs":"M"},"bonus":0.42000000000000054},{"rt":1199,"stimulus":"bees-with-color/bee-B1DF.svg","response":1,"trial_type":"image-button-response","trial_index":155,"time_elapsed":802677,"internal_node_id":"0.0-6.0-0.19","subject_id":"5f2eb919a638c92463503542","study_id":"6197b3f67c2b5cd3b6d9596a","session_id":"619beefc57904b8c099c8cd3","condition":"contingent","relevant_dimensions":["wings","legs"],"bee_group":{"antennae":"X","wings":"2","pattern":"X","legs":"M"},"bonus":0.42000000000000054},{"rt":750.1999999284744,"stimulus":"bees-with-color/bee-B2DF.svg","response":0,"trial_type":"image-button-response","trial_index":156,"time_elapsed":803429,"internal_node_id":"0.0-6.0-0.20","subject_id":"5f2eb919a638c92463503542","study_id":"6197b3f67c2b5cd3b6d9596a","session_id":"619beefc57904b8c099c8cd3","condition":"contingent","relevant_dimensions":["wings","legs"],"bee_group":{"antennae":"X","wings":"2","pattern":"X","legs":"M"},"bonus":0.42000000000000054},{"rt":758.7000000476837,"stimulus":"bees-with-color/bee-A1DM.svg","response":1,"trial_type":"image-button-response","trial_index":157,"time_elapsed":804189,"internal_node_id":"0.0-6.0-0.21","subject_id":"5f2eb919a638c92463503542","study_id":"6197b3f67c2b5cd3b6d9596a","session_id":"619beefc57904b8c099c8cd3","condition":"contingent","relevant_dimensions":["wings","legs"],"bee_group":{"antennae":"X","wings":"2","pattern":"X","legs":"M"},"bonus":0.42000000000000054},{"rt":694.5,"stimulus":"bees-with-color/bee-A2SF.svg","response":0,"trial_type":"image-button-response","trial_index":158,"time_elapsed":804885,"internal_node_id":"0.0-6.0-0.22","subject_id":"5f2eb919a638c92463503542","study_id":"6197b3f67c2b5cd3b6d9596a","session_id":"619beefc57904b8c099c8cd3","condition":"contingent","relevant_dimensions":["wings","legs"],"bee_group":{"antennae":"X","wings":"2","pattern":"X","legs":"M"},"bonus":0.42000000000000054},{"rt":1070.7999999523163,"stimulus":"bees-with-color/bee-A2DM.svg","response":1,"trial_type":"image-button-response","trial_index":159,"time_elapsed":805957,"internal_node_id":"0.0-6.0-0.23","subject_id":"5f2eb919a638c92463503542","study_id":"6197b3f67c2b5cd3b6d9596a","session_id":"619beefc57904b8c099c8cd3","condition":"contingent","relevant_dimensions":["wings","legs"],"bee_group":{"antennae":"X","wings":"2","pattern":"X","legs":"M"},"bonus":0.42000000000000054},{"rt":1614.7000000476837,"stimulus":"bees-with-color/bee-A1SM.svg","response":1,"trial_type":"image-button-response","trial_index":160,"time_elapsed":807573,"internal_node_id":"0.0-6.0-0.24","subject_id":"5f2eb919a638c92463503542","study_id":"6197b3f67c2b5cd3b6d9596a","session_id":"619beefc57904b8c099c8cd3","condition":"contingent","relevant_dimensions":["wings","legs"],"bee_group":{"antennae":"X","wings":"2","pattern":"X","legs":"M"},"bonus":0.42000000000000054},{"rt":1174.7999999523163,"stimulus":"bees-with-color/bee-A1SF.svg","response":0,"trial_type":"image-button-response","trial_index":161,"time_elapsed":808749,"internal_node_id":"0.0-6.0-0.25","subject_id":"5f2eb919a638c92463503542","study_id":"6197b3f67c2b5cd3b6d9596a","session_id":"619beefc57904b8c099c8cd3","condition":"contingent","relevant_dimensions":["wings","legs"],"bee_group":{"antennae":"X","wings":"2","pattern":"X","legs":"M"},"bonus":0.42000000000000054},{"rt":958.1000000238419,"stimulus":"bees-with-color/bee-B2SF.svg","response":0,"trial_type":"image-button-response","trial_index":162,"time_elapsed":809709,"internal_node_id":"0.0-6.0-0.26","subject_id":"5f2eb919a638c92463503542","study_id":"6197b3f67c2b5cd3b6d9596a","session_id":"619beefc57904b8c099c8cd3","condition":"contingent","relevant_dimensions":["wings","legs"],"bee_group":{"antennae":"X","wings":"2","pattern":"X","legs":"M"},"bonus":0.42000000000000054},{"rt":1695.8999999761581,"stimulus":"bees-with-color/bee-B2SM.svg","response":1,"trial_type":"image-button-response","trial_index":163,"time_elapsed":811406,"internal_node_id":"0.0-6.0-0.27","subject_id":"5f2eb919a638c92463503542","study_id":"6197b3f67c2b5cd3b6d9596a","session_id":"619beefc57904b8c099c8cd3","condition":"contingent","relevant_dimensions":["wings","legs"],"bee_group":{"a