[{"success":true,"trial_type":"fullscreen","trial_index":0,"time_elapsed":17098,"internal_node_id":"0.0-0.0","subject_id":"6111334e642978207b491a5c","study_id":"60edd13110225f80f9f3709b","session_id":"6196ba742bf165b626704aa0","condition":"full-information","relevant_dimensions":["antennae","wings"],"bee_group":{"antennae":"B","wings":"2","pattern":"X","legs":"X"},"bonus":1.680000000000001},{"success":true,"timeout":false,"failed_images":[],"failed_audio":[],"failed_video":[],"trial_type":"preload","trial_index":1,"time_elapsed":18816,"internal_node_id":"0.0-1.0","subject_id":"6111334e642978207b491a5c","study_id":"60edd13110225f80f9f3709b","session_id":"6196ba742bf165b626704aa0","condition":"full-information","relevant_dimensions":["antennae","wings"],"bee_group":{"antennae":"B","wings":"2","pattern":"X","legs":"X"},"bonus":1.680000000000001},{"rt":7885.900000000023,"stimulus":"Welcome! Press any key to begin.","response":"enter","trial_type":"html-keyboard-response","trial_index":2,"time_elapsed":26702,"internal_node_id":"0.0-2.0","subject_id":"6111334e642978207b491a5c","study_id":"60edd13110225f80f9f3709b","session_id":"6196ba742bf165b626704aa0","condition":"full-information","relevant_dimensions":["antennae","wings"],"bee_group":{"antennae":"B","wings":"2","pattern":"X","legs":"X"},"bonus":1.680000000000001},{"view_history":[{"page_index":0,"viewing_time":4650.599999999977},{"page_index":1,"viewing_time":14419},{"page_index":2,"viewing_time":6043.900000000023},{"page_index":3,"viewing_time":13890.099999999977},{"page_index":4,"viewing_time":17926.900000000023},{"page_index":5,"viewing_time":3433.0999999999767},{"page_index":6,"viewing_time":4603.900000000023},{"page_index":7,"viewing_time":3642.9000000000233},{"page_index":8,"viewing_time":4987.099999999977},{"page_index":9,"viewing_time":3823.0999999999767},{"page_index":10,"viewing_time":3661},{"page_index":11,"viewing_time":7561.900000000023},{"page_index":12,"viewing_time":11434},{"page_index":13,"viewing_time":1262.9000000000233},{"page_index":14,"viewing_time":2252}],"rt":103592.79999999993,"trial_type":"instructions","trial_index":3,"time_elapsed":130289,"internal_node_id":"0.0-3.0-0.0","subject_id":"6111334e642978207b491a5c","study_id":"60edd13110225f80f9f3709b","session_id":"6196ba742bf165b626704aa0","condition":"full-information","relevant_dimensions":["antennae","wings"],"bee_group":{"antennae":"B","wings":"2","pattern":"X","legs":"X"},"bonus":1.680000000000001},{"rt":14439.800000000047,"response":{"Q0":["Two or six legs","Stripes or spots on body","Single or double wings","Antennae or no antennae"]},"question_order":[0],"trial_type":"survey-multi-select","trial_index":4,"time_elapsed":145663,"internal_node_id":"0.0-3.0-1.0","subject_id":"6111334e642978207b491a5c","study_id":"60edd13110225f80f9f3709b","session_id":"6196ba742bf165b626704aa0","condition":"full-information","relevant_dimensions":["antennae","wings"],"bee_group":{"antennae":"B","wings":"2","pattern":"X","legs":"X"},"correct":true,"bonus":1.680000000000001},{"rt":20450.20000000007,"response":{"Q1":"No.","Q2":"Based on the four features of the bee.","Q3":"You learn if it was friendly or dangerous, but do not alter your bonus."},"question_order":[0,1,2],"trial_type":"survey-multi-choice","trial_index":5,"time_elapsed":166115,"internal_node_id":"0.0-3.0-2.0","subject_id":"6111334e642978207b491a5c","study_id":"60edd13110225f80f9f3709b","session_id":"6196ba742bf165b626704aa0","condition":"full-information","relevant_dimensions":["antennae","wings"],"bee_group":{"antennae":"B","wings":"2","pattern":"X","legs":"X"},"correct":true,"bonus":1.680000000000001},{"rt":2781.5999999999767,"stimulus":"<p>Congrats, you got everything right<br>When you're ready, click the button below to continue to the experiment.</p>","response":0,"trial_type":"html-button-response","trial_index":6,"time_elapsed":168900,"internal_node_id":"0.0-3.0-3.0","subject_id":"6111334e642978207b491a5c","study_id":"60edd13110225f80f9f3709b","session_id":"6196ba742bf165b626704aa0","condition":"full-information","relevant_dimensions":["antennae","wings"],"bee_group":{"antennae":"B","wings":"2","pattern":"X","legs":"X"},"bonus":1.680000000000001},{"rt":25223.79999999993,"stimulus":"bees-with-color/bee-B1SF.svg","response":1,"trial_type":"image-button-response","trial_index":7,"time_elapsed":194125,"internal_node_id":"0.0-4.0-0.0","subject_id":"6111334e642978207b491a5c","study_id":"60edd13110225f80f9f3709b","session_id":"6196ba742bf165b626704aa0","condition":"full-information","relevant_dimensions":["antennae","wings"],"bee_group":{"antennae":"B","wings":"2","pattern":"X","legs":"X"},"action":"avoid","summary":"bad-avoid","bonus":1.680000000000001},{"rt":7037.300000000047,"stimulus":"\n                    <p><b>Action: <em>avoid</em></b></p>\n                    <p>This is the bee that you just saw.</p>\n                    <img src=\"bees-with-color/bee-B1SF.svg\" width=\"200\">\n                    <p><span class=\"redText\">Bad choice,</span> the bee was friendly.<br>Your bonus pay is unchanged, and remains at $0.54.</p>\n            ","response":0,"trial_type":"html-button-response","trial_index":8,"time_elapsed":201164,"internal_node_id":"0.0-4.0-1.0","subject_id":"6111334e642978207b491a5c","study_id":"60edd13110225f80f9f3709b","session_id":"6196ba742bf165b626704aa0","condition":"full-information","relevant_dimensions":["antennae","wings"],"bee_group":{"antennae":"B","wings":"2","pattern":"X","legs":"X"},"bonus":1.680000000000001},{"rt":18207.100000000093,"stimulus":"bees-with-color/bee-A1DM.svg","response":1,"trial_type":"image-button-response","trial_index":9,"time_elapsed":219372,"internal_node_id":"0.0-4.0-0.1","subject_id":"6111334e642978207b491a5c","study_id":"60edd13110225f80f9f3709b","session_id":"6196ba742bf165b626704aa0","condition":"full-information","relevant_dimensions":["antennae","wings"],"bee_group":{"antennae":"B","wings":"2","pattern":"X","legs":"X"},"action":"avoid","summary":"bad-avoid","bonus":1.680000000000001},{"rt":5617.5,"stimulus":"\n                    <p><b>Action: <em>avoid</em></b></p>\n                    <p>This is the bee that you just saw.</p>\n                    <img src=\"bees-with-color/bee-A1DM.svg\" width=\"200\">\n                    <p><span class=\"redText\">Bad choice,</span> the bee was friendly.<br>Your bonus pay is unchanged, and remains at $0.54.</p>\n            ","response":0,"trial_type":"html-button-response","trial_index":10,"time_elapsed":224991,"internal_node_id":"0.0-4.0-1.1","subject_id":"6111334e642978207b491a5c","study_id":"60edd13110225f80f9f3709b","session_id":"6196ba742bf165b626704aa0","condition":"full-information","relevant_dimensions":["antennae","wings"],"bee_group":{"antennae":"B","wings":"2","pattern":"X","legs":"X"},"bonus":1.680000000000001},{"rt":21082,"stimulus":"bees-with-color/bee-B2DF.svg","response":1,"trial_type":"image-button-response","trial_index":11,"time_elapsed":246073,"internal_node_id":"0.0-4.0-0.2","subject_id":"6111334e642978207b491a5c","study_id":"60edd13110225f80f9f3709b","session_id":"6196ba742bf165b626704aa0","condition":"full-information","relevant_dimensions":["antennae","wings"],"bee_group":{"antennae":"B","wings":"2","pattern":"X","legs":"X"},"action":"avoid","summary":"good-avoid","bonus":1.680000000000001},{"rt":12959.59999999986,"stimulus":"\n                    <p><b>Action: <em>avoid</em></b></p>\n                    <p>This is the bee that you just saw.</p>\n                    <img src=\"bees-with-color/bee-B2DF.svg\" width=\"200\">\n                    <p><span class=\"greenText\">Good choice!</span>  This bee would have stung you.<br>Your bonus pay is unchanged, and remains at $0.54.</p>\n            ","response":0,"trial_type":"html-button-response","trial_index":12,"time_elapsed":259033,"internal_node_id":"0.0-4.0-1.2","subject_id":"6111334e642978207b491a5c","study_id":"60edd13110225f80f9f3709b","session_id":"6196ba742bf165b626704aa0","condition":"full-information","relevant_dimensions":["antennae","wings"],"bee_group":{"antennae":"B","wings":"2","pattern":"X","legs":"X"},"bonus":1.680000000000001},{"rt":19948.5,"stimulus":"bees-with-color/bee-A2DM.svg","response":1,"trial_type":"image-button-response","trial_index":13,"time_elapsed":278982,"internal_node_id":"0.0-4.0-0.3","subject_id":"6111334e642978207b491a5c","study_id":"60edd13110225f80f9f3709b","session_id":"6196ba742bf165b626704aa0","condition":"full-information","relevant_dimensions":["antennae","wings"],"bee_group":{"antennae":"B","wings":"2","pattern":"X","legs":"X"},"action":"avoid","summary":"bad-avoid","bonus":1.680000000000001},{"rt":20585.600000000093,"stimulus":"\n                    <p><b>Action: <em>avoid</em></b></p>\n                    <p>This is the bee that you just saw.</p>\n                    <img src=\"bees-with-color/bee-A2DM.svg\" width=\"200\">\n                    <p><span class=\"redText\">Bad choice,</span> the bee was friendly.<br>Your bonus pay is unchanged, and remains at $0.54.</p>\n            ","response":0,"trial_type":"html-button-response","trial_index":14,"time_elapsed":299568,"internal_node_id":"0.0-4.0-1.3","subject_id":"6111334e642978207b491a5c","study_id":"60edd13110225f80f9f3709b","session_id":"6196ba742bf165b626704aa0","condition":"full-information","relevant_dimensions":["antennae","wings"],"bee_group":{"antennae":"B","wings":"2","pattern":"X","legs":"X"},"bonus":1.680000000000001},{"rt":13574.09999999986,"stimulus":"bees-with-color/bee-B2DM.svg","response":0,"trial_type":"image-button-response","trial_index":15,"time_elapsed":313143,"internal_node_id":"0.0-4.0-0.4","subject_id":"6111334e642978207b491a5c","study_id":"60edd13110225f80f9f3709b","session_id":"6196ba742bf165b626704aa0","condition":"full-information","relevant_dimensions":["antennae","wings"],"bee_group":{"antennae":"B","wings":"2","pattern":"X","legs":"X"},"action":"harvest","summary":"bad-harvest","bonus":1.680000000000001},{"rt":26277.5,"stimulus":"\n                    <p><b>Action: <em>harvest</em></b></p>\n                    <p>This is the bee that you just saw.</p>\n                    <img src=\"bees-with-color/bee-B2DM.svg\" width=\"200\">\n                    <p><span class=\"redText\">Bad choice, the bee was angry.</span><br><b>You have been stung!</b><br>Your pay has been decreased by $0.10. Your bonus pay is now $0.44.</p>\n            ","response":0,"trial_type":"html-button-response","trial_index":16,"time_elapsed":339420,"internal_node_id":"0.0-4.0-1.4","subject_id":"6111334e642978207b491a5c","study_id":"60edd13110225f80f9f3709b","session_id":"6196ba742bf165b626704aa0","condition":"full-information","relevant_dimensions":["antennae","wings"],"bee_group":{"antennae":"B","wings":"2","pattern":"X","legs":"X"},"bonus":1.680000000000001},{"rt":7493.5,"stimulus":"bees-with-color/bee-A2SM.svg","response":0,"trial_type":"image-button-response","trial_index":17,"time_elapsed":346915,"internal_node_id":"0.0-4.0-0.5","subject_id":"6111334e642978207b491a5c","study_id":"60edd13110225f80f9f3709b","session_id":"6196ba742bf165b626704aa0","condition":"full-information","relevant_dimensions":["antennae","wings"],"bee_group":{"antennae":"B","wings":"2","pattern":"X","legs":"X"},"action":"harvest","summary":"good-harvest","bonus":1.680000000000001},{"rt":16423.800000000047,"stimulus":"\n                    <p><b>Action: <em>harvest</em></b></p>\n                    <p>This is the bee that you just saw.</p>\n                    <img src=\"bees-with-color/bee-A2SM.svg\" width=\"200\">\n                    <p><span class=\"greenText\"><b>Successful harvest!</b></span><br>Your pay has increased by $0.02. Your bonus pay is now $0.46.</p>\n            ","response":0,"trial_type":"html-button-response","trial_index":18,"time_elapsed":363339,"internal_node_id":"0.0-4.0-1.5","subject_id":"6111334e642978207b491a5c","study_id":"60edd13110225f80f9f3709b","session_id":"6196ba742bf165b626704aa0","condition":"full-information","relevant_dimensions":["antennae","wings"],"bee_group":{"antennae":"B","wings":"2","pattern":"X","legs":"X"},"bonus":1.680000000000001},{"rt":15906,"stimulus":"bees-with-color/bee-B1DF.svg","response":1,"trial_type":"image-button-response","trial_index":19,"time_elapsed":379246,"internal_node_id":"0.0-4.0-0.6","subject_id":"6111334e642978207b491a5c","study_id":"60edd13110225f80f9f3709b","session_id":"6196ba742bf165b626704aa0","condition":"full-information","relevant_dimensions":["antennae","wings"],"bee_group":{"antennae":"B","wings":"2","pattern":"X","legs":"X"},"action":"avoid","summary":"bad-avoid","bonus":1.680000000000001},{"rt":14722.800000000047,"stimulus":"\n                    <p><b>Action: <em>avoid</em></b></p>\n                    <p>This is the bee that you just saw.</p>\n                    <img src=\"bees-with-color/bee-B1DF.svg\" width=\"200\">\n                    <p><span class=\"redText\">Bad choice,</span> the bee was friendly.<br>Your bonus pay is unchanged, and remains at $0.46.</p>\n            ","response":0,"trial_type":"html-button-response","trial_index":20,"time_elapsed":393969,"internal_node_id":"0.0-4.0-1.6","subject_id":"6111334e642978207b491a5c","study_id":"60edd13110225f80f9f3709b","session_id":"6196ba742bf165b626704aa0","condition":"full-information","relevant_dimensions":["antennae","wings"],"bee_group":{"antennae":"B","wings":"2","pattern":"X","legs":"X"},"bonus":1.680000000000001},{"rt":20135.399999999907,"stimulus":"bees-with-color/bee-A2SF.svg","response":0,"trial_type":"image-button-response","trial_index":21,"time_elapsed":414105,"internal_node_id":"0.0-4.0-0.7","subject_id":"6111334e642978207b491a5c","study_id":"60edd13110225f80f9f3709b","session_id":"6196ba742bf165b626704aa0","condition":"full-information","relevant_dimensions":["antennae","wings"],"bee_group":{"antennae":"B","wings":"2","pattern":"X","legs":"X"},"action":"harvest","summary":"good-harvest","bonus":1.680000000000001},{"rt":21348.5,"stimulus":"\n                    <p><b>Action: <em>harvest</em></b></p>\n                    <p>This is the bee that you just saw.</p>\n                    <img src=\"bees-with-color/bee-A2SF.svg\" width=\"200\">\n                    <p><span class=\"greenText\"><b>Successful harvest!</b></span><br>Your pay has increased by $0.02. Your bonus pay is now $0.48.</p>\n            ","response":0,"trial_type":"html-button-response","trial_index":22,"time_elapsed":435452,"internal_node_id":"0.0-4.0-1.7","subject_id":"6111334e642978207b491a5c","study_id":"60edd13110225f80f9f3709b","session_id":"6196ba742bf165b626704aa0","condition":"full-information","relevant_dimensions":["antennae","wings"],"bee_group":{"antennae":"B","wings":"2","pattern":"X","legs":"X"},"bonus":1.680000000000001},{"rt":4627.199999999953,"stimulus":"bees-with-color/bee-B2SF.svg","response":1,"trial_type":"image-button-response","trial_index":23,"time_elapsed":440081,"internal_node_id":"0.0-4.0-0.8","subject_id":"6111334e642978207b491a5c","study_id":"60edd13110225f80f9f3709b","session_id":"6196ba742bf165b626704aa0","condition":"full-information","relevant_dimensions":["antennae","wings"],"bee_group":{"antennae":"B","wings":"2","pattern":"X","legs":"X"},"action":"avoid","summary":"good-avoid","bonus":1.680000000000001},{"rt":13195.699999999953,"stimulus":"\n                    <p><b>Action: <em>avoid</em></b></p>\n                    <p>This is the bee that you just saw.</p>\n                    <img src=\"bees-with-color/bee-B2SF.svg\" width=\"200\">\n                    <p><span class=\"greenText\">Good choice!</span>  This bee would have stung you.<br>Your bonus pay is unchanged, and remains at $0.48.</p>\n            ","response":0,"trial_type":"html-button-response","trial_index":24,"time_elapsed":453277,"internal_node_id":"0.0-4.0-1.8","subject_id":"6111334e642978207b491a5c","study_id":"60edd13110225f80f9f3709b","session_id":"6196ba742bf165b626704aa0","condition":"full-information","relevant_dimensions":["antennae","wings"],"bee_group":{"antennae":"B","wings":"2","pattern":"X","legs":"X"},"bonus":1.680000000000001},{"rt":26064.299999999814,"stimulus":"bees-with-color/bee-B2SM.svg","response":1,"trial_type":"image-button-response","trial_index":25,"time_elapsed":479341,"internal_node_id":"0.0-4.0-0.9","subject_id":"6111334e642978207b491a5c","study_id":"60edd13110225f80f9f3709b","session_id":"6196ba742bf165b626704aa0","condition":"full-information","relevant_dimensions":["antennae","wings"],"bee_group":{"antennae":"B","wings":"2","pattern":"X","legs":"X"},"action":"avoid","summary":"good-avoid","bonus":1.680000000000001},{"rt":3491.399999999907,"stimulus":"\n                    <p><b>Action: <em>avoid</em></b></p>\n                    <p>This is the bee that you just saw.</p>\n                    <img src=\"bees-with-color/bee-B2SM.svg\" width=\"200\">\n                    <p><span class=\"greenText\">Good choice!</span>  This bee would have stung you.<br>Your bonus pay is unchanged, and remains at $0.48.</p>\n            ","response":0,"trial_type":"html-button-response","trial_index":26,"time_elapsed":482834,"internal_node_id":"0.0-4.0-1.9","subject_id":"6111334e642978207b491a5c","study_id":"60edd13110225f80f9f3709b","session_id":"6196ba742bf165b626704aa0","condition":"full-information","relevant_dimensions":["antennae","wings"],"bee_group":{"antennae":"B","wings":"2","pattern":"X","legs":"X"},"bonus":1.680000000000001},{"rt":7222.300000000047,"stimulus":"bees-with-color/bee-A1SM.svg","response":0,"trial_type":"image-button-response","trial_index":27,"time_elapsed":490057,"internal_node_id":"0.0-4.0-0.10","subject_id":"6111334e642978207b491a5c","study_id":"60edd13110225f80f9f3709b","session_id":"6196ba742bf165b626704aa0","condition":"full-information","relevant_dimensions":["antennae","wings"],"bee_group":{"antennae":"B","wings":"2","pattern":"X","legs":"X"},"action":"harvest","summary":"good-harvest","bonus":1.680000000000001},{"rt":3782.6999999999534,"stimulus":"\n                    <p><b>Action: <em>harvest</em></b></p>\n                    <p>This is the bee that you just saw.</p>\n                    <img src=\"bees-with-color/bee-A1SM.svg\" width=\"200\">\n                    <p><span class=\"greenText\"><b>Successful harvest!</b></span><br>Your pay has increased by $0.02. Your bonus pay is now $0.50.</p>\n            ","response":0,"trial_type":"html-button-response","trial_index":28,"time_elapsed":493841,"internal_node_id":"0.0-4.0-1.10","subject_id":"6111334e642978207b491a5c","study_id":"60edd13110225f80f9f3709b","session_id":"6196ba742bf165b626704aa0","condition":"full-information","relevant_dimensions":["antennae","wings"],"bee_group":{"antennae":"B","wings":"2","pattern":"X","legs":"X"},"bonus":1.680000000000001},{"rt":12808.59999999986,"stimulus":"bees-with-color/bee-A2DF.svg","response":0,"trial_type":"image-button-response","trial_index":29,"time_elapsed":506650,"internal_node_id":"0.0-4.0-0.11","subject_id":"6111334e642978207b491a5c","study_id":"60edd13110225f80f9f3709b","session_id":"6196ba742bf165b626704aa0","condition":"full-information","relevant_dimensions":["antennae","wings"],"bee_group":{"antennae":"B","wings":"2","pattern":"X","legs":"X"},"action":"harvest","summary":"good-harvest","bonus":1.680000000000001},{"rt":16463.600000000093,"stimulus":"\n                    <p><b>Action: <em>harvest</em></b></p>\n                    <p>This is the bee that you just saw.</p>\n                    <img src=\"bees-with-color/bee-A2DF.svg\" width=\"200\">\n                    <p><span class=\"greenText\"><b>Successful harvest!</b></span><br>Your pay has increased by $0.02. Your bonus pay is now $0.52.</p>\n            ","response":0,"trial_type":"html-button-response","trial_index":30,"time_elapsed":523114,"internal_node_id":"0.0-4.0-1.11","subject_id":"6111334e642978207b491a5c","study_id":"60edd13110225f80f9f3709b","session_id":"6196ba742bf165b626704aa0","condition":"full-information","relevant_dimensions":["antennae","wings"],"bee_group":{"antennae":"B","wings":"2","pattern":"X","legs":"X"},"bonus":1.680000000000001},{"rt":5549.600000000093,"stimulus":"bees-with-color/bee-A1SF.svg","response":0,"trial_type":"image-button-response","trial_index":31,"time_elapsed":528665,"internal_node_id":"0.0-4.0-0.12","subject_id":"6111334e642978207b491a5c","study_id":"60edd13110225f80f9f3709b","session_id":"6196ba742bf165b626704aa0","condition":"full-information","relevant_dimensions":["antennae","wings"],"bee_group":{"antennae":"B","wings":"2","pattern":"X","legs":"X"},"action":"harvest","summary":"good-harvest","bonus":1.680000000000001},{"rt":3738.5,"stimulus":"\n                    <p><b>Action: <em>harvest</em></b></p>\n                    <p>This is the bee that you just saw.</p>\n                    <img src=\"bees-with-color/bee-A1SF.svg\" width=\"200\">\n                    <p><span class=\"greenText\"><b>Successful harvest!</b></span><br>Your pay has increased by $0.02. Your bonus pay is now $0.54.</p>\n            ","response":0,"trial_type":"html-button-response","trial_index":32,"time_elapsed":532405,"internal_node_id":"0.0-4.0-1.12","subject_id":"6111334e642978207b491a5c","study_id":"60edd13110225f80f9f3709b","session_id":"6196ba742bf165b626704aa0","condition":"full-information","relevant_dimensions":["antennae","wings"],"bee_group":{"antennae":"B","wings":"2","pattern":"X","legs":"X"},"bonus":1.680000000000001},{"rt":23257.5,"stimulus":"bees-with-color/bee-B1DM.svg","response":1,"trial_type":"image-button-response","trial_index":33,"time_elapsed":555662,"internal_node_id":"0.0-4.0-0.13","subject_id":"6111334e642978207b491a5c","study_id":"60edd13110225f80f9f3709b","session_id":"6196ba742bf165b626704aa0","condition":"full-information","relevant_dimensions":["antennae","wings"],"bee_group":{"antennae":"B","wings":"2","pattern":"X","legs":"X"},"action":"avoid","summary":"bad-avoid","bonus":1.680000000000001},{"rt":4449.699999999953,"stimulus":"\n                    <p><b>Action: <em>avoid</em></b></p>\n                    <p>This is the bee that you just saw.</p>\n                    <img src=\"bees-with-color/bee-B1DM.svg\" width=\"200\">\n                    <p><span class=\"redText\">Bad choice,</span> the bee was friendly.<br>Your bonus pay is unchanged, and remains at $0.54.</p>\n            ","response":0,"trial_type":"html-button-response","trial_index":34,"time_elapsed":560113,"internal_node_id":"0.0-4.0-1.13","subject_id":"6111334e642978207b491a5c","study_id":"60edd13110225f80f9f3709b","session_id":"6196ba742bf165b626704aa0","condition":"full-information","relevant_dimensions":["antennae","wings"],"bee_group":{"antennae":"B","wings":"2","pattern":"X","legs":"X"},"bonus":1.680000000000001},{"rt":32550.399999999907,"stimulus":"bees-with-color/bee-A1DF.svg","response":1,"trial_type":"image-button-response","trial_index":35,"time_elapsed":592663,"internal_node_id":"0.0-4.0-0.14","subject_id":"6111334e642978207b491a5c","study_id":"60edd13110225f80f9f3709b","session_id":"6196ba742bf165b626704aa0","condition":"full-information","relevant_dimensions":["antennae","wings"],"bee_group":{"antennae":"B","wings":"2","pattern":"X","legs":"X"},"action":"avoid","summary":"bad-avoid","bonus":1.680000000000001},{"rt":4620.40000000014,"stimulus":"\n                    <p><b>Action: <em>avoid</em></b></p>\n                    <p>This is the bee that you just saw.</p>\n                    <img src=\"bees-with-color/bee-A1DF.svg\" width=\"200\">\n                    <p><span class=\"redText\">Bad choice,</span> the bee was friendly.<br>Your bonus pay is unchanged, and remains at $0.54.</p>\n            ","response":0,"trial_type":"html-button-response","trial_index":36,"time_elapsed":597285,"internal_node_id":"0.0-4.0-1.14","subject_id":"6111334e642978207b491a5c","study_id":"60edd13110225f80f9f3709b","session_id":"6196ba742bf165b626704aa0","condition":"full-information","relevant_dimensions":["antennae","wings"],"bee_group":{"antennae":"B","wings":"2","pattern":"X","legs":"X"},"bonus":1.680000000000001},{"rt":6610.800000000047,"stimulus":"bees-with-color/bee-B1SM.svg","response":1,"trial_type":"image-button-response","trial_index":37,"time_elapsed":603897,"internal_node_id":"0.0-4.0-0.15","subject_id":"6111334e642978207b491a5c","study_id":"60edd13110225f80f9f3709b","session_id":"6196ba742bf165b626704aa0","condition":"full-information","relevant_dimensions":["antennae","wings"],"bee_group":{"antennae":"B","wings":"2","pattern":"X","legs":"X"},"action":"avoid","summary":"bad-avoid","bonus":1.680000000000001},{"rt":18089.699999999953,"stimulus":"\n                    <p><b>Action: <em>avoid</em></b></p>\n                    <p>This is the bee that you just saw.</p>\n                    <img src=\"bees-with-color/bee-B1SM.svg\" width=\"200\">\n                    <p><span class=\"redText\">Bad choice,</span> the bee was friendly.<br>Your bonus pay is unchanged, and remains at $0.54.</p>\n            ","response":0,"trial_type":"html-button-response","trial_index":38,"time_elapsed":621986,"internal_node_id":"0.0-4.0-1.15","subject_id":"6111334e642978207b491a5c","study_id":"60edd13110225f80f9f3709b","session_id":"6196ba742bf165b626704aa0","condition":"full-information","relevant_dimensions":["antennae","wings"],"bee_group":{"antennae":"B","wings":"2","pattern":"X","legs":"X"},"bonus":1.680000000000001},{"rt":5755.5,"stimulus":"bees-with-color/bee-A1DF.svg","response":1,"trial_type":"image-button-response","trial_index":39,"time_elapsed":627743,"internal_node_id":"0.0-4.0-0.16","subject_id":"6111334e642978207b491a5c","study_id":"60edd13110225f80f9f3709b","session_id":"6196ba742bf165b626704aa0","condition":"full-information","relevant_dimensions":["antennae","wings"],"bee_group":{"antennae":"B","wings":"2","pattern":"X","legs":"X"},"action":"avoid","summary":"bad-avoid","bonus":1.680000000000001},{"rt":13612.800000000047,"stimulus":"\n                    <p><b>Action: <em>avoid</em></b></p>\n                    <p>This is the bee that you just saw.</p>\n                    <img src=\"bees-with-color/bee-A1DF.svg\" width=\"200\">\n                    <p><span class=\"redText\">Bad choice,</span> the bee was friendly.<br>Your bonus pay is unchanged, and remains at $0.54.</p>\n            ","response":0,"trial_type":"html-button-response","trial_index":40,"time_elapsed":641356,"internal_node_id":"0.0-4.0-1.16","subject_id":"6111334e642978207b491a5c","study_id":"60edd13110225f80f9f3709b","session_id":"6196ba742bf165b626704aa0","condition":"full-information","relevant_dimensions":["antennae","wings"],"bee_group":{"antennae":"B","wings":"2","pattern":"X","legs":"X"},"bonus":1.680000000000001},{"rt":7289.299999999814,"stimulus":"bees-with-color/bee-B1SM.svg","response":0,"trial_type":"image-button-response","trial_index":41,"time_elapsed":648647,"internal_node_id":"0.0-4.0-0.17","subject_id":"6111334e642978207b491a5c","study_id":"60edd13110225f80f9f3709b","session_id":"6196ba742bf165b626704aa0","condition":"full-information","relevant_dimensions":["antennae","wings"],"bee_group":{"antennae":"B","wings":"2","pattern":"X","legs":"X"},"action":"harvest","summary":"good-harvest","bonus":1.680000000000001},{"rt":11536.699999999953,"stimulus":"\n                    <p><b>Action: <em>harvest</em></b></p>\n                    <p>This is the bee that you just saw.</p>\n                    <img src=\"bees-with-color/bee-B1SM.svg\" width=\"200\">\n                    <p><span class=\"greenText\"><b>Successful harvest!</b></span><br>Your pay has increased by $0.02. Your bonus pay is now $0.56.</p>\n            ","response":0,"trial_type":"html-button-response","trial_index":42,"time_elapsed":660184,"internal_node_id":"0.0-4.0-1.17","subject_id":"6111334e642978207b491a5c","study_id":"60edd13110225f80f9f3709b","session_id":"6196ba742bf165b626704aa0","condition":"full-information","relevant_dimensions":["antennae","wings"],"bee_group":{"antennae":"B","wings":"2","pattern":"X","legs":"X"},"bonus":1.680000000000001},{"rt":22189.199999999953,"stimulus":"bees-with-color/bee-B1SF.svg","response":0,"trial_type":"image-button-response","trial_index":43,"time_elapsed":682374,"internal_node_id":"0.0-4.0-0.18","subject_id":"6111334e642978207b491a5c","study_id":"60edd13110225f80f9f3709b","session_id":"6196ba742bf165b626704aa0","condition":"full-information","relevant_dimensions":["antennae","wings"],"bee_group":{"antennae":"B","wings":"2","pattern":"X","legs":"X"},"action":"harvest","summary":"good-harvest","bonus":1.680000000000001},{"rt":3770.600000000093,"stimulus":"\n                    <p><b>Action: <em>harvest</em></b></p>\n                    <p>This is the bee that you just saw.</p>\n                    <img src=\"bees-with-color/bee-B1SF.svg\" width=\"200\">\n                    <p><span class=\"greenText\"><b>Successful harvest!</b></span><br>Your pay has increased by $0.02. Your bonus pay is now $0.58.</p>\n            ","response":0,"trial_type":"html-button-response","trial_index":44,"time_elapsed":686146,"internal_node_id":"0.0-4.0-1.18","subject_id":"6111334e642978207b491a5c","study_id":"60edd13110225f80f9f3709b","session_id":"6196ba742bf165b626704aa0","condition":"full-information","relevant_dimensions":["antennae","wings"],"bee_group":{"antennae":"B","wings":"2","pattern":"X","legs":"X"},"bonus":1.680000000000001},{"rt":7876.5,"stimulus":"bees-with-color/bee-B2DF.svg","response":1,"trial_type":"image-button-response","trial_index":45,"time_elapsed":694023,"internal_node_id":"0.0-4.0-0.19","subject_id":"6111334e642978207b491a5c","study_id":"60edd13110225f80f9f3709b","session_id":"6196ba742bf165b626704aa0","condition":"full-information","relevant_dimensions":["antennae","wings"],"bee_group":{"antennae":"B","wings":"2","pattern":"X","legs":"X"},"action":"avoid","summary":"good-avoid","bonus":1.680000000000001},{"rt":2408.600000000093,"stimulus":"\n                    <p><b>Action: <em>avoid</em></b></p>\n                    <p>This is the bee that you just saw.</p>\n                    <img src=\"bees-with-color/bee-B2DF.svg\" width=\"200\">\n                    <p><span class=\"greenText\">Good choice!</span>  This bee would have stung you.<br>Your bonus pay is unchanged, and remains at $0.58.</p>\n            ","response":0,"trial_type":"html-button-response","trial_index":46,"time_elapsed":696433,"internal_node_id":"0.0-4.0-1.19","subject_id":"6111334e642978207b491a5c","study_id":"60edd13110225f80f9f3709b","session_id":"6196ba742bf165b626704aa0","condition":"full-information","relevant_dimensions":["antennae","wings"],"bee_group":{"antennae":"B","wings":"2","pattern":"X","legs":"X"},"bonus":1.680000000000001},{"rt":10156.699999999953,"stimulus":"bees-with-color/bee-B1DF.svg","response":0,"trial_type":"image-button-response","trial_index":47,"time_elapsed":706590,"internal_node_id":"0.0-4.0-0.20","subject_id":"6111334e642978207b491a5c","study_id":"60edd13110225f80f9f3709b","session_id":"6196ba742bf165b626704aa0","condition":"full-information","relevant_dimensions":["antennae","wings"],"bee_group":{"antennae":"B","wings":"2","pattern":"X","legs":"X"},"action":"harvest","summary":"good-harvest","bonus":1.680000000000001},{"rt":1096.3000000000466,"stimulus":"\n                    <p><b>Action: <em>harvest</em></b></p>\n                    <p>This is the bee that you just saw.</p>\n                    <img src=\"bees-with-color/bee-B1DF.svg\" width=\"200\">\n                    <p><span class=\"greenText\"><b>Successful harvest!</b></span><br>Your pay has increased by $0.02. Your bonus pay is now $0.60.</p>\n            ","response":0,"trial_type":"html-button-response","trial_index":48,"time_elapsed":707688,"internal_node_id":"0.0-4.0-1.20","subject_id":"6111334e642978207b491a5c","study_id":"60edd13110225f80f9f3709b","session_id":"6196ba742bf165b626704aa0","condition":"full-information","relevant_dimensions":["antennae","wings"],"bee_group":{"antennae":"B","wings":"2","pattern":"X","legs":"X"},"bonus":1.680000000000001},{"rt":16911.600000000093,"stimulus":"bees-with-color/bee-A1SF.svg","response":0,"trial_type":"image-button-response","trial_index":49,"time_elapsed":724600,"internal_node_id":"0.0-4.0-0.21","subject_id":"6111334e642978207b491a5c","study_id":"60edd13110225f80f9f3709b","session_id":"6196ba742bf165b626704aa0","condition":"full-information","relevant_dimensions":["antennae","wings"],"bee_group":{"antennae":"B","wings":"2","pattern":"X","legs":"X"},"action":"harvest","summary":"good-harvest","bonus":1.680000000000001},{"rt":12009.699999999953,"stimulus":"\n                    <p><b>Action: <em>harvest</em></b></p>\n                    <p>This is the bee that you just saw.</p>\n                    <img src=\"bees-with-color/bee-A1SF.svg\" width=\"200\">\n                    <p><span class=\"greenText\"><b>Successful harvest!</b></span><br>Your pay has increased by $0.02. Your bonus pay is now $0.62.</p>\n            ","response":0,"trial_type":"html-button-response","trial_index":50,"time_elapsed":736611,"internal_node_id":"0.0-4.0-1.21","subject_id":"6111334e642978207b491a5c","study_id":"60edd13110225f80f9f3709b","session_id":"6196ba742bf165b626704aa0","condition":"full-information","relevant_dimensions":["antennae","wings"],"bee_group":{"antennae":"B","wings":"2","pattern":"X","legs":"X"},"bonus":1.680000000000001},{"rt":8510.299999999814,"stimulus":"bees-with-color/bee-A2DM.svg","response":0,"trial_type":"image-button-response","trial_index":51,"time_elapsed":745122,"internal_node_id":"0.0-4.0-0.22","subject_id":"6111334e642978207b491a5c","study_id":"60edd13110225f80f9f3709b","session_id":"6196ba742bf165b626704aa0","condition":"full-information","relevant_dimensions":["antennae","wings"],"bee_group":{"antennae":"B","wings":"2","pattern":"X","legs":"X"},"action":"harvest","summary":"good-harvest","bonus":1.680000000000001},{"rt":1928.5999999998603,"stimulus":"\n                    <p><b>Action: <em>harvest</em></b></p>\n                    <p>This is the bee that you just saw.</p>\n                    <img src=\"bees-with-color/bee-A2DM.svg\" width=\"200\">\n                    <p><span class=\"greenText\"><b>Successful harvest!</b></span><br>Your pay has increased by $0.02. Your bonus pay is now $0.64.</p>\n            ","response":0,"trial_type":"html-button-response","trial_index":52,"time_elapsed":747052,"internal_node_id":"0.0-4.0-1.22","subject_id":"6111334e642978207b491a5c","study_id":"60edd13110225f80f9f3709b","session_id":"6196ba742bf165b626704aa0","condition":"full-information","relevant_dimensions":["antennae","wings"],"bee_group":{"antennae":"B","wings":"2","pattern":"X","legs":"X"},"bonus":1.680000000000001},{"rt":19786.5,"stimulus":"bees-with-color/bee-B2SM.svg","response":1,"trial_type":"image-button-response","trial_index":53,"time_elapsed":766839,"internal_node_id":"0.0-4.0-0.23","subject_id":"6111334e642978207b491a5c","study_id":"60edd13110225f80f9f3709b","session_id":"6196ba742bf165b626704aa0","condition":"full-information","relevant_dimensions":["antennae","wings"],"bee_group":{"antennae":"B","wings":"2","pattern":"X","legs":"X"},"action":"avoid","summary":"good-avoid","bonus":1.680000000000001},{"rt":15685.600000000093,"stimulus":"\n                    <p><b>Action: <em>avoid</em></b></p>\n                    <p>This is the bee that you just saw.</p>\n                    <img src=\"bees-with-color/bee-B2SM.svg\" width=\"200\">\n                    <p><span class=\"greenText\">Good choice!</span>  This bee would have stung you.<br>Your bonus pay is unchanged, and remains at $0.64.</p>\n            ","response":0,"trial_type":"html-button-response","trial_index":54,"time_elapsed":782525,"internal_node_id":"0.0-4.0-1.23","subject_id":"6111334e642978207b491a5c","study_id":"60edd13110225f80f9f3709b","session_id":"6196ba742bf165b626704aa0","condition":"full-information","relevant_dimensions":["antennae","wings"],"bee_group":{"antennae":"B","wings":"2","pattern":"X","legs":"X"},"bonus":1.680000000000001},{"rt":21677.800000000047,"stimulus":"bees-with-color/bee-A1SM.svg","response":1,"trial_type":"image-button-response","trial_index":55,"time_elapsed":804203,"internal_node_id":"0.0-4.0-0.24","subject_id":"6111334e642978207b491a5c","study_id":"60edd13110225f80f9f3709b","session_id":"6196ba742bf165b626704aa0","condition":"full-information","relevant_dimensions":["antennae","wings"],"bee_group":{"antennae":"B","wings":"2","pattern":"X","legs":"X"},"action":"avoid","summary":"bad-avoid","bonus":1.680000000000001},{"rt":13839.399999999907,"stimulus":"\n                    <p><b>Action: <em>avoid</em></b></p>\n                    <p>This is the bee that you just saw.</p>\n                    <img src=\"bees-with-color/bee-A1SM.svg\" width=\"200\">\n                    <p><span class=\"redText\">Bad choice,</span> the bee was friendly.<br>Your bonus pay is unchanged, and remains at $0.64.</p>\n            ","response":0,"trial_type":"html-button-response","trial_index":56,"time_elapsed":818043,"internal_node_id":"0.0-4.0-1.24","subject_id":"6111334e642978207b491a5c","study_id":"60edd13110225f80f9f3709b","session_id":"6196ba742bf165b626704aa0","condition":"full-information","relevant_dimensions":["antennae","wings"],"bee_group":{"antennae":"B","wings":"2","pattern":"X","legs":"X"},"bonus":1.680000000000001},{"rt":9721.299999999814,"stimulus":"bees-with-color/bee-A2SF.svg","response":0,"trial_type":"image-button-response","trial_index":57,"time_elapsed":827765,"internal_node_id":"0.0-4.0-0.25","subject_id":"6111334e642978207b491a5c","study_id":"60edd13110225f80f9f3709b","session_id":"6196ba742bf165b626704aa0","condition":"full-information","relevant_dimensions":["antennae","wings"],"bee_group":{"antennae":"B","wings":"2","pattern":"X","legs":"X"},"action":"harvest","summary":"good-harvest","bonus":1.680000000000001},{"rt":2835.6999999999534,"stimulus":"\n                    <p><b>Action: <em>harvest</em></b></p>\n                    <p>This is the bee that you just saw.</p>\n                    <img src=\"bees-with-color/bee-A2SF.svg\" width=\"200\">\n                    <p><span class=\"greenText\"><b>Successful harvest!</b></span><br>Your pay has increased by $0.02. Your bonus pay is now $0.66.</p>\n            ","response":0,"trial_type":"html-button-response","trial_index":58,"time_elapsed":830602,"internal_node_id":"0.0-4.0-1.25","subject_id":"6111334e642978207b491a5c","study_id":"60edd13110225f80f9f3709b","session_id":"6196ba742bf165b626704aa0","condition":"full-information","relevant_dimensions":["antennae","wings"],"bee_group":{"antennae":"B","wings":"2","pattern":"X","legs":"X"},"bonus":1.680000000000001},{"rt":34763.60000000009,"stimulus":"bees-with-color/bee-B2DM.svg","response":1,"trial_type":"image-button-response","trial_index":59,"time_elapsed":865365,"internal_node_id":"0.0-4.0-0.26","subject_id":"6111334e642978207b491a5c","study_id":"60edd13110225f80f9f3709b","session_id":"6196ba742bf165b626704aa0","condition":"full-information","relevant_dimensions":["antennae","wings"],"bee_group":{"antennae":"B","wings":"2","pattern":"X","legs":"X"},"action":"avoid","summary":"good-avoid","bonus":1.680000000000001},{"rt":2671.6999999999534,"stimulus":"\n                    <p><b>Action: <em>avoid</em></b></p>\n                    <p>This is the bee that you just saw.</p>\n                    <img src=\"bees-with-color/bee-B2DM.svg\" width=\"200\">\n                    <p><span class=\"greenText\">Good choice!</span>  This bee would have stung you.<br>Your bonus pay is unchanged, and remains at $0.66.</p>\n            ","response":0,"trial_type":"html-button-response","trial_index":60,"time_elapsed":868038,"internal_node_id":"0.0-4.0-1.26","subject_id":"6111334e642978207b491a5c","study_id":"60edd13110225f80f9f3709b","session_id":"6196ba742bf165b626704aa0","condition":"full-information","relevant_dimensions":["antennae","wings"],"bee_group":{"antennae":"B","wings":"2","pattern":"X","legs":"X"},"bonus":1.680000000000001},{"rt":30802.199999999953,"stimulus":"bees-with-color/bee-A2DF.svg","response":0,"trial_type":"image-button-response","trial_index":61,"time_elapsed":898840,"internal_node_id":"0.0-4.0-0.27","subject_id":"6111334e642978207b491a5c","study_id":"60edd13110225f80f9f3709b","session_id":"6196ba742bf165b626704aa0","condition":"full-information","relevant_dimensions":["antennae","wings"],"bee_group":{"antennae":"B","wings":"2","pattern":"X","legs":"X"},"action":"harvest","summary":"good-harvest","bonus":1.680000000000001},{"rt":1684.6999999999534,"stimulus":"\n                    <p><b>Action: <em>harvest</em></b></p>\n                    <p>This is the bee that you just saw.</p>\n                    <img src=\"bees-with-color/bee-A2DF.svg\" width=\"200\">\n                    <p><span class=\"greenText\"><b>Successful harvest!</b></span><br>Your pay has increased by $0.02. Your bonus pay is now $0.68.</p>\n            ","response":0,"trial_type":"html-button-response","trial_index":62,"time_elapsed":900526,"internal_node_id":"0.0-4.0-1.27","subject_id":"6111334e642978207b491a5c","study_id":"60edd13110225f80f9f3709b","session_id":"6196ba742bf165b626704aa0","condition":"full-information","relevant_dimensions":["antennae","wings"],"bee_group":{"antennae":"B","wings":"2","pattern":"X","legs":"X"},"bonus":1.680000000000001},{"rt":30881.399999999907,"stimulus":"bees-with-color/bee-B1DM.svg","response":1,"trial_type":"image-button-response","trial_index":63,"time_elapsed":931407,"internal_node_id":"0.0-4.0-0.28","subject_id":"6111334e642978207b491a5c","study_id":"60edd13110225f80f9f3709b","session_id":"6196ba742bf165b626704aa0","condition":"full-information","relevant_dimensions":["antennae","wings"],"bee_group":{"antennae":"B","wings":"2","pattern":"X","legs":"X"},"action":"avoid","summary":"bad-avoid","bonus":1.680000000000001},{"rt":14004.600000000093,"stimulus":"\n                    <p><b>Action: <em>avoid</em></b></p>\n                    <p>This is the bee that you just saw.</p>\n                    <img src=\"bees-with-color/bee-B1DM.svg\" width=\"200\">\n                    <p><span class=\"redText\">Bad choice,</span> the bee was friendly.<br>Your bonus pay is unchanged, and remains at $0.68.</p>\n            ","response":0,"trial_type":"html-button-response","trial_index":64,"time_elapsed":945412,"internal_node_id":"0.0-4.0-1.28","subject_id":"6111334e642978207b491a5c","study_id":"60edd13110225f80f9f3709b","session_id":"6196ba742bf165b626704aa0","condition":"full-information","relevant_dimensions":["antennae","wings"],"bee_group":{"antennae":"B","wings":"2","pattern":"X","legs":"X"},"bonus":1.680000000000001},{"rt":10466.5,"stimulus":"bees-with-color/bee-A1DM.svg","response":0,"trial_type":"image-button-response","trial_index":65,"time_elapsed":955879,"internal_node_id":"0.0-4.0-0.29","subject_id":"6111334e642978207b491a5c","study_id":"60edd13110225f80f9f3709b","session_id":"6196ba742bf165b626704aa0","condition":"full-information","relevant_dimensions":["antennae","wings"],"bee_group":{"antennae":"B","wings":"2","pattern":"X","legs":"X"},"action":"harvest","summary":"good-harvest","bonus":1.680000000000001},{"rt":1602.6000000000931,"stimulus":"\n                    <p><b>Action: <em>harvest</em></b></p>\n                    <p>This is the bee that you just saw.</p>\n                    <img src=\"bees-with-color/bee-A1DM.svg\" width=\"200\">\n                    <p><span class=\"greenText\"><b>Successful harvest!</b></span><br>Your pay has increased by $0.02. Your bonus pay is now $0.70.</p>\n            ","response":0,"trial_type":"html-button-response","trial_index":66,"time_elapsed":957483,"internal_node_id":"0.0-4.0-1.29","subject_id":"6111334e642978207b491a5c","study_id":"60edd13110225f80f9f3709b","session_id":"6196ba742bf165b626704aa0","condition":"full-information","relevant_dimensions":["antennae","wings"],"bee_group":{"antennae":"B","wings":"2","pattern":"X","legs":"X"},"bonus":1.680000000000001},{"rt":33851.700000000186,"stimulus":"bees-with-color/bee-B2SF.svg","response":1,"trial_type":"image-button-response","trial_index":67,"time_elapsed":991335,"internal_node_id":"0.0-4.0-0.30","subject_id":"6111334e642978207b491a5c","study_id":"60edd13110225f80f9f3709b","session_id":"6196ba742bf165b626704aa0","condition":"full-information","relevant_dimensions":["antennae","wings"],"bee_group":{"antennae":"B","wings":"2","pattern":"X","legs":"X"},"action":"avoid","summary":"good-avoid","bonus":1.680000000000001},{"rt":37080.299999999814,"stimulus":"\n                    <p><b>Action: <em>avoid</em></b></p>\n                    <p>This is the bee that you just saw.</p>\n                    <img src=\"bees-with-color/bee-B2SF.svg\" width=\"200\">\n                    <p><span class=\"greenText\">Good choice!</span>  This bee would have stung you.<br>Your bonus pay is unchanged, and remains at $0.70.</p>\n            ","response":0,"trial_type":"html-button-response","trial_index":68,"time_elapsed":1028414,"internal_node_id":"0.0-4.0-1.30","subject_id":"6111334e642978207b491a5c","study_id":"60edd13110225f80f9f3709b","session_id":"6196ba742bf165b626704aa0","condition":"full-information","relevant_dimensions":["antennae","wings"],"bee_group":{"antennae":"B","wings":"2","pattern":"X","legs":"X"},"bonus":1.680000000000001},{"rt":25446.499999999884,"stimulus":"bees-with-color/bee-A2SM.svg","response":0,"trial_type":"image-button-response","trial_index":69,"time_elapsed":1053858,"internal_node_id":"0.0-4.0-0.31","subject_id":"6111334e642978207b491a5c","study_id":"60edd13110225f80f9f3709b","session_id":"6196ba742bf165b626704aa0","condition":"full-information","relevant_dimensions":["antennae","wings"],"bee_group":{"antennae":"B","wings":"2","pattern":"X","legs":"X"},"action":"harvest","summary":"good-harvest","bonus":1.680000000000001},{"rt":1604.6999999997206,"stimulus":"\n                    <p><b>Action: <em>harvest</em></b></p>\n                    <p>This is the bee that you just saw.</p>\n                    <img src=\"bees-with-color/bee-A2SM.svg\" width=\"200\">\n                    <p><span class=\"greenText\"><b>Successful harvest!</b></span><br>Your pay has increased by $0.02. Your bonus pay is now $0.72.</p>\n            ","response":0,"trial_type":"html-button-response","trial_index":70,"time_elapsed":1055464,"internal_node_id":"0.0-4.0-1.31","subject_id":"6111334e642978207b491a5c","study_id":"60edd13110225f80f9f3709b","session_id":"6196ba742bf165b626704aa0","condition":"full-information","relevant_dimensions":["antennae","wings"],"bee_group":{"antennae":"B","wings":"2","pattern":"X","legs":"X"},"bonus":1.680000000000001},{"rt":20407.600000000093,"stimulus":"bees-with-color/bee-B2DF.svg","response":1,"trial_type":"image-button-response","trial_index":71,"time_elapsed":1075871,"internal_node_id":"0.0-4.0-0.32","subject_id":"6111334e642978207b491a5c","study_id":"60edd13110225f80f9f3709b","session_id":"6196ba742bf165b626704aa0","condition":"full-information","relevant_dimensions":["antennae","wings"],"bee_group":{"antennae":"B","wings":"2","pattern":"X","legs":"X"},"action":"avoid","summary":"good-avoid","bonus":1.680000000000001},{"rt":2216.399999999907,"stimulus":"\n                    <p><b>Action: <em>avoid</em></b></p>\n                    <p>This is the bee that you just saw.</p>\n                    <img src=\"bees-with-color/bee-B2DF.svg\" width=\"200\">\n                    <p><span class=\"greenText\">Good choice!</span>  This bee would have stung you.<br>Your bonus pay is unchanged, and remains at $0.72.</p>\n            ","response":0,"trial_type":"html-button-response","trial_index":72,"time_elapsed":1078089,"internal_node_id":"0.0-4.0-1.32","subject_id":"6111334e642978207b491a5c","study_id":"60edd13110225f80f9f3709b","session_id":"6196ba742bf165b626704aa0","condition":"full-information","relevant_dimensions":["antennae","wings"],"bee_group":{"antennae":"B","wings":"2","pattern":"X","legs":"X"},"bonus":1.680000000000001},{"rt":24444.399999999907,"stimulus":"bees-with-color/bee-A1DM.svg","response":0,"trial_type":"image-button-response","trial_index":73,"time_elapsed":1102533,"internal_node_id":"0.0-4.0-0.33","subject_id":"6111334e642978207b491a5c","study_id":"60edd13110225f80f9f3709b","session_id":"6196ba742bf165b626704aa0","condition":"full-information","relevant_dimensions":["antennae","wings"],"bee_group":{"antennae":"B","wings":"2","pattern":"X","legs":"X"},"action":"harvest","summary":"good-harvest","bonus":1.680000000000001},{"rt":1286.5999999996275,"stimulus":"\n                    <p><b>Action: <em>harvest</em></b></p>\n                    <p>This is the bee that you just saw.</p>\n                    <img src=\"bees-with-color/bee-A1DM.svg\" width=\"200\">\n                    <p><span class=\"greenText\"><b>Successful harvest!</b></span><br>Your pay has increased by $0.02. Your bonus pay is now $0.74.</p>\n            ","response":0,"trial_type":"html-button-response","trial_index":74,"time_elapsed":1103821,"internal_node_id":"0.0-4.0-1.33","subject_id":"6111334e642978207b491a5c","study_id":"60edd13110225f80f9f3709b","session_id":"6196ba742bf165b626704aa0","condition":"full-information","relevant_dimensions":["antennae","wings"],"bee_group":{"antennae":"B","wings":"2","pattern":"X","legs":"X"},"bonus":1.680000000000001},{"rt":9665.5,"stimulus":"bees-with-color/bee-B2SF.svg","response":1,"trial_type":"image-button-response","trial_index":75,"time_elapsed":1113488,"internal_node_id":"0.0-4.0-0.34","subject_id":"6111334e642978207b491a5c","study_id":"60edd13110225f80f9f3709b","session_id":"6196ba742bf165b626704aa0","condition":"full-information","relevant_dimensions":["antennae","wings"],"bee_group":{"antennae":"B","wings":"2","pattern":"X","legs":"X"},"action":"avoid","summary":"good-avoid","bonus":1.680000000000001},{"rt":1234.6999999997206,"stimulus":"\n                    <p><b>Action: <em>avoid</em></b></p>\n                    <p>This is the bee that you just saw.</p>\n                    <img src=\"bees-with-color/bee-B2SF.svg\" width=\"200\">\n                    <p><span class=\"greenText\">Good choice!</span>  This bee would have stung you.<br>Your bonus pay is unchanged, and remains at $0.74.</p>\n            ","response":0,"trial_type":"html-button-response","trial_index":76,"time_elapsed":1114724,"internal_node_id":"0.0-4.0-1.34","subject_id":"6111334e642978207b491a5c","study_id":"60edd13110225f80f9f3709b","session_id":"6196ba742bf165b626704aa0","condition":"full-information","relevant_dimensions":["antennae","wings"],"bee_group":{"antennae":"B","wings":"2","pattern":"X","legs":"X"},"bonus":1.680000000000001},{"rt":34088.39999999991,"stimulus":"bees-with-color/bee-A2SF.svg","response":0,"trial_type":"image-button-response","trial_index":77,"time_elapsed":1148812,"internal_node_id":"0.0-4.0-0.35","subject_id":"6111334e642978207b491a5c","study_id":"60edd13110225f80f9f3709b","session_id":"6196ba742bf165b626704aa0","condition":"full-information","relevant_dimensions":["antennae","wings"],"bee_group":{"antennae":"B","wings":"2","pattern":"X","legs":"X"},"action":"harvest","summary":"good-harvest","bonus":1.680000000000001},{"rt":1234.5,"stimulus":"\n                    <p><b>Action: <em>harvest</em></b></p>\n                    <p>This is the bee that you just saw.</p>\n                    <img src=\"bees-with-color/bee-A2SF.svg\" width=\"200\">\n                    <p><span class=\"greenText\"><b>Successful harvest!</b></span><br>Your pay has increased by $0.02. Your bonus pay is now $0.76.</p>\n            ","response":0,"trial_type":"html-button-response","trial_index":78,"time_elapsed":1150047,"internal_node_id":"0.0-4.0-1.35","subject_id":"6111334e642978207b491a5c","study_id":"60edd13110225f80f9f3709b","session_id":"6196ba742bf165b626704aa0","condition":"full-information","relevant_dimensions":["antennae","wings"],"bee_group":{"antennae":"B","wings":"2","pattern":"X","legs":"X"},"bonus":1.680000000000001},{"rt":34556.10000000009,"stimulus":"bees-with-color/bee-B1SF.svg","response":0,"trial_type":"image-button-response","trial_index":79,"time_elapsed":1184603,"internal_node_id":"0.0-4.0-0.36","subject_id":"6111334e642978207b491a5c","study_id":"60edd13110225f80f9f3709b","session_id":"6196ba742bf165b626704aa0","condition":"full-information","relevant_dimensions":["antennae","wings"],"bee_group":{"antennae":"B","wings":"2","pattern":"X","legs":"X"},"action":"harvest","summary":"good-harvest","bonus":1.680000000000001},{"rt":998.2999999998137,"stimulus":"\n                    <p><b>Action: <em>harvest</em></b></p>\n                    <p>This is the bee that you just saw.</p>\n                    <img src=\"bees-with-color/bee-B1SF.svg\" width=\"200\">\n                    <p><span class=\"greenText\"><b>Successful harvest!</b></span><br>Your pay has increased by $0.02. Your bonus pay is now $0.78.</p>\n            ","response":0,"trial_type":"html-button-response","trial_index":80,"time_elapsed":1185603,"internal_node_id":"0.0-4.0-1.36","subject_id":"6111334e642978207b491a5c","study_id":"60edd13110225f80f9f3709b","session_id":"6196ba742bf165b626704aa0","condition":"full-information","relevant_dimensions":["antennae","wings"],"bee_group":{"antennae":"B","wings":"2","pattern":"X","legs":"X"},"bonus":1.680000000000001},{"rt":26148.899999999907,"stimulus":"bees-with-color/bee-B1SM.svg","response":0,"trial_type":"image-button-response","trial_index":81,"time_elapsed":1211752,"internal_node_id":"0.0-4.0-0.37","subject_id":"6111334e642978207b491a5c","study_id":"60edd13110225f80f9f3709b","session_id":"6196ba742bf165b626704aa0","condition":"full-information","relevant_dimensions":["antennae","wings"],"bee_group":{"antennae":"B","wings":"2","pattern":"X","legs":"X"},"action":"harvest","summary":"good-harvest","bonus":1.680000000000001},{"rt":1240.4000000003725,"stimulus":"\n                    <p><b>Action: <em>harvest</em></b></p>\n                    <p>This is the bee that you just saw.</p>\n                    <img src=\"bees-with-color/bee-B1SM.svg\" width=\"200\">\n                    <p><span class=\"greenText\"><b>Successful harvest!</b></span><br>Your pay has increased by $0.02. Your bonus pay is now $0.80.</p>\n            ","response":0,"trial_type":"html-button-response","trial_index":82,"time_elapsed":1212994,"internal_node_id":"0.0-4.0-1.37","subject_id":"6111334e642978207b491a5c","study_id":"60edd13110225f80f9f3709b","session_id":"6196ba742bf165b626704aa0","condition":"full-information","relevant_dimensions":["antennae","wings"],"bee_group":{"antennae":"B","wings":"2","pattern":"X","legs":"X"},"bonus":1.680000000000001},{"rt":18240.600000000093,"stimulus":"bees-with-color/bee-A2DF.svg","response":0,"trial_type":"image-button-response","trial_index":83,"time_elapsed":1231235,"internal_node_id":"0.0-4.0-0.38","subject_id":"6111334e642978207b491a5c","study_id":"60edd13110225f80f9f3709b","session_id":"6196ba742bf165b626704aa0","condition":"full-information","relevant_dimensions":["antennae","wings"],"bee_group":{"antennae":"B","wings":"2","pattern":"X","legs":"X"},"action":"harvest","summary":"good-harvest","bonus":1.680000000000001},{"rt":1022.5,"stimulus":"\n                    <p><b>Action: <em>harvest</em></b></p>\n                    <p>This is the bee that you just saw.</p>\n                    <img src=\"bees-with-color/bee-A2DF.svg\" width=\"200\">\n                    <p><span class=\"greenText\"><b>Successful harvest!</b></span><br>Your pay has increased by $0.02. Your bonus pay is now $0.82.</p>\n            ","response":0,"trial_type":"html-button-response","trial_index":84,"time_elapsed":1232258,"internal_node_id":"0.0-4.0-1.38","subject_id":"6111334e642978207b491a5c","study_id":"60edd13110225f80f9f3709b","session_id":"6196ba742bf165b626704aa0","condition":"full-information","relevant_dimensions":["antennae","wings"],"bee_group":{"antennae":"B","wings":"2","pattern":"X","legs":"X"},"bonus":1.680000000000001},{"rt":20469.700000000186,"stimulus":"bees-with-color/bee-A1DF.svg","response":0,"trial_type":"image-button-response","trial_index":85,"time_elapsed":1252728,"internal_node_id":"0.0-4.0-0.39","subject_id":"6111334e642978207b491a5c","study_id":"60edd13110225f80f9f3709b","session_id":"6196ba742bf165b626704aa0","condition":"full-information","relevant_dimensions":["antennae","wings"],"bee_group":{"antennae":"B","wings":"2","pattern":"X","legs":"X"},"action":"harvest","summary":"good-harvest","bonus":1.680000000000001},{"rt":1304.5,"stimulus":"\n                    <p><b>Action: <em>harvest</em></b></p>\n                    <p>This is the bee that you just saw.</p>\n                    <img src=\"bees-with-color/bee-A1DF.svg\" width=\"200\">\n                    <p><span class=\"greenText\"><b>Successful harvest!</b></span><br>Your pay has increased by $0.02. Your bonus pay is now $0.84.</p>\n            ","response":0,"trial_type":"html-button-response","trial_index":86,"time_elapsed":1254034,"internal_node_id":"0.0-4.0-1.39","subject_id":"6111334e642978207b491a5c","study_id":"60edd13110225f80f9f3709b","session_id":"6196ba742bf165b626704aa0","condition":"full-information","relevant_dimensions":["antennae","wings"],"bee_group":{"antennae":"B","wings":"2","pattern":"X","legs":"X"},"bonus":1.680000000000001},{"rt":26937.399999999907,"stimulus":"bees-with-color/bee-B2DM.svg","response":1,"trial_type":"image-button-response","trial_index":87,"time_elapsed":1280971,"internal_node_id":"0.0-4.0-0.40","subject_id":"6111334e642978207b491a5c","study_id":"60edd13110225f80f9f3709b","session_id":"6196ba742bf165b626704aa0","condition":"full-information","relevant_dimensions":["antennae","wings"],"bee_group":{"antennae":"B","wings":"2","pattern":"X","legs":"X"},"action":"avoid","summary":"good-avoid","bonus":1.680000000000001},{"rt":1494.8000000002794,"stimulus":"\n                    <p><b>Action: <em>avoid</em></b></p>\n                    <p>This is the bee that you just saw.</p>\n                    <img src=\"bees-with-color/bee-B2DM.svg\" width=\"200\">\n                    <p><span class=\"greenText\">Good choice!</span>  This bee would have stung you.<br>Your bonus pay is unchanged, and remains at $0.84.</p>\n            ","response":0,"trial_type":"html-button-response","trial_index":88,"time_elapsed":1282467,"internal_node_id":"0.0-4.0-1.40","subject_id":"6111334e642978207b491a5c","study_id":"60edd13110225f80f9f3709b","session_id":"6196ba742bf165b626704aa0","condition":"full-information","relevant_dimensions":["antennae","wings"],"bee_group":{"antennae":"B","wings":"2","pattern":"X","legs":"X"},"bonus":1.680000000000001},{"rt":11553.5,"stimulus":"bees-with-color/bee-B1DF.svg","response":0,"trial_type":"image-button-response","trial_index":89,"time_elapsed":1294022,"internal_node_id":"0.0-4.0-0.41","subject_id":"6111334e642978207b491a5c","study_id":"60edd13110225f80f9f3709b","session_id":"6196ba742bf165b626704aa0","condition":"full-information","relevant_dimensions":["antennae","wings"],"bee_group":{"antennae":"B","wings":"2","pattern":"X","legs":"X"},"action":"harvest","summary":"good-harvest","bonus":1.680000000000001},{"rt":3559.1999999997206,"stimulus":"\n                    <p><b>Action: <em>harvest</em></b></p>\n                    <p>This is the bee that you just saw.</p>\n                    <img src=\"bees-with-color/bee-B1DF.svg\" width=\"200\">\n                    <p><span class=\"greenText\"><b>Successful harvest!</b></span><br>Your pay has increased by $0.02. Your bonus pay is now $0.86.</p>\n            ","response":0,"trial_type":"html-button-response","trial_index":90,"time_elapsed":1297582,"internal_node_id":"0.0-4.0-1.41","subject_id":"6111334e642978207b491a5c","study_id":"60edd13110225f80f9f3709b","session_id":"6196ba742bf165b626704aa0","condition":"full-information","relevant_dimensions":["antennae","wings"],"bee_group":{"antennae":"B","wings":"2","pattern":"X","legs":"X"},"bonus":1.680000000000001},{"rt":65500.5,"stimulus":"bees-with-color/bee-A2SM.svg","response":0,"trial_type":"image-button-response","trial_index":91,"time_elapsed":1363128,"internal_node_id":"0.0-4.0-0.42","subject_id":"6111334e642978207b491a5c","study_id":"60edd13110225f80f9f3709b","session_id":"6196ba742bf165b626704aa0","condition":"full-information","relevant_dimensions":["antennae","wings"],"bee_group":{"antennae":"B","wings":"2","pattern":"X","legs":"X"},"action":"harvest","summary":"good-harvest","bonus":1.680000000000001},{"rt":1226.3999999999069,"stimulus":"\n                    <p><b>Action: <em>harvest</em></b></p>\n                    <p>This is the bee that you just saw.</p>\n                    <img src=\"bees-with-color/bee-A2SM.svg\" width=\"200\">\n                    <p><span class=\"greenText\"><b>Successful harvest!</b></span><br>Your pay has increased by $0.02. Your bonus pay is now $0.88.</p>\n            ","response":0,"trial_type":"html-button-response","trial_index":92,"time_elapsed":1364356,"internal_node_id":"0.0-4.0-1.42","subject_id":"6111334e642978207b491a5c","study_id":"60edd13110225f80f9f3709b","session_id":"6196ba742bf165b626704aa0","condition":"full-information","relevant_dimensions":["antennae","wings"],"bee_group":{"antennae":"B","wings":"2","pattern":"X","legs":"X"},"bonus":1.680000000000001},{"rt":18785.399999999907,"stimulus":"bees-with-color/bee-B2SM.svg","response":1,"trial_type":"image-button-response","trial_index":93,"time_elapsed":1383143,"internal_node_id":"0.0-4.0-0.43","subject_id":"6111334e642978207b491a5c","study_id":"60edd13110225f80f9f3709b","session_id":"6196ba742bf165b626704aa0","condition":"full-information","relevant_dimensions":["antennae","wings"],"bee_group":{"antennae":"B","wings":"2","pattern":"X","legs":"X"},"action":"avoid","summary":"good-avoid","bonus":1.680000000000001},{"rt":1840.6999999997206,"stimulus":"\n                    <p><b>Action: <em>avoid</em></b></p>\n                    <p>This is the bee that you just saw.</p>\n                    <img src=\"bees-with-color/bee-B2SM.svg\" width=\"200\">\n                    <p><span class=\"greenText\">Good choice!</span>  This bee would have stung you.<br>Your bonus pay is unchanged, and remains at $0.88.</p>\n            ","response":0,"trial_type":"html-button-response","trial_index":94,"time_elapsed":1384986,"internal_node_id":"0.0-4.0-1.43","subject_id":"6111334e642978207b491a5c","study_id":"60edd13110225f80f9f3709b","session_id":"6196ba742bf165b626704aa0","condition":"full-information","relevant_dimensions":["antennae","wings"],"bee_group":{"antennae":"B","wings":"2","pattern":"X","legs":"X"},"bonus":1.680000000000001},{"rt":28540.399999999907,"stimulus":"bees-with-color/bee-A1SM.svg","response":0,"trial_type":"image-button-response","trial_index":95,"time_elapsed":1413527,"internal_node_id":"0.0-4.0-0.44","subject_id":"6111334e642978207b491a5c","study_id":"60edd13110225f80f9f3709b","session_id":"6196ba742bf165b626704aa0","condition":"full-information","relevant_dimensions":["antennae","wings"],"bee_group":{"antennae":"B","wings":"2","pattern":"X","legs":"X"},"action":"harvest","summary":"good-harvest","bonus":1.680000000000001},{"rt":1468.6000000000931,"stimulus":"\n                    <p><b>Action: <em>harvest</em></b></p>\n                    <p>This is the bee that you just saw.</p>\n                    <img src=\"bees-with-color/bee-A1SM.svg\" width=\"200\">\n                    <p><span class=\"greenText\"><b>Successful harvest!</b></span><br>Your pay has increased by $0.02. Your bonus pay is now $0.90.</p>\n            ","response":0,"trial_type":"html-button-response","trial_index":96,"time_elapsed":1414997,"internal_node_id":"0.0-4.0-1.44","subject_id":"6111334e642978207b491a5c","study_id":"60edd13110225f80f9f3709b","session_id":"6196ba742bf165b626704aa0","condition":"full-information","relevant_dimensions":["antennae","wings"],"bee_group":{"antennae":"B","wings":"2","pattern":"X","legs":"X"},"bonus":1.680000000000001},{"rt":9575.5,"stimulus":"bees-with-color/bee-A1SF.svg","response":0,"trial_type":"image-button-response","trial_index":97,"time_elapsed":1424574,"internal_node_id":"0.0-4.0-0.45","subject_id":"6111334e642978207b491a5c","study_id":"60edd13110225f80f9f3709b","session_id":"6196ba742bf165b626704aa0","condition":"full-information","relevant_dimensions":["antennae","wings"],"bee_group":{"antennae":"B","wings":"2","pattern":"X","legs":"X"},"action":"harvest","summary":"good-harvest","bonus":1.680000000000001},{"rt":852.6999999997206,"stimulus":"\n                    <p><b>Action: <em>harvest</em></b></p>\n                    <p>This is the bee that you just saw.</p>\n                    <img src=\"bees-with-color/bee-A1SF.svg\" width=\"200\">\n                    <p><span class=\"greenText\"><b>Successful harvest!</b></span><br>Your pay has increased by $0.02. Your bonus pay is now $0.92.</p>\n            ","response":0,"trial_type":"html-button-response","trial_index":98,"time_elapsed":1425428,"internal_node_id":"0.0-4.0-1.45","subject_id":"6111334e642978207b491a5c","study_id":"60edd13110225f80f9f3709b","session_id":"6196ba742bf165b626704aa0","condition":"full-information","relevant_dimensions":["antennae","wings"],"bee_group":{"antennae":"B","wings":"2","pattern":"X","legs":"X"},"bonus":1.680000000000001},{"rt":16647.399999999907,"stimulus":"bees-with-color/bee-B1DM.svg","response":0,"trial_type":"image-button-response","trial_index":99,"time_elapsed":1442076,"internal_node_id":"0.0-4.0-0.46","subject_id":"6111334e642978207b491a5c","study_id":"60edd13110225f80f9f3709b","session_id":"6196ba742bf165b626704aa0","condition":"full-information","relevant_dimensions":["antennae","wings"],"bee_group":{"antennae":"B","wings":"2","pattern":"X","legs":"X"},"action":"harvest","summary":"good-harvest","bonus":1.680000000000001},{"rt":926.6000000000931,"stimulus":"\n                    <p><b>Action: <em>harvest</em></b></p>\n                    <p>This is the bee that you just saw.</p>\n                    <img src=\"bees-with-color/bee-B1DM.svg\" width=\"200\">\n                    <p><span class=\"greenText\"><b>Successful harvest!</b></span><br>Your pay has increased by $0.02. Your bonus pay is now $0.94.</p>\n            ","response":0,"trial_type":"html-button-response","trial_index":100,"time_elapsed":1443004,"internal_node_id":"0.0-4.0-1.46","subject_id":"6111334e642978207b491a5c","study_id":"60edd13110225f80f9f3709b","session_id":"6196ba742bf165b626704aa0","condition":"full-information","relevant_dimensions":["antennae","wings"],"bee_group":{"antennae":"B","wings":"2","pattern":"X","legs":"X"},"bonus":1.680000000000001},{"rt":16080.299999999814,"stimulus":"bees-with-color/bee-A2DM.svg","response":0,"trial_type":"image-button-response","trial_index":101,"time_elapsed":1459085,"internal_node_id":"0.0-4.0-0.47","subject_id":"6111334e642978207b491a5c","study_id":"60edd13110225f80f9f3709b","session_id":"6196ba742bf165b626704aa0","condition":"full-information","relevant_dimensions":["antennae","wings"],"bee_group":{"antennae":"B","wings":"2","pattern":"X","legs":"X"},"action":"harvest","summary":"good-harvest","bonus":1.680000000000001},{"rt":898.6000000000931,"stimulus":"\n                    <p><b>Action: <em>harvest</em></b></p>\n                    <p>This is the bee that you just saw.</p>\n                    <img src=\"bees-with-color/bee-A2DM.svg\" width=\"200\">\n                    <p><span class=\"greenText\"><b>Successful harvest!</b></span><br>Your pay has increased by $0.02. Your bonus pay is now $0.96.</p>\n            ","response":0,"trial_type":"html-button-response","trial_index":102,"time_elapsed":1459985,"internal_node_id":"0.0-4.0-1.47","subject_id":"6111334e642978207b491a5c","study_id":"60edd13110225f80f9f3709b","session_id":"6196ba742bf165b626704aa0","condition":"full-information","relevant_dimensions":["antennae","wings"],"bee_group":{"antennae":"B","wings":"2","pattern":"X","legs":"X"},"bonus":1.680000000000001},{"rt":15648.399999999907,"stimulus":"bees-with-color/bee-A1DM.svg","response":0,"trial_type":"image-button-response","trial_index":103,"time_elapsed":1475634,"internal_node_id":"0.0-4.0-0.48","subject_id":"6111334e642978207b491a5c","study_id":"60edd13110225f80f9f3709b","session_id":"6196ba742bf165b626704aa0","condition":"full-information","relevant_dimensions":["antennae","wings"],"bee_group":{"antennae":"B","wings":"2","pattern":"X","legs":"X"},"action":"harvest","summary":"good-harvest","bonus":1.680000000000001},{"rt":747.6000000000931,"stimulus":"\n                    <p><b>Action: <em>harvest</em></b></p>\n                    <p>This is the bee that you just saw.</p>\n                    <img src=\"bees-with-color/bee-A1DM.svg\" width=\"200\">\n                    <p><span class=\"greenText\"><b>Successful harvest!</b></span><br>Your pay has increased by $0.02. Your bonus pay is now $0.98.</p>\n            ","response":0,"trial_type":"html-button-response","trial_index":104,"time_elapsed":1476383,"internal_node_id":"0.0-4.0-1.48","subject_id":"6111334e642978207b491a5c","study_id":"60edd13110225f80f9f3709b","session_id":"6196ba742bf165b626704aa0","condition":"full-information","relevant_dimensions":["antennae","wings"],"bee_group":{"antennae":"B","wings":"2","pattern":"X","legs":"X"},"bonus":1.680000000000001},{"rt":26051.5,"stimulus":"bees-with-color/bee-B2DF.svg","response":1,"trial_type":"image-button-response","trial_index":105,"time_elapsed":1502435,"internal_node_id":"0.0-4.0-0.49","subject_id":"6111334e642978207b491a5c","study_id":"60edd13110225f80f9f3709b","session_id":"6196ba742bf165b626704aa0","condition":"full-information","relevant_dimensions":["antennae","wings"],"bee_group":{"antennae":"B","wings":"2","pattern":"X","legs":"X"},"action":"avoid","summary":"good-avoid","bonus":1.680000000000001},{"rt":1126.6999999997206,"stimulus":"\n                    <p><b>Action: <em>avoid</em></b></p>\n                    <p>This is the bee that you just saw.</p>\n                    <img src=\"bees-with-color/bee-B2DF.svg\" width=\"200\">\n                    <p><span class=\"greenText\">Good choice!</span>  This bee would have stung you.<br>Your bonus pay is unchanged, and remains at $0.98.</p>\n            ","response":0,"trial_type":"html-button-response","trial_index":106,"time_elapsed":1503563,"internal_node_id":"0.0-4.0-1.49","subject_id":"6111334e642978207b491a5c","study_id":"60edd13110225f80f9f3709b","session_id":"6196ba742bf165b626704aa0","condition":"full-information","relevant_dimensions":["antennae","wings"],"bee_group":{"antennae":"B","wings":"2","pattern":"X","legs":"X"},"bonus":1.680000000000001},{"rt":34238.39999999991,"stimulus":"bees-with-color/bee-A1DF.svg","response":0,"trial_type":"image-button-response","trial_index":107,"time_elapsed":1537802,"internal_node_id":"0.0-4.0-0.50","subject_id":"6111334e642978207b491a5c","study_id":"60edd13110225f80f9f3709b","session_id":"6196ba742bf165b626704aa0","condition":"full-information","relevant_dimensions":["antennae","wings"],"bee_group":{"antennae":"B","wings":"2","pattern":"X","legs":"X"},"action":"harvest","summary":"good-harvest","bonus":1.680000000000001},{"rt":736.4000000003725,"stimulus":"\n                    <p><b>Action: <em>harvest</em></b></p>\n                    <p>This is the bee that you just saw.</p>\n                    <img src=\"bees-with-color/bee-A1DF.svg\" width=\"200\">\n                    <p><span class=\"greenText\"><b>Successful harvest!</b></span><br>Your pay has increased by $0.02. Your bonus pay is now $1.00.</p>\n            ","response":0,"trial_type":"html-button-response","trial_index":108,"time_elapsed":1538540,"internal_node_id":"0.0-4.0-1.50","subject_id":"6111334e642978207b491a5c","study_id":"60edd13110225f80f9f3709b","session_id":"6196ba742bf165b626704aa0","condition":"full-information","relevant_dimensions":["antennae","wings"],"bee_group":{"antennae":"B","wings":"2","pattern":"X","legs":"X"},"bonus":1.680000000000001},{"rt":25438.5,"stimulus":"bees-with-color/bee-B2SM.svg","response":1,"trial_type":"image-button-response","trial_index":109,"time_elapsed":1563979,"internal_node_id":"0.0-4.0-0.51","subject_id":"6111334e642978207b491a5c","study_id":"60edd13110225f80f9f3709b","session_id":"6196ba742bf165b626704aa0","condition":"full-information","relevant_dimensions":["antennae","wings"],"bee_group":{"antennae":"B","wings":"2","pattern":"X","legs":"X"},"action":"avoid","summary":"good-avoid","bonus":1.680000000000001},{"rt":1020.5999999996275,"stimulus":"\n                    <p><b>Action: <em>avoid</em></b></p>\n                    <p>This is the bee that you just saw.</p>\n                    <img src=\"bees-with-color/bee-B2SM.svg\" width=\"200\">\n                    <p><span class=\"greenText\">Good choice!</span>  This bee would have stung you.<br>Your bonus pay is unchanged, and remains at $1.00.</p>\n            ","response":0,"trial_type":"html-button-response","trial_index":110,"time_elapsed":1565001,"internal_node_id":"0.0-4.0-1.51","subject_id":"6111334e642978207b491a5c","study_id":"60edd13110225f80f9f3709b","session_id":"6196ba742bf165b626704aa0","condition":"full-information","relevant_dimensions":["antennae","wings"],"bee_group":{"antennae":"B","wings":"2","pattern":"X","legs":"X"},"bonus":1.680000000000001},{"rt":30861.299999999814,"stimulus":"bees-with-color/bee-B1DF.svg","response":0,"trial_type":"image-button-response","trial_index":111,"time_elapsed":1595863,"internal_node_id":"0.0-4.0-0.52","subject_id":"6111334e642978207b491a5c","study_id":"60edd13110225f80f9f3709b","session_id":"6196ba742bf165b626704aa0","condition":"full-information","relevant_dimensions":["antennae","wings"],"bee_group":{"antennae":"B","wings":"2","pattern":"X","legs":"X"},"action":"harvest","summary":"good-harvest","bonus":1.680000000000001},{"rt":699.6000000000931,"stimulus":"\n                    <p><b>Action: <em>harvest</em></b></p>\n                    <p>This is the bee that you just saw.</p>\n                    <img src=\"bees-with-color/bee-B1DF.svg\" width=\"200\">\n                    <p><span class=\"greenText\"><b>Successful harvest!</b></span><br>Your pay has increased by $0.02. Your bonus pay is now $1.02.</p>\n            ","response":0,"trial_type":"html-button-response","trial_index":112,"time_elapsed":1596564,"internal_node_id":"0.0-4.0-1.52","subject_id":"6111334e642978207b491a5c","study_id":"60edd13110225f80f9f3709b","session_id":"6196ba742bf165b626704aa0","condition":"full-information","relevant_dimensions":["antennae","wings"],"bee_group":{"antennae":"B","wings":"2","pattern":"X","legs":"X"},"bonus":1.680000000000001},{"rt":32780.299999999814,"stimulus":"bees-with-color/bee-A2DM.svg","response":0,"trial_type":"image-button-response","trial_index":113,"time_elapsed":1629344,"internal_node_id":"0.0-4.0-0.53","subject_id":"6111334e642978207b491a5c","study_id":"60edd13110225f80f9f3709b","session_id":"6196ba742bf165b626704aa0","condition":"full-information","relevant_dimensions":["antennae","wings"],"bee_group":{"antennae":"B","wings":"2","pattern":"X","legs":"X"},"action":"harvest","summary":"good-harvest","bonus":1.680000000000001},{"rt":1067.6999999997206,"stimulus":"\n                    <p><b>Action: <em>harvest</em></b></p>\n                    <p>This is the bee that you just saw.</p>\n                    <img src=\"bees-with-color/bee-A2DM.svg\" width=\"200\">\n                    <p><span class=\"greenText\"><b>Successful harvest!</b></span><br>Your pay has increased by $0.02. Your bonus pay is now $1.04.</p>\n            ","response":0,"trial_type":"html-button-response","trial_index":114,"time_elapsed":1630413,"internal_node_id":"0.0-4.0-1.53","subject_id":"6111334e642978207b491a5c","study_id":"60edd13110225f80f9f3709b","session_id":"6196ba742bf165b626704aa0","condition":"full-information","relevant_dimensions":["antennae","wings"],"bee_group":{"antennae":"B","wings":"2","pattern":"X","legs":"X"},"bonus":1.680000000000001},{"rt":44695.700000000186,"stimulus":"bees-with-color/bee-B1SM.svg","response":0,"trial_type":"image-button-response","trial_index":115,"time_elapsed":1675109,"internal_node_id":"0.0-4.0-0.54","subject_id":"6111334e642978207b491a5c","study_id":"60edd13110225f80f9f3709b","session_id":"6196ba742bf165b626704aa0","condition":"full-information","relevant_dimensions":["antennae","wings"],"bee_group":{"antennae":"B","wings":"2","pattern":"X","legs":"X"},"action":"harvest","summary":"good-harvest","bonus":1.680000000000001},{"rt":923.2999999998137,"stimulus":"\n                    <p><b>Action: <em>harvest</em></b></p>\n                    <p>This is the bee that you just saw.</p>\n                    <img src=\"bees-with-color/bee-B1SM.svg\" width=\"200\">\n                    <p><span class=\"greenText\"><b>Successful harvest!</b></span><br>Your pay has increased by $0.02. Your bonus pay is now $1.06.</p>\n            ","response":0,"trial_type":"html-button-response","trial_index":116,"time_elapsed":1676034,"internal_node_id":"0.0-4.0-1.54","subject_id":"6111334e642978207b491a5c","study_id":"60edd13110225f80f9f3709b","session_id":"6196ba742bf165b626704aa0","condition":"full-information","relevant_dimensions":["antennae","wings"],"bee_group":{"antennae":"B","wings":"2","pattern":"X","legs":"X"},"bonus":1.680000000000001},{"rt":62941.299999999814,"stimulus":"bees-with-color/bee-A2SM.svg","response":0,"trial_type":"image-button-response","trial_index":117,"time_elapsed":1738975,"internal_node_id":"0.0-4.0-0.55","subject_id":"6111334e642978207b491a5c","study_id":"60edd13110225f80f9f3709b","session_id":"6196ba742bf165b626704aa0","condition":"full-information","relevant_dimensions":["antennae","wings"],"bee_group":{"antennae":"B","wings":"2","pattern":"X","legs":"X"},"action":"harvest","summary":"good-harvest","bonus":1.680000000000001},{"rt":1001.6999999997206,"stimulus":"\n                    <p><b>Action: <em>harvest</em></b></p>\n                    <p>This is the bee that you just saw.</p>\n                    <img src=\"bees-with-color/bee-A2SM.svg\" width=\"200\">\n                    <p><span class=\"greenText\"><b>Successful harvest!</b></span><br>Your pay has increased by $0.02. Your bonus pay is now $1.08.</p>\n            ","response":0,"trial_type":"html-button-response","trial_index":118,"time_elapsed":1739977,"internal_node_id":"0.0-4.0-1.55","subject_id":"6111334e642978207b491a5c","study_id":"60edd13110225f80f9f3709b","session_id":"6196ba742bf165b626704aa0","condition":"full-information","relevant_dimensions":["antennae","wings"],"bee_group":{"antennae":"B","wings":"2","pattern":"X","legs":"X"},"bonus":1.680000000000001},{"rt":22827.5,"stimulus":"bees-with-color/bee-B1SF.svg","response":0,"trial_type":"image-button-response","trial_index":119,"time_elapsed":1762806,"internal_node_id":"0.0-4.0-0.56","subject_id":"6111334e642978207b491a5c","study_id":"60edd13110225f80f9f3709b","session_id":"6196ba742bf165b626704aa0","condition":"full-information","relevant_dimensions":["antennae","wings"],"bee_group":{"antennae":"B","wings":"2","pattern":"X","legs":"X"},"action":"harvest","summary":"good-harvest","bonus":1.680000000000001},{"rt":1475.7999999998137,"stimulus":"\n                    <p><b>Action: <em>harvest</em></b></p>\n                    <p>This is the bee that you just saw.</p>\n                    <img src=\"bees-with-color/bee-B1SF.svg\" width=\"200\">\n                    <p><span class=\"greenText\"><b>Successful harvest!</b></span><br>Your pay has increased by $0.02. Your bonus pay is now $1.10.</p>\n            ","response":0,"trial_type":"html-button-response","trial_index":120,"time_elapsed":1764283,"internal_node_id":"0.0-4.0-1.56","subject_id":"6111334e642978207b491a5c","study_id":"60edd13110225f80f9f3709b","session_id":"6196ba742bf165b626704aa0","condition":"full-information","relevant_dimensions":["antennae","wings"],"bee_group":{"antennae":"B","wings":"2","pattern":"X","legs":"X"},"bonus":1.680000000000001},{"rt":59301.5,"stimulus":"bees-with-color/bee-B2SF.svg","response":1,"trial_type":"image-button-response","trial_index":121,"time_elapsed":1823583,"internal_node_id":"0.0-4.0-0.57","subject_id":"6111334e642978207b491a5c","study_id":"60edd13110225f80f9f3709b","session_id":"6196ba742bf165b626704aa0","condition":"full-information","relevant_dimensions":["antennae","wings"],"bee_group":{"antennae":"B","wings":"2","pattern":"X","legs":"X"},"action":"avoid","summary":"good-avoid","bonus":1.680000000000001},{"rt":1225.6000000000931,"stimulus":"\n                    <p><b>Action: <em>avoid</em></b></p>\n                    <p>This is the bee that you just saw.</p>\n                    <img src=\"bees-with-color/bee-B2SF.svg\" width=\"200\">\n                    <p><span class=\"greenText\">Good choice!</span>  This bee would have stung you.<br>Your bonus pay is unchanged, and remains at $1.10.</p>\n            ","response":0,"trial_type":"html-button-response","trial_index":122,"time_elapsed":1824810,"internal_node_id":"0.0-4.0-1.57","subject_id":"6111334e642978207b491a5c","study_id":"60edd13110225f80f9f3709b","session_id":"6196ba742bf165b626704aa0","condition":"full-information","relevant_dimensions":["antennae","wings"],"bee_group":{"antennae":"B","wings":"2","pattern":"X","legs":"X"},"bonus":1.680000000000001},{"rt":33377.39999999991,"stimulus":"bees-with-color/bee-A2SF.svg","response":0,"trial_type":"image-button-response","trial_index":123,"time_elapsed":1858188,"internal_node_id":"0.0-4.0-0.58","subject_id":"6111334e642978207b491a5c","study_id":"60edd13110225f80f9f3709b","session_id":"6196ba742bf165b626704aa0","condition":"full-information","relevant_dimensions":["antennae","wings"],"bee_group":{"antennae":"B","wings":"2","pattern":"X","legs":"X"},"action":"harvest","summary":"good-harvest","bonus":1.680000000000001},{"rt":1026.5,"stimulus":"\n                    <p><b>Action: <em>harvest</em></b></p>\n                    <p>This is the bee that you just saw.</p>\n                    <img src=\"bees-with-color/bee-A2SF.svg\" width=\"200\">\n                    <p><span class=\"greenText\"><b>Successful harvest!</b></span><br>Your pay has increased by $0.02. Your bonus pay is now $1.12.</p>\n            ","response":0,"trial_type":"html-button-response","trial_index":124,"time_elapsed":1859216,"internal_node_id":"0.0-4.0-1.58","subject_id":"6111334e642978207b491a5c","study_id":"60edd13110225f80f9f3709b","session_id":"6196ba742bf165b626704aa0","condition":"full-information","relevant_dimensions":["antennae","wings"],"bee_group":{"antennae":"B","wings":"2","pattern":"X","legs":"X"},"bonus":1.680000000000001},{"rt":15428.399999999907,"stimulus":"bees-with-color/bee-A1SF.svg","response":0,"trial_type":"image-button-response","trial_index":125,"time_elapsed":1874646,"internal_node_id":"0.0-4.0-0.59","subject_id":"6111334e642978207b491a5c","study_id":"60edd13110225f80f9f3709b","session_id":"6196ba742bf165b626704aa0","condition":"full-information","relevant_dimensions":["antennae","wings"],"bee_group":{"antennae":"B","wings":"2","pattern":"X","legs":"X"},"action":"harvest","summary":"good-harvest","bonus":1.680000000000001},{"rt":1113.6999999997206,"stimulus":"\n                    <p><b>Action: <em>harvest</em></b></p>\n                    <p>This is the bee that you just saw.</p>\n                    <img src=\"bees-with-color/bee-A1SF.svg\" width=\"200\">\n                    <p><span class=\"greenText\"><b>Successful harvest!</b></span><br>Your pay has increased by $0.02. Your bonus pay is now $1.14.</p>\n            ","response":0,"trial_type":"html-button-response","trial_index":126,"time_elapsed":1875761,"internal_node_id":"0.0-4.0-1.59","subject_id":"6111334e642978207b491a5c","study_id":"60edd13110225f80f9f3709b","session_id":"6196ba742bf165b626704aa0","condition":"full-information","relevant_dimensions":["antennae","wings"],"bee_group":{"antennae":"B","wings":"2","pattern":"X","legs":"X"},"bonus":1.680000000000001},{"rt":38563.39999999991,"stimulus":"bees-with-color/bee-A2DF.svg","response":0,"trial_type":"image-button-response","trial_index":127,"time_elapsed":1914324,"internal_node_id":"0.0-4.0-0.60","subject_id":"6111334e642978207b491a5c","study_id":"60edd13110225f80f9f3709b","session_id":"6196ba742bf165b626704aa0","condition":"full-information","relevant_dimensions":["antennae","wings"],"bee_group":{"antennae":"B","wings":"2","pattern":"X","legs":"X"},"action":"harvest","summary":"good-harvest","bonus":1.680000000000001},{"rt":1572.8999999999069,"stimulus":"\n                    <p><b>Action: <em>harvest</em></b></p>\n                    <p>This is the bee that you just saw.</p>\n                    <img src=\"bees-with-color/bee-A2DF.svg\" width=\"200\">\n                    <p><span class=\"greenText\"><b>Successful harvest!</b></span><br>Your pay has increased by $0.02. Your bonus pay is now $1.16.</p>\n            ","response":0,"trial_type":"html-button-response","trial_index":128,"time_elapsed":1915898,"internal_node_id":"0.0-4.0-1.60","subject_id":"6111334e642978207b491a5c","study_id":"60edd13110225f80f9f3709b","session_id":"6196ba742bf165b626704aa0","condition":"full-information","relevant_dimensions":["antennae","wings"],"bee_group":{"antennae":"B","wings":"2","pattern":"X","legs":"X"},"bonus":1.680000000000001},{"rt":29419.5,"stimulus":"bees-with-color/bee-B2DM.svg","response":1,"trial_type":"image-button-response","trial_index":129,"time_elapsed":1945318,"internal_node_id":"0.0-4.0-0.61","subject_id":"6111334e642978207b491a5c","study_id":"60edd13110225f80f9f3709b","session_id":"6196ba742bf165b626704aa0","condition":"full-information","relevant_dimensions":["antennae","wings"],"bee_group":{"antennae":"B","wings":"2","pattern":"X","legs":"X"},"action":"avoid","summary":"good-avoid","bonus":1.680000000000001},{"rt":797.5,"stimulus":"\n                    <p><b>Action: <em>avoid</em></b></p>\n                    <p>This is the bee that you just saw.</p>\n                    <img src=\"bees-with-color/bee-B2DM.svg\" width=\"200\">\n                    <p><span class=\"greenText\">Good choice!</span>  This bee would have stung you.<br>Your bonus pay is unchanged, and remains at $1.16.</p>\n            ","response":0,"trial_type":"html-button-response","trial_index":130,"time_elapsed":1946117,"internal_node_id":"0.0-4.0-1.61","subject_id":"6111334e642978207b491a5c","study_id":"60edd13110225f80f9f3709b","session_id":"6196ba742bf165b626704aa0","condition":"full-information","relevant_dimensions":["antennae","wings"],"bee_group":{"antennae":"B","wings":"2","pattern":"X","legs":"X"},"bonus":1.680000000000001},{"rt":26820.5,"stimulus":"bees-with-color/bee-A1SM.svg","response":0,"trial_type":"image-button-response","trial_index":131,"time_elapsed":1972938,"internal_node_id":"0.0-4.0-0.62","subject_id":"6111334e642978207b491a5c","study_id":"60edd13110225f80f9f3709b","session_id":"6196ba742bf165b626704aa0","condition":"full-information","relevant_dimensions":["antennae","wings"],"bee_group":{"antennae":"B","wings":"2","pattern":"X","legs":"X"},"action":"harvest","summary":"good-harvest","bonus":1.680000000000001},{"rt":1438.6000000000931,"stimulus":"\n                    <p><b>Action: <em>harvest</em></b></p>\n                    <p>This is the bee that you just saw.</p>\n                    <img src=\"bees-with-color/bee-A1SM.svg\" width=\"200\">\n                    <p><span class=\"greenText\"><b>Successful harvest!</b></span><br>Your pay has increased by $0.02. Your bonus pay is now $1.18.</p>\n            ","response":0,"trial_type":"html-button-response","trial_index":132,"time_elapsed":1974378,"internal_node_id":"0.0-4.0-1.62","subject_id":"6111334e642978207b491a5c","study_id":"60edd13110225f80f9f3709b","session_id":"6196ba742bf165b626704aa0","condition":"full-information","relevant_dimensions":["antennae","wings"],"bee_group":{"antennae":"B","wings":"2","pattern":"X","legs":"X"},"bonus":1.680000000000001},{"rt":9810.5,"stimulus":"bees-with-color/bee-B1DM.svg","response":0,"trial_type":"image-button-response","trial_index":133,"time_elapsed":1984190,"internal_node_id":"0.0-4.0-0.63","subject_id":"6111334e642978207b491a5c","study_id":"60edd13110225f80f9f3709b","session_id":"6196ba742bf165b626704aa0","condition":"full-information","relevant_dimensions":["antennae","wings"],"bee_group":{"antennae":"B","wings":"2","pattern":"X","legs":"X"},"action":"harvest","summary":"good-harvest","bonus":1.680000000000001},{"rt":1227.6000000000931,"stimulus":"\n                    <p><b>Action: <em>harvest</em></b></p>\n                    <p>This is the bee that you just saw.</p>\n                    <img src=\"bees-with-color/bee-B1DM.svg\" width=\"200\">\n                    <p><span class=\"greenText\"><b>Successful harvest!</b></span><br>Your pay has increased by $0.02. Your bonus pay is now $1.20.</p>\n            ","response":0,"trial_type":"html-button-response","trial_index":134,"time_elapsed":1985419,"internal_node_id":"0.0-4.0-1.63","subject_id":"6111334e642978207b491a5c","study_id":"60edd13110225f80f9f3709b","session_id":"6196ba742bf165b626704aa0","condition":"full-information","relevant_dimensions":["antennae","wings"],"bee_group":{"antennae":"B","wings":"2","pattern":"X","legs":"X"},"bonus":1.680000000000001},{"rt":8345.899999999907,"stimulus":"You have completed the first part of this experiment.<br><br>You will now begin a shorter second part, in which you will receive no feedback.<br>The same rules regarding bonus pay apply.<br><br>Press any key to begin.","response":" ","trial_type":"html-keyboard-response","trial_index":135,"time_elapsed":1993766,"internal_node_id":"0.0-5.0","subject_id":"6111334e642978207b491a5c","study_id":"60edd13110225f80f9f3709b","session_id":"6196ba742bf165b626704aa0","condition":"full-information","relevant_dimensions":["antennae","wings"],"bee_group":{"antennae":"B","wings":"2","pattern":"X","legs":"X"},"bonus":1.680000000000001},{"rt":43093,"stimulus":"bees-with-color/bee-B2DM.svg","response":1,"trial_type":"image-button-response","trial_index":136,"time_elapsed":2036863,"internal_node_id":"0.0-6.0-0.0","subject_id":"6111334e642978207b491a5c","study_id":"60edd13110225f80f9f3709b","session_id":"6196ba742bf165b626704aa0","condition":"full-information","relevant_dimensions":["antennae","wings"],"bee_group":{"antennae":"B","wings":"2","pattern":"X","legs":"X"},"bonus":1.680000000000001},{"rt":17986.69999999972,"stimulus":"bees-with-color/bee-B1DM.svg","response":0,"trial_type":"image-button-response","trial_index":137,"time_elapsed":2054851,"internal_node_id":"0.0-6.0-0.1","subject_id":"6111334e642978207b491a5c","study_id":"60edd13110225f80f9f3709b","session_id":"6196ba742bf165b626704aa0","condition":"full-information","relevant_dimensions":["antennae","wings"],"bee_group":{"antennae":"B","wings":"2","pattern":"X","legs":"X"},"bonus":1.680000000000001},{"rt":35039.89999999991,"stimulus":"bees-with-color/bee-B1SF.svg","response":0,"trial_type":"image-button-response","trial_index":138,"time_elapsed":2089892,"internal_node_id":"0.0-6.0-0.2","subject_id":"6111334e642978207b491a5c","study_id":"60edd13110225f80f9f3709b","session_id":"6196ba742bf165b626704aa0","condition":"full-information","relevant_dimensions":["antennae","wings"],"bee_group":{"antennae":"B","wings":"2","pattern":"X","legs":"X"},"bonus":1.680000000000001},{"rt":12461.100000000093,"stimulus":"bees-with-color/bee-A2DF.svg","response":0,"trial_type":"image-button-response","trial_index":139,"time_elapsed":2102354,"internal_node_id":"0.0-6.0-0.3","subject_id":"6111334e642978207b491a5c","study_id":"60edd13110225f80f9f3709b","session_id":"6196ba742bf165b626704aa0","condition":"full-information","relevant_dimensions":["antennae","wings"],"bee_group":{"antennae":"B","wings":"2","pattern":"X","legs":"X"},"bonus":1.680000000000001},{"rt":24714.899999999907,"stimulus":"bees-with-color/bee-B1DF.svg","response":0,"trial_type":"image-button-response","trial_index":140,"time_elapsed":2127070,"internal_node_id":"0.0-6.0-0.4","subject_id":"6111334e642978207b491a5c","study_id":"60edd13110225f80f9f3709b","session_id":"6196ba742bf165b626704aa0","condition":"full-information","relevant_dimensions":["antennae","wings"],"bee_group":{"antennae":"B","wings":"2","pattern":"X","legs":"X"},"bonus":1.680000000000001},{"rt":16766.69999999972,"stimulus":"bees-with-color/bee-B2SF.svg","response":1,"trial_type":"image-button-response","trial_index":141,"time_elapsed":2143839,"internal_node_id":"0.0-6.0-0.5","subject_id":"6111334e642978207b491a5c","study_id":"60edd13110225f80f9f3709b","session_id":"6196ba742bf165b626704aa0","condition":"full-information","relevant_dimensions":["antennae","wings"],"bee_group":{"antennae":"B","wings":"2","pattern":"X","legs":"X"},"bonus":1.680000000000001},{"rt":12457.799999999814,"stimulus":"bees-with-color/bee-A1DF.svg","response":0,"trial_type":"image-button-response","trial_index":142,"time_elapsed":2156298,"internal_node_id":"0.0-6.0-0.6","subject_id":"6111334e642978207b491a5c","study_id":"60edd13110225f80f9f3709b","session_id":"6196ba742bf165b626704aa0","condition":"full-information","relevant_dimensions":["antennae","wings"],"bee_group":{"antennae":"B","wings":"2","pattern":"X","legs":"X"},"bonus":1.680000000000001},{"rt":14402,"stimulus":"bees-with-color/bee-A1SF.svg","response":0,"trial_type":"image-button-response","trial_index":143,"time_elapsed":2170702,"internal_node_id":"0.0-6.0-0.7","subject_id":"6111334e642978207b491a5c","study_id":"60edd13110225f80f9f3709b","session_id":"6196ba742bf165b626704aa0","condition":"full-information","relevant_dimensions":["antennae","wings"],"bee_group":{"antennae":"B","wings":"2","pattern":"X","legs":"X"},"bonus":1.680000000000001},{"rt":24750.899999999907,"stimulus":"bees-with-color/bee-B1SM.svg","response":0,"trial_type":"image-button-response","trial_index":144,"time_elapsed":2195454,"internal_node_id":"0.0-6.0-0.8","subject_id":"6111334e642978207b491a5c","study_id":"60edd13110225f80f9f3709b","session_id":"6196ba742bf165b626704aa0","condition":"full-information","relevant_dimensions":["antennae","wings"],"bee_group":{"antennae":"B","wings":"2","pattern":"X","legs":"X"},"bonus":1.680000000000001},{"rt":27162.899999999907,"stimulus":"bees-with-color/bee-A1DM.svg","response":0,"trial_type":"image-button-response","trial_index":145,"time_elapsed":2222618,"internal_node_id":"0.0-6.0-0.9","subject_id":"6111334e642978207b491a5c","study_id":"60edd13110225f80f9f3709b","session_id":"6196ba742bf165b626704aa0","condition":"full-information","relevant_dimensions":["antennae","wings"],"bee_group":{"antennae":"B","wings":"2","pattern":"X","legs":"X"},"bonus":1.680000000000001},{"rt":54904.09999999963,"stimulus":"bees-with-color/bee-A1SM.svg","response":0,"trial_type":"image-button-response","trial_index":146,"time_elapsed":2277522,"internal_node_id":"0.0-6.0-0.10","subject_id":"6111334e642978207b491a5c","study_id":"60edd13110225f80f9f3709b","session_id":"6196ba742bf165b626704aa0","condition":"full-information","relevant_dimensions":["antennae","wings"],"bee_group":{"antennae":"B","wings":"2","pattern":"X","legs":"X"},"bonus":1.680000000000001},{"rt":1920.3999999999069,"stimulus":"bees-with-color/bee-A2SM.svg","response":0,"trial_type":"image-button-response","trial_index":147,"time_elapsed":2279445,"internal_node_id":"0.0-6.0-0.11","subject_id":"6111334e642978207b491a5c","study_id":"60edd13110225f80f9f3709b","session_id":"6196ba742bf165b626704aa0","condition":"full-information","relevant_dimensions":["antennae","wings"],"bee_group":{"antennae":"B","wings":"2","pattern":"X","legs":"X"},"bonus":1.680000000000001},{"rt":13216.599999999627,"stimulus":"bees-with-color/bee-B2SM.svg","response":1,"trial_type":"image-button-response","trial_index":148,"time_elapsed":2292665,"internal_node_id":"0.0-6.0-0.12","subject_id":"6111334e642978207b491a5c","study_id":"60edd13110225f80f9f3709b","session_id":"6196ba742bf165b626704aa0","condition":"full-information","relevant_dimensions":["antennae","wings"],"bee_group":{"antennae":"B","wings":"2","pattern":"X","legs":"X"},"bonus":1.680000000000001},{"rt":2350.5,"stimulus":"bees-with-color/bee-A2SF.svg","response":0,"trial_type":"image-button-response","trial_index":149,"time_elapsed":2295019,"internal_node_id":"0.0-6.0-0.13","subject_id":"6111334e642978207b491a5c","study_id":"60edd13110225f80f9f3709b","session_id":"6196ba742bf165b626704aa0","condition":"full-information","relevant_dimensions":["antennae","wings"],"bee_group":{"antennae":"B","wings":"2","pattern":"X","legs":"X"},"bonus":1.680000000000001},{"rt":1266.6999999997206,"stimulus":"bees-with-color/bee-A2DM.svg","response":0,"trial_type":"image-button-response","trial_index":150,"time_elapsed":2296288,"internal_node_id":"0.0-6.0-0.14","subject_id":"6111334e642978207b491a5c","study_id":"60edd13110225f80f9f3709b","session_id":"6196ba742bf165b626704aa0","condition":"full-information","relevant_dimensions":["antennae","wings"],"bee_group":{"antennae":"B","wings":"2","pattern":"X","legs":"X"},"bonus":1.680000000000001},{"rt":2044.3999999999069,"stimulus":"bees-with-color/bee-B2DF.svg","response":1,"trial_type":"image-button-response","trial_index":151,"time_elapsed":2298335,"internal_node_id":"0.0-6.0-0.15","subject_id":"6111334e642978207b491a5c","study_id":"60edd13110225f80f9f3709b","session_id":"6196ba742bf165b626704aa0","condition":"full-information","relevant_dimensions":["antennae","wings"],"bee_group":{"antennae":"B","wings":"2","pattern":"X","legs":"X"},"bonus":1.680000000000001},{"rt":1423.3999999999069,"stimulus":"bees-with-color/bee-B1DF.svg","response":0,"trial_type":"image-button-response","trial_index":152,"time_elapsed":2299761,"internal_node_id":"0.0-6.0-0.16","subject_id":"6111334e642978207b491a5c","study_id":"60edd13110225f80f9f3709b","session_id":"6196ba742bf165b626704aa0","condition":"full-information","relevant_dimensions":["antennae","wings"],"bee_group":{"antennae":"B","wings":"2","pattern":"X","legs":"X"},"bonus":1.680000000000001},{"rt":2829.600000000093,"stimulus":"bees-with-color/bee-B2DM.svg","response":1,"trial_type":"image-button-response","trial_index":153,"time_elapsed":2302593,"internal_node_id":"0.0-6.0-0.17","subject_id":"6111334e642978207b491a5c","study_id":"60edd13110225f80f9f3709b","session_id":"6196ba742bf165b626704aa0","condition":"full-information","relevant_dimensions":["antennae","wings"],"bee_group":{"antennae":"B","wings":"2","pattern":"X","legs":"X"},"bonus":1.680000000000001},{"rt":1402.2999999998137,"stimulus":"bees-with-color/bee-B1SM.svg","response":0,"trial_type":"image-button-response","trial_index":154,"time_elapsed":2303997,"internal_node_id":"0.0-6.0-0.18","subject_id":"6111334e642978207b491a5c","study_id":"60edd13110225f80f9f3709b","session_id":"6196ba742bf165b626704aa0","condition":"full-information","relevant_dimensions":["antennae","wings"],"bee_group":{"antennae":"B","wings":"2","pattern":"X","legs":"X"},"bonus":1.680000000000001},{"rt":1108.2999999998137,"stimulus":"bees-with-color/bee-B2SM.svg","response":1,"trial_type":"image-button-response","trial_index":155,"time_elapsed":2305107,"internal_node_id":"0.0-6.0-0.19","subject_id":"6111334e642978207b491a5c","study_id":"60edd13110225f80f9f3709b","session_id":"6196ba742bf165b626704aa0","condition":"full-information","relevant_dimensions":["antennae","wings"],"bee_group":{"antennae":"B","wings":"2","pattern":"X","legs":"X"},"bonus":1.680000000000001},{"rt":10484.299999999814,"stimulus":"bees-with-color/bee-A1DF.svg","response":0,"trial_type":"image-button-response","trial_index":156,"time_elapsed":2315595,"internal_node_id":"0.0-6.0-0.20","subject_id":"6111334e642978207b491a5c","study_id":"60edd13110225f80f9f3709b","session_id":"6196ba742bf165b626704aa0","condition":"full-information","relevant_dimensions":["antennae","wings"],"bee_group":{"antennae":"B","wings":"2","pattern":"X","legs":"X"},"bonus":1.680000000000001},{"rt":1508,"stimulus":"bees-with-color/bee-A1DM.svg","response":0,"trial_type":"image-button-response","trial_index":157,"time_elapsed":2317105,"internal_node_id":"0.0-6.0-0.21","subject_id":"6111334e642978207b491a5c","study_id