[{"success":true,"trial_type":"fullscreen","trial_index":0,"time_elapsed":19718,"internal_node_id":"0.0-0.0","subject_id":"610cf6def95ea3a0d1f1635d","study_id":"6197b3f67c2b5cd3b6d9596a","session_id":"619be58f4958cda97b691358","condition":"contingent","relevant_dimensions":["antennae","legs"],"bee_group":{"antennae":"A","wings":"X","pattern":"X","legs":"F"},"bonus":0.8400000000000005},{"success":true,"timeout":false,"failed_images":[],"failed_audio":[],"failed_video":[],"trial_type":"preload","trial_index":1,"time_elapsed":22619,"internal_node_id":"0.0-1.0","subject_id":"610cf6def95ea3a0d1f1635d","study_id":"6197b3f67c2b5cd3b6d9596a","session_id":"619be58f4958cda97b691358","condition":"contingent","relevant_dimensions":["antennae","legs"],"bee_group":{"antennae":"A","wings":"X","pattern":"X","legs":"F"},"bonus":0.8400000000000005},{"rt":4506.299999952316,"stimulus":"Welcome! Press any key to begin.","response":" ","trial_type":"html-keyboard-response","trial_index":2,"time_elapsed":27126,"internal_node_id":"0.0-2.0","subject_id":"610cf6def95ea3a0d1f1635d","study_id":"6197b3f67c2b5cd3b6d9596a","session_id":"619be58f4958cda97b691358","condition":"contingent","relevant_dimensions":["antennae","legs"],"bee_group":{"antennae":"A","wings":"X","pattern":"X","legs":"F"},"bonus":0.8400000000000005},{"view_history":[{"page_index":0,"viewing_time":12498.600000023842},{"page_index":1,"viewing_time":18179},{"page_index":2,"viewing_time":22313},{"page_index":3,"viewing_time":46377},{"page_index":4,"viewing_time":125094},{"page_index":5,"viewing_time":7314.599999904633},{"page_index":6,"viewing_time":7131.600000023842},{"page_index":7,"viewing_time":4984.5},{"page_index":8,"viewing_time":5024.600000023842},{"page_index":9,"viewing_time":6347.399999976158},{"page_index":10,"viewing_time":4675.700000047684},{"page_index":11,"viewing_time":29115.600000023842},{"page_index":12,"viewing_time":5998.299999952316},{"page_index":13,"viewing_time":3001.399999976158},{"page_index":14,"viewing_time":11032.899999976158}],"rt":309088.60000002384,"trial_type":"instructions","trial_index":3,"time_elapsed":336215,"internal_node_id":"0.0-3.0-0.0","subject_id":"610cf6def95ea3a0d1f1635d","study_id":"6197b3f67c2b5cd3b6d9596a","session_id":"619be58f4958cda97b691358","condition":"contingent","relevant_dimensions":["antennae","legs"],"bee_group":{"antennae":"A","wings":"X","pattern":"X","legs":"F"},"bonus":0.8400000000000005},{"rt":26962.599999904633,"response":{"Q0":["Two or six legs","Stripes or spots on body","Single or double wings","Antennae or no antennae"]},"question_order":[0],"trial_type":"survey-multi-select","trial_index":4,"time_elapsed":363182,"internal_node_id":"0.0-3.0-1.0","subject_id":"610cf6def95ea3a0d1f1635d","study_id":"6197b3f67c2b5cd3b6d9596a","session_id":"619be58f4958cda97b691358","condition":"contingent","relevant_dimensions":["antennae","legs"],"bee_group":{"antennae":"A","wings":"X","pattern":"X","legs":"F"},"correct":true,"bonus":0.8400000000000005},{"rt":47259.39999997616,"response":{"Q1":"Yes.","Q2":"Based on the color of the bee.","Q3":"You do not learn if it was friendly or dangerous, and do not alter your bonus."},"question_order":[0,1,2],"trial_type":"survey-multi-choice","trial_index":5,"time_elapsed":410449,"internal_node_id":"0.0-3.0-2.0","subject_id":"610cf6def95ea3a0d1f1635d","study_id":"6197b3f67c2b5cd3b6d9596a","session_id":"619be58f4958cda97b691358","condition":"contingent","relevant_dimensions":["antennae","legs"],"bee_group":{"antennae":"A","wings":"X","pattern":"X","legs":"F"},"correct":false,"bonus":0.8400000000000005},{"rt":3070.2000000476837,"stimulus":"<p>You did not answer all comprehension questions correctly.<br>Press <b>continue</b> to review the instructions again.</p>","response":0,"trial_type":"html-button-response","trial_index":6,"time_elapsed":413521,"internal_node_id":"0.0-3.0-3.0","subject_id":"610cf6def95ea3a0d1f1635d","study_id":"6197b3f67c2b5cd3b6d9596a","session_id":"619be58f4958cda97b691358","condition":"contingent","relevant_dimensions":["antennae","legs"],"bee_group":{"antennae":"A","wings":"X","pattern":"X","legs":"F"},"bonus":0.8400000000000005},{"view_history":[{"page_index":0,"viewing_time":1716.3000000715256},{"page_index":1,"viewing_time":9316.100000023842},{"page_index":2,"viewing_time":25117.299999952316},{"page_index":3,"viewing_time":16050.899999976158},{"page_index":4,"viewing_time":5357.800000071526},{"page_index":5,"viewing_time":8622.399999976158},{"page_index":6,"viewing_time":5079.799999952316},{"page_index":7,"viewing_time":2468.600000023842},{"page_index":8,"viewing_time":1324.2999999523163},{"page_index":9,"viewing_time":2249.8000000715256},{"page_index":10,"viewing_time":929.8999999761581},{"page_index":11,"viewing_time":8918.899999976158},{"page_index":12,"viewing_time":2370.600000023842},{"page_index":13,"viewing_time":2414.2999999523163},{"page_index":12,"viewing_time":4205.900000095367},{"page_index":13,"viewing_time":2596.7999999523163},{"page_index":14,"viewing_time":1226.6000000238419}],"rt":99966.70000004768,"trial_type":"instructions","trial_index":7,"time_elapsed":513488,"internal_node_id":"0.0-3.0-4.0-0.0","subject_id":"610cf6def95ea3a0d1f1635d","study_id":"6197b3f67c2b5cd3b6d9596a","session_id":"619be58f4958cda97b691358","condition":"contingent","relevant_dimensions":["antennae","legs"],"bee_group":{"antennae":"A","wings":"X","pattern":"X","legs":"F"},"bonus":0.8400000000000005},{"rt":8810.600000023842,"response":{"Q0":["Two or six legs","Stripes or spots on body","Single or double wings","Antennae or no antennae"]},"question_order":[0],"trial_type":"survey-multi-select","trial_index":8,"time_elapsed":522304,"internal_node_id":"0.0-3.0-4.0-1.0","subject_id":"610cf6def95ea3a0d1f1635d","study_id":"6197b3f67c2b5cd3b6d9596a","session_id":"619be58f4958cda97b691358","condition":"contingent","relevant_dimensions":["antennae","legs"],"bee_group":{"antennae":"A","wings":"X","pattern":"X","legs":"F"},"correct":true,"bonus":0.8400000000000005},{"rt":24771.200000047684,"response":{"Q1":"No.","Q2":"Based on the four features of the bee.","Q3":"You do not learn if it was friendly or dangerous, and do not alter your bonus."},"question_order":[0,1,2],"trial_type":"survey-multi-choice","trial_index":9,"time_elapsed":547077,"internal_node_id":"0.0-3.0-4.0-2.0","subject_id":"610cf6def95ea3a0d1f1635d","study_id":"6197b3f67c2b5cd3b6d9596a","session_id":"619be58f4958cda97b691358","condition":"contingent","relevant_dimensions":["antennae","legs"],"bee_group":{"antennae":"A","wings":"X","pattern":"X","legs":"F"},"correct":true,"bonus":0.8400000000000005},{"rt":1739.1000000238419,"stimulus":"<p>Congrats, you got everything right<br>When you're ready, click the button below to continue to the experiment.</p>","response":0,"trial_type":"html-button-response","trial_index":10,"time_elapsed":548817,"internal_node_id":"0.0-3.0-4.0-3.0","subject_id":"610cf6def95ea3a0d1f1635d","study_id":"6197b3f67c2b5cd3b6d9596a","session_id":"619be58f4958cda97b691358","condition":"contingent","relevant_dimensions":["antennae","legs"],"bee_group":{"antennae":"A","wings":"X","pattern":"X","legs":"F"},"bonus":0.8400000000000005},{"rt":4318.899999976158,"stimulus":"bees-with-color/bee-A2DM.svg","response":0,"trial_type":"image-button-response","trial_index":11,"time_elapsed":553139,"internal_node_id":"0.0-4.0-0.0","subject_id":"610cf6def95ea3a0d1f1635d","study_id":"6197b3f67c2b5cd3b6d9596a","session_id":"619be58f4958cda97b691358","condition":"contingent","relevant_dimensions":["antennae","legs"],"bee_group":{"antennae":"A","wings":"X","pattern":"X","legs":"F"},"action":"harvest","summary":"good-harvest","bonus":0.8400000000000005},{"rt":15894.800000071526,"stimulus":"\n                    <p><b>Action: <em>harvest</em></b></p>\n                    <p>This is the bee that you just saw.</p>\n                    <img src=\"bees-with-color/bee-A2DM.svg\" width=\"200\">\n                    <p><span class=\"greenText\"><b>Successful harvest!</b></span><br>Your pay has increased by $0.02. Your bonus pay is now $0.56.</p>\n            ","response":0,"trial_type":"html-button-response","trial_index":12,"time_elapsed":569037,"internal_node_id":"0.0-4.0-1.0","subject_id":"610cf6def95ea3a0d1f1635d","study_id":"6197b3f67c2b5cd3b6d9596a","session_id":"619be58f4958cda97b691358","condition":"contingent","relevant_dimensions":["antennae","legs"],"bee_group":{"antennae":"A","wings":"X","pattern":"X","legs":"F"},"bonus":0.8400000000000005},{"rt":3237.399999976158,"stimulus":"bees-with-color/bee-B2DF.svg","response":1,"trial_type":"image-button-response","trial_index":13,"time_elapsed":572278,"internal_node_id":"0.0-4.0-0.1","subject_id":"610cf6def95ea3a0d1f1635d","study_id":"6197b3f67c2b5cd3b6d9596a","session_id":"619be58f4958cda97b691358","condition":"contingent","relevant_dimensions":["antennae","legs"],"bee_group":{"antennae":"A","wings":"X","pattern":"X","legs":"F"},"action":"avoid","summary":"bad-avoid","bonus":0.8400000000000005},{"rt":5973.600000023842,"stimulus":"\n                    <p><b>Action: <em>avoid</em></b></p>\n                    <p>This is the bee that you just saw.</p>\n                    <img src=\"bees-with-color/bee-B2DF.svg\" width=\"200\">\n                    <p><br>Your bonus pay is unchanged, and remains at $0.56.</p>\n            ","response":0,"trial_type":"html-button-response","trial_index":14,"time_elapsed":578253,"internal_node_id":"0.0-4.0-1.1","subject_id":"610cf6def95ea3a0d1f1635d","study_id":"6197b3f67c2b5cd3b6d9596a","session_id":"619be58f4958cda97b691358","condition":"contingent","relevant_dimensions":["antennae","legs"],"bee_group":{"antennae":"A","wings":"X","pattern":"X","legs":"F"},"bonus":0.8400000000000005},{"rt":3631,"stimulus":"bees-with-color/bee-B2SM.svg","response":1,"trial_type":"image-button-response","trial_index":15,"time_elapsed":581887,"internal_node_id":"0.0-4.0-0.2","subject_id":"610cf6def95ea3a0d1f1635d","study_id":"6197b3f67c2b5cd3b6d9596a","session_id":"619be58f4958cda97b691358","condition":"contingent","relevant_dimensions":["antennae","legs"],"bee_group":{"antennae":"A","wings":"X","pattern":"X","legs":"F"},"action":"avoid","summary":"bad-avoid","bonus":0.8400000000000005},{"rt":3108.1999999284744,"stimulus":"\n                    <p><b>Action: <em>avoid</em></b></p>\n                    <p>This is the bee that you just saw.</p>\n                    <img src=\"bees-with-color/bee-B2SM.svg\" width=\"200\">\n                    <p><br>Your bonus pay is unchanged, and remains at $0.56.</p>\n            ","response":0,"trial_type":"html-button-response","trial_index":16,"time_elapsed":584996,"internal_node_id":"0.0-4.0-1.2","subject_id":"610cf6def95ea3a0d1f1635d","study_id":"6197b3f67c2b5cd3b6d9596a","session_id":"619be58f4958cda97b691358","condition":"contingent","relevant_dimensions":["antennae","legs"],"bee_group":{"antennae":"A","wings":"X","pattern":"X","legs":"F"},"bonus":0.8400000000000005},{"rt":3397.399999976158,"stimulus":"bees-with-color/bee-A1SF.svg","response":0,"trial_type":"image-button-response","trial_index":17,"time_elapsed":588396,"internal_node_id":"0.0-4.0-0.3","subject_id":"610cf6def95ea3a0d1f1635d","study_id":"6197b3f67c2b5cd3b6d9596a","session_id":"619be58f4958cda97b691358","condition":"contingent","relevant_dimensions":["antennae","legs"],"bee_group":{"antennae":"A","wings":"X","pattern":"X","legs":"F"},"action":"harvest","summary":"bad-harvest","bonus":0.8400000000000005},{"rt":1942.6000000238419,"stimulus":"\n                    <p><b>Action: <em>harvest</em></b></p>\n                    <p>This is the bee that you just saw.</p>\n                    <img src=\"bees-with-color/bee-A1SF.svg\" width=\"200\">\n                    <p><span class=\"redText\">Bad choice, the bee was angry.</span><br><b>You have been stung!</b><br>Your pay has been decreased by $0.10. Your bonus pay is now $0.46.</p>\n            ","response":0,"trial_type":"html-button-response","trial_index":18,"time_elapsed":590340,"internal_node_id":"0.0-4.0-1.3","subject_id":"610cf6def95ea3a0d1f1635d","study_id":"6197b3f67c2b5cd3b6d9596a","session_id":"619be58f4958cda97b691358","condition":"contingent","relevant_dimensions":["antennae","legs"],"bee_group":{"antennae":"A","wings":"X","pattern":"X","legs":"F"},"bonus":0.8400000000000005},{"rt":2019.3000000715256,"stimulus":"bees-with-color/bee-B1SF.svg","response":1,"trial_type":"image-button-response","trial_index":19,"time_elapsed":592361,"internal_node_id":"0.0-4.0-0.4","subject_id":"610cf6def95ea3a0d1f1635d","study_id":"6197b3f67c2b5cd3b6d9596a","session_id":"619be58f4958cda97b691358","condition":"contingent","relevant_dimensions":["antennae","legs"],"bee_group":{"antennae":"A","wings":"X","pattern":"X","legs":"F"},"action":"avoid","summary":"bad-avoid","bonus":0.8400000000000005},{"rt":2464.5999999046326,"stimulus":"\n                    <p><b>Action: <em>avoid</em></b></p>\n                    <p>This is the bee that you just saw.</p>\n                    <img src=\"bees-with-color/bee-B1SF.svg\" width=\"200\">\n                    <p><br>Your bonus pay is unchanged, and remains at $0.46.</p>\n            ","response":0,"trial_type":"html-button-response","trial_index":20,"time_elapsed":594828,"internal_node_id":"0.0-4.0-1.4","subject_id":"610cf6def95ea3a0d1f1635d","study_id":"6197b3f67c2b5cd3b6d9596a","session_id":"619be58f4958cda97b691358","condition":"contingent","relevant_dimensions":["antennae","legs"],"bee_group":{"antennae":"A","wings":"X","pattern":"X","legs":"F"},"bonus":0.8400000000000005},{"rt":2829.399999976158,"stimulus":"bees-with-color/bee-A1SM.svg","response":0,"trial_type":"image-button-response","trial_index":21,"time_elapsed":597659,"internal_node_id":"0.0-4.0-0.5","subject_id":"610cf6def95ea3a0d1f1635d","study_id":"6197b3f67c2b5cd3b6d9596a","session_id":"619be58f4958cda97b691358","condition":"contingent","relevant_dimensions":["antennae","legs"],"bee_group":{"antennae":"A","wings":"X","pattern":"X","legs":"F"},"action":"harvest","summary":"good-harvest","bonus":0.8400000000000005},{"rt":1145.8000000715256,"stimulus":"\n                    <p><b>Action: <em>harvest</em></b></p>\n                    <p>This is the bee that you just saw.</p>\n                    <img src=\"bees-with-color/bee-A1SM.svg\" width=\"200\">\n                    <p><span class=\"greenText\"><b>Successful harvest!</b></span><br>Your pay has increased by $0.02. Your bonus pay is now $0.48.</p>\n            ","response":0,"trial_type":"html-button-response","trial_index":22,"time_elapsed":598807,"internal_node_id":"0.0-4.0-1.5","subject_id":"610cf6def95ea3a0d1f1635d","study_id":"6197b3f67c2b5cd3b6d9596a","session_id":"619be58f4958cda97b691358","condition":"contingent","relevant_dimensions":["antennae","legs"],"bee_group":{"antennae":"A","wings":"X","pattern":"X","legs":"F"},"bonus":0.8400000000000005},{"rt":1780,"stimulus":"bees-with-color/bee-A2SF.svg","response":1,"trial_type":"image-button-response","trial_index":23,"time_elapsed":600590,"internal_node_id":"0.0-4.0-0.6","subject_id":"610cf6def95ea3a0d1f1635d","study_id":"6197b3f67c2b5cd3b6d9596a","session_id":"619be58f4958cda97b691358","condition":"contingent","relevant_dimensions":["antennae","legs"],"bee_group":{"antennae":"A","wings":"X","pattern":"X","legs":"F"},"action":"avoid","summary":"good-avoid","bonus":0.8400000000000005},{"rt":1469.1999999284744,"stimulus":"\n                    <p><b>Action: <em>avoid</em></b></p>\n                    <p>This is the bee that you just saw.</p>\n                    <img src=\"bees-with-color/bee-A2SF.svg\" width=\"200\">\n                    <p><br>Your bonus pay is unchanged, and remains at $0.48.</p>\n            ","response":0,"trial_type":"html-button-response","trial_index":24,"time_elapsed":602061,"internal_node_id":"0.0-4.0-1.6","subject_id":"610cf6def95ea3a0d1f1635d","study_id":"6197b3f67c2b5cd3b6d9596a","session_id":"619be58f4958cda97b691358","condition":"contingent","relevant_dimensions":["antennae","legs"],"bee_group":{"antennae":"A","wings":"X","pattern":"X","legs":"F"},"bonus":0.8400000000000005},{"rt":2950.2000000476837,"stimulus":"bees-with-color/bee-B2DM.svg","response":0,"trial_type":"image-button-response","trial_index":25,"time_elapsed":605013,"internal_node_id":"0.0-4.0-0.7","subject_id":"610cf6def95ea3a0d1f1635d","study_id":"6197b3f67c2b5cd3b6d9596a","session_id":"619be58f4958cda97b691358","condition":"contingent","relevant_dimensions":["antennae","legs"],"bee_group":{"antennae":"A","wings":"X","pattern":"X","legs":"F"},"action":"harvest","summary":"good-harvest","bonus":0.8400000000000005},{"rt":1470.1000000238419,"stimulus":"\n                    <p><b>Action: <em>harvest</em></b></p>\n                    <p>This is the bee that you just saw.</p>\n                    <img src=\"bees-with-color/bee-B2DM.svg\" width=\"200\">\n                    <p><span class=\"greenText\"><b>Successful harvest!</b></span><br>Your pay has increased by $0.02. Your bonus pay is now $0.50.</p>\n            ","response":0,"trial_type":"html-button-response","trial_index":26,"time_elapsed":606484,"internal_node_id":"0.0-4.0-1.7","subject_id":"610cf6def95ea3a0d1f1635d","study_id":"6197b3f67c2b5cd3b6d9596a","session_id":"619be58f4958cda97b691358","condition":"contingent","relevant_dimensions":["antennae","legs"],"bee_group":{"antennae":"A","wings":"X","pattern":"X","legs":"F"},"bonus":0.8400000000000005},{"rt":2365.3000000715256,"stimulus":"bees-with-color/bee-B2SF.svg","response":0,"trial_type":"image-button-response","trial_index":27,"time_elapsed":608851,"internal_node_id":"0.0-4.0-0.8","subject_id":"610cf6def95ea3a0d1f1635d","study_id":"6197b3f67c2b5cd3b6d9596a","session_id":"619be58f4958cda97b691358","condition":"contingent","relevant_dimensions":["antennae","legs"],"bee_group":{"antennae":"A","wings":"X","pattern":"X","legs":"F"},"action":"harvest","summary":"good-harvest","bonus":0.8400000000000005},{"rt":1964.5,"stimulus":"\n                    <p><b>Action: <em>harvest</em></b></p>\n                    <p>This is the bee that you just saw.</p>\n                    <img src=\"bees-with-color/bee-B2SF.svg\" width=\"200\">\n                    <p><span class=\"greenText\"><b>Successful harvest!</b></span><br>Your pay has increased by $0.02. Your bonus pay is now $0.52.</p>\n            ","response":0,"trial_type":"html-button-response","trial_index":28,"time_elapsed":610817,"internal_node_id":"0.0-4.0-1.8","subject_id":"610cf6def95ea3a0d1f1635d","study_id":"6197b3f67c2b5cd3b6d9596a","session_id":"619be58f4958cda97b691358","condition":"contingent","relevant_dimensions":["antennae","legs"],"bee_group":{"antennae":"A","wings":"X","pattern":"X","legs":"F"},"bonus":0.8400000000000005},{"rt":2203.7999999523163,"stimulus":"bees-with-color/bee-B1DF.svg","response":1,"trial_type":"image-button-response","trial_index":29,"time_elapsed":613022,"internal_node_id":"0.0-4.0-0.9","subject_id":"610cf6def95ea3a0d1f1635d","study_id":"6197b3f67c2b5cd3b6d9596a","session_id":"619be58f4958cda97b691358","condition":"contingent","relevant_dimensions":["antennae","legs"],"bee_group":{"antennae":"A","wings":"X","pattern":"X","legs":"F"},"action":"avoid","summary":"bad-avoid","bonus":0.8400000000000005},{"rt":1408.5999999046326,"stimulus":"\n                    <p><b>Action: <em>avoid</em></b></p>\n                    <p>This is the bee that you just saw.</p>\n                    <img src=\"bees-with-color/bee-B1DF.svg\" width=\"200\">\n                    <p><br>Your bonus pay is unchanged, and remains at $0.52.</p>\n            ","response":0,"trial_type":"html-button-response","trial_index":30,"time_elapsed":614433,"internal_node_id":"0.0-4.0-1.9","subject_id":"610cf6def95ea3a0d1f1635d","study_id":"6197b3f67c2b5cd3b6d9596a","session_id":"619be58f4958cda97b691358","condition":"contingent","relevant_dimensions":["antennae","legs"],"bee_group":{"antennae":"A","wings":"X","pattern":"X","legs":"F"},"bonus":0.8400000000000005},{"rt":1430,"stimulus":"bees-with-color/bee-B1DM.svg","response":1,"trial_type":"image-button-response","trial_index":31,"time_elapsed":615864,"internal_node_id":"0.0-4.0-0.10","subject_id":"610cf6def95ea3a0d1f1635d","study_id":"6197b3f67c2b5cd3b6d9596a","session_id":"619be58f4958cda97b691358","condition":"contingent","relevant_dimensions":["antennae","legs"],"bee_group":{"antennae":"A","wings":"X","pattern":"X","legs":"F"},"action":"avoid","summary":"bad-avoid","bonus":0.8400000000000005},{"rt":1168.3999999761581,"stimulus":"\n                    <p><b>Action: <em>avoid</em></b></p>\n                    <p>This is the bee that you just saw.</p>\n                    <img src=\"bees-with-color/bee-B1DM.svg\" width=\"200\">\n                    <p><br>Your bonus pay is unchanged, and remains at $0.52.</p>\n            ","response":0,"trial_type":"html-button-response","trial_index":32,"time_elapsed":617034,"internal_node_id":"0.0-4.0-1.10","subject_id":"610cf6def95ea3a0d1f1635d","study_id":"6197b3f67c2b5cd3b6d9596a","session_id":"619be58f4958cda97b691358","condition":"contingent","relevant_dimensions":["antennae","legs"],"bee_group":{"antennae":"A","wings":"X","pattern":"X","legs":"F"},"bonus":0.8400000000000005},{"rt":1523.8999999761581,"stimulus":"bees-with-color/bee-A2SM.svg","response":0,"trial_type":"image-button-response","trial_index":33,"time_elapsed":618559,"internal_node_id":"0.0-4.0-0.11","subject_id":"610cf6def95ea3a0d1f1635d","study_id":"6197b3f67c2b5cd3b6d9596a","session_id":"619be58f4958cda97b691358","condition":"contingent","relevant_dimensions":["antennae","legs"],"bee_group":{"antennae":"A","wings":"X","pattern":"X","legs":"F"},"action":"harvest","summary":"good-harvest","bonus":0.8400000000000005},{"rt":1333,"stimulus":"\n                    <p><b>Action: <em>harvest</em></b></p>\n                    <p>This is the bee that you just saw.</p>\n                    <img src=\"bees-with-color/bee-A2SM.svg\" width=\"200\">\n                    <p><span class=\"greenText\"><b>Successful harvest!</b></span><br>Your pay has increased by $0.02. Your bonus pay is now $0.54.</p>\n            ","response":0,"trial_type":"html-button-response","trial_index":34,"time_elapsed":619893,"internal_node_id":"0.0-4.0-1.11","subject_id":"610cf6def95ea3a0d1f1635d","study_id":"6197b3f67c2b5cd3b6d9596a","session_id":"619be58f4958cda97b691358","condition":"contingent","relevant_dimensions":["antennae","legs"],"bee_group":{"antennae":"A","wings":"X","pattern":"X","legs":"F"},"bonus":0.8400000000000005},{"rt":3350.7000000476837,"stimulus":"bees-with-color/bee-A2DF.svg","response":0,"trial_type":"image-button-response","trial_index":35,"time_elapsed":623245,"internal_node_id":"0.0-4.0-0.12","subject_id":"610cf6def95ea3a0d1f1635d","study_id":"6197b3f67c2b5cd3b6d9596a","session_id":"619be58f4958cda97b691358","condition":"contingent","relevant_dimensions":["antennae","legs"],"bee_group":{"antennae":"A","wings":"X","pattern":"X","legs":"F"},"action":"harvest","summary":"bad-harvest","bonus":0.8400000000000005},{"rt":3006.100000023842,"stimulus":"\n                    <p><b>Action: <em>harvest</em></b></p>\n                    <p>This is the bee that you just saw.</p>\n                    <img src=\"bees-with-color/bee-A2DF.svg\" width=\"200\">\n                    <p><span class=\"redText\">Bad choice, the bee was angry.</span><br><b>You have been stung!</b><br>Your pay has been decreased by $0.10. Your bonus pay is now $0.44.</p>\n            ","response":0,"trial_type":"html-button-response","trial_index":36,"time_elapsed":626252,"internal_node_id":"0.0-4.0-1.12","subject_id":"610cf6def95ea3a0d1f1635d","study_id":"6197b3f67c2b5cd3b6d9596a","session_id":"619be58f4958cda97b691358","condition":"contingent","relevant_dimensions":["antennae","legs"],"bee_group":{"antennae":"A","wings":"X","pattern":"X","legs":"F"},"bonus":0.8400000000000005},{"rt":2365.5999999046326,"stimulus":"bees-with-color/bee-A1DM.svg","response":0,"trial_type":"image-button-response","trial_index":37,"time_elapsed":628619,"internal_node_id":"0.0-4.0-0.13","subject_id":"610cf6def95ea3a0d1f1635d","study_id":"6197b3f67c2b5cd3b6d9596a","session_id":"619be58f4958cda97b691358","condition":"contingent","relevant_dimensions":["antennae","legs"],"bee_group":{"antennae":"A","wings":"X","pattern":"X","legs":"F"},"action":"harvest","summary":"good-harvest","bonus":0.8400000000000005},{"rt":2265.2000000476837,"stimulus":"\n                    <p><b>Action: <em>harvest</em></b></p>\n                    <p>This is the bee that you just saw.</p>\n                    <img src=\"bees-with-color/bee-A1DM.svg\" width=\"200\">\n                    <p><span class=\"greenText\"><b>Successful harvest!</b></span><br>Your pay has increased by $0.02. Your bonus pay is now $0.46.</p>\n            ","response":0,"trial_type":"html-button-response","trial_index":38,"time_elapsed":630886,"internal_node_id":"0.0-4.0-1.13","subject_id":"610cf6def95ea3a0d1f1635d","study_id":"6197b3f67c2b5cd3b6d9596a","session_id":"619be58f4958cda97b691358","condition":"contingent","relevant_dimensions":["antennae","legs"],"bee_group":{"antennae":"A","wings":"X","pattern":"X","legs":"F"},"bonus":0.8400000000000005},{"rt":1878.4000000953674,"stimulus":"bees-with-color/bee-B1SM.svg","response":1,"trial_type":"image-button-response","trial_index":39,"time_elapsed":632766,"internal_node_id":"0.0-4.0-0.14","subject_id":"610cf6def95ea3a0d1f1635d","study_id":"6197b3f67c2b5cd3b6d9596a","session_id":"619be58f4958cda97b691358","condition":"contingent","relevant_dimensions":["antennae","legs"],"bee_group":{"antennae":"A","wings":"X","pattern":"X","legs":"F"},"action":"avoid","summary":"bad-avoid","bonus":0.8400000000000005},{"rt":1471.1000000238419,"stimulus":"\n                    <p><b>Action: <em>avoid</em></b></p>\n                    <p>This is the bee that you just saw.</p>\n                    <img src=\"bees-with-color/bee-B1SM.svg\" width=\"200\">\n                    <p><br>Your bonus pay is unchanged, and remains at $0.46.</p>\n            ","response":0,"trial_type":"html-button-response","trial_index":40,"time_elapsed":634239,"internal_node_id":"0.0-4.0-1.14","subject_id":"610cf6def95ea3a0d1f1635d","study_id":"6197b3f67c2b5cd3b6d9596a","session_id":"619be58f4958cda97b691358","condition":"contingent","relevant_dimensions":["antennae","legs"],"bee_group":{"antennae":"A","wings":"X","pattern":"X","legs":"F"},"bonus":0.8400000000000005},{"rt":2604.8000000715256,"stimulus":"bees-with-color/bee-A1DF.svg","response":1,"trial_type":"image-button-response","trial_index":41,"time_elapsed":636845,"internal_node_id":"0.0-4.0-0.15","subject_id":"610cf6def95ea3a0d1f1635d","study_id":"6197b3f67c2b5cd3b6d9596a","session_id":"619be58f4958cda97b691358","condition":"contingent","relevant_dimensions":["antennae","legs"],"bee_group":{"antennae":"A","wings":"X","pattern":"X","legs":"F"},"action":"avoid","summary":"good-avoid","bonus":0.8400000000000005},{"rt":1274,"stimulus":"\n                    <p><b>Action: <em>avoid</em></b></p>\n                    <p>This is the bee that you just saw.</p>\n                    <img src=\"bees-with-color/bee-A1DF.svg\" width=\"200\">\n                    <p><br>Your bonus pay is unchanged, and remains at $0.46.</p>\n            ","response":0,"trial_type":"html-button-response","trial_index":42,"time_elapsed":638121,"internal_node_id":"0.0-4.0-1.15","subject_id":"610cf6def95ea3a0d1f1635d","study_id":"6197b3f67c2b5cd3b6d9596a","session_id":"619be58f4958cda97b691358","condition":"contingent","relevant_dimensions":["antennae","legs"],"bee_group":{"antennae":"A","wings":"X","pattern":"X","legs":"F"},"bonus":0.8400000000000005},{"rt":3340.7999999523163,"stimulus":"bees-with-color/bee-B2DM.svg","response":0,"trial_type":"image-button-response","trial_index":43,"time_elapsed":641463,"internal_node_id":"0.0-4.0-0.16","subject_id":"610cf6def95ea3a0d1f1635d","study_id":"6197b3f67c2b5cd3b6d9596a","session_id":"619be58f4958cda97b691358","condition":"contingent","relevant_dimensions":["antennae","legs"],"bee_group":{"antennae":"A","wings":"X","pattern":"X","legs":"F"},"action":"harvest","summary":"good-harvest","bonus":0.8400000000000005},{"rt":6765.199999928474,"stimulus":"\n                    <p><b>Action: <em>harvest</em></b></p>\n                    <p>This is the bee that you just saw.</p>\n                    <img src=\"bees-with-color/bee-B2DM.svg\" width=\"200\">\n                    <p><span class=\"greenText\"><b>Successful harvest!</b></span><br>Your pay has increased by $0.02. Your bonus pay is now $0.48.</p>\n            ","response":0,"trial_type":"html-button-response","trial_index":44,"time_elapsed":648230,"internal_node_id":"0.0-4.0-1.16","subject_id":"610cf6def95ea3a0d1f1635d","study_id":"6197b3f67c2b5cd3b6d9596a","session_id":"619be58f4958cda97b691358","condition":"contingent","relevant_dimensions":["antennae","legs"],"bee_group":{"antennae":"A","wings":"X","pattern":"X","legs":"F"},"bonus":0.8400000000000005},{"rt":3616.899999976158,"stimulus":"bees-with-color/bee-A1DM.svg","response":1,"trial_type":"image-button-response","trial_index":45,"time_elapsed":651849,"internal_node_id":"0.0-4.0-0.17","subject_id":"610cf6def95ea3a0d1f1635d","study_id":"6197b3f67c2b5cd3b6d9596a","session_id":"619be58f4958cda97b691358","condition":"contingent","relevant_dimensions":["antennae","legs"],"bee_group":{"antennae":"A","wings":"X","pattern":"X","legs":"F"},"action":"avoid","summary":"bad-avoid","bonus":0.8400000000000005},{"rt":1309.1000000238419,"stimulus":"\n                    <p><b>Action: <em>avoid</em></b></p>\n                    <p>This is the bee that you just saw.</p>\n                    <img src=\"bees-with-color/bee-A1DM.svg\" width=\"200\">\n                    <p><br>Your bonus pay is unchanged, and remains at $0.48.</p>\n            ","response":0,"trial_type":"html-button-response","trial_index":46,"time_elapsed":653159,"internal_node_id":"0.0-4.0-1.17","subject_id":"610cf6def95ea3a0d1f1635d","study_id":"6197b3f67c2b5cd3b6d9596a","session_id":"619be58f4958cda97b691358","condition":"contingent","relevant_dimensions":["antennae","legs"],"bee_group":{"antennae":"A","wings":"X","pattern":"X","legs":"F"},"bonus":0.8400000000000005},{"rt":2115.600000023842,"stimulus":"bees-with-color/bee-A2DF.svg","response":1,"trial_type":"image-button-response","trial_index":47,"time_elapsed":655276,"internal_node_id":"0.0-4.0-0.18","subject_id":"610cf6def95ea3a0d1f1635d","study_id":"6197b3f67c2b5cd3b6d9596a","session_id":"619be58f4958cda97b691358","condition":"contingent","relevant_dimensions":["antennae","legs"],"bee_group":{"antennae":"A","wings":"X","pattern":"X","legs":"F"},"action":"avoid","summary":"good-avoid","bonus":0.8400000000000005},{"rt":1340.8999999761581,"stimulus":"\n                    <p><b>Action: <em>avoid</em></b></p>\n                    <p>This is the bee that you just saw.</p>\n                    <img src=\"bees-with-color/bee-A2DF.svg\" width=\"200\">\n                    <p><br>Your bonus pay is unchanged, and remains at $0.48.</p>\n            ","response":0,"trial_type":"html-button-response","trial_index":48,"time_elapsed":656619,"internal_node_id":"0.0-4.0-1.18","subject_id":"610cf6def95ea3a0d1f1635d","study_id":"6197b3f67c2b5cd3b6d9596a","session_id":"619be58f4958cda97b691358","condition":"contingent","relevant_dimensions":["antennae","legs"],"bee_group":{"antennae":"A","wings":"X","pattern":"X","legs":"F"},"bonus":0.8400000000000005},{"rt":5205.399999976158,"stimulus":"bees-with-color/bee-A2SM.svg","response":1,"trial_type":"image-button-response","trial_index":49,"time_elapsed":661826,"internal_node_id":"0.0-4.0-0.19","subject_id":"610cf6def95ea3a0d1f1635d","study_id":"6197b3f67c2b5cd3b6d9596a","session_id":"619be58f4958cda97b691358","condition":"contingent","relevant_dimensions":["antennae","legs"],"bee_group":{"antennae":"A","wings":"X","pattern":"X","legs":"F"},"action":"avoid","summary":"bad-avoid","bonus":0.8400000000000005},{"rt":1645.8000000715256,"stimulus":"\n                    <p><b>Action: <em>avoid</em></b></p>\n                    <p>This is the bee that you just saw.</p>\n                    <img src=\"bees-with-color/bee-A2SM.svg\" width=\"200\">\n                    <p><br>Your bonus pay is unchanged, and remains at $0.48.</p>\n            ","response":0,"trial_type":"html-button-response","trial_index":50,"time_elapsed":663473,"internal_node_id":"0.0-4.0-1.19","subject_id":"610cf6def95ea3a0d1f1635d","study_id":"6197b3f67c2b5cd3b6d9596a","session_id":"619be58f4958cda97b691358","condition":"contingent","relevant_dimensions":["antennae","legs"],"bee_group":{"antennae":"A","wings":"X","pattern":"X","legs":"F"},"bonus":0.8400000000000005},{"rt":1619.1999999284744,"stimulus":"bees-with-color/bee-A1DF.svg","response":1,"trial_type":"image-button-response","trial_index":51,"time_elapsed":665094,"internal_node_id":"0.0-4.0-0.20","subject_id":"610cf6def95ea3a0d1f1635d","study_id":"6197b3f67c2b5cd3b6d9596a","session_id":"619be58f4958cda97b691358","condition":"contingent","relevant_dimensions":["antennae","legs"],"bee_group":{"antennae":"A","wings":"X","pattern":"X","legs":"F"},"action":"avoid","summary":"good-avoid","bonus":0.8400000000000005},{"rt":1276.2000000476837,"stimulus":"\n                    <p><b>Action: <em>avoid</em></b></p>\n                    <p>This is the bee that you just saw.</p>\n                    <img src=\"bees-with-color/bee-A1DF.svg\" width=\"200\">\n                    <p><br>Your bonus pay is unchanged, and remains at $0.48.</p>\n            ","response":0,"trial_type":"html-button-response","trial_index":52,"time_elapsed":666372,"internal_node_id":"0.0-4.0-1.20","subject_id":"610cf6def95ea3a0d1f1635d","study_id":"6197b3f67c2b5cd3b6d9596a","session_id":"619be58f4958cda97b691358","condition":"contingent","relevant_dimensions":["antennae","legs"],"bee_group":{"antennae":"A","wings":"X","pattern":"X","legs":"F"},"bonus":0.8400000000000005},{"rt":1410.6000000238419,"stimulus":"bees-with-color/bee-B2SF.svg","response":1,"trial_type":"image-button-response","trial_index":53,"time_elapsed":667784,"internal_node_id":"0.0-4.0-0.21","subject_id":"610cf6def95ea3a0d1f1635d","study_id":"6197b3f67c2b5cd3b6d9596a","session_id":"619be58f4958cda97b691358","condition":"contingent","relevant_dimensions":["antennae","legs"],"bee_group":{"antennae":"A","wings":"X","pattern":"X","legs":"F"},"action":"avoid","summary":"bad-avoid","bonus":0.8400000000000005},{"rt":931.2999999523163,"stimulus":"\n                    <p><b>Action: <em>avoid</em></b></p>\n                    <p>This is the bee that you just saw.</p>\n                    <img src=\"bees-with-color/bee-B2SF.svg\" width=\"200\">\n                    <p><br>Your bonus pay is unchanged, and remains at $0.48.</p>\n            ","response":0,"trial_type":"html-button-response","trial_index":54,"time_elapsed":668717,"internal_node_id":"0.0-4.0-1.21","subject_id":"610cf6def95ea3a0d1f1635d","study_id":"6197b3f67c2b5cd3b6d9596a","session_id":"619be58f4958cda97b691358","condition":"contingent","relevant_dimensions":["antennae","legs"],"bee_group":{"antennae":"A","wings":"X","pattern":"X","legs":"F"},"bonus":0.8400000000000005},{"rt":1461.6000000238419,"stimulus":"bees-with-color/bee-B1DM.svg","response":1,"trial_type":"image-button-response","trial_index":55,"time_elapsed":670180,"internal_node_id":"0.0-4.0-0.22","subject_id":"610cf6def95ea3a0d1f1635d","study_id":"6197b3f67c2b5cd3b6d9596a","session_id":"619be58f4958cda97b691358","condition":"contingent","relevant_dimensions":["antennae","legs"],"bee_group":{"antennae":"A","wings":"X","pattern":"X","legs":"F"},"action":"avoid","summary":"bad-avoid","bonus":0.8400000000000005},{"rt":1026.6999999284744,"stimulus":"\n                    <p><b>Action: <em>avoid</em></b></p>\n                    <p>This is the bee that you just saw.</p>\n                    <img src=\"bees-with-color/bee-B1DM.svg\" width=\"200\">\n                    <p><br>Your bonus pay is unchanged, and remains at $0.48.</p>\n            ","response":0,"trial_type":"html-button-response","trial_index":56,"time_elapsed":671208,"internal_node_id":"0.0-4.0-1.22","subject_id":"610cf6def95ea3a0d1f1635d","study_id":"6197b3f67c2b5cd3b6d9596a","session_id":"619be58f4958cda97b691358","condition":"contingent","relevant_dimensions":["antennae","legs"],"bee_group":{"antennae":"A","wings":"X","pattern":"X","legs":"F"},"bonus":0.8400000000000005},{"rt":1197,"stimulus":"bees-with-color/bee-B1SM.svg","response":1,"trial_type":"image-button-response","trial_index":57,"time_elapsed":672407,"internal_node_id":"0.0-4.0-0.23","subject_id":"610cf6def95ea3a0d1f1635d","study_id":"6197b3f67c2b5cd3b6d9596a","session_id":"619be58f4958cda97b691358","condition":"contingent","relevant_dimensions":["antennae","legs"],"bee_group":{"antennae":"A","wings":"X","pattern":"X","legs":"F"},"action":"avoid","summary":"bad-avoid","bonus":0.8400000000000005},{"rt":1089.5999999046326,"stimulus":"\n                    <p><b>Action: <em>avoid</em></b></p>\n                    <p>This is the bee that you just saw.</p>\n                    <img src=\"bees-with-color/bee-B1SM.svg\" width=\"200\">\n                    <p><br>Your bonus pay is unchanged, and remains at $0.48.</p>\n            ","response":0,"trial_type":"html-button-response","trial_index":58,"time_elapsed":673497,"internal_node_id":"0.0-4.0-1.23","subject_id":"610cf6def95ea3a0d1f1635d","study_id":"6197b3f67c2b5cd3b6d9596a","session_id":"619be58f4958cda97b691358","condition":"contingent","relevant_dimensions":["antennae","legs"],"bee_group":{"antennae":"A","wings":"X","pattern":"X","legs":"F"},"bonus":0.8400000000000005},{"rt":5994.600000023842,"stimulus":"bees-with-color/bee-B2SM.svg","response":0,"trial_type":"image-button-response","trial_index":59,"time_elapsed":679493,"internal_node_id":"0.0-4.0-0.24","subject_id":"610cf6def95ea3a0d1f1635d","study_id":"6197b3f67c2b5cd3b6d9596a","session_id":"619be58f4958cda97b691358","condition":"contingent","relevant_dimensions":["antennae","legs"],"bee_group":{"antennae":"A","wings":"X","pattern":"X","legs":"F"},"action":"harvest","summary":"good-harvest","bonus":0.8400000000000005},{"rt":2999.399999976158,"stimulus":"\n                    <p><b>Action: <em>harvest</em></b></p>\n                    <p>This is the bee that you just saw.</p>\n                    <img src=\"bees-with-color/bee-B2SM.svg\" width=\"200\">\n                    <p><span class=\"greenText\"><b>Successful harvest!</b></span><br>Your pay has increased by $0.02. Your bonus pay is now $0.50.</p>\n            ","response":0,"trial_type":"html-button-response","trial_index":60,"time_elapsed":682494,"internal_node_id":"0.0-4.0-1.24","subject_id":"610cf6def95ea3a0d1f1635d","study_id":"6197b3f67c2b5cd3b6d9596a","session_id":"619be58f4958cda97b691358","condition":"contingent","relevant_dimensions":["antennae","legs"],"bee_group":{"antennae":"A","wings":"X","pattern":"X","legs":"F"},"bonus":0.8400000000000005},{"rt":1287.2000000476837,"stimulus":"bees-with-color/bee-A1SF.svg","response":1,"trial_type":"image-button-response","trial_index":61,"time_elapsed":683782,"internal_node_id":"0.0-4.0-0.25","subject_id":"610cf6def95ea3a0d1f1635d","study_id":"6197b3f67c2b5cd3b6d9596a","session_id":"619be58f4958cda97b691358","condition":"contingent","relevant_dimensions":["antennae","legs"],"bee_group":{"antennae":"A","wings":"X","pattern":"X","legs":"F"},"action":"avoid","summary":"good-avoid","bonus":0.8400000000000005},{"rt":1273.8999999761581,"stimulus":"\n                    <p><b>Action: <em>avoid</em></b></p>\n                    <p>This is the bee that you just saw.</p>\n                    <img src=\"bees-with-color/bee-A1SF.svg\" width=\"200\">\n                    <p><br>Your bonus pay is unchanged, and remains at $0.50.</p>\n            ","response":0,"trial_type":"html-button-response","trial_index":62,"time_elapsed":685057,"internal_node_id":"0.0-4.0-1.25","subject_id":"610cf6def95ea3a0d1f1635d","study_id":"6197b3f67c2b5cd3b6d9596a","session_id":"619be58f4958cda97b691358","condition":"contingent","relevant_dimensions":["antennae","legs"],"bee_group":{"antennae":"A","wings":"X","pattern":"X","legs":"F"},"bonus":0.8400000000000005},{"rt":1116.2999999523163,"stimulus":"bees-with-color/bee-B1SF.svg","response":1,"trial_type":"image-button-response","trial_index":63,"time_elapsed":686175,"internal_node_id":"0.0-4.0-0.26","subject_id":"610cf6def95ea3a0d1f1635d","study_id":"6197b3f67c2b5cd3b6d9596a","session_id":"619be58f4958cda97b691358","condition":"contingent","relevant_dimensions":["antennae","legs"],"bee_group":{"antennae":"A","wings":"X","pattern":"X","legs":"F"},"action":"avoid","summary":"bad-avoid","bonus":0.8400000000000005},{"rt":1325.1999999284744,"stimulus":"\n                    <p><b>Action: <em>avoid</em></b></p>\n                    <p>This is the bee that you just saw.</p>\n                    <img src=\"bees-with-color/bee-B1SF.svg\" width=\"200\">\n                    <p><br>Your bonus pay is unchanged, and remains at $0.50.</p>\n            ","response":0,"trial_type":"html-button-response","trial_index":64,"time_elapsed":687501,"internal_node_id":"0.0-4.0-1.26","subject_id":"610cf6def95ea3a0d1f1635d","study_id":"6197b3f67c2b5cd3b6d9596a","session_id":"619be58f4958cda97b691358","condition":"contingent","relevant_dimensions":["antennae","legs"],"bee_group":{"antennae":"A","wings":"X","pattern":"X","legs":"F"},"bonus":0.8400000000000005},{"rt":1299.8999999761581,"stimulus":"bees-with-color/bee-A2DM.svg","response":0,"trial_type":"image-button-response","trial_index":65,"time_elapsed":688802,"internal_node_id":"0.0-4.0-0.27","subject_id":"610cf6def95ea3a0d1f1635d","study_id":"6197b3f67c2b5cd3b6d9596a","session_id":"619be58f4958cda97b691358","condition":"contingent","relevant_dimensions":["antennae","legs"],"bee_group":{"antennae":"A","wings":"X","pattern":"X","legs":"F"},"action":"harvest","summary":"good-harvest","bonus":0.8400000000000005},{"rt":1366.5,"stimulus":"\n                    <p><b>Action: <em>harvest</em></b></p>\n                    <p>This is the bee that you just saw.</p>\n                    <img src=\"bees-with-color/bee-A2DM.svg\" width=\"200\">\n                    <p><span class=\"greenText\"><b>Successful harvest!</b></span><br>Your pay has increased by $0.02. Your bonus pay is now $0.52.</p>\n            ","response":0,"trial_type":"html-button-response","trial_index":66,"time_elapsed":690170,"internal_node_id":"0.0-4.0-1.27","subject_id":"610cf6def95ea3a0d1f1635d","study_id":"6197b3f67c2b5cd3b6d9596a","session_id":"619be58f4958cda97b691358","condition":"contingent","relevant_dimensions":["antennae","legs"],"bee_group":{"antennae":"A","wings":"X","pattern":"X","legs":"F"},"bonus":0.8400000000000005},{"rt":1525.7999999523163,"stimulus":"bees-with-color/bee-A2SF.svg","response":1,"trial_type":"image-button-response","trial_index":67,"time_elapsed":691697,"internal_node_id":"0.0-4.0-0.28","subject_id":"610cf6def95ea3a0d1f1635d","study_id":"6197b3f67c2b5cd3b6d9596a","session_id":"619be58f4958cda97b691358","condition":"contingent","relevant_dimensions":["antennae","legs"],"bee_group":{"antennae":"A","wings":"X","pattern":"X","legs":"F"},"action":"avoid","summary":"good-avoid","bonus":0.8400000000000005},{"rt":1323.8000000715256,"stimulus":"\n                    <p><b>Action: <em>avoid</em></b></p>\n                    <p>This is the bee that you just saw.</p>\n                    <img src=\"bees-with-color/bee-A2SF.svg\" width=\"200\">\n                    <p><br>Your bonus pay is unchanged, and remains at $0.52.</p>\n            ","response":0,"trial_type":"html-button-response","trial_index":68,"time_elapsed":693023,"internal_node_id":"0.0-4.0-1.28","subject_id":"610cf6def95ea3a0d1f1635d","study_id":"6197b3f67c2b5cd3b6d9596a","session_id":"619be58f4958cda97b691358","condition":"contingent","relevant_dimensions":["antennae","legs"],"bee_group":{"antennae":"A","wings":"X","pattern":"X","legs":"F"},"bonus":0.8400000000000005},{"rt":2023.8999999761581,"stimulus":"bees-with-color/bee-B2DF.svg","response":1,"trial_type":"image-button-response","trial_index":69,"time_elapsed":695048,"internal_node_id":"0.0-4.0-0.29","subject_id":"610cf6def95ea3a0d1f1635d","study_id":"6197b3f67c2b5cd3b6d9596a","session_id":"619be58f4958cda97b691358","condition":"contingent","relevant_dimensions":["antennae","legs"],"bee_group":{"antennae":"A","wings":"X","pattern":"X","legs":"F"},"action":"avoid","summary":"bad-avoid","bonus":0.8400000000000005},{"rt":1228,"stimulus":"\n                    <p><b>Action: <em>avoid</em></b></p>\n                    <p>This is the bee that you just saw.</p>\n                    <img src=\"bees-with-color/bee-B2DF.svg\" width=\"200\">\n                    <p><br>Your bonus pay is unchanged, and remains at $0.52.</p>\n            ","response":0,"trial_type":"html-button-response","trial_index":70,"time_elapsed":696277,"internal_node_id":"0.0-4.0-1.29","subject_id":"610cf6def95ea3a0d1f1635d","study_id":"6197b3f67c2b5cd3b6d9596a","session_id":"619be58f4958cda97b691358","condition":"contingent","relevant_dimensions":["antennae","legs"],"bee_group":{"antennae":"A","wings":"X","pattern":"X","legs":"F"},"bonus":0.8400000000000005},{"rt":1970.1000000238419,"stimulus":"bees-with-color/bee-A1SM.svg","response":1,"trial_type":"image-button-response","trial_index":71,"time_elapsed":698249,"internal_node_id":"0.0-4.0-0.30","subject_id":"610cf6def95ea3a0d1f1635d","study_id":"6197b3f67c2b5cd3b6d9596a","session_id":"619be58f4958cda97b691358","condition":"contingent","relevant_dimensions":["antennae","legs"],"bee_group":{"antennae":"A","wings":"X","pattern":"X","legs":"F"},"action":"avoid","summary":"bad-avoid","bonus":0.8400000000000005},{"rt":1243.0999999046326,"stimulus":"\n                    <p><b>Action: <em>avoid</em></b></p>\n                    <p>This is the bee that you just saw.</p>\n                    <img src=\"bees-with-color/bee-A1SM.svg\" width=\"200\">\n                    <p><br>Your bonus pay is unchanged, and remains at $0.52.</p>\n            ","response":0,"trial_type":"html-button-response","trial_index":72,"time_elapsed":699493,"internal_node_id":"0.0-4.0-1.30","subject_id":"610cf6def95ea3a0d1f1635d","study_id":"6197b3f67c2b5cd3b6d9596a","session_id":"619be58f4958cda97b691358","condition":"contingent","relevant_dimensions":["antennae","legs"],"bee_group":{"antennae":"A","wings":"X","pattern":"X","legs":"F"},"bonus":0.8400000000000005},{"rt":1148.4000000953674,"stimulus":"bees-with-color/bee-B1DF.svg","response":1,"trial_type":"image-button-response","trial_index":73,"time_elapsed":700644,"internal_node_id":"0.0-4.0-0.31","subject_id":"610cf6def95ea3a0d1f1635d","study_id":"6197b3f67c2b5cd3b6d9596a","session_id":"619be58f4958cda97b691358","condition":"contingent","relevant_dimensions":["antennae","legs"],"bee_group":{"antennae":"A","wings":"X","pattern":"X","legs":"F"},"action":"avoid","summary":"bad-avoid","bonus":0.8400000000000005},{"rt":1590.8000000715256,"stimulus":"\n                    <p><b>Action: <em>avoid</em></b></p>\n                    <p>This is the bee that you just saw.</p>\n                    <img src=\"bees-with-color/bee-B1DF.svg\" width=\"200\">\n                    <p><br>Your bonus pay is unchanged, and remains at $0.52.</p>\n            ","response":0,"trial_type":"html-button-response","trial_index":74,"time_elapsed":702237,"internal_node_id":"0.0-4.0-1.31","subject_id":"610cf6def95ea3a0d1f1635d","study_id":"6197b3f67c2b5cd3b6d9596a","session_id":"619be58f4958cda97b691358","condition":"contingent","relevant_dimensions":["antennae","legs"],"bee_group":{"antennae":"A","wings":"X","pattern":"X","legs":"F"},"bonus":0.8400000000000005},{"rt":1647.8999999761581,"stimulus":"bees-with-color/bee-B1SM.svg","response":1,"trial_type":"image-button-response","trial_index":75,"time_elapsed":703886,"internal_node_id":"0.0-4.0-0.32","subject_id":"610cf6def95ea3a0d1f1635d","study_id":"6197b3f67c2b5cd3b6d9596a","session_id":"619be58f4958cda97b691358","condition":"contingent","relevant_dimensions":["antennae","legs"],"bee_group":{"antennae":"A","wings":"X","pattern":"X","legs":"F"},"action":"avoid","summary":"bad-avoid","bonus":0.8400000000000005},{"rt":1335.1000000238419,"stimulus":"\n                    <p><b>Action: <em>avoid</em></b></p>\n                    <p>This is the bee that you just saw.</p>\n                    <img src=\"bees-with-color/bee-B1SM.svg\" width=\"200\">\n                    <p><br>Your bonus pay is unchanged, and remains at $0.52.</p>\n            ","response":0,"trial_type":"html-button-response","trial_index":76,"time_elapsed":705222,"internal_node_id":"0.0-4.0-1.32","subject_id":"610cf6def95ea3a0d1f1635d","study_id":"6197b3f67c2b5cd3b6d9596a","session_id":"619be58f4958cda97b691358","condition":"contingent","relevant_dimensions":["antennae","legs"],"bee_group":{"antennae":"A","wings":"X","pattern":"X","legs":"F"},"bonus":0.8400000000000005},{"rt":1784.8999999761581,"stimulus":"bees-with-color/bee-B2SM.svg","response":0,"trial_type":"image-button-response","trial_index":77,"time_elapsed":707009,"internal_node_id":"0.0-4.0-0.33","subject_id":"610cf6def95ea3a0d1f1635d","study_id":"6197b3f67c2b5cd3b6d9596a","session_id":"619be58f4958cda97b691358","condition":"contingent","relevant_dimensions":["antennae","legs"],"bee_group":{"antennae":"A","wings":"X","pattern":"X","legs":"F"},"action":"harvest","summary":"good-harvest","bonus":0.8400000000000005},{"rt":2365.7999999523163,"stimulus":"\n                    <p><b>Action: <em>harvest</em></b></p>\n                    <p>This is the bee that you just saw.</p>\n                    <img src=\"bees-with-color/bee-B2SM.svg\" width=\"200\">\n                    <p><span class=\"greenText\"><b>Successful harvest!</b></span><br>Your pay has increased by $0.02. Your bonus pay is now $0.54.</p>\n            ","response":0,"trial_type":"html-button-response","trial_index":78,"time_elapsed":709376,"internal_node_id":"0.0-4.0-1.33","subject_id":"610cf6def95ea3a0d1f1635d","study_id":"6197b3f67c2b5cd3b6d9596a","session_id":"619be58f4958cda97b691358","condition":"contingent","relevant_dimensions":["antennae","legs"],"bee_group":{"antennae":"A","wings":"X","pattern":"X","legs":"F"},"bonus":0.8400000000000005},{"rt":996.3999999761581,"stimulus":"bees-with-color/bee-A1SM.svg","response":1,"trial_type":"image-button-response","trial_index":79,"time_elapsed":710375,"internal_node_id":"0.0-4.0-0.34","subject_id":"610cf6def95ea3a0d1f1635d","study_id":"6197b3f67c2b5cd3b6d9596a","session_id":"619be58f4958cda97b691358","condition":"contingent","relevant_dimensions":["antennae","legs"],"bee_group":{"antennae":"A","wings":"X","pattern":"X","legs":"F"},"action":"avoid","summary":"bad-avoid","bonus":0.8400000000000005},{"rt":1511.3999999761581,"stimulus":"\n                    <p><b>Action: <em>avoid</em></b></p>\n                    <p>This is the bee that you just saw.</p>\n                    <img src=\"bees-with-color/bee-A1SM.svg\" width=\"200\">\n                    <p><br>Your bonus pay is unchanged, and remains at $0.54.</p>\n            ","response":0,"trial_type":"html-button-response","trial_index":80,"time_elapsed":711887,"internal_node_id":"0.0-4.0-1.34","subject_id":"610cf6def95ea3a0d1f1635d","study_id":"6197b3f67c2b5cd3b6d9596a","session_id":"619be58f4958cda97b691358","condition":"contingent","relevant_dimensions":["antennae","legs"],"bee_group":{"antennae":"A","wings":"X","pattern":"X","legs":"F"},"bonus":0.8400000000000005},{"rt":2294.1999999284744,"stimulus":"bees-with-color/bee-A1DF.svg","response":1,"trial_type":"image-button-response","trial_index":81,"time_elapsed":714183,"internal_node_id":"0.0-4.0-0.35","subject_id":"610cf6def95ea3a0d1f1635d","study_id":"6197b3f67c2b5cd3b6d9596a","session_id":"619be58f4958cda97b691358","condition":"contingent","relevant_dimensions":["antennae","legs"],"bee_group":{"antennae":"A","wings":"X","pattern":"X","legs":"F"},"action":"avoid","summary":"good-avoid","bonus":0.8400000000000005},{"rt":3136.5,"stimulus":"\n                    <p><b>Action: <em>avoid</em></b></p>\n                    <p>This is the bee that you just saw.</p>\n                    <img src=\"bees-with-color/bee-A1DF.svg\" width=\"200\">\n                    <p><br>Your bonus pay is unchanged, and remains at $0.54.</p>\n            ","response":0,"trial_type":"html-button-response","trial_index":82,"time_elapsed":717321,"internal_node_id":"0.0-4.0-1.35","subject_id":"610cf6def95ea3a0d1f1635d","study_id":"6197b3f67c2b5cd3b6d9596a","session_id":"619be58f4958cda97b691358","condition":"contingent","relevant_dimensions":["antennae","legs"],"bee_group":{"antennae":"A","wings":"X","pattern":"X","legs":"F"},"bonus":0.8400000000000005},{"rt":1807.3999999761581,"stimulus":"bees-with-color/bee-B2DM.svg","response":0,"trial_type":"image-button-response","trial_index":83,"time_elapsed":719130,"internal_node_id":"0.0-4.0-0.36","subject_id":"610cf6def95ea3a0d1f1635d","study_id":"6197b3f67c2b5cd3b6d9596a","session_id":"619be58f4958cda97b691358","condition":"contingent","relevant_dimensions":["antennae","legs"],"bee_group":{"antennae":"A","wings":"X","pattern":"X","legs":"F"},"action":"harvest","summary":"good-harvest","bonus":0.8400000000000005},{"rt":2224,"stimulus":"\n                    <p><b>Action: <em>harvest</em></b></p>\n                    <p>This is the bee that you just saw.</p>\n                    <img src=\"bees-with-color/bee-B2DM.svg\" width=\"200\">\n                    <p><span class=\"greenText\"><b>Successful harvest!</b></span><br>Your pay has increased by $0.02. Your bonus pay is now $0.56.</p>\n            ","response":0,"trial_type":"html-button-response","trial_index":84,"time_elapsed":721355,"internal_node_id":"0.0-4.0-1.36","subject_id":"610cf6def95ea3a0d1f1635d","study_id":"6197b3f67c2b5cd3b6d9596a","session_id":"619be58f4958cda97b691358","condition":"contingent","relevant_dimensions":["antennae","legs"],"bee_group":{"antennae":"A","wings":"X","pattern":"X","legs":"F"},"bonus":0.8400000000000005},{"rt":2941.1999999284744,"stimulus":"bees-with-color/bee-B2DF.svg","response":1,"trial_type":"image-button-response","trial_index":85,"time_elapsed":724299,"internal_node_id":"0.0-4.0-0.37","subject_id":"610cf6def95ea3a0d1f1635d","study_id":"6197b3f67c2b5cd3b6d9596a","session_id":"619be58f4958cda97b691358","condition":"contingent","relevant_dimensions":["antennae","legs"],"bee_group":{"antennae":"A","wings":"X","pattern":"X","legs":"F"},"action":"avoid","summary":"bad-avoid","bonus":0.8400000000000005},{"rt":1294.7000000476837,"stimulus":"\n                    <p><b>Action: <em>avoid</em></b></p>\n                    <p>This is the bee that you just saw.</p>\n                    <img src=\"bees-with-color/bee-B2DF.svg\" width=\"200\">\n                    <p><br>Your bonus pay is unchanged, and remains at $0.56.</p>\n            ","response":0,"trial_type":"html-button-response","trial_index":86,"time_elapsed":725595,"internal_node_id":"0.0-4.0-1.37","subject_id":"610cf6def95ea3a0d1f1635d","study_id":"6197b3f67c2b5cd3b6d9596a","session_id":"619be58f4958cda97b691358","condition":"contingent","relevant_dimensions":["antennae","legs"],"bee_group":{"antennae":"A","wings":"X","pattern":"X","legs":"F"},"bonus":0.8400000000000005},{"rt":1005.1000000238419,"stimulus":"bees-with-color/bee-A1SF.svg","response":1,"trial_type":"image-button-response","trial_index":87,"time_elapsed":726602,"internal_node_id":"0.0-4.0-0.38","subject_id":"610cf6def95ea3a0d1f1635d","study_id":"6197b3f67c2b5cd3b6d9596a","session_id":"619be58f4958cda97b691358","condition":"contingent","relevant_dimensions":["antennae","legs"],"bee_group":{"antennae":"A","wings":"X","pattern":"X","legs":"F"},"action":"avoid","summary":"good-avoid","bonus":0.8400000000000005},{"rt":1131.6999999284744,"stimulus":"\n                    <p><b>Action: <em>avoid</em></b></p>\n                    <p>This is the bee that you just saw.</p>\n                    <img src=\"bees-with-color/bee-A1SF.svg\" width=\"200\">\n                    <p><br>Your bonus pay is unchanged, and remains at $0.56.</p>\n            ","response":0,"trial_type":"html-button-response","trial_index":88,"time_elapsed":727735,"internal_node_id":"0.0-4.0-1.38","subject_id":"610cf6def95ea3a0d1f1635d","study_id":"6197b3f67c2b5cd3b6d9596a","session_id":"619be58f4958cda97b691358","condition":"contingent","relevant_dimensions":["antennae","legs"],"bee_group":{"antennae":"A","wings":"X","pattern":"X","legs":"F"},"bonus":0.8400000000000005},{"rt":3096.2999999523163,"stimulus":"bees-with-color/bee-A2DM.svg","response":0,"trial_type":"image-button-response","trial_index":89,"time_elapsed":730833,"internal_node_id":"0.0-4.0-0.39","subject_id":"610cf6def95ea3a0d1f1635d","study_id":"6197b3f67c2b5cd3b6d9596a","session_id":"619be58f4958cda97b691358","condition":"contingent","relevant_dimensions":["antennae","legs"],"bee_group":{"antennae":"A","wings":"X","pattern":"X","legs":"F"},"action":"harvest","summary":"good-harvest","bonus":0.8400000000000005},{"rt":1572.2000000476837,"stimulus":"\n                    <p><b>Action: <em>harvest</em></b></p>\n                    <p>This is the bee that you just saw.</p>\n                    <img src=\"bees-with-color/bee-A2DM.svg\" width=\"200\">\n                    <p><span class=\"greenText\"><b>Successful harvest!</b></span><br>Your pay has increased by $0.02. Your bonus pay is now $0.58.</p>\n            ","response":0,"trial_type":"html-button-response","trial_index":90,"time_elapsed":732408,"internal_node_id":"0.0-4.0-1.39","subject_id":"610cf6def95ea3a0d1f1635d","study_id":"6197b3f67c2b5cd3b6d9596a","session_id":"619be58f4958cda97b691358","condition":"contingent","relevant_dimensions":["antennae","legs"],"bee_group":{"antennae":"A","wings":"X","pattern":"X","legs":"F"},"bonus":0.8400000000000005},{"rt":1065.8000000715256,"stimulus":"bees-with-color/bee-B1DF.svg","response":1,"trial_type":"image-button-response","trial_index":91,"time_elapsed":733476,"internal_node_id":"0.0-4.0-0.40","subject_id":"610cf6def95ea3a0d1f1635d","study_id":"6197b3f67c2b5cd3b6d9596a","session_id":"619be58f4958cda97b691358","condition":"contingent","relevant_dimensions":["antennae","legs"],"bee_group":{"antennae":"A","wings":"X","pattern":"X","legs":"F"},"action":"avoid","summary":"bad-avoid","bonus":0.8400000000000005},{"rt":1299,"stimulus":"\n                    <p><b>Action: <em>avoid</em></b></p>\n                    <p>This is the bee that you just saw.</p>\n                    <img src=\"bees-with-color/bee-B1DF.svg\" width=\"200\">\n                    <p><br>Your bonus pay is unchanged, and remains at $0.58.</p>\n            ","response":0,"trial_type":"html-button-response","trial_index":92,"time_elapsed":734777,"internal_node_id":"0.0-4.0-1.40","subject_id":"610cf6def95ea3a0d1f1635d","study_id":"6197b3f67c2b5cd3b6d9596a","session_id":"619be58f4958cda97b691358","condition":"contingent","relevant_dimensions":["antennae","legs"],"bee_group":{"antennae":"A","wings":"X","pattern":"X","legs":"F"},"bonus":0.8400000000000005},{"rt":1196.7000000476837,"stimulus":"bees-with-color/bee-B1DM.svg","response":1,"trial_type":"image-button-response","trial_index":93,"time_elapsed":735975,"internal_node_id":"0.0-4.0-0.41","subject_id":"610cf6def95ea3a0d1f1635d","study_id":"6197b3f67c2b5cd3b6d9596a","session_id":"619be58f4958cda97b691358","condition":"contingent","relevant_dimensions":["antennae","legs"],"bee_group":{"antennae":"A","wings":"X","pattern":"X","legs":"F"},"action":"avoid","summary":"bad-avoid","bonus":0.8400000000000005},{"rt":1101.8000000715256,"stimulus":"\n                    <p><b>Action: <em>avoid</em></b></p>\n                    <p>This is the bee that you just saw.</p>\n                    <img src=\"bees-with-color/bee-B1DM.svg\" width=\"200\">\n                    <p><br>Your bonus pay is unchanged, and remains at $0.58.</p>\n            ","response":0,"trial_type":"html-button-response","trial_index":94,"time_elapsed":737078,"internal_node_id":"0.0-4.0-1.41","subject_id":"610cf6def95ea3a0d1f1635d","study_id":"6197b3f67c2b5cd3b6d9596a","session_id":"619be58f4958cda97b691358","condition":"contingent","relevant_dimensions":["antennae","legs"],"bee_group":{"antennae":"A","wings":"X","pattern":"X","legs":"F"},"bonus":0.8400000000000005},{"rt":1411.8999999761581,"stimulus":"bees-with-color/bee-B2SF.svg","response":1,"trial_type":"image-button-response","trial_index":95,"time_elapsed":738491,"internal_node_id":"0.0-4.0-0.42","subject_id":"610cf6def95ea3a0d1f1635d","study_id":"6197b3f67c2b5cd3b6d9596a","session_id":"619be58f4958cda97b691358","condition":"contingent","relevant_dimensions":["antennae","legs"],"bee_group":{"antennae":"A","wings":"X","pattern":"X","legs":"F"},"action":"avoid","summary":"bad-avoid","bonus":0.8400000000000005},{"rt":1116.1999999284744,"stimulus":"\n                    <p><b>Action: <em>avoid</em></b></p>\n                    <p>This is the bee that you just saw.</p>\n                    <img src=\"bees-with-color/bee-B2SF.svg\" width=\"200\">\n                    <p><br>Your bonus pay is unchanged, and remains at $0.58.</p>\n            ","response":0,"trial_type":"html-button-response","trial_index":96,"time_elapsed":739608,"internal_node_id":"0.0-4.0-1.42","subject_id":"610cf6def95ea3a0d1f1635d","study_id":"6197b3f67c2b5cd3b6d9596a","session_id":"619be58f4958cda97b691358","condition":"contingent","relevant_dimensions":["antennae","legs"],"bee_group":{"antennae":"A","wings":"X","pattern":"X","legs":"F"},"bonus":0.8400000000000005},{"rt":1565.3999999761581,"stimulus":"bees-with-color/bee-A2SM.svg","response":0,"trial_type":"image-button-response","trial_index":97,"time_elapsed":741175,"internal_node_id":"0.0-4.0-0.43","subject_id":"610cf6def95ea3a0d1f1635d","study_id":"6197b3f67c2b5cd3b6d9596a","session_id":"619be58f4958cda97b691358","condition":"contingent","relevant_dimensions":["antennae","legs"],"bee_group":{"antennae":"A","wings":"X","pattern":"X","legs":"F"},"action":"harvest","summary":"good-harvest","bonus":0.8400000000000005},{"rt":1245.7999999523163,"stimulus":"\n                    <p><b>Action: <em>harvest</em></b></p>\n                    <p>This is the bee that you just saw.</p>\n                    <img src=\"bees-with-color/bee-A2SM.svg\" width=\"200\">\n                    <p><span class=\"greenText\"><b>Successful harvest!</b></span><br>Your pay has increased by $0.02. Your bonus pay is now $0.60.</p>\n            ","response":0,"trial_type":"html-button-response","trial_index":98,"time_elapsed":742422,"internal_node_id":"0.0-4.0-1.43","subject_id":"610cf6def95ea3a0d1f1635d","study_id":"6197b3f67c2b5cd3b6d9596a","session_id":"619be58f4958cda97b691358","condition":"contingent","relevant_dimensions":["antennae","legs"],"bee_group":{"antennae":"A","wings":"X","pattern":"X","legs":"F"},"bonus":0.8400000000000005},{"rt":1069.6000000238419,"stimulus":"bees-with-color/bee-A2SF.svg","response":1,"trial_type":"image-button-response","trial_index":99,"time_elapsed":743493,"internal_node_id":"0.0-4.0-0.44","subject_id":"610cf6def95ea3a0d1f1635d","study_id":"6197b3f67c2b5cd3b6d9596a","session_id":"619be58f4958cda97b691358","condition":"contingent","relevant_dimensions":["antennae","legs"],"bee_group":{"antennae":"A","wings":"X","pattern":"X","legs":"F"},"action":"avoid","summary":"good-avoid","bonus":0.8400000000000005},{"rt":1276.5,"stimulus":"\n                    <p><b>Action: <em>avoid</em></b></p>\n                    <p>This is the bee that you just saw.</p>\n                    <img src=\"bees-with-color/bee-A2SF.svg\" width=\"200\">\n                    <p><br>Your bonus pay is unchanged, and remains at $0.60.</p>\n            ","response":0,"trial_type":"html-button-response","trial_index":100,"time_elapsed":744771,"internal_node_id":"0.0-4.0-1.44","subject_id":"610cf6def95ea3a0d1f1635d","study_id":"6197b3f67c2b5cd3b6d9596a","session_id":"619be58f4958cda97b691358","condition":"contingent","relevant_dimensions":["antennae","legs"],"bee_group":{"antennae":"A","wings":"X","pattern":"X","legs":"F"},"bonus":0.8400000000000005},{"rt":2958.8000000715256,"stimulus":"bees-with-color/bee-A2DF.svg","response":1,"trial_type":"image-button-response","trial_index":101,"time_elapsed":747731,"internal_node_id":"0.0-4.0-0.45","subject_id":"610cf6def95ea3a0d1f1635d","study_id":"6197b3f67c2b5cd3b6d9596a","session_id":"619be58f4958cda97b691358","condition":"contingent","relevant_dimensions":["antennae","legs"],"bee_group":{"antennae":"A","wings":"X","pattern":"X","legs":"F"},"action":"avoid","summary":"good-avoid","bonus":0.8400000000000005},{"rt":1231.7999999523163,"stimulus":"\n                    <p><b>Action: <em>avoid</em></b></p>\n                    <p>This is the bee that you just saw.</p>\n                    <img src=\"bees-with-color/bee-A2DF.svg\" width=\"200\">\n                    <p><br>Your bonus pay is unchanged, and remains at $0.60.</p>\n            ","response":0,"trial_type":"html-button-response","trial_index":102,"time_elapsed":748964,"internal_node_id":"0.0-4.0-1.45","subject_id":"610cf6def95ea3a0d1f1635d","study_id":"6197b3f67c2b5cd3b6d9596a","session_id":"619be58f4958cda97b691358","condition":"contingent","relevant_dimensions":["antennae","legs"],"bee_group":{"antennae":"A","wings":"X","pattern":"X","legs":"F"},"bonus":0.8400000000000005},{"rt":1213.2000000476837,"stimulus":"bees-with-color/bee-A1DM.svg","response":1,"trial_type":"image-button-response","trial_index":103,"time_elapsed":750179,"internal_node_id":"0.0-4.0-0.46","subject_id":"610cf6def95ea3a0d1f1635d","study_id":"6197b3f67c2b5cd3b6d9596a","session_id":"619be58f4958cda97b691358","condition":"contingent","relevant_dimensions":["antennae","legs"],"bee_group":{"antennae":"A","wings":"X","pattern":"X","legs":"F"},"action":"avoid","summary":"bad-avoid","bonus":0.8400000000000005},{"rt":1154.5,"stimulus":"\n                    <p><b>Action: <em>avoid</em></b></p>\n                    <p>This is the bee that you just saw.</p>\n                    <img src=\"bees-with-color/bee-A1DM.svg\" width=\"200\">\n                    <p><br>Your bonus pay is unchanged, and remains at $0.60.</p>\n            ","response":0,"trial_type":"html-button-response","trial_index":104,"time_elapsed":751335,"internal_node_id":"0.0-4.0-1.46","subject_id":"610cf6def95ea3a0d1f1635d","study_id":"6197b3f67c2b5cd3b6d9596a","session_id":"619be58f4958cda97b691358","condition":"contingent","relevant_dimensions":["antennae","legs"],"bee_group":{"antennae":"A","wings":"X","pattern":"X","legs":"F"},"bonus":0.8400000000000005},{"rt":1452.6000000238419,"stimulus":"bees-with-color/bee-B1SF.svg","response":1,"trial_type":"image-button-response","trial_index":105,"time_elapsed":752789,"internal_node_id":"0.0-4.0-0.47","subject_id":"610cf6def95ea3a0d1f1635d","study_id":"6197b3f67c2b5cd3b6d9596a","session_id":"619be58f4958cda97b691358","condition":"contingent","relevant_dimensions":["antennae","legs"],"bee_group":{"antennae":"A","wings":"X","pattern":"X","legs":"F"},"action":"avoid","summary":"bad-avoid","bonus":0.8400000000000005},{"rt":2490.5,"stimulus":"\n                    <p><b>Action: <em>avoid</em></b></p>\n                    <p>This is the bee that you just saw.</p>\n                    <img src=\"bees-with-color/bee-B1SF.svg\" width=\"200\">\n                    <p><br>Your bonus pay is unchanged, and remains at $0.60.</p>\n            ","response":0,"trial_type":"html-button-response","trial_index":106,"time_elapsed":755280,"internal_node_id":"0.0-4.0-1.47","subject_id":"610cf6def95ea3a0d1f1635d","study_id":"6197b3f67c2b5cd3b6d9596a","session_id":"619be58f4958cda97b691358","condition":"contingent","relevant_dimensions":["antennae","legs"],"bee_group":{"antennae":"A","wings":"X","pattern":"X","legs":"F"},"bonus":0.8400000000000005},{"rt":2298.2000000476837,"stimulus":"bees-with-color/bee-B1DM.svg","response":1,"trial_type":"image-button-response","trial_index":107,"time_elapsed":757580,"internal_node_id":"0.0-4.0-0.48","subject_id":"610cf6def95ea3a0d1f1635d","study_id":"6197b3f67c2b5cd3b6d9596a","session_id":"619be58f4958cda97b691358","condition":"contingent","relevant_dimensions":["antennae","legs"],"bee_group":{"antennae":"A","wings":"X","pattern":"X","legs":"F"},"action":"avoid","summary":"bad-avoid","bonus":0.8400000000000005},{"rt":850.1000000238419,"stimulus":"\n                    <p><b>Action: <em>avoid</em></b></p>\n                    <p>This is the bee that you just saw.</p>\n                    <img src=\"bees-with-color/bee-B1DM.svg\" width=\"200\">\n                    <p><br>Your bonus pay is unchanged, and remains at $0.60.</p>\n            ","response":0,"trial_type":"html-button-response","trial_index":108,"time_elapsed":758432,"internal_node_id":"0.0-4.0-1.48","subject_id":"610cf6def95ea3a0d1f1635d","study_id":"6197b3f67c2b5cd3b6d9596a","session_id":"619be58f4958cda97b691358","condition":"contingent","relevant_dimensions":["antennae","legs"],"bee_group":{"antennae":"A","wings":"X","pattern":"X","legs":"F"},"bonus":0.8400000000000005},{"rt":1106,"stimulus":"bees-with-color/bee-B2DF.svg","response":1,"trial_type":"image-button-response","trial_index":109,"time_elapsed":759539,"internal_node_id":"0.0-4.0-0.49","subject_id":"610cf6def95ea3a0d1f1635d","study_id":"6197b3f67c2b5cd3b6d9596a","session_id":"619be58f4958cda97b691358","condition":"contingent","relevant_dimensions":["antennae","legs"],"bee_group":{"antennae":"A","wings":"X","pattern":"X","legs":"F"},"action":"avoid","summary":"bad-avoid","bonus":0.8400000000000005},{"rt":1447,"stimulus":"\n                    <p><b>Action: <em>avoid</em></b></p>\n                    <p>This is the bee that you just saw.</p>\n                    <img src=\"bees-with-color/bee-B2DF.svg\" width=\"200\">\n                    <p><br>Your bonus pay is unchanged, and remains at $0.60.</p>\n            ","response":0,"trial_type":"html-button-response","trial_index":110,"time_elapsed":760987,"internal_node_id":"0.0-4.0-1.49","subject_id":"610cf6def95ea3a0d1f1635d","study_id":"6197b3f67c2b5cd3b6d9596a","session_id":"619be58f4958cda97b691358","condition":"contingent","relevant_dimensions":["antennae","legs"],"bee_group":{"antennae":"A","wings":"X","pattern":"X","legs":"F"},"bonus":0.8400000000000005},{"rt":2173,"stimulus":"bees-with-color/bee-B1SM.svg","response":1,"trial_type":"image-button-response","trial_index":111,"time_elapsed":763162,"internal_node_id":"0.0-4.0-0.50","subject_id":"610cf6def95ea3a0d1f1635d","study_id":"6197b3f67c2b5cd3b6d9596a","session_id":"619be58f4958cda97b691358","condition":"contingent","relevant_dimensions":["antennae","legs"],"bee_group":{"antennae":"A","wings":"X","pattern":"X","legs":"F"},"action":"avoid","summary":"bad-avoid","bonus":0.8400000000000005},{"rt":1075.8999999761581,"stimulus":"\n                    <p><b>Action: <em>avoid</em></b></p>\n                    <p>This is the bee that you just saw.</p>\n                    <img src=\"bees-with-color/bee-B1SM.svg\" width=\"200\">\n                    <p><br>Your bonus pay is unchanged, and remains at $0.60.</p>\n            ","response":0,"trial_type":"html-button-response","trial_index":112,"time_elapsed":764239,"internal_node_id":"0.0-4.0-1.50","subject_id":"610cf6def95ea3a0d1f1635d","study_id":"6197b3f67c2b5cd3b6d9596a","session_id":"619be58f4958cda97b691358","condition":"contingent","relevant_dimensions":["antennae","legs"],"bee_group":{"antennae":"A","wings":"X","pattern":"X","legs":"F"},"bonus":0.8400000000000005},{"rt":3231.600000023842,"stimulus":"bees-with-color/bee-A2DF.svg","response":1,"trial_type":"image-button-response","trial_index":113,"time_elapsed":767472,"internal_node_id":"0.0-4.0-0.51","subject_id":"610cf6def95ea3a0d1f1635d","study_id":"6197b3f67c2b5cd3b6d9596a","session_id":"619be58f4958cda97b691358","condition":"contingent","relevant_dimensions":["antennae","legs"],"bee_group":{"antennae":"A","wings":"X","pattern":"X","legs":"F"},"action":"avoid","summary":"good-avoid","bonus":0.8400000000000005},{"rt":1164.7999999523163,"stimulus":"\n                    <p><b>Action: <em>avoid</em></b></p>\n                    <p>This is the bee that you just saw.</p>\n                    <img src=\"bees-with-color/bee-A2DF.svg\" width=\"200\">\n                    <p><br>Your bonus pay is unchanged, and remains at $0.60.</p>\n            ","response":0,"trial_type":"html-button-response","trial_index":114,"time_elapsed":768640,"internal_node_id":"0.0-4.0-1.51","subject_id":"610cf6def95ea3a0d1f1635d","study_id":"6197b3f67c2b5cd3b6d9596a","session_id":"619be58f4958cda97b691358","condition":"contingent","relevant_dimensions":["antennae","legs"],"bee_group":{"antennae":"A","wings":"X","pattern":"X","legs":"F"},"bonus":0.8400000000000005},{"rt":1964.4000000953674,"stimulus":"bees-with-color/bee-B2SM.svg","response":1,"trial_type":"image-button-response","trial_index":115,"time_elapsed":770606,"internal_node_id":"0.0-4.0-0.52","subject_id":"610cf6def95ea3a0d1f1635d","study_id":"6197b3f67c2b5cd3b6d9596a","session_id":"619be58f4958cda97b691358","condition":"contingent","relevant_dimensions":["antennae","legs"],"bee_group":{"antennae":"A","wings":"X","pattern":"X","legs":"F"},"action":"avoid","summary":"bad-avoid","bonus":0.8400000000000005},{"rt":3305,"stimulus":"\n                    <p><b>Action: <em>avoid</em></b></p>\n                    <p>This is the bee that you just saw.</p>\n                    <img src=\"bees-with-color/bee-B2SM.svg\" width=\"200\">\n                    <p><br>Your bonus pay is unchanged, and remains at $0.60.</p>\n            ","response":0,"trial_type":"html-button-response","trial_index":116,"time_elapsed":773913,"internal_node_id":"0.0-4.0-1.52","subject_id":"610cf6def95ea3a0d1f1635d","study_id":"6197b3f67c2b5cd3b6d9596a","session_id":"619be58f4958cda97b691358","condition":"contingent","relevant_dimensions":["antennae","legs"],"bee_group":{"antennae":"A","wings":"X","pattern":"X","legs":"F"},"bonus":0.8400000000000005},{"rt":1164.1000000238419,"stimulus":"bees-with-color/bee-A1SF.svg","response":1,"trial_type":"image-button-response","trial_index":117,"time_elapsed":775079,"internal_node_id":"0.0-4.0-0.53","subject_id":"610cf6def95ea3a0d1f1635d","study_id":"6197b3f67c2b5cd3b6d9596a","session_id":"619be58f4958cda97b691358","condition":"contingent","relevant_dimensions":["antennae","legs"],"bee_group":{"antennae":"A","wings":"X","pattern":"X","legs":"F"},"action":"avoid","summary":"good-avoid","bonus":0.8400000000000005},{"rt":1166.1000000238419,"stimulus":"\n                    <p><b>Action: <em>avoid</em></b></p>\n                    <p>This is the bee that you just saw.</p>\n                    <img src=\"bees-with-color/bee-A1SF.svg\" width=\"200\">\n                    <p><br>Your bonus pay is unchanged, and remains at $0.60.</p>\n            ","response":0,"trial_type":"html-button-response","trial_index":118,"time_elapsed":776247,"internal_node_id":"0.0-4.0-1.53","subject_id":"610cf6def95ea3a0d1f1635d","study_id":"6197b3f67c2b5cd3b6d9596a","session_id":"619be58f4958cda97b691358","condition":"contingent","relevant_dimensions":["antennae","legs"],"bee_group":{"antennae":"A","wings":"X","pattern":"X","legs":"F"},"bonus":0.8400000000000005},{"rt":1215,"stimulus":"bees-with-color/bee-A2SM.svg","response":0,"trial_type":"image-button-response","trial_index":119,"time_elapsed":777463,"internal_node_id":"0.0-4.0-0.54","subject_id":"610cf6def95ea3a0d1f1635d","study_id":"6197b3f67c2b5cd3b6d9596a","session_id":"619be58f4958cda97b691358","condition":"contingent","relevant_dimensions":["antennae","legs"],"bee_group":{"antennae":"A","wings":"X","pattern":"X","legs":"F"},"action":"harvest","summary":"good-harvest","bonus":0.8400000000000005},{"rt":1355.8000000715256,"stimulus":"\n                    <p><b>Action: <em>harvest</em></b></p>\n                    <p>This is the bee that you just saw.</p>\n                    <img src=\"bees-with-color/bee-A2SM.svg\" width=\"200\">\n                    <p><span class=\"greenText\"><b>Successful harvest!</b></span><br>Your pay has increased by $0.02. Your bonus pay is now $0.62.</p>\n            ","response":0,"trial_type":"html-button-response","trial_index":120,"time_elapsed":778821,"internal_node_id":"0.0-4.0-1.54","subject_id":"610cf6def95ea3a0d1f1635d","study_id":"6197b3f67c2b5cd3b6d9596a","session_id":"619be58f4958cda97b691358","condition":"contingent","relevant_dimensions":["antennae","legs"],"bee_group":{"antennae":"A","wings":"X","pattern":"X","legs":"F"},"bonus":0.8400000000000005},{"rt":2523.3000000715256,"stimulus":"bees-with-color/bee-A2DM.svg","response":0,"trial_type":"image-button-response","trial_index":121,"time_elapsed":781346,"internal_node_id":"0.0-4.0-0.55","subject_id":"610cf6def95ea3a0d1f1635d","study_id":"6197b3f67c2b5cd3b6d9596a","session_id":"619be58f4958cda97b691358","condition":"contingent","relevant_dimensions":["antennae","legs"],"bee_group":{"antennae":"A","wings":"X","pattern":"X","legs":"F"},"action":"harvest","summary":"good-harvest","bonus":0.8400000000000005},{"rt":1418.1000000238419,"stimulus":"\n                    <p><b>Action: <em>harvest</em></b></p>\n                    <p>This is the bee that you just saw.</p>\n                    <img src=\"bees-with-color/bee-A2DM.svg\" width=\"200\">\n                    <p><span class=\"greenText\"><b>Successful harvest!</b></span><br>Your pay has increased by $0.02. Your bonus pay is now $0.64.</p>\n            ","response":0,"trial_type":"html-button-response","trial_index":122,"time_elapsed":782766,"internal_node_id":"0.0-4.0-1.55","subject_id":"610cf6def95ea3a0d1f1635d","study_id":"6197b3f67c2b5cd3b6d9596a","session_id":"619be58f4958cda97b691358","condition":"contingent","relevant_dimensions":["antennae","legs"],"bee_group":{"antennae":"A","wings":"X","pattern":"X","legs":"F"},"bonus":0.8400000000000005},{"rt":1142.1000000238419,"stimulus":"bees-with-color/bee-A1SM.svg","response":1,"trial_type":"image-button-response","trial_index":123,"time_elapsed":783910,"internal_node_id":"0.0-4.0-0.56","subject_id":"610cf6def95ea3a0d1f1635d","study_id":"6197b3f67c2b5cd3b6d9596a","session_id":"619be58f4958cda97b691358","condition":"contingent","relevant_dimensions":["antennae","legs"],"bee_group":{"antennae":"A","wings":"X","pattern":"X","legs":"F"},"action":"avoid","summary":"bad-avoid","bonus":0.8400000000000005},{"rt":1301,"stimulus":"\n                    <p><b>Action: <em>avoid</em></b></p>\n                    <p>This is the bee that you just saw.</p>\n                    <img src=\"bees-with-color/bee-A1SM.svg\" width=\"200\">\n                    <p><br>Your bonus pay is unchanged, and remains at $0.64.</p>\n            ","response":0,"trial_type":"html-button-response","trial_index":124,"time_elapsed":785213,"internal_node_id":"0.0-4.0-1.56","subject_id":"610cf6def95ea3a0d1f1635d","study_id":"6197b3f67c2b5cd3b6d9596a","session_id":"619be58f4958cda97b691358","condition":"contingent","relevant_dimensions":["antennae","legs"],"bee_group":{"antennae":"A","wings":"X","pattern":"X","legs":"F"},"bonus":0.8400000000000005},{"rt":1647.3999999761581,"stimulus":"bees-with-color/bee-B2SF.svg","response":1,"trial_type":"image-button-response","trial_index":125,"time_elapsed":786861,"internal_node_id":"0.0-4.0-0.57","subject_id":"610cf6def95ea3a0d1f1635d","study_id":"6197b3f67c2b5cd3b6d9596a","session_id":"619be58f4958cda97b691358","condition":"contingent","relevant_dimensions":["antennae","legs"],"bee_group":{"antennae":"A","wings":"X","pattern":"X","legs":"F"},"action":"avoid","summary":"bad-avoid","bonus":0.8400000000000005},{"rt":1289.7000000476837,"stimulus":"\n                    <p><b>Action: <em>avoid</em></b></p>\n                    <p>This is the bee that you just saw.</p>\n                    <img src=\"bees-with-color/bee-B2SF.svg\" width=\"200\">\n                    <p><br>Your bonus pay is unchanged, and remains at $0.64.</p>\n            ","response":0,"trial_type":"html-button-response","trial_index":126,"time_elapsed":788152,"internal_node_id":"0.0-4.0-1.57","subject_id":"610cf6def95ea3a0d1f1635d","study_id":"6197b3f67c2b5cd3b6d9596a","session_id":"619be58f4958cda97b691358","condition":"contingent","relevant_dimensions":["antennae","legs"],"bee_group":{"antennae":"A","wings":"X","pattern":"X","legs":"F"},"bonus":0.8400000000000005},{"rt":1082.1000000238419,"stimulus":"bees-with-color/bee-A1DM.svg","response":1,"trial_type":"image-button-response","trial_index":127,"time_elapsed":789235,"internal_node_id":"0.0-4.0-0.58","subject_id":"610cf6def95ea3a0d1f1635d","study_id":"6197b3f67c2b5cd3b6d9596a","session_id":"619be58f4958cda97b691358","condition":"contingent","relevant_dimensions":["antennae","legs"],"bee_group":{"antennae":"A","wings":"X","pattern":"X","legs":"F"},"action":"avoid","summary":"bad-avoid","bonus":0.8400000000000005},{"rt":1088.6999999284744,"stimulus":"\n                    <p><b>Action: <em>avoid</em></b></p>\n                    <p>This is the bee that you just saw.</p>\n                    <img src=\"bees-with-color/bee-A1DM.svg\" width=\"200\">\n                    <p><br>Your bonus pay is unchanged, and remains at $0.64.</p>\n            ","response":0,"trial_type":"html-button-response","trial_index":128,"time_elapsed":790325,"internal_node_id":"0.0-4.0-1.58","subject_id":"610cf6def95ea3a0d1f1635d","study_id":"6197b3f67c2b5cd3b6d9596a","session_id":"619be58f4958cda97b691358","condition":"contingent","relevant_dimensions":["antennae","legs"],"bee_group":{"antennae":"A","wings":"X","pattern":"X","legs":"F"},"bonus":0.8400000000000005},{"rt":1632.8000000715256,"stimulus":"bees-with-color/bee-B2DM.svg","response":0,"trial_type":"image-button-response","trial_index":129,"time_elapsed":791959,"internal_node_id":"0.0-4.0-0.59","subject_id":"610cf6def95ea3a0d1f1635d","study_id":"6197b3f67c2b5cd3b6d9596a","session_id":"619be58f4958cda97b691358","condition":"contingent","relevant_dimensions":["antennae","legs"],"bee_group":{"antennae":"A","wings":"X","pattern":"X","legs":"F"},"action":"harvest","summary":"good-harvest","bonus":0.8400000000000005},{"rt":1175.1000000238419,"stimulus":"\n                    <p><b>Action: <em>harvest</em></b></p>\n                    <p>This is the bee that you just saw.</p>\n                    <img src=\"bees-with-color/bee-B2DM.svg\" width=\"200\">\n                    <p><span class=\"greenText\"><b>Successful harvest!</b></span><br>Your pay has increased by $0.02. Your bonus pay is now $0.66.</p>\n            ","response":0,"trial_type":"html-button-response","trial_index":130,"time_elapsed":793135,"internal_node_id":"0.0-4.0-1.59","subject_id":"610cf6def95ea3a0d1f1635d","study_id":"6197b3f67c2b5cd3b6d9596a","session_id":"619be58f4958cda97b691358","condition":"contingent","relevant_dimensions":["antennae","legs"],"bee_group":{"antennae":"A","wings":"X","pattern":"X","legs":"F"},"bonus":0.8400000000000005},{"rt":1672.7999999523163,"stimulus":"bees-with-color/bee-A2SF.svg","response":1,"trial_type":"image-button-response","trial_index":131,"time_elapsed":794810,"internal_node_id":"0.0-4.0-0.60","subject_id":"610cf6def95ea3a0d1f1635d","study_id":"6197b3f67c2b5cd3b6d9596a","session_id":"619be58f4958cda97b691358","condition":"contingent","relevant_dimensions":["antennae","legs"],"bee_group":{"antennae":"A","wings":"X","pattern":"X","legs":"F"},"action":"avoid","summary":"good-avoid","bonus":0.8400000000000005},{"rt":1966.2000000476837,"stimulus":"\n                    <p><b>Action: <em>avoid</em></b></p>\n                    <p>This is the bee that you just saw.</p>\n                    <img src=\"bees-with-color/bee-A2SF.svg\" width=\"200\">\n                    <p><br>Your bonus pay is unchanged, and remains at $0.66.</p>\n            ","response":0,"trial_type":"html-button-response","trial_index":132,"time_elapsed":796778,"internal_node_id":"0.0-4.0-1.60","subject_id":"610cf6def95ea3a0d1f1635d","study_id":"6197b3f67c2b5cd3b6d9596a","session_id":"619be58f4958cda97b691358","condition":"contingent","relevant_dimensions":["antennae","legs"],"bee_group":{"antennae":"A","wings":"X","pattern":"X","legs":"F"},"bonus":0.8400000000000005},{"rt":1165.8999999761581,"stimulus":"bees-with-color/bee-A1DF.svg","response":1,"trial_type":"image-button-response","trial_index":133,"time_elapsed":797945,"internal_node_id":"0.0-4.0-0.61","subject_id":"610cf6def95ea3a0d1f1635d","study_id":"6197b3f67c2b5cd3b6d9596a","session_id":"619be58f4958cda97b691358","condition":"contingent","relevant_dimensions":["antennae","legs"],"bee_group":{"antennae":"A","wings":"X","pattern":"X","legs":"F"},"action":"avoid","summary":"good-avoid","bonus":0.8400000000000005},{"rt":1113.5999999046326,"stimulus":"\n                    <p><b>Action: <em>avoid</em></b></p>\n                    <p>This is the bee that you just saw.</p>\n                    <img src=\"bees-with-color/bee-A1DF.svg\" width=\"200\">\n                    <p><br>Your bonus pay is unchanged, and remains at $0.66.</p>\n            ","response":0,"trial_type":"html-button-response","trial_index":134,"time_elapsed":799060,"internal_node_id":"0.0-4.0-1.61","subject_id":"610cf6def95ea3a0d1f1635d","study_id":"6197b3f67c2b5cd3b6d9596a","session_id":"619be58f4958cda97b691358","condition":"contingent","relevant_dimensions":["antennae","legs"],"bee_group":{"antennae":"A","wings":"X","pattern":"X","legs":"F"},"bonus":0.8400000000000005},{"rt":1136.5,"stimulus":"bees-with-color/bee-B1DF.svg","response":1,"trial_type":"image-button-response","trial_index":135,"time_elapsed":800198,"internal_node_id":"0.0-4.0-0.62","subject_id":"610cf6def95ea3a0d1f1635d","study_id":"6197b3f67c2b5cd3b6d9596a","session_id":"619be58f4958cda97b691358","condition":"contingent","relevant_dimensions":["antennae","legs"],"bee_group":{"antennae":"A","wings":"X","pattern":"X","legs":"F"},"action":"avoid","summary":"bad-avoid","bonus":0.8400000000000005},{"rt":1054.3999999761581,"stimulus":"\n                    <p><b>Action: <em>avoid</em></b></p>\n                    <p>This is the bee that you just saw.</p>\n                    <img src=\"bees-with-color/bee-B1DF.svg\" width=\"200\">\n                    <p><br>Your bonus pay is unchanged, and remains at $0.66.</p>\n            ","response":0,"trial_type":"html-button-response","trial_index":136,"time_elapsed":801253,"internal_node_id":"0.0-4.0-1.62","subject_id":"610cf6def95ea3a0d1f1635d","study_id":"6197b3f67c2b5cd3b6d9596a","session_id":"619be58f4958cda97b691358","condition":"contingent","relevant_dimensions":["antennae","legs"],"bee_group":{"antennae":"A","wings":"X","pattern":"X","legs":"F"},"bonus":0.8400000000000005},{"rt":1350.0999999046326,"stimulus":"bees-with-color/bee-B1SF.svg","response":1,"trial_type":"image-button-response","trial_index":137,"time_elapsed":802605,"internal_node_id":"0.0-4.0-0.63","subject_id":"610cf6def95ea3a0d1f1635d","study_id":"6197b3f67c2b5cd3b6d9596a","session_id":"619be58f4958cda97b691358","condition":"contingent","relevant_dimensions":["antennae","legs"],"bee_group":{"antennae":"A","wings":"X","pattern":"X","legs":"F"},"action":"avoid","summary":"bad-avoid","bonus":0.8400000000000005},{"rt":1144.8999999761581,"stimulus":"\n                    <p><b>Action: <em>avoid</em></b></p>\n                    <p>This is the bee that you just saw.</p>\n                    <img src=\"bees-with-color/bee-B1SF.svg\" width=\"200\">\n                    <p><br>Your bonus pay is unchanged, and remains at $0.66.</p>\n            ","response":0,"trial_type":"html-button-response","trial_index":138,"time_elapsed":803751,"internal_node_id":"0.0-4.0-1.63","subject_id":"610cf6def95ea3a0d1f1635d","study_id":"6197b3f67c2b5cd3b6d9596a","session_id":"619be58f4958cda97b691358","condition":"contingent","relevant_dimensions":["antennae","legs"],"bee_group":{"antennae":"A","wings":"X","pattern":"X","legs":"F"},"bonus":0.8400000000000005},{"rt":6207.300000071526,"stimulus":"You have completed the first part of this experiment.<br><br>You will now begin a shorter second part, in which you will receive no feedback.<br>The same rules regarding bonus pay apply.<br><br>Press any key to begin.","response":"enter","trial_type":"html-keyboard-response","trial_index":139,"time_elapsed":809960,"internal_node_id":"0.0-5.0","subject_id":"610cf6def95ea3a0d1f1635d","study_id":"6197b3f67c2b5cd3b6d9596a","session_id":"619be58f4958cda97b691358","condition":"contingent","relevant_dimensions":["antennae","legs"],"bee_group":{"antennae":"A","wings":"X","pattern":"X","legs":"F"},"bonus":0.8400000000000005},{"rt":11579.700000047684,"stimulus":"bees-with-color/bee-B2DF.svg","response":1,"trial_type":"image-button-response","trial_index":140,"time_elapsed":821556,"internal_node_id":"0.0-6.0-0.0","subject_id":"610cf6def95ea3a0d1f1635d","study_id":"6197b3f67c2b5cd3b6d9596a","session_id":"619be58f4958cda97b691358","condition":"contingent","relevant_dimensions":["antennae","legs"],"bee_group":{"antennae":"A","wings":"X","pattern":"X","legs":"F"},"bonus":0.8400000000000005},{"rt":729.6000000238419,"stimulus":"bees-with-color/bee-B1DF.svg","response":1,"trial_type":"image-button-response","trial_index":141,"time_elapsed":822288,"internal_node_id":"0.0-6.0-0.1","subject_id":"610cf6def95ea3a0d1f1635d","study_id":"6197b3f67c2b5cd3b6d9596a","session_id":"619be58f4958cda97b691358","condition":"contingent","relevant_dimensions":["antennae","legs"],"bee_group":{"antennae":"A","wings":"X","pattern":"X","legs":"F"},"bonus":0.8400000000000005},{"rt":2496.899999976158,"stimulus":"bees-with-color/bee-A1SF.svg","response":1,"trial_type":"image-button-response","trial_index":142,"time_elapsed":824786,"internal_node_id":"0.0-6.0-0.2","subject_id":"610cf6def95ea3a0d1f1635d","study_id":"6197b3f67c2b5cd3b6d9596a","session_id":"619be58f4958cda97b691358","condition":"contingent","relevant_dimensions":["antennae","legs"],"bee_group":{"antennae":"A","wings":"X","pattern":"X","legs":"F"},"bonus":0.8400000000000005},{"rt":2125.100000023842,"stimulus":"bees-with-color/bee-B2SM.svg","response":0,"trial_type":"image-button-response","trial_index":143,"time_elapsed":826914,"internal_node_id":"0.0-6.0-0.3","subject_id":"610cf6def95ea3a0d1f1635d","study_id":"6197b3f67c2b5cd3b6d9596a","session_id":"619be58f4958cda97b691358","condition":"contingent","relevant_dimensions":["antennae","legs"],"bee_group":{"antennae":"A","wings":"X","pattern":"X","legs":"F"},"bonus":0.8400000000000005},{"rt":5429.600000023842,"stimulus":"bees-with-color/bee-A1DM.svg","response":0,"trial_type":"image-button-response","trial_index":144,"time_elapsed":832346,"internal_node_id":"0.0-6.0-0.4","subject_id":"610cf6def95ea3a0d1f1635d","study_id":"6197b3f67c2b5cd3b6d9596a","session_id":"619be58f4958cda97b691358","condition":"contingent","relevant_dimensions":["antennae","legs"],"bee_group":{"antennae":"A","wings":"X","pattern":"X","legs":"F"},"bonus":0.8400000000000005},{"rt":2546.399999976158,"stimulus":"bees-with-color/bee-A2SF.svg","response":1,"trial_type":"image-button-response","trial_index":145,"time_elapsed":834895,"internal_node_id":"0.0-6.0-0.5","subject_id":"610cf6def95ea3a0d1f1635d","study_id":"6197b3f67c2b5cd3b6d9596a","session_id":"619be58f4958cda97b691358","condition":"contingent","relevant_dimensions":["antennae","legs"],"bee_group":{"antennae":"A","wings":"X","pattern":"X","legs":"F"},"bonus":0.8400000000000005},{"rt":416.89999997615814,"stimulus":"bees-with-color/bee-B2SF.svg","response":1,"trial_type":"image-button-response","trial_index":146,"time_elapsed":835314,"internal_node_id":"0.0-6.0-0.6","subject_id":"610cf6def95ea3a0d1f1635d","study_id":"6197b3f67c2b5cd3b6d9596a","session_id":"619be58f4958cda97b691358","condition":"contingent","relevant_dimensions":["antennae","legs"],"bee_group":{"antennae":"A","wings":"X","pattern":"X","legs":"F"},"bonus":0.8400000000000005},{"rt":2637.0999999046326,"stimulus":"bees-with-color/bee-B2DM.svg","response":0,"trial_type":"image-button-response","trial_index":147,"time_elapsed":837954,"internal_node_id":"0.0-6.0-0.7","subject_id":"610cf6def95ea3a0d1f1635d","study_id":"6197b3f67c2b5cd3b6d9596a","session_id":"619be58f4958cda97b691358","condition":"contingent","relevant_dimensions":["antennae","legs"],"bee_group":{"antennae":"A","wings":"X","pattern":"X","legs":"F"},"bonus":0.8400000000000005},{"rt":1465.2999999523163,"stimulus":"bees-with-color/bee-B1SM.svg","response":1,"trial_type":"image-button-response","trial_index":148,"time_elapsed":839421,"internal_node_id":"0.0-6.0-0.8","subject_id":"610cf6def95ea3a0d1f1635d","study_id":"6197b3f67c2b5cd3b6d9596a","session_id":"619be58f4958cda97b691358","condition":"contingent","relevant_dimensions":["antennae","legs"],"bee_group":{"antennae":"A","wings":"X","pattern":"X","legs":"F"},"bonus":0.8400000000000005},{"rt":1099.3000000715256,"stimulus":"bees-with-color/bee-A2DM.svg","response":0,"trial_type":"image-button-response","trial_index":149,"time_elapsed":840523,"internal_node_id":"0.0-6.0-0.9","subject_id":"610cf6def95ea3a0d1f1635d","study_id":"6197b3f67c2b5cd3b6d9596a","session_id":"619be58f4958cda97b691358","condition":"contingent","relevant_dimensions":["antennae","legs"],"bee_group":{"antennae":"A","wings":"X","pattern":"X","legs":"F"},"bonus":0.8400000000000005},{"rt":1612.1000000238419,"stimulus":"bees-with-color/bee-A2SM.svg","response":0,"trial_type":"image-button-response","trial_index":150,"time_elapsed":842137,"internal_node_id":"0.0-6.0-0.10","subject_id":"610cf6def95ea3a0d1f1635d","study_id":"6197b3f67c2b5cd3b6d9596a","session_id":"619be58f4958cda97b691358","condition":"contingent","relevant_dimensions":["antennae","legs"],"bee_group":{"antennae":"A","wings":"X","pattern":"X","legs":"F"},"bonus":0.8400000000000005},{"rt":1728.3999999761581,"stimulus":"bees-with-color/bee-A1SM.svg","response":1,"trial_type":"image-button-response","trial_index":151,"time_elapsed":843867,"internal_node_id":"0.0-6.0-0.11","subject_id":"610cf6def95ea3a0d1f1635d","study_id":"6197b3f67c2b5cd3b6d9596a","session_id":"619be58f4958cda97b691358","condition":"contingent","relevant_dimensions":["antennae","legs"],"bee_group":{"antennae":"A","wings":"X","pattern":"X","legs":"F"},"bonus":0.8400000000000005},{"rt":871.2000000476837,"stimulus":"bees-with-color/bee-B1DM.svg","response":1,"trial_type":"image-button-response","trial_index":152,"time_elapsed":844740,"internal_node_id":"0.0-6.0-0.12","subject_id":"610cf6def95ea3a0d1f1635d","study_id":"6197b3f67c2b5cd3b6d9596a","session_id":"619be58f4958cda97b691358","condition":"contingent","relevant_dimensions":["antennae","legs"],"bee_group":{"antennae":"A","wings":"X","pattern":"X","legs":"F"},"bonus":0.8400000000000005},{"rt":696,"stimulus":"bees-with-color/bee-B1SF.svg","response":1,"trial_type":"image-button-response","trial_index":153,"time_elapsed":845438,"internal_node_id":"0.0-6.0-0.13","subject_id":"610cf6def95ea3a0d1f1635d","study_id":"6197b3f67c2b5cd3b6d9596a","session_id":"619be58f4958cda97b691358","condition":"contingent","relevant_dimensions":["antennae","legs"],"bee_group":{"antennae":"A","wings":"X","pattern":"X","legs":"F"},"bonus":0.8400000000000005},{"rt":885.0999999046326,"stimulus":"bees-with-color/bee-A2DF.svg","response":1,"trial_type":"image-button-response","trial_index":154,"time_elapsed":846325,"internal_node_id":"0.0-6.0-0.14","subject_id":"610cf6def95ea3a0d1f1635d","study_id":"6197b3f67c2b5cd3b6d9596a","session_id":"619be58f4958cda97b691358","condition":"contingent","relevant_dimensions":["antennae","legs"],"bee_group":{"antennae":"A","wings":"X","pattern":"X","legs":"F"},"bonus":0.8400000000000005},{"rt":352.39999997615814,"stimulus":"bees-with-color/bee-A1DF.svg","response":1,"trial_type":"image-button-response","trial_index":155,"time_elapsed":846679,"internal_node_id":"0.0-6.0-0.15","subject_id":"610cf6def95ea3a0d1f1635d","study_id":"6197b3f67c2b5cd3b6d9596a","session_id":"619be58f4958cda97b691358","condition":"contingent","relevant_dimensions":["antennae","legs"],"bee_group":{"antennae":"A","wings":"X","pattern":"X","legs":"F"},"bonus":0.8400000000000005},{"rt":2706.399999976158,"stimulus":"bees-with-color/bee-B2DF.svg","response":1,"trial_type":"image-button-response","trial_index":156,"time_elapsed":849387,"internal_node_id":"0.0-6.0-0.16","subject_id":"610cf6def95ea3a0d1f1635d","study_id":"6197b3f67c2b5cd3b6d9596a","session_id":"619be58f4958cda97b691358","condition":"contingent","relevant_dimensions":["antennae","legs"],"bee_group":{"antennae":"A","wings":"X","pattern":"X","legs":"F"},"bonus":0.8400000000000005},{"rt":1644.3999999761581,"stimulus":"bees-with-color/bee-A2SM.svg","response":0,"trial_type":"image-button-response","trial_index":157,"time_elapsed":851033,"internal_node_id":"0.0-6.0-0.17","subject_id":"610cf6def95ea3a0d1f1635d","study_id":"6197b3f67c2b5cd3b6d9596a","session_id":"619be58f4958cda97b691358","condition":"contingent","relevant_dimensions":["antennae","legs"],"bee_group":{"antennae":"A","wings":"X","pattern":"X","legs":"F"},"bonus":0.8400000000000005},{"rt":1335.2999999523163,"stimulus":"bees-with-color/bee-A2DF.svg","response":1,"trial_type":"image-button-response","trial_index":158,"time_elapsed":852370,"internal_node_id":"0.0-6.0-0.18","subject_id":"610cf6def95ea3a0d1f1635d","study_id":"6197b3f67c2b5cd3b6d9596a","session_id":"619be58f4958cda97b691358","condition":"contingent","relevant_dimensions":["antennae","legs"],"bee_group":{"antennae":"A","wings":"X","pattern":"X","legs":"F"},"bonus":0.8400000000000005},{"rt":776.6000000238419,"stimulus":"bees-with-color/bee-B1DM.svg","response":1,"trial_type":"image-button-response","trial_index":159,"time_elapsed":853148,"internal_node_id":"0.0-6.0-0.19","subject_id":"610cf6def95ea3a0d1f1635d","study_id":"6197b3f67c2b5cd3b6d9596a","session_id":"619be58f4958cda97b691358","condition":"contingent","relevant_dimensions":["antennae","legs"],"bee_group":{"antennae":"A","wings":"X","pattern":"X","legs":"F"},"bonus":0.8400000000000005},{"rt":822,"stimulus":"bees-with-color/bee-B1SM.svg","response":1,"trial_type":"image-button-response","trial_index":160,"time_elapsed":853972,"internal_node_id":"0.0-6.0-0.20","subject_id":"610cf6def95ea3a0d1f1635d","study_id":"6197b3f67c2b5cd3b6d9596a","session_id":"619be58f4958cda97b691358","condition":"contingent","relevant_dimensions":["antennae","legs"],"bee_group":{"antennae":"A","wings":"X","pattern":"X","legs":"F"},"bonus":0.8400000000000005},{"rt":700.2999999523163,"stimulus":"bees-with-color/bee-A1DM.svg","response":1,"trial_type":"image-button-response","trial_index":161,"time_elapsed":854673,"internal_node_id":"0.0-6.0-0.21","subject_id":"610cf6def95ea3a0d1f1635d","study_id":"6197b3f67c2b5cd3b6d9596a","session_id":"619be58f4958cda97b691358","condition":"contingent","relevant_dimensions":["antennae","legs"],"bee_group":{"antennae":"A","wings":"X","pattern":"X","legs":"F"},"bonus":0.8400000000000005},{"rt":775.2000000476837,"stimulus":"bees-with-color/bee-A1SF.svg","response":1,"trial_type":"image-button-response","trial_index":162,"time_elapsed":855450,"internal_node_id":"0.0-6.0-0.22","subject_id":"610cf6def95ea3a0d1f1635d","study_id":"6197b3f67c2b5cd3b6d9596a","session_id":"619be58f4958cda97b691358","condition":"contingent","relevant_dimensions":["antennae","legs"],"bee_group":{"antennae":"A","wings":"X","pattern":"X","legs":"F"},"bonus":0.8400000000000005},{"rt":1586.1999999284744,"stimulus":"bees-with-color/bee-B2DM.svg","response":0,"trial_type":"image-button-response","trial_index":163,"time_elapsed":857038,"internal_node_id":"0.0-6.0-0.23","subject_id":"610cf6def95ea3a0d1f1635d","study_id":"6197b3f67c2b5cd3b6d9596a","session_id":"619be58f4958cda97b691358","condition":"contingent","relevant_dimensions":["antennae","legs"],"bee_group":{"antennae":"A","wings":"X","pattern":"X","legs":"F"},"bonus":0.8400000000000005},{"rt":1597.7000000476837,"stimulus":"bees-with-color/bee-A2SF.svg","response":1,"trial_type":"image-button-response","trial_index":164,"