[{"success":true,"trial_type":"fullscreen","trial_index":0,"time_elapsed":9414,"internal_node_id":"0.0-0.0","subject_id":"60338f35010951035cca4a91","study_id":"6197b3f67c2b5cd3b6d9596a","session_id":"619beee6f4dc8f3cdc25d586","condition":"full-information","relevant_dimensions":["pattern","legs"],"bee_group":{"antennae":"X","wings":"X","pattern":"S","legs":"F"},"bonus":1.460000000000001},{"success":true,"timeout":false,"failed_images":[],"failed_audio":[],"failed_video":[],"trial_type":"preload","trial_index":1,"time_elapsed":12121,"internal_node_id":"0.0-1.0","subject_id":"60338f35010951035cca4a91","study_id":"6197b3f67c2b5cd3b6d9596a","session_id":"619beee6f4dc8f3cdc25d586","condition":"full-information","relevant_dimensions":["pattern","legs"],"bee_group":{"antennae":"X","wings":"X","pattern":"S","legs":"F"},"bonus":1.460000000000001},{"rt":2674.899999976158,"stimulus":"Welcome! Press any key to begin.","response":"k","trial_type":"html-keyboard-response","trial_index":2,"time_elapsed":14798,"internal_node_id":"0.0-2.0","subject_id":"60338f35010951035cca4a91","study_id":"6197b3f67c2b5cd3b6d9596a","session_id":"619beee6f4dc8f3cdc25d586","condition":"full-information","relevant_dimensions":["pattern","legs"],"bee_group":{"antennae":"X","wings":"X","pattern":"S","legs":"F"},"bonus":1.460000000000001},{"view_history":[{"page_index":0,"viewing_time":5720.5},{"page_index":1,"viewing_time":16216.700000047684},{"page_index":2,"viewing_time":10052.799999952316},{"page_index":3,"viewing_time":15487.600000023842},{"page_index":4,"viewing_time":7393.199999928474},{"page_index":5,"viewing_time":7995.100000023842},{"page_index":6,"viewing_time":23407},{"page_index":7,"viewing_time":4448},{"page_index":8,"viewing_time":8705.700000047684},{"page_index":9,"viewing_time":2561.100000023842},{"page_index":10,"viewing_time":3056},{"page_index":11,"viewing_time":7617.5},{"page_index":10,"viewing_time":2204.5999999046326},{"page_index":9,"viewing_time":1.8000000715255737},{"page_index":8,"viewing_time":785.5},{"page_index":7,"viewing_time":401.6999999284744},{"page_index":6,"viewing_time":7115.900000095367},{"page_index":7,"viewing_time":2252.2999999523163},{"page_index":8,"viewing_time":1257.1000000238419},{"page_index":9,"viewing_time":1021.6000000238419},{"page_index":10,"viewing_time":899.1999999284744},{"page_index":11,"viewing_time":9585.100000023842},{"page_index":12,"viewing_time":9118},{"page_index":13,"viewing_time":1566.3999999761581},{"page_index":14,"viewing_time":2260.100000023842}],"rt":151130.79999995232,"trial_type":"instructions","trial_index":3,"time_elapsed":165930,"internal_node_id":"0.0-3.0-0.0","subject_id":"60338f35010951035cca4a91","study_id":"6197b3f67c2b5cd3b6d9596a","session_id":"619beee6f4dc8f3cdc25d586","condition":"full-information","relevant_dimensions":["pattern","legs"],"bee_group":{"antennae":"X","wings":"X","pattern":"S","legs":"F"},"bonus":1.460000000000001},{"rt":10018,"response":{"Q0":["Two or six legs","Stripes or spots on body","Single or double wings","Antennae or no antennae"]},"question_order":[0],"trial_type":"survey-multi-select","trial_index":4,"time_elapsed":175952,"internal_node_id":"0.0-3.0-1.0","subject_id":"60338f35010951035cca4a91","study_id":"6197b3f67c2b5cd3b6d9596a","session_id":"619beee6f4dc8f3cdc25d586","condition":"full-information","relevant_dimensions":["pattern","legs"],"bee_group":{"antennae":"X","wings":"X","pattern":"S","legs":"F"},"correct":true,"bonus":1.460000000000001},{"rt":19878.899999976158,"response":{"Q1":"No.","Q2":"Based on the four features of the bee.","Q3":"You learn if it was friendly or dangerous, but do not alter your bonus."},"question_order":[0,1,2],"trial_type":"survey-multi-choice","trial_index":5,"time_elapsed":195834,"internal_node_id":"0.0-3.0-2.0","subject_id":"60338f35010951035cca4a91","study_id":"6197b3f67c2b5cd3b6d9596a","session_id":"619beee6f4dc8f3cdc25d586","condition":"full-information","relevant_dimensions":["pattern","legs"],"bee_group":{"antennae":"X","wings":"X","pattern":"S","legs":"F"},"correct":true,"bonus":1.460000000000001},{"rt":2543.2999999523163,"stimulus":"<p>Congrats, you got everything right<br>When you're ready, click the button below to continue to the experiment.</p>","response":0,"trial_type":"html-button-response","trial_index":6,"time_elapsed":198379,"internal_node_id":"0.0-3.0-3.0","subject_id":"60338f35010951035cca4a91","study_id":"6197b3f67c2b5cd3b6d9596a","session_id":"619beee6f4dc8f3cdc25d586","condition":"full-information","relevant_dimensions":["pattern","legs"],"bee_group":{"antennae":"X","wings":"X","pattern":"S","legs":"F"},"bonus":1.460000000000001},{"rt":9308.199999928474,"stimulus":"bees-with-color/bee-A1DM.svg","response":1,"trial_type":"image-button-response","trial_index":7,"time_elapsed":207691,"internal_node_id":"0.0-4.0-0.0","subject_id":"60338f35010951035cca4a91","study_id":"6197b3f67c2b5cd3b6d9596a","session_id":"619beee6f4dc8f3cdc25d586","condition":"full-information","relevant_dimensions":["pattern","legs"],"bee_group":{"antennae":"X","wings":"X","pattern":"S","legs":"F"},"action":"avoid","summary":"bad-avoid","bonus":1.460000000000001},{"rt":5447.399999976158,"stimulus":"\n                    <p><b>Action: <em>avoid</em></b></p>\n                    <p>This is the bee that you just saw.</p>\n                    <img src=\"bees-with-color/bee-A1DM.svg\" width=\"200\">\n                    <p><span class=\"redText\">Bad choice,</span> the bee was friendly.<br>Your bonus pay is unchanged, and remains at $0.54.</p>\n            ","response":0,"trial_type":"html-button-response","trial_index":8,"time_elapsed":213142,"internal_node_id":"0.0-4.0-1.0","subject_id":"60338f35010951035cca4a91","study_id":"6197b3f67c2b5cd3b6d9596a","session_id":"619beee6f4dc8f3cdc25d586","condition":"full-information","relevant_dimensions":["pattern","legs"],"bee_group":{"antennae":"X","wings":"X","pattern":"S","legs":"F"},"bonus":1.460000000000001},{"rt":2490.5,"stimulus":"bees-with-color/bee-B1SM.svg","response":1,"trial_type":"image-button-response","trial_index":9,"time_elapsed":215635,"internal_node_id":"0.0-4.0-0.1","subject_id":"60338f35010951035cca4a91","study_id":"6197b3f67c2b5cd3b6d9596a","session_id":"619beee6f4dc8f3cdc25d586","condition":"full-information","relevant_dimensions":["pattern","legs"],"bee_group":{"antennae":"X","wings":"X","pattern":"S","legs":"F"},"action":"avoid","summary":"bad-avoid","bonus":1.460000000000001},{"rt":1614,"stimulus":"\n                    <p><b>Action: <em>avoid</em></b></p>\n                    <p>This is the bee that you just saw.</p>\n                    <img src=\"bees-with-color/bee-B1SM.svg\" width=\"200\">\n                    <p><span class=\"redText\">Bad choice,</span> the bee was friendly.<br>Your bonus pay is unchanged, and remains at $0.54.</p>\n            ","response":0,"trial_type":"html-button-response","trial_index":10,"time_elapsed":217251,"internal_node_id":"0.0-4.0-1.1","subject_id":"60338f35010951035cca4a91","study_id":"6197b3f67c2b5cd3b6d9596a","session_id":"619beee6f4dc8f3cdc25d586","condition":"full-information","relevant_dimensions":["pattern","legs"],"bee_group":{"antennae":"X","wings":"X","pattern":"S","legs":"F"},"bonus":1.460000000000001},{"rt":2076.899999976158,"stimulus":"bees-with-color/bee-A2SF.svg","response":0,"trial_type":"image-button-response","trial_index":11,"time_elapsed":219330,"internal_node_id":"0.0-4.0-0.2","subject_id":"60338f35010951035cca4a91","study_id":"6197b3f67c2b5cd3b6d9596a","session_id":"619beee6f4dc8f3cdc25d586","condition":"full-information","relevant_dimensions":["pattern","legs"],"bee_group":{"antennae":"X","wings":"X","pattern":"S","legs":"F"},"action":"harvest","summary":"bad-harvest","bonus":1.460000000000001},{"rt":6234.399999976158,"stimulus":"\n                    <p><b>Action: <em>harvest</em></b></p>\n                    <p>This is the bee that you just saw.</p>\n                    <img src=\"bees-with-color/bee-A2SF.svg\" width=\"200\">\n                    <p><span class=\"redText\">Bad choice, the bee was angry.</span><br><b>You have been stung!</b><br>Your pay has been decreased by $0.10. Your bonus pay is now $0.44.</p>\n            ","response":0,"trial_type":"html-button-response","trial_index":12,"time_elapsed":225566,"internal_node_id":"0.0-4.0-1.2","subject_id":"60338f35010951035cca4a91","study_id":"6197b3f67c2b5cd3b6d9596a","session_id":"619beee6f4dc8f3cdc25d586","condition":"full-information","relevant_dimensions":["pattern","legs"],"bee_group":{"antennae":"X","wings":"X","pattern":"S","legs":"F"},"bonus":1.460000000000001},{"rt":4518.5,"stimulus":"bees-with-color/bee-B2DM.svg","response":1,"trial_type":"image-button-response","trial_index":13,"time_elapsed":230087,"internal_node_id":"0.0-4.0-0.3","subject_id":"60338f35010951035cca4a91","study_id":"6197b3f67c2b5cd3b6d9596a","session_id":"619beee6f4dc8f3cdc25d586","condition":"full-information","relevant_dimensions":["pattern","legs"],"bee_group":{"antennae":"X","wings":"X","pattern":"S","legs":"F"},"action":"avoid","summary":"bad-avoid","bonus":1.460000000000001},{"rt":6140.399999976158,"stimulus":"\n                    <p><b>Action: <em>avoid</em></b></p>\n                    <p>This is the bee that you just saw.</p>\n                    <img src=\"bees-with-color/bee-B2DM.svg\" width=\"200\">\n                    <p><span class=\"redText\">Bad choice,</span> the bee was friendly.<br>Your bonus pay is unchanged, and remains at $0.44.</p>\n            ","response":0,"trial_type":"html-button-response","trial_index":14,"time_elapsed":236229,"internal_node_id":"0.0-4.0-1.3","subject_id":"60338f35010951035cca4a91","study_id":"6197b3f67c2b5cd3b6d9596a","session_id":"619beee6f4dc8f3cdc25d586","condition":"full-information","relevant_dimensions":["pattern","legs"],"bee_group":{"antennae":"X","wings":"X","pattern":"S","legs":"F"},"bonus":1.460000000000001},{"rt":1624.3999999761581,"stimulus":"bees-with-color/bee-A1SF.svg","response":1,"trial_type":"image-button-response","trial_index":15,"time_elapsed":237856,"internal_node_id":"0.0-4.0-0.4","subject_id":"60338f35010951035cca4a91","study_id":"6197b3f67c2b5cd3b6d9596a","session_id":"619beee6f4dc8f3cdc25d586","condition":"full-information","relevant_dimensions":["pattern","legs"],"bee_group":{"antennae":"X","wings":"X","pattern":"S","legs":"F"},"action":"avoid","summary":"good-avoid","bonus":1.460000000000001},{"rt":4195.600000023842,"stimulus":"\n                    <p><b>Action: <em>avoid</em></b></p>\n                    <p>This is the bee that you just saw.</p>\n                    <img src=\"bees-with-color/bee-A1SF.svg\" width=\"200\">\n                    <p><span class=\"greenText\">Good choice!</span>  This bee would have stung you.<br>Your bonus pay is unchanged, and remains at $0.44.</p>\n            ","response":0,"trial_type":"html-button-response","trial_index":16,"time_elapsed":242053,"internal_node_id":"0.0-4.0-1.4","subject_id":"60338f35010951035cca4a91","study_id":"6197b3f67c2b5cd3b6d9596a","session_id":"619beee6f4dc8f3cdc25d586","condition":"full-information","relevant_dimensions":["pattern","legs"],"bee_group":{"antennae":"X","wings":"X","pattern":"S","legs":"F"},"bonus":1.460000000000001},{"rt":1377.8999999761581,"stimulus":"bees-with-color/bee-A2DF.svg","response":0,"trial_type":"image-button-response","trial_index":17,"time_elapsed":243433,"internal_node_id":"0.0-4.0-0.5","subject_id":"60338f35010951035cca4a91","study_id":"6197b3f67c2b5cd3b6d9596a","session_id":"619beee6f4dc8f3cdc25d586","condition":"full-information","relevant_dimensions":["pattern","legs"],"bee_group":{"antennae":"X","wings":"X","pattern":"S","legs":"F"},"action":"harvest","summary":"good-harvest","bonus":1.460000000000001},{"rt":3551.600000023842,"stimulus":"\n                    <p><b>Action: <em>harvest</em></b></p>\n                    <p>This is the bee that you just saw.</p>\n                    <img src=\"bees-with-color/bee-A2DF.svg\" width=\"200\">\n                    <p><span class=\"greenText\"><b>Successful harvest!</b></span><br>Your pay has increased by $0.02. Your bonus pay is now $0.46.</p>\n            ","response":0,"trial_type":"html-button-response","trial_index":18,"time_elapsed":246987,"internal_node_id":"0.0-4.0-1.5","subject_id":"60338f35010951035cca4a91","study_id":"6197b3f67c2b5cd3b6d9596a","session_id":"619beee6f4dc8f3cdc25d586","condition":"full-information","relevant_dimensions":["pattern","legs"],"bee_group":{"antennae":"X","wings":"X","pattern":"S","legs":"F"},"bonus":1.460000000000001},{"rt":1933.1999999284744,"stimulus":"bees-with-color/bee-B1DF.svg","response":0,"trial_type":"image-button-response","trial_index":19,"time_elapsed":248922,"internal_node_id":"0.0-4.0-0.6","subject_id":"60338f35010951035cca4a91","study_id":"6197b3f67c2b5cd3b6d9596a","session_id":"619beee6f4dc8f3cdc25d586","condition":"full-information","relevant_dimensions":["pattern","legs"],"bee_group":{"antennae":"X","wings":"X","pattern":"S","legs":"F"},"action":"harvest","summary":"good-harvest","bonus":1.460000000000001},{"rt":1330.6000000238419,"stimulus":"\n                    <p><b>Action: <em>harvest</em></b></p>\n                    <p>This is the bee that you just saw.</p>\n                    <img src=\"bees-with-color/bee-B1DF.svg\" width=\"200\">\n                    <p><span class=\"greenText\"><b>Successful harvest!</b></span><br>Your pay has increased by $0.02. Your bonus pay is now $0.48.</p>\n            ","response":0,"trial_type":"html-button-response","trial_index":20,"time_elapsed":250255,"internal_node_id":"0.0-4.0-1.6","subject_id":"60338f35010951035cca4a91","study_id":"6197b3f67c2b5cd3b6d9596a","session_id":"619beee6f4dc8f3cdc25d586","condition":"full-information","relevant_dimensions":["pattern","legs"],"bee_group":{"antennae":"X","wings":"X","pattern":"S","legs":"F"},"bonus":1.460000000000001},{"rt":3632,"stimulus":"bees-with-color/bee-A1DF.svg","response":1,"trial_type":"image-button-response","trial_index":21,"time_elapsed":253889,"internal_node_id":"0.0-4.0-0.7","subject_id":"60338f35010951035cca4a91","study_id":"6197b3f67c2b5cd3b6d9596a","session_id":"619beee6f4dc8f3cdc25d586","condition":"full-information","relevant_dimensions":["pattern","legs"],"bee_group":{"antennae":"X","wings":"X","pattern":"S","legs":"F"},"action":"avoid","summary":"bad-avoid","bonus":1.460000000000001},{"rt":1208.8000000715256,"stimulus":"\n                    <p><b>Action: <em>avoid</em></b></p>\n                    <p>This is the bee that you just saw.</p>\n                    <img src=\"bees-with-color/bee-A1DF.svg\" width=\"200\">\n                    <p><span class=\"redText\">Bad choice,</span> the bee was friendly.<br>Your bonus pay is unchanged, and remains at $0.48.</p>\n            ","response":0,"trial_type":"html-button-response","trial_index":22,"time_elapsed":255100,"internal_node_id":"0.0-4.0-1.7","subject_id":"60338f35010951035cca4a91","study_id":"6197b3f67c2b5cd3b6d9596a","session_id":"619beee6f4dc8f3cdc25d586","condition":"full-information","relevant_dimensions":["pattern","legs"],"bee_group":{"antennae":"X","wings":"X","pattern":"S","legs":"F"},"bonus":1.460000000000001},{"rt":1624.5,"stimulus":"bees-with-color/bee-B2SM.svg","response":1,"trial_type":"image-button-response","trial_index":23,"time_elapsed":256728,"internal_node_id":"0.0-4.0-0.8","subject_id":"60338f35010951035cca4a91","study_id":"6197b3f67c2b5cd3b6d9596a","session_id":"619beee6f4dc8f3cdc25d586","condition":"full-information","relevant_dimensions":["pattern","legs"],"bee_group":{"antennae":"X","wings":"X","pattern":"S","legs":"F"},"action":"avoid","summary":"bad-avoid","bonus":1.460000000000001},{"rt":1184.2000000476837,"stimulus":"\n                    <p><b>Action: <em>avoid</em></b></p>\n                    <p>This is the bee that you just saw.</p>\n                    <img src=\"bees-with-color/bee-B2SM.svg\" width=\"200\">\n                    <p><span class=\"redText\">Bad choice,</span> the bee was friendly.<br>Your bonus pay is unchanged, and remains at $0.48.</p>\n            ","response":0,"trial_type":"html-button-response","trial_index":24,"time_elapsed":257914,"internal_node_id":"0.0-4.0-1.8","subject_id":"60338f35010951035cca4a91","study_id":"6197b3f67c2b5cd3b6d9596a","session_id":"619beee6f4dc8f3cdc25d586","condition":"full-information","relevant_dimensions":["pattern","legs"],"bee_group":{"antennae":"X","wings":"X","pattern":"S","legs":"F"},"bonus":1.460000000000001},{"rt":1376.3999999761581,"stimulus":"bees-with-color/bee-B2SF.svg","response":1,"trial_type":"image-button-response","trial_index":25,"time_elapsed":259293,"internal_node_id":"0.0-4.0-0.9","subject_id":"60338f35010951035cca4a91","study_id":"6197b3f67c2b5cd3b6d9596a","session_id":"619beee6f4dc8f3cdc25d586","condition":"full-information","relevant_dimensions":["pattern","legs"],"bee_group":{"antennae":"X","wings":"X","pattern":"S","legs":"F"},"action":"avoid","summary":"good-avoid","bonus":1.460000000000001},{"rt":1207.9000000953674,"stimulus":"\n                    <p><b>Action: <em>avoid</em></b></p>\n                    <p>This is the bee that you just saw.</p>\n                    <img src=\"bees-with-color/bee-B2SF.svg\" width=\"200\">\n                    <p><span class=\"greenText\">Good choice!</span>  This bee would have stung you.<br>Your bonus pay is unchanged, and remains at $0.48.</p>\n            ","response":0,"trial_type":"html-button-response","trial_index":26,"time_elapsed":260503,"internal_node_id":"0.0-4.0-1.9","subject_id":"60338f35010951035cca4a91","study_id":"6197b3f67c2b5cd3b6d9596a","session_id":"619beee6f4dc8f3cdc25d586","condition":"full-information","relevant_dimensions":["pattern","legs"],"bee_group":{"antennae":"X","wings":"X","pattern":"S","legs":"F"},"bonus":1.460000000000001},{"rt":1638.6000000238419,"stimulus":"bees-with-color/bee-A2SM.svg","response":0,"trial_type":"image-button-response","trial_index":27,"time_elapsed":262144,"internal_node_id":"0.0-4.0-0.10","subject_id":"60338f35010951035cca4a91","study_id":"6197b3f67c2b5cd3b6d9596a","session_id":"619beee6f4dc8f3cdc25d586","condition":"full-information","relevant_dimensions":["pattern","legs"],"bee_group":{"antennae":"X","wings":"X","pattern":"S","legs":"F"},"action":"harvest","summary":"good-harvest","bonus":1.460000000000001},{"rt":1294.5999999046326,"stimulus":"\n                    <p><b>Action: <em>harvest</em></b></p>\n                    <p>This is the bee that you just saw.</p>\n                    <img src=\"bees-with-color/bee-A2SM.svg\" width=\"200\">\n                    <p><span class=\"greenText\"><b>Successful harvest!</b></span><br>Your pay has increased by $0.02. Your bonus pay is now $0.50.</p>\n            ","response":0,"trial_type":"html-button-response","trial_index":28,"time_elapsed":263441,"internal_node_id":"0.0-4.0-1.10","subject_id":"60338f35010951035cca4a91","study_id":"6197b3f67c2b5cd3b6d9596a","session_id":"619beee6f4dc8f3cdc25d586","condition":"full-information","relevant_dimensions":["pattern","legs"],"bee_group":{"antennae":"X","wings":"X","pattern":"S","legs":"F"},"bonus":1.460000000000001},{"rt":1377.2999999523163,"stimulus":"bees-with-color/bee-B2DF.svg","response":0,"trial_type":"image-button-response","trial_index":29,"time_elapsed":264821,"internal_node_id":"0.0-4.0-0.11","subject_id":"60338f35010951035cca4a91","study_id":"6197b3f67c2b5cd3b6d9596a","session_id":"619beee6f4dc8f3cdc25d586","condition":"full-information","relevant_dimensions":["pattern","legs"],"bee_group":{"antennae":"X","wings":"X","pattern":"S","legs":"F"},"action":"harvest","summary":"good-harvest","bonus":1.460000000000001},{"rt":1406.2000000476837,"stimulus":"\n                    <p><b>Action: <em>harvest</em></b></p>\n                    <p>This is the bee that you just saw.</p>\n                    <img src=\"bees-with-color/bee-B2DF.svg\" width=\"200\">\n                    <p><span class=\"greenText\"><b>Successful harvest!</b></span><br>Your pay has increased by $0.02. Your bonus pay is now $0.52.</p>\n            ","response":0,"trial_type":"html-button-response","trial_index":30,"time_elapsed":266229,"internal_node_id":"0.0-4.0-1.11","subject_id":"60338f35010951035cca4a91","study_id":"6197b3f67c2b5cd3b6d9596a","session_id":"619beee6f4dc8f3cdc25d586","condition":"full-information","relevant_dimensions":["pattern","legs"],"bee_group":{"antennae":"X","wings":"X","pattern":"S","legs":"F"},"bonus":1.460000000000001},{"rt":1423.6000000238419,"stimulus":"bees-with-color/bee-B1DM.svg","response":0,"trial_type":"image-button-response","trial_index":31,"time_elapsed":267654,"internal_node_id":"0.0-4.0-0.12","subject_id":"60338f35010951035cca4a91","study_id":"6197b3f67c2b5cd3b6d9596a","session_id":"619beee6f4dc8f3cdc25d586","condition":"full-information","relevant_dimensions":["pattern","legs"],"bee_group":{"antennae":"X","wings":"X","pattern":"S","legs":"F"},"action":"harvest","summary":"good-harvest","bonus":1.460000000000001},{"rt":1204.7999999523163,"stimulus":"\n                    <p><b>Action: <em>harvest</em></b></p>\n                    <p>This is the bee that you just saw.</p>\n                    <img src=\"bees-with-color/bee-B1DM.svg\" width=\"200\">\n                    <p><span class=\"greenText\"><b>Successful harvest!</b></span><br>Your pay has increased by $0.02. Your bonus pay is now $0.54.</p>\n            ","response":0,"trial_type":"html-button-response","trial_index":32,"time_elapsed":268861,"internal_node_id":"0.0-4.0-1.12","subject_id":"60338f35010951035cca4a91","study_id":"6197b3f67c2b5cd3b6d9596a","session_id":"619beee6f4dc8f3cdc25d586","condition":"full-information","relevant_dimensions":["pattern","legs"],"bee_group":{"antennae":"X","wings":"X","pattern":"S","legs":"F"},"bonus":1.460000000000001},{"rt":1314.5,"stimulus":"bees-with-color/bee-A1SM.svg","response":1,"trial_type":"image-button-response","trial_index":33,"time_elapsed":270178,"internal_node_id":"0.0-4.0-0.13","subject_id":"60338f35010951035cca4a91","study_id":"6197b3f67c2b5cd3b6d9596a","session_id":"619beee6f4dc8f3cdc25d586","condition":"full-information","relevant_dimensions":["pattern","legs"],"bee_group":{"antennae":"X","wings":"X","pattern":"S","legs":"F"},"action":"avoid","summary":"bad-avoid","bonus":1.460000000000001},{"rt":1155.3000000715256,"stimulus":"\n                    <p><b>Action: <em>avoid</em></b></p>\n                    <p>This is the bee that you just saw.</p>\n                    <img src=\"bees-with-color/bee-A1SM.svg\" width=\"200\">\n                    <p><span class=\"redText\">Bad choice,</span> the bee was friendly.<br>Your bonus pay is unchanged, and remains at $0.54.</p>\n            ","response":0,"trial_type":"html-button-response","trial_index":34,"time_elapsed":271335,"internal_node_id":"0.0-4.0-1.13","subject_id":"60338f35010951035cca4a91","study_id":"6197b3f67c2b5cd3b6d9596a","session_id":"619beee6f4dc8f3cdc25d586","condition":"full-information","relevant_dimensions":["pattern","legs"],"bee_group":{"antennae":"X","wings":"X","pattern":"S","legs":"F"},"bonus":1.460000000000001},{"rt":1609.1000000238419,"stimulus":"bees-with-color/bee-A2DM.svg","response":0,"trial_type":"image-button-response","trial_index":35,"time_elapsed":272947,"internal_node_id":"0.0-4.0-0.14","subject_id":"60338f35010951035cca4a91","study_id":"6197b3f67c2b5cd3b6d9596a","session_id":"619beee6f4dc8f3cdc25d586","condition":"full-information","relevant_dimensions":["pattern","legs"],"bee_group":{"antennae":"X","wings":"X","pattern":"S","legs":"F"},"action":"harvest","summary":"good-harvest","bonus":1.460000000000001},{"rt":1257.3000000715256,"stimulus":"\n                    <p><b>Action: <em>harvest</em></b></p>\n                    <p>This is the bee that you just saw.</p>\n                    <img src=\"bees-with-color/bee-A2DM.svg\" width=\"200\">\n                    <p><span class=\"greenText\"><b>Successful harvest!</b></span><br>Your pay has increased by $0.02. Your bonus pay is now $0.56.</p>\n            ","response":0,"trial_type":"html-button-response","trial_index":36,"time_elapsed":274205,"internal_node_id":"0.0-4.0-1.14","subject_id":"60338f35010951035cca4a91","study_id":"6197b3f67c2b5cd3b6d9596a","session_id":"619beee6f4dc8f3cdc25d586","condition":"full-information","relevant_dimensions":["pattern","legs"],"bee_group":{"antennae":"X","wings":"X","pattern":"S","legs":"F"},"bonus":1.460000000000001},{"rt":1623.8000000715256,"stimulus":"bees-with-color/bee-B1SF.svg","response":1,"trial_type":"image-button-response","trial_index":37,"time_elapsed":275830,"internal_node_id":"0.0-4.0-0.15","subject_id":"60338f35010951035cca4a91","study_id":"6197b3f67c2b5cd3b6d9596a","session_id":"619beee6f4dc8f3cdc25d586","condition":"full-information","relevant_dimensions":["pattern","legs"],"bee_group":{"antennae":"X","wings":"X","pattern":"S","legs":"F"},"action":"avoid","summary":"good-avoid","bonus":1.460000000000001},{"rt":1130.1000000238419,"stimulus":"\n                    <p><b>Action: <em>avoid</em></b></p>\n                    <p>This is the bee that you just saw.</p>\n                    <img src=\"bees-with-color/bee-B1SF.svg\" width=\"200\">\n                    <p><span class=\"greenText\">Good choice!</span>  This bee would have stung you.<br>Your bonus pay is unchanged, and remains at $0.56.</p>\n            ","response":0,"trial_type":"html-button-response","trial_index":38,"time_elapsed":276962,"internal_node_id":"0.0-4.0-1.15","subject_id":"60338f35010951035cca4a91","study_id":"6197b3f67c2b5cd3b6d9596a","session_id":"619beee6f4dc8f3cdc25d586","condition":"full-information","relevant_dimensions":["pattern","legs"],"bee_group":{"antennae":"X","wings":"X","pattern":"S","legs":"F"},"bonus":1.460000000000001},{"rt":1672.5999999046326,"stimulus":"bees-with-color/bee-A2DF.svg","response":0,"trial_type":"image-button-response","trial_index":39,"time_elapsed":278636,"internal_node_id":"0.0-4.0-0.16","subject_id":"60338f35010951035cca4a91","study_id":"6197b3f67c2b5cd3b6d9596a","session_id":"619beee6f4dc8f3cdc25d586","condition":"full-information","relevant_dimensions":["pattern","legs"],"bee_group":{"antennae":"X","wings":"X","pattern":"S","legs":"F"},"action":"harvest","summary":"good-harvest","bonus":1.460000000000001},{"rt":1323.3999999761581,"stimulus":"\n                    <p><b>Action: <em>harvest</em></b></p>\n                    <p>This is the bee that you just saw.</p>\n                    <img src=\"bees-with-color/bee-A2DF.svg\" width=\"200\">\n                    <p><span class=\"greenText\"><b>Successful harvest!</b></span><br>Your pay has increased by $0.02. Your bonus pay is now $0.58.</p>\n            ","response":0,"trial_type":"html-button-response","trial_index":40,"time_elapsed":279961,"internal_node_id":"0.0-4.0-1.16","subject_id":"60338f35010951035cca4a91","study_id":"6197b3f67c2b5cd3b6d9596a","session_id":"619beee6f4dc8f3cdc25d586","condition":"full-information","relevant_dimensions":["pattern","legs"],"bee_group":{"antennae":"X","wings":"X","pattern":"S","legs":"F"},"bonus":1.460000000000001},{"rt":1414,"stimulus":"bees-with-color/bee-B2DM.svg","response":0,"trial_type":"image-button-response","trial_index":41,"time_elapsed":281376,"internal_node_id":"0.0-4.0-0.17","subject_id":"60338f35010951035cca4a91","study_id":"6197b3f67c2b5cd3b6d9596a","session_id":"619beee6f4dc8f3cdc25d586","condition":"full-information","relevant_dimensions":["pattern","legs"],"bee_group":{"antennae":"X","wings":"X","pattern":"S","legs":"F"},"action":"harvest","summary":"good-harvest","bonus":1.460000000000001},{"rt":1173.8999999761581,"stimulus":"\n                    <p><b>Action: <em>harvest</em></b></p>\n                    <p>This is the bee that you just saw.</p>\n                    <img src=\"bees-with-color/bee-B2DM.svg\" width=\"200\">\n                    <p><span class=\"greenText\"><b>Successful harvest!</b></span><br>Your pay has increased by $0.02. Your bonus pay is now $0.60.</p>\n            ","response":0,"trial_type":"html-button-response","trial_index":42,"time_elapsed":282551,"internal_node_id":"0.0-4.0-1.17","subject_id":"60338f35010951035cca4a91","study_id":"6197b3f67c2b5cd3b6d9596a","session_id":"619beee6f4dc8f3cdc25d586","condition":"full-information","relevant_dimensions":["pattern","legs"],"bee_group":{"antennae":"X","wings":"X","pattern":"S","legs":"F"},"bonus":1.460000000000001},{"rt":1800,"stimulus":"bees-with-color/bee-B2SM.svg","response":1,"trial_type":"image-button-response","trial_index":43,"time_elapsed":284353,"internal_node_id":"0.0-4.0-0.18","subject_id":"60338f35010951035cca4a91","study_id":"6197b3f67c2b5cd3b6d9596a","session_id":"619beee6f4dc8f3cdc25d586","condition":"full-information","relevant_dimensions":["pattern","legs"],"bee_group":{"antennae":"X","wings":"X","pattern":"S","legs":"F"},"action":"avoid","summary":"bad-avoid","bonus":1.460000000000001},{"rt":1161,"stimulus":"\n                    <p><b>Action: <em>avoid</em></b></p>\n                    <p>This is the bee that you just saw.</p>\n                    <img src=\"bees-with-color/bee-B2SM.svg\" width=\"200\">\n                    <p><span class=\"redText\">Bad choice,</span> the bee was friendly.<br>Your bonus pay is unchanged, and remains at $0.60.</p>\n            ","response":0,"trial_type":"html-button-response","trial_index":44,"time_elapsed":285515,"internal_node_id":"0.0-4.0-1.18","subject_id":"60338f35010951035cca4a91","study_id":"6197b3f67c2b5cd3b6d9596a","session_id":"619beee6f4dc8f3cdc25d586","condition":"full-information","relevant_dimensions":["pattern","legs"],"bee_group":{"antennae":"X","wings":"X","pattern":"S","legs":"F"},"bonus":1.460000000000001},{"rt":1543.2000000476837,"stimulus":"bees-with-color/bee-A2SF.svg","response":1,"trial_type":"image-button-response","trial_index":45,"time_elapsed":287060,"internal_node_id":"0.0-4.0-0.19","subject_id":"60338f35010951035cca4a91","study_id":"6197b3f67c2b5cd3b6d9596a","session_id":"619beee6f4dc8f3cdc25d586","condition":"full-information","relevant_dimensions":["pattern","legs"],"bee_group":{"antennae":"X","wings":"X","pattern":"S","legs":"F"},"action":"avoid","summary":"good-avoid","bonus":1.460000000000001},{"rt":1255.8000000715256,"stimulus":"\n                    <p><b>Action: <em>avoid</em></b></p>\n                    <p>This is the bee that you just saw.</p>\n                    <img src=\"bees-with-color/bee-A2SF.svg\" width=\"200\">\n                    <p><span class=\"greenText\">Good choice!</span>  This bee would have stung you.<br>Your bonus pay is unchanged, and remains at $0.60.</p>\n            ","response":0,"trial_type":"html-button-response","trial_index":46,"time_elapsed":288317,"internal_node_id":"0.0-4.0-1.19","subject_id":"60338f35010951035cca4a91","study_id":"6197b3f67c2b5cd3b6d9596a","session_id":"619beee6f4dc8f3cdc25d586","condition":"full-information","relevant_dimensions":["pattern","legs"],"bee_group":{"antennae":"X","wings":"X","pattern":"S","legs":"F"},"bonus":1.460000000000001},{"rt":1490.6999999284744,"stimulus":"bees-with-color/bee-A2SM.svg","response":1,"trial_type":"image-button-response","trial_index":47,"time_elapsed":289809,"internal_node_id":"0.0-4.0-0.20","subject_id":"60338f35010951035cca4a91","study_id":"6197b3f67c2b5cd3b6d9596a","session_id":"619beee6f4dc8f3cdc25d586","condition":"full-information","relevant_dimensions":["pattern","legs"],"bee_group":{"antennae":"X","wings":"X","pattern":"S","legs":"F"},"action":"avoid","summary":"bad-avoid","bonus":1.460000000000001},{"rt":1132.8999999761581,"stimulus":"\n                    <p><b>Action: <em>avoid</em></b></p>\n                    <p>This is the bee that you just saw.</p>\n                    <img src=\"bees-with-color/bee-A2SM.svg\" width=\"200\">\n                    <p><span class=\"redText\">Bad choice,</span> the bee was friendly.<br>Your bonus pay is unchanged, and remains at $0.60.</p>\n            ","response":0,"trial_type":"html-button-response","trial_index":48,"time_elapsed":290944,"internal_node_id":"0.0-4.0-1.20","subject_id":"60338f35010951035cca4a91","study_id":"6197b3f67c2b5cd3b6d9596a","session_id":"619beee6f4dc8f3cdc25d586","condition":"full-information","relevant_dimensions":["pattern","legs"],"bee_group":{"antennae":"X","wings":"X","pattern":"S","legs":"F"},"bonus":1.460000000000001},{"rt":1238.8000000715256,"stimulus":"bees-with-color/bee-B2DF.svg","response":0,"trial_type":"image-button-response","trial_index":49,"time_elapsed":292185,"internal_node_id":"0.0-4.0-0.21","subject_id":"60338f35010951035cca4a91","study_id":"6197b3f67c2b5cd3b6d9596a","session_id":"619beee6f4dc8f3cdc25d586","condition":"full-information","relevant_dimensions":["pattern","legs"],"bee_group":{"antennae":"X","wings":"X","pattern":"S","legs":"F"},"action":"harvest","summary":"good-harvest","bonus":1.460000000000001},{"rt":1175,"stimulus":"\n                    <p><b>Action: <em>harvest</em></b></p>\n                    <p>This is the bee that you just saw.</p>\n                    <img src=\"bees-with-color/bee-B2DF.svg\" width=\"200\">\n                    <p><span class=\"greenText\"><b>Successful harvest!</b></span><br>Your pay has increased by $0.02. Your bonus pay is now $0.62.</p>\n            ","response":0,"trial_type":"html-button-response","trial_index":50,"time_elapsed":293361,"internal_node_id":"0.0-4.0-1.21","subject_id":"60338f35010951035cca4a91","study_id":"6197b3f67c2b5cd3b6d9596a","session_id":"619beee6f4dc8f3cdc25d586","condition":"full-information","relevant_dimensions":["pattern","legs"],"bee_group":{"antennae":"X","wings":"X","pattern":"S","legs":"F"},"bonus":1.460000000000001},{"rt":1387.7999999523163,"stimulus":"bees-with-color/bee-A1DF.svg","response":0,"trial_type":"image-button-response","trial_index":51,"time_elapsed":294751,"internal_node_id":"0.0-4.0-0.22","subject_id":"60338f35010951035cca4a91","study_id":"6197b3f67c2b5cd3b6d9596a","session_id":"619beee6f4dc8f3cdc25d586","condition":"full-information","relevant_dimensions":["pattern","legs"],"bee_group":{"antennae":"X","wings":"X","pattern":"S","legs":"F"},"action":"harvest","summary":"good-harvest","bonus":1.460000000000001},{"rt":1270,"stimulus":"\n                    <p><b>Action: <em>harvest</em></b></p>\n                    <p>This is the bee that you just saw.</p>\n                    <img src=\"bees-with-color/bee-A1DF.svg\" width=\"200\">\n                    <p><span class=\"greenText\"><b>Successful harvest!</b></span><br>Your pay has increased by $0.02. Your bonus pay is now $0.64.</p>\n            ","response":0,"trial_type":"html-button-response","trial_index":52,"time_elapsed":296023,"internal_node_id":"0.0-4.0-1.22","subject_id":"60338f35010951035cca4a91","study_id":"6197b3f67c2b5cd3b6d9596a","session_id":"619beee6f4dc8f3cdc25d586","condition":"full-information","relevant_dimensions":["pattern","legs"],"bee_group":{"antennae":"X","wings":"X","pattern":"S","legs":"F"},"bonus":1.460000000000001},{"rt":1580.3999999761581,"stimulus":"bees-with-color/bee-B1SF.svg","response":1,"trial_type":"image-button-response","trial_index":53,"time_elapsed":297605,"internal_node_id":"0.0-4.0-0.23","subject_id":"60338f35010951035cca4a91","study_id":"6197b3f67c2b5cd3b6d9596a","session_id":"619beee6f4dc8f3cdc25d586","condition":"full-information","relevant_dimensions":["pattern","legs"],"bee_group":{"antennae":"X","wings":"X","pattern":"S","legs":"F"},"action":"avoid","summary":"good-avoid","bonus":1.460000000000001},{"rt":1093.3999999761581,"stimulus":"\n                    <p><b>Action: <em>avoid</em></b></p>\n                    <p>This is the bee that you just saw.</p>\n                    <img src=\"bees-with-color/bee-B1SF.svg\" width=\"200\">\n                    <p><span class=\"greenText\">Good choice!</span>  This bee would have stung you.<br>Your bonus pay is unchanged, and remains at $0.64.</p>\n            ","response":0,"trial_type":"html-button-response","trial_index":54,"time_elapsed":298701,"internal_node_id":"0.0-4.0-1.23","subject_id":"60338f35010951035cca4a91","study_id":"6197b3f67c2b5cd3b6d9596a","session_id":"619beee6f4dc8f3cdc25d586","condition":"full-information","relevant_dimensions":["pattern","legs"],"bee_group":{"antennae":"X","wings":"X","pattern":"S","legs":"F"},"bonus":1.460000000000001},{"rt":1516.6000000238419,"stimulus":"bees-with-color/bee-B2SF.svg","response":1,"trial_type":"image-button-response","trial_index":55,"time_elapsed":300220,"internal_node_id":"0.0-4.0-0.24","subject_id":"60338f35010951035cca4a91","study_id":"6197b3f67c2b5cd3b6d9596a","session_id":"619beee6f4dc8f3cdc25d586","condition":"full-information","relevant_dimensions":["pattern","legs"],"bee_group":{"antennae":"X","wings":"X","pattern":"S","legs":"F"},"action":"avoid","summary":"good-avoid","bonus":1.460000000000001},{"rt":1097.8999999761581,"stimulus":"\n                    <p><b>Action: <em>avoid</em></b></p>\n                    <p>This is the bee that you just saw.</p>\n                    <img src=\"bees-with-color/bee-B2SF.svg\" width=\"200\">\n                    <p><span class=\"greenText\">Good choice!</span>  This bee would have stung you.<br>Your bonus pay is unchanged, and remains at $0.64.</p>\n            ","response":0,"trial_type":"html-button-response","trial_index":56,"time_elapsed":301320,"internal_node_id":"0.0-4.0-1.24","subject_id":"60338f35010951035cca4a91","study_id":"6197b3f67c2b5cd3b6d9596a","session_id":"619beee6f4dc8f3cdc25d586","condition":"full-information","relevant_dimensions":["pattern","legs"],"bee_group":{"antennae":"X","wings":"X","pattern":"S","legs":"F"},"bonus":1.460000000000001},{"rt":1282.2999999523163,"stimulus":"bees-with-color/bee-A1DM.svg","response":0,"trial_type":"image-button-response","trial_index":57,"time_elapsed":302604,"internal_node_id":"0.0-4.0-0.25","subject_id":"60338f35010951035cca4a91","study_id":"6197b3f67c2b5cd3b6d9596a","session_id":"619beee6f4dc8f3cdc25d586","condition":"full-information","relevant_dimensions":["pattern","legs"],"bee_group":{"antennae":"X","wings":"X","pattern":"S","legs":"F"},"action":"harvest","summary":"good-harvest","bonus":1.460000000000001},{"rt":1520.1000000238419,"stimulus":"\n                    <p><b>Action: <em>harvest</em></b></p>\n                    <p>This is the bee that you just saw.</p>\n                    <img src=\"bees-with-color/bee-A1DM.svg\" width=\"200\">\n                    <p><span class=\"greenText\"><b>Successful harvest!</b></span><br>Your pay has increased by $0.02. Your bonus pay is now $0.66.</p>\n            ","response":0,"trial_type":"html-button-response","trial_index":58,"time_elapsed":304126,"internal_node_id":"0.0-4.0-1.25","subject_id":"60338f35010951035cca4a91","study_id":"6197b3f67c2b5cd3b6d9596a","session_id":"619beee6f4dc8f3cdc25d586","condition":"full-information","relevant_dimensions":["pattern","legs"],"bee_group":{"antennae":"X","wings":"X","pattern":"S","legs":"F"},"bonus":1.460000000000001},{"rt":1130,"stimulus":"bees-with-color/bee-A2DM.svg","response":0,"trial_type":"image-button-response","trial_index":59,"time_elapsed":305258,"internal_node_id":"0.0-4.0-0.26","subject_id":"60338f35010951035cca4a91","study_id":"6197b3f67c2b5cd3b6d9596a","session_id":"619beee6f4dc8f3cdc25d586","condition":"full-information","relevant_dimensions":["pattern","legs"],"bee_group":{"antennae":"X","wings":"X","pattern":"S","legs":"F"},"action":"harvest","summary":"good-harvest","bonus":1.460000000000001},{"rt":1162.5,"stimulus":"\n                    <p><b>Action: <em>harvest</em></b></p>\n                    <p>This is the bee that you just saw.</p>\n                    <img src=\"bees-with-color/bee-A2DM.svg\" width=\"200\">\n                    <p><span class=\"greenText\"><b>Successful harvest!</b></span><br>Your pay has increased by $0.02. Your bonus pay is now $0.68.</p>\n            ","response":0,"trial_type":"html-button-response","trial_index":60,"time_elapsed":306422,"internal_node_id":"0.0-4.0-1.26","subject_id":"60338f35010951035cca4a91","study_id":"6197b3f67c2b5cd3b6d9596a","session_id":"619beee6f4dc8f3cdc25d586","condition":"full-information","relevant_dimensions":["pattern","legs"],"bee_group":{"antennae":"X","wings":"X","pattern":"S","legs":"F"},"bonus":1.460000000000001},{"rt":1128.8000000715256,"stimulus":"bees-with-color/bee-A1SF.svg","response":1,"trial_type":"image-button-response","trial_index":61,"time_elapsed":307553,"internal_node_id":"0.0-4.0-0.27","subject_id":"60338f35010951035cca4a91","study_id":"6197b3f67c2b5cd3b6d9596a","session_id":"619beee6f4dc8f3cdc25d586","condition":"full-information","relevant_dimensions":["pattern","legs"],"bee_group":{"antennae":"X","wings":"X","pattern":"S","legs":"F"},"action":"avoid","summary":"good-avoid","bonus":1.460000000000001},{"rt":1129,"stimulus":"\n                    <p><b>Action: <em>avoid</em></b></p>\n                    <p>This is the bee that you just saw.</p>\n                    <img src=\"bees-with-color/bee-A1SF.svg\" width=\"200\">\n                    <p><span class=\"greenText\">Good choice!</span>  This bee would have stung you.<br>Your bonus pay is unchanged, and remains at $0.68.</p>\n            ","response":0,"trial_type":"html-button-response","trial_index":62,"time_elapsed":308684,"internal_node_id":"0.0-4.0-1.27","subject_id":"60338f35010951035cca4a91","study_id":"6197b3f67c2b5cd3b6d9596a","session_id":"619beee6f4dc8f3cdc25d586","condition":"full-information","relevant_dimensions":["pattern","legs"],"bee_group":{"antennae":"X","wings":"X","pattern":"S","legs":"F"},"bonus":1.460000000000001},{"rt":1901,"stimulus":"bees-with-color/bee-B1SM.svg","response":1,"trial_type":"image-button-response","trial_index":63,"time_elapsed":310586,"internal_node_id":"0.0-4.0-0.28","subject_id":"60338f35010951035cca4a91","study_id":"6197b3f67c2b5cd3b6d9596a","session_id":"619beee6f4dc8f3cdc25d586","condition":"full-information","relevant_dimensions":["pattern","legs"],"bee_group":{"antennae":"X","wings":"X","pattern":"S","legs":"F"},"action":"avoid","summary":"bad-avoid","bonus":1.460000000000001},{"rt":1413.3999999761581,"stimulus":"\n                    <p><b>Action: <em>avoid</em></b></p>\n                    <p>This is the bee that you just saw.</p>\n                    <img src=\"bees-with-color/bee-B1SM.svg\" width=\"200\">\n                    <p><span class=\"redText\">Bad choice,</span> the bee was friendly.<br>Your bonus pay is unchanged, and remains at $0.68.</p>\n            ","response":0,"trial_type":"html-button-response","trial_index":64,"time_elapsed":312002,"internal_node_id":"0.0-4.0-1.28","subject_id":"60338f35010951035cca4a91","study_id":"6197b3f67c2b5cd3b6d9596a","session_id":"619beee6f4dc8f3cdc25d586","condition":"full-information","relevant_dimensions":["pattern","legs"],"bee_group":{"antennae":"X","wings":"X","pattern":"S","legs":"F"},"bonus":1.460000000000001},{"rt":1657,"stimulus":"bees-with-color/bee-B1DF.svg","response":0,"trial_type":"image-button-response","trial_index":65,"time_elapsed":313660,"internal_node_id":"0.0-4.0-0.29","subject_id":"60338f35010951035cca4a91","study_id":"6197b3f67c2b5cd3b6d9596a","session_id":"619beee6f4dc8f3cdc25d586","condition":"full-information","relevant_dimensions":["pattern","legs"],"bee_group":{"antennae":"X","wings":"X","pattern":"S","legs":"F"},"action":"harvest","summary":"good-harvest","bonus":1.460000000000001},{"rt":1625.4000000953674,"stimulus":"\n                    <p><b>Action: <em>harvest</em></b></p>\n                    <p>This is the bee that you just saw.</p>\n                    <img src=\"bees-with-color/bee-B1DF.svg\" width=\"200\">\n                    <p><span class=\"greenText\"><b>Successful harvest!</b></span><br>Your pay has increased by $0.02. Your bonus pay is now $0.70.</p>\n            ","response":0,"trial_type":"html-button-response","trial_index":66,"time_elapsed":315288,"internal_node_id":"0.0-4.0-1.29","subject_id":"60338f35010951035cca4a91","study_id":"6197b3f67c2b5cd3b6d9596a","session_id":"619beee6f4dc8f3cdc25d586","condition":"full-information","relevant_dimensions":["pattern","legs"],"bee_group":{"antennae":"X","wings":"X","pattern":"S","legs":"F"},"bonus":1.460000000000001},{"rt":1447.3999999761581,"stimulus":"bees-with-color/bee-B1DM.svg","response":0,"trial_type":"image-button-response","trial_index":67,"time_elapsed":316738,"internal_node_id":"0.0-4.0-0.30","subject_id":"60338f35010951035cca4a91","study_id":"6197b3f67c2b5cd3b6d9596a","session_id":"619beee6f4dc8f3cdc25d586","condition":"full-information","relevant_dimensions":["pattern","legs"],"bee_group":{"antennae":"X","wings":"X","pattern":"S","legs":"F"},"action":"harvest","summary":"good-harvest","bonus":1.460000000000001},{"rt":1144.3000000715256,"stimulus":"\n                    <p><b>Action: <em>harvest</em></b></p>\n                    <p>This is the bee that you just saw.</p>\n                    <img src=\"bees-with-color/bee-B1DM.svg\" width=\"200\">\n                    <p><span class=\"greenText\"><b>Successful harvest!</b></span><br>Your pay has increased by $0.02. Your bonus pay is now $0.72.</p>\n            ","response":0,"trial_type":"html-button-response","trial_index":68,"time_elapsed":317885,"internal_node_id":"0.0-4.0-1.30","subject_id":"60338f35010951035cca4a91","study_id":"6197b3f67c2b5cd3b6d9596a","session_id":"619beee6f4dc8f3cdc25d586","condition":"full-information","relevant_dimensions":["pattern","legs"],"bee_group":{"antennae":"X","wings":"X","pattern":"S","legs":"F"},"bonus":1.460000000000001},{"rt":1292.3000000715256,"stimulus":"bees-with-color/bee-A1SM.svg","response":1,"trial_type":"image-button-response","trial_index":69,"time_elapsed":319179,"internal_node_id":"0.0-4.0-0.31","subject_id":"60338f35010951035cca4a91","study_id":"6197b3f67c2b5cd3b6d9596a","session_id":"619beee6f4dc8f3cdc25d586","condition":"full-information","relevant_dimensions":["pattern","legs"],"bee_group":{"antennae":"X","wings":"X","pattern":"S","legs":"F"},"action":"avoid","summary":"bad-avoid","bonus":1.460000000000001},{"rt":1034,"stimulus":"\n                    <p><b>Action: <em>avoid</em></b></p>\n                    <p>This is the bee that you just saw.</p>\n                    <img src=\"bees-with-color/bee-A1SM.svg\" width=\"200\">\n                    <p><span class=\"redText\">Bad choice,</span> the bee was friendly.<br>Your bonus pay is unchanged, and remains at $0.72.</p>\n            ","response":0,"trial_type":"html-button-response","trial_index":70,"time_elapsed":320215,"internal_node_id":"0.0-4.0-1.31","subject_id":"60338f35010951035cca4a91","study_id":"6197b3f67c2b5cd3b6d9596a","session_id":"619beee6f4dc8f3cdc25d586","condition":"full-information","relevant_dimensions":["pattern","legs"],"bee_group":{"antennae":"X","wings":"X","pattern":"S","legs":"F"},"bonus":1.460000000000001},{"rt":2953.899999976158,"stimulus":"bees-with-color/bee-B1SM.svg","response":0,"trial_type":"image-button-response","trial_index":71,"time_elapsed":323171,"internal_node_id":"0.0-4.0-0.32","subject_id":"60338f35010951035cca4a91","study_id":"6197b3f67c2b5cd3b6d9596a","session_id":"619beee6f4dc8f3cdc25d586","condition":"full-information","relevant_dimensions":["pattern","legs"],"bee_group":{"antennae":"X","wings":"X","pattern":"S","legs":"F"},"action":"harvest","summary":"good-harvest","bonus":1.460000000000001},{"rt":1054.6999999284744,"stimulus":"\n                    <p><b>Action: <em>harvest</em></b></p>\n                    <p>This is the bee that you just saw.</p>\n                    <img src=\"bees-with-color/bee-B1SM.svg\" width=\"200\">\n                    <p><span class=\"greenText\"><b>Successful harvest!</b></span><br>Your pay has increased by $0.02. Your bonus pay is now $0.74.</p>\n            ","response":0,"trial_type":"html-button-response","trial_index":72,"time_elapsed":324227,"internal_node_id":"0.0-4.0-1.32","subject_id":"60338f35010951035cca4a91","study_id":"6197b3f67c2b5cd3b6d9596a","session_id":"619beee6f4dc8f3cdc25d586","condition":"full-information","relevant_dimensions":["pattern","legs"],"bee_group":{"antennae":"X","wings":"X","pattern":"S","legs":"F"},"bonus":1.460000000000001},{"rt":1427.2000000476837,"stimulus":"bees-with-color/bee-A1SF.svg","response":1,"trial_type":"image-button-response","trial_index":73,"time_elapsed":325656,"internal_node_id":"0.0-4.0-0.33","subject_id":"60338f35010951035cca4a91","study_id":"6197b3f67c2b5cd3b6d9596a","session_id":"619beee6f4dc8f3cdc25d586","condition":"full-information","relevant_dimensions":["pattern","legs"],"bee_group":{"antennae":"X","wings":"X","pattern":"S","legs":"F"},"action":"avoid","summary":"good-avoid","bonus":1.460000000000001},{"rt":1239.5,"stimulus":"\n                    <p><b>Action: <em>avoid</em></b></p>\n                    <p>This is the bee that you just saw.</p>\n                    <img src=\"bees-with-color/bee-A1SF.svg\" width=\"200\">\n                    <p><span class=\"greenText\">Good choice!</span>  This bee would have stung you.<br>Your bonus pay is unchanged, and remains at $0.74.</p>\n            ","response":0,"trial_type":"html-button-response","trial_index":74,"time_elapsed":326897,"internal_node_id":"0.0-4.0-1.33","subject_id":"60338f35010951035cca4a91","study_id":"6197b3f67c2b5cd3b6d9596a","session_id":"619beee6f4dc8f3cdc25d586","condition":"full-information","relevant_dimensions":["pattern","legs"],"bee_group":{"antennae":"X","wings":"X","pattern":"S","legs":"F"},"bonus":1.460000000000001},{"rt":1769.2000000476837,"stimulus":"bees-with-color/bee-A1DF.svg","response":0,"trial_type":"image-button-response","trial_index":75,"time_elapsed":328668,"internal_node_id":"0.0-4.0-0.34","subject_id":"60338f35010951035cca4a91","study_id":"6197b3f67c2b5cd3b6d9596a","session_id":"619beee6f4dc8f3cdc25d586","condition":"full-information","relevant_dimensions":["pattern","legs"],"bee_group":{"antennae":"X","wings":"X","pattern":"S","legs":"F"},"action":"harvest","summary":"good-harvest","bonus":1.460000000000001},{"rt":1219.6000000238419,"stimulus":"\n                    <p><b>Action: <em>harvest</em></b></p>\n                    <p>This is the bee that you just saw.</p>\n                    <img src=\"bees-with-color/bee-A1DF.svg\" width=\"200\">\n                    <p><span class=\"greenText\"><b>Successful harvest!</b></span><br>Your pay has increased by $0.02. Your bonus pay is now $0.76.</p>\n            ","response":0,"trial_type":"html-button-response","trial_index":76,"time_elapsed":329889,"internal_node_id":"0.0-4.0-1.34","subject_id":"60338f35010951035cca4a91","study_id":"6197b3f67c2b5cd3b6d9596a","session_id":"619beee6f4dc8f3cdc25d586","condition":"full-information","relevant_dimensions":["pattern","legs"],"bee_group":{"antennae":"X","wings":"X","pattern":"S","legs":"F"},"bonus":1.460000000000001},{"rt":1313.2000000476837,"stimulus":"bees-with-color/bee-B1DM.svg","response":0,"trial_type":"image-button-response","trial_index":77,"time_elapsed":331203,"internal_node_id":"0.0-4.0-0.35","subject_id":"60338f35010951035cca4a91","study_id":"6197b3f67c2b5cd3b6d9596a","session_id":"619beee6f4dc8f3cdc25d586","condition":"full-information","relevant_dimensions":["pattern","legs"],"bee_group":{"antennae":"X","wings":"X","pattern":"S","legs":"F"},"action":"harvest","summary":"good-harvest","bonus":1.460000000000001},{"rt":1112.6000000238419,"stimulus":"\n                    <p><b>Action: <em>harvest</em></b></p>\n                    <p>This is the bee that you just saw.</p>\n                    <img src=\"bees-with-color/bee-B1DM.svg\" width=\"200\">\n                    <p><span class=\"greenText\"><b>Successful harvest!</b></span><br>Your pay has increased by $0.02. Your bonus pay is now $0.78.</p>\n            ","response":0,"trial_type":"html-button-response","trial_index":78,"time_elapsed":332318,"internal_node_id":"0.0-4.0-1.35","subject_id":"60338f35010951035cca4a91","study_id":"6197b3f67c2b5cd3b6d9596a","session_id":"619beee6f4dc8f3cdc25d586","condition":"full-information","relevant_dimensions":["pattern","legs"],"bee_group":{"antennae":"X","wings":"X","pattern":"S","legs":"F"},"bonus":1.460000000000001},{"rt":2105.7999999523163,"stimulus":"bees-with-color/bee-A2SM.svg","response":0,"trial_type":"image-button-response","trial_index":79,"time_elapsed":334425,"internal_node_id":"0.0-4.0-0.36","subject_id":"60338f35010951035cca4a91","study_id":"6197b3f67c2b5cd3b6d9596a","session_id":"619beee6f4dc8f3cdc25d586","condition":"full-information","relevant_dimensions":["pattern","legs"],"bee_group":{"antennae":"X","wings":"X","pattern":"S","legs":"F"},"action":"harvest","summary":"good-harvest","bonus":1.460000000000001},{"rt":1068.5,"stimulus":"\n                    <p><b>Action: <em>harvest</em></b></p>\n                    <p>This is the bee that you just saw.</p>\n                    <img src=\"bees-with-color/bee-A2SM.svg\" width=\"200\">\n                    <p><span class=\"greenText\"><b>Successful harvest!</b></span><br>Your pay has increased by $0.02. Your bonus pay is now $0.80.</p>\n            ","response":0,"trial_type":"html-button-response","trial_index":80,"time_elapsed":335495,"internal_node_id":"0.0-4.0-1.36","subject_id":"60338f35010951035cca4a91","study_id":"6197b3f67c2b5cd3b6d9596a","session_id":"619beee6f4dc8f3cdc25d586","condition":"full-information","relevant_dimensions":["pattern","legs"],"bee_group":{"antennae":"X","wings":"X","pattern":"S","legs":"F"},"bonus":1.460000000000001},{"rt":1441,"stimulus":"bees-with-color/bee-A1DM.svg","response":0,"trial_type":"image-button-response","trial_index":81,"time_elapsed":336938,"internal_node_id":"0.0-4.0-0.37","subject_id":"60338f35010951035cca4a91","study_id":"6197b3f67c2b5cd3b6d9596a","session_id":"619beee6f4dc8f3cdc25d586","condition":"full-information","relevant_dimensions":["pattern","legs"],"bee_group":{"antennae":"X","wings":"X","pattern":"S","legs":"F"},"action":"harvest","summary":"good-harvest","bonus":1.460000000000001},{"rt":1006.2999999523163,"stimulus":"\n                    <p><b>Action: <em>harvest</em></b></p>\n                    <p>This is the bee that you just saw.</p>\n                    <img src=\"bees-with-color/bee-A1DM.svg\" width=\"200\">\n                    <p><span class=\"greenText\"><b>Successful harvest!</b></span><br>Your pay has increased by $0.02. Your bonus pay is now $0.82.</p>\n            ","response":0,"trial_type":"html-button-response","trial_index":82,"time_elapsed":337946,"internal_node_id":"0.0-4.0-1.37","subject_id":"60338f35010951035cca4a91","study_id":"6197b3f67c2b5cd3b6d9596a","session_id":"619beee6f4dc8f3cdc25d586","condition":"full-information","relevant_dimensions":["pattern","legs"],"bee_group":{"antennae":"X","wings":"X","pattern":"S","legs":"F"},"bonus":1.460000000000001},{"rt":1456.1999999284744,"stimulus":"bees-with-color/bee-B1SF.svg","response":1,"trial_type":"image-button-response","trial_index":83,"time_elapsed":339404,"internal_node_id":"0.0-4.0-0.38","subject_id":"60338f35010951035cca4a91","study_id":"6197b3f67c2b5cd3b6d9596a","session_id":"619beee6f4dc8f3cdc25d586","condition":"full-information","relevant_dimensions":["pattern","legs"],"bee_group":{"antennae":"X","wings":"X","pattern":"S","legs":"F"},"action":"avoid","summary":"good-avoid","bonus":1.460000000000001},{"rt":1674.1000000238419,"stimulus":"\n                    <p><b>Action: <em>avoid</em></b></p>\n                    <p>This is the bee that you just saw.</p>\n                    <img src=\"bees-with-color/bee-B1SF.svg\" width=\"200\">\n                    <p><span class=\"greenText\">Good choice!</span>  This bee would have stung you.<br>Your bonus pay is unchanged, and remains at $0.82.</p>\n            ","response":0,"trial_type":"html-button-response","trial_index":84,"time_elapsed":341080,"internal_node_id":"0.0-4.0-1.38","subject_id":"60338f35010951035cca4a91","study_id":"6197b3f67c2b5cd3b6d9596a","session_id":"619beee6f4dc8f3cdc25d586","condition":"full-information","relevant_dimensions":["pattern","legs"],"bee_group":{"antennae":"X","wings":"X","pattern":"S","legs":"F"},"bonus":1.460000000000001},{"rt":1115.7999999523163,"stimulus":"bees-with-color/bee-A2DM.svg","response":0,"trial_type":"image-button-response","trial_index":85,"time_elapsed":342197,"internal_node_id":"0.0-4.0-0.39","subject_id":"60338f35010951035cca4a91","study_id":"6197b3f67c2b5cd3b6d9596a","session_id":"619beee6f4dc8f3cdc25d586","condition":"full-information","relevant_dimensions":["pattern","legs"],"bee_group":{"antennae":"X","wings":"X","pattern":"S","legs":"F"},"action":"harvest","summary":"good-harvest","bonus":1.460000000000001},{"rt":1051.7999999523163,"stimulus":"\n                    <p><b>Action: <em>harvest</em></b></p>\n                    <p>This is the bee that you just saw.</p>\n                    <img src=\"bees-with-color/bee-A2DM.svg\" width=\"200\">\n                    <p><span class=\"greenText\"><b>Successful harvest!</b></span><br>Your pay has increased by $0.02. Your bonus pay is now $0.84.</p>\n            ","response":0,"trial_type":"html-button-response","trial_index":86,"time_elapsed":343250,"internal_node_id":"0.0-4.0-1.39","subject_id":"60338f35010951035cca4a91","study_id":"6197b3f67c2b5cd3b6d9596a","session_id":"619beee6f4dc8f3cdc25d586","condition":"full-information","relevant_dimensions":["pattern","legs"],"bee_group":{"antennae":"X","wings":"X","pattern":"S","legs":"F"},"bonus":1.460000000000001},{"rt":1753.7999999523163,"stimulus":"bees-with-color/bee-A2SF.svg","response":1,"trial_type":"image-button-response","trial_index":87,"time_elapsed":345006,"internal_node_id":"0.0-4.0-0.40","subject_id":"60338f35010951035cca4a91","study_id":"6197b3f67c2b5cd3b6d9596a","session_id":"619beee6f4dc8f3cdc25d586","condition":"full-information","relevant_dimensions":["pattern","legs"],"bee_group":{"antennae":"X","wings":"X","pattern":"S","legs":"F"},"action":"avoid","summary":"good-avoid","bonus":1.460000000000001},{"rt":1235.8999999761581,"stimulus":"\n                    <p><b>Action: <em>avoid</em></b></p>\n                    <p>This is the bee that you just saw.</p>\n                    <img src=\"bees-with-color/bee-A2SF.svg\" width=\"200\">\n                    <p><span class=\"greenText\">Good choice!</span>  This bee would have stung you.<br>Your bonus pay is unchanged, and remains at $0.84.</p>\n            ","response":0,"trial_type":"html-button-response","trial_index":88,"time_elapsed":346243,"internal_node_id":"0.0-4.0-1.40","subject_id":"60338f35010951035cca4a91","study_id":"6197b3f67c2b5cd3b6d9596a","session_id":"619beee6f4dc8f3cdc25d586","condition":"full-information","relevant_dimensions":["pattern","legs"],"bee_group":{"antennae":"X","wings":"X","pattern":"S","legs":"F"},"bonus":1.460000000000001},{"rt":1069.8999999761581,"stimulus":"bees-with-color/bee-A2DF.svg","response":0,"trial_type":"image-button-response","trial_index":89,"time_elapsed":347314,"internal_node_id":"0.0-4.0-0.41","subject_id":"60338f35010951035cca4a91","study_id":"6197b3f67c2b5cd3b6d9596a","session_id":"619beee6f4dc8f3cdc25d586","condition":"full-information","relevant_dimensions":["pattern","legs"],"bee_group":{"antennae":"X","wings":"X","pattern":"S","legs":"F"},"action":"harvest","summary":"good-harvest","bonus":1.460000000000001},{"rt":1116.5,"stimulus":"\n                    <p><b>Action: <em>harvest</em></b></p>\n                    <p>This is the bee that you just saw.</p>\n                    <img src=\"bees-with-color/bee-A2DF.svg\" width=\"200\">\n                    <p><span class=\"greenText\"><b>Successful harvest!</b></span><br>Your pay has increased by $0.02. Your bonus pay is now $0.86.</p>\n            ","response":0,"trial_type":"html-button-response","trial_index":90,"time_elapsed":348433,"internal_node_id":"0.0-4.0-1.41","subject_id":"60338f35010951035cca4a91","study_id":"6197b3f67c2b5cd3b6d9596a","session_id":"619beee6f4dc8f3cdc25d586","condition":"full-information","relevant_dimensions":["pattern","legs"],"bee_group":{"antennae":"X","wings":"X","pattern":"S","legs":"F"},"bonus":1.460000000000001},{"rt":1372.7999999523163,"stimulus":"bees-with-color/bee-B2SM.svg","response":1,"trial_type":"image-button-response","trial_index":91,"time_elapsed":349807,"internal_node_id":"0.0-4.0-0.42","subject_id":"60338f35010951035cca4a91","study_id":"6197b3f67c2b5cd3b6d9596a","session_id":"619beee6f4dc8f3cdc25d586","condition":"full-information","relevant_dimensions":["pattern","legs"],"bee_group":{"antennae":"X","wings":"X","pattern":"S","legs":"F"},"action":"avoid","summary":"bad-avoid","bonus":1.460000000000001},{"rt":1040.0999999046326,"stimulus":"\n                    <p><b>Action: <em>avoid</em></b></p>\n                    <p>This is the bee that you just saw.</p>\n                    <img src=\"bees-with-color/bee-B2SM.svg\" width=\"200\">\n                    <p><span class=\"redText\">Bad choice,</span> the bee was friendly.<br>Your bonus pay is unchanged, and remains at $0.86.</p>\n            ","response":0,"trial_type":"html-button-response","trial_index":92,"time_elapsed":350849,"internal_node_id":"0.0-4.0-1.42","subject_id":"60338f35010951035cca4a91","study_id":"6197b3f67c2b5cd3b6d9596a","session_id":"619beee6f4dc8f3cdc25d586","condition":"full-information","relevant_dimensions":["pattern","legs"],"bee_group":{"antennae":"X","wings":"X","pattern":"S","legs":"F"},"bonus":1.460000000000001},{"rt":1222.2999999523163,"stimulus":"bees-with-color/bee-B2DF.svg","response":0,"trial_type":"image-button-response","trial_index":93,"time_elapsed":352073,"internal_node_id":"0.0-4.0-0.43","subject_id":"60338f35010951035cca4a91","study_id":"6197b3f67c2b5cd3b6d9596a","session_id":"619beee6f4dc8f3cdc25d586","condition":"full-information","relevant_dimensions":["pattern","legs"],"bee_group":{"antennae":"X","wings":"X","pattern":"S","legs":"F"},"action":"harvest","summary":"good-harvest","bonus":1.460000000000001},{"rt":1124.5,"stimulus":"\n                    <p><b>Action: <em>harvest</em></b></p>\n                    <p>This is the bee that you just saw.</p>\n                    <img src=\"bees-with-color/bee-B2DF.svg\" width=\"200\">\n                    <p><span class=\"greenText\"><b>Successful harvest!</b></span><br>Your pay has increased by $0.02. Your bonus pay is now $0.88.</p>\n            ","response":0,"trial_type":"html-button-response","trial_index":94,"time_elapsed":353199,"internal_node_id":"0.0-4.0-1.43","subject_id":"60338f35010951035cca4a91","study_id":"6197b3f67c2b5cd3b6d9596a","session_id":"619beee6f4dc8f3cdc25d586","condition":"full-information","relevant_dimensions":["pattern","legs"],"bee_group":{"antennae":"X","wings":"X","pattern":"S","legs":"F"},"bonus":1.460000000000001},{"rt":1268.2000000476837,"stimulus":"bees-with-color/bee-B2SF.svg","response":1,"trial_type":"image-button-response","trial_index":95,"time_elapsed":354469,"internal_node_id":"0.0-4.0-0.44","subject_id":"60338f35010951035cca4a91","study_id":"6197b3f67c2b5cd3b6d9596a","session_id":"619beee6f4dc8f3cdc25d586","condition":"full-information","relevant_dimensions":["pattern","legs"],"bee_group":{"antennae":"X","wings":"X","pattern":"S","legs":"F"},"action":"avoid","summary":"good-avoid","bonus":1.460000000000001},{"rt":1005.3999999761581,"stimulus":"\n                    <p><b>Action: <em>avoid</em></b></p>\n                    <p>This is the bee that you just saw.</p>\n                    <img src=\"bees-with-color/bee-B2SF.svg\" width=\"200\">\n                    <p><span class=\"greenText\">Good choice!</span>  This bee would have stung you.<br>Your bonus pay is unchanged, and remains at $0.88.</p>\n            ","response":0,"trial_type":"html-button-response","trial_index":96,"time_elapsed":355477,"internal_node_id":"0.0-4.0-1.44","subject_id":"60338f35010951035cca4a91","study_id":"6197b3f67c2b5cd3b6d9596a","session_id":"619beee6f4dc8f3cdc25d586","condition":"full-information","relevant_dimensions":["pattern","legs"],"bee_group":{"antennae":"X","wings":"X","pattern":"S","legs":"F"},"bonus":1.460000000000001},{"rt":942.7000000476837,"stimulus":"bees-with-color/bee-B1DF.svg","response":0,"trial_type":"image-button-response","trial_index":97,"time_elapsed":356421,"internal_node_id":"0.0-4.0-0.45","subject_id":"60338f35010951035cca4a91","study_id":"6197b3f67c2b5cd3b6d9596a","session_id":"619beee6f4dc8f3cdc25d586","condition":"full-information","relevant_dimensions":["pattern","legs"],"bee_group":{"antennae":"X","wings":"X","pattern":"S","legs":"F"},"action":"harvest","summary":"good-harvest","bonus":1.460000000000001},{"rt":1113.5999999046326,"stimulus":"\n                    <p><b>Action: <em>harvest</em></b></p>\n                    <p>This is the bee that you just saw.</p>\n                    <img src=\"bees-with-color/bee-B1DF.svg\" width=\"200\">\n                    <p><span class=\"greenText\"><b>Successful harvest!</b></span><br>Your pay has increased by $0.02. Your bonus pay is now $0.90.</p>\n            ","response":0,"trial_type":"html-button-response","trial_index":98,"time_elapsed":357537,"internal_node_id":"0.0-4.0-1.45","subject_id":"60338f35010951035cca4a91","study_id":"6197b3f67c2b5cd3b6d9596a","session_id":"619beee6f4dc8f3cdc25d586","condition":"full-information","relevant_dimensions":["pattern","legs"],"bee_group":{"antennae":"X","wings":"X","pattern":"S","legs":"F"},"bonus":1.460000000000001},{"rt":1328.1999999284744,"stimulus":"bees-with-color/bee-B2DM.svg","response":0,"trial_type":"image-button-response","trial_index":99,"time_elapsed":358867,"internal_node_id":"0.0-4.0-0.46","subject_id":"60338f35010951035cca4a91","study_id":"6197b3f67c2b5cd3b6d9596a","session_id":"619beee6f4dc8f3cdc25d586","condition":"full-information","relevant_dimensions":["pattern","legs"],"bee_group":{"antennae":"X","wings":"X","pattern":"S","legs":"F"},"action":"harvest","summary":"good-harvest","bonus":1.460000000000001},{"rt":992.5999999046326,"stimulus":"\n                    <p><b>Action: <em>harvest</em></b></p>\n                    <p>This is the bee that you just saw.</p>\n                    <img src=\"bees-with-color/bee-B2DM.svg\" width=\"200\">\n                    <p><span class=\"greenText\"><b>Successful harvest!</b></span><br>Your pay has increased by $0.02. Your bonus pay is now $0.92.</p>\n            ","response":0,"trial_type":"html-button-response","trial_index":100,"time_elapsed":359861,"internal_node_id":"0.0-4.0-1.46","subject_id":"60338f35010951035cca4a91","study_id":"6197b3f67c2b5cd3b6d9596a","session_id":"619beee6f4dc8f3cdc25d586","condition":"full-information","relevant_dimensions":["pattern","legs"],"bee_group":{"antennae":"X","wings":"X","pattern":"S","legs":"F"},"bonus":1.460000000000001},{"rt":1428.3999999761581,"stimulus":"bees-with-color/bee-A1SM.svg","response":1,"trial_type":"image-button-response","trial_index":101,"time_elapsed":361292,"internal_node_id":"0.0-4.0-0.47","subject_id":"60338f35010951035cca4a91","study_id":"6197b3f67c2b5cd3b6d9596a","session_id":"619beee6f4dc8f3cdc25d586","condition":"full-information","relevant_dimensions":["pattern","legs"],"bee_group":{"antennae":"X","wings":"X","pattern":"S","legs":"F"},"action":"avoid","summary":"bad-avoid","bonus":1.460000000000001},{"rt":958.1000000238419,"stimulus":"\n                    <p><b>Action: <em>avoid</em></b></p>\n                    <p>This is the bee that you just saw.</p>\n                    <img src=\"bees-with-color/bee-A1SM.svg\" width=\"200\">\n                    <p><span class=\"redText\">Bad choice,</span> the bee was friendly.<br>Your bonus pay is unchanged, and remains at $0.92.</p>\n            ","response":0,"trial_type":"html-button-response","trial_index":102,"time_elapsed":362252,"internal_node_id":"0.0-4.0-1.47","subject_id":"60338f35010951035cca4a91","study_id":"6197b3f67c2b5cd3b6d9596a","session_id":"619beee6f4dc8f3cdc25d586","condition":"full-information","relevant_dimensions":["pattern","legs"],"bee_group":{"antennae":"X","wings":"X","pattern":"S","legs":"F"},"bonus":1.460000000000001},{"rt":1271.5,"stimulus":"bees-with-color/bee-B1SF.svg","response":0,"trial_type":"image-button-response","trial_index":103,"time_elapsed":363525,"internal_node_id":"0.0-4.0-0.48","subject_id":"60338f35010951035cca4a91","study_id":"6197b3f67c2b5cd3b6d9596a","session_id":"619beee6f4dc8f3cdc25d586","condition":"full-information","relevant_dimensions":["pattern","legs"],"bee_group":{"antennae":"X","wings":"X","pattern":"S","legs":"F"},"action":"harvest","summary":"bad-harvest","bonus":1.460000000000001},{"rt":1484.8999999761581,"stimulus":"\n                    <p><b>Action: <em>harvest</em></b></p>\n                    <p>This is the bee that you just saw.</p>\n                    <img src=\"bees-with-color/bee-B1SF.svg\" width=\"200\">\n                    <p><span class=\"redText\">Bad choice, the bee was angry.</span><br><b>You have been stung!</b><br>Your pay has been decreased by $0.10. Your bonus pay is now $0.82.</p>\n            ","response":0,"trial_type":"html-button-response","trial_index":104,"time_elapsed":365012,"internal_node_id":"0.0-4.0-1.48","subject_id":"60338f35010951035cca4a91","study_id":"6197b3f67c2b5cd3b6d9596a","session_id":"619beee6f4dc8f3cdc25d586","condition":"full-information","relevant_dimensions":["pattern","legs"],"bee_group":{"antennae":"X","wings":"X","pattern":"S","legs":"F"},"bonus":1.460000000000001},{"rt":1299.0999999046326,"stimulus":"bees-with-color/bee-A2DM.svg","response":0,"trial_type":"image-button-response","trial_index":105,"time_elapsed":366313,"internal_node_id":"0.0-4.0-0.49","subject_id":"60338f35010951035cca4a91","study_id":"6197b3f67c2b5cd3b6d9596a","session_id":"619beee6f4dc8f3cdc25d586","condition":"full-information","relevant_dimensions":["pattern","legs"],"bee_group":{"antennae":"X","wings":"X","pattern":"S","legs":"F"},"action":"harvest","summary":"good-harvest","bonus":1.460000000000001},{"rt":1005.9000000953674,"stimulus":"\n                    <p><b>Action: <em>harvest</em></b></p>\n                    <p>This is the bee that you just saw.</p>\n                    <img src=\"bees-with-color/bee-A2DM.svg\" width=\"200\">\n                    <p><span class=\"greenText\"><b>Successful harvest!</b></span><br>Your pay has increased by $0.02. Your bonus pay is now $0.84.</p>\n            ","response":0,"trial_type":"html-button-response","trial_index":106,"time_elapsed":367321,"internal_node_id":"0.0-4.0-1.49","subject_id":"60338f35010951035cca4a91","study_id":"6197b3f67c2b5cd3b6d9596a","session_id":"619beee6f4dc8f3cdc25d586","condition":"full-information","relevant_dimensions":["pattern","legs"],"bee_group":{"antennae":"X","wings":"X","pattern":"S","legs":"F"},"bonus":1.460000000000001},{"rt":1711.7000000476837,"stimulus":"bees-with-color/bee-A1SM.svg","response":0,"trial_type":"image-button-response","trial_index":107,"time_elapsed":369034,"internal_node_id":"0.0-4.0-0.50","subject_id":"60338f35010951035cca4a91","study_id":"6197b3f67c2b5cd3b6d9596a","session_id":"619beee6f4dc8f3cdc25d586","condition":"full-information","relevant_dimensions":["pattern","legs"],"bee_group":{"antennae":"X","wings":"X","pattern":"S","legs":"F"},"action":"harvest","summary":"good-harvest","bonus":1.460000000000001},{"rt":1020.8999999761581,"stimulus":"\n                    <p><b>Action: <em>harvest</em></b></p>\n                    <p>This is the bee that you just saw.</p>\n                    <img src=\"bees-with-color/bee-A1SM.svg\" width=\"200\">\n                    <p><span class=\"greenText\"><b>Successful harvest!</b></span><br>Your pay has increased by $0.02. Your bonus pay is now $0.86.</p>\n            ","response":0,"trial_type":"html-button-response","trial_index":108,"time_elapsed":370057,"internal_node_id":"0.0-4.0-1.50","subject_id":"60338f35010951035cca4a91","study_id":"6197b3f67c2b5cd3b6d9596a","session_id":"619beee6f4dc8f3cdc25d586","condition":"full-information","relevant_dimensions":["pattern","legs"],"bee_group":{"antennae":"X","wings":"X","pattern":"S","legs":"F"},"bonus":1.460000000000001},{"rt":1223.1000000238419,"stimulus":"bees-with-color/bee-B2SF.svg","response":1,"trial_type":"image-button-response","trial_index":109,"time_elapsed":371282,"internal_node_id":"0.0-4.0-0.51","subject_id":"60338f35010951035cca4a91","study_id":"6197b3f67c2b5cd3b6d9596a","session_id":"619beee6f4dc8f3cdc25d586","condition":"full-information","relevant_dimensions":["pattern","legs"],"bee_group":{"antennae":"X","wings":"X","pattern":"S","legs":"F"},"action":"avoid","summary":"good-avoid","bonus":1.460000000000001},{"rt":1029.1000000238419,"stimulus":"\n                    <p><b>Action: <em>avoid</em></b></p>\n                    <p>This is the bee that you just saw.</p>\n                    <img src=\"bees-with-color/bee-B2SF.svg\" width=\"200\">\n                    <p><span class=\"greenText\">Good choice!</span>  This bee would have stung you.<br>Your bonus pay is unchanged, and remains at $0.86.</p>\n            ","response":0,"trial_type":"html-button-response","trial_index":110,"time_elapsed":372313,"internal_node_id":"0.0-4.0-1.51","subject_id":"60338f35010951035cca4a91","study_id":"6197b3f67c2b5cd3b6d9596a","session_id":"619beee6f4dc8f3cdc25d586","condition":"full-information","relevant_dimensions":["pattern","legs"],"bee_group":{"antennae":"X","wings":"X","pattern":"S","legs":"F"},"bonus":1.460000000000001},{"rt":1084,"stimulus":"bees-with-color/bee-A1DM.svg","response":0,"trial_type":"image-button-response","trial_index":111,"time_elapsed":373400,"internal_node_id":"0.0-4.0-0.52","subject_id":"60338f35010951035cca4a91","study_id":"6197b3f67c2b5cd3b6d9596a","session_id":"619beee6f4dc8f3cdc25d586","condition":"full-information","relevant_dimensions":["pattern","legs"],"bee_group":{"antennae":"X","wings":"X","pattern":"S","legs":"F"},"action":"harvest","summary":"good-harvest","bonus":1.460000000000001},{"rt":1655.1999999284744,"stimulus":"\n                    <p><b>Action: <em>harvest</em></b></p>\n                    <p>This is the bee that you just saw.</p>\n                    <img src=\"bees-with-color/bee-A1DM.svg\" width=\"200\">\n                    <p><span class=\"greenText\"><b>Successful harvest!</b></span><br>Your pay has increased by $0.02. Your bonus pay is now $0.88.</p>\n            ","response":0,"trial_type":"html-button-response","trial_index":112,"time_elapsed":375057,"internal_node_id":"0.0-4.0-1.52","subject_id":"60338f35010951035cca4a91","study_id":"6197b3f67c2b5cd3b6d9596a","session_id":"619beee6f4dc8f3cdc25d586","condition":"full-information","relevant_dimensions":["pattern","legs"],"bee_group":{"antennae":"X","wings":"X","pattern":"S","legs":"F"},"bonus":1.460000000000001},{"rt":2090.399999976158,"stimulus":"bees-with-color/bee-B2SM.svg","response":0,"trial_type":"image-button-response","trial_index":113,"time_elapsed":377149,"internal_node_id":"0.0-4.0-0.53","subject_id":"60338f35010951035cca4a91","study_id":"6197b3f67c2b5cd3b6d9596a","session_id":"619beee6f4dc8f3cdc25d586","condition":"full-information","relevant_dimensions":["pattern","legs"],"bee_group":{"antennae":"X","wings":"X","pattern":"S","legs":"F"},"action":"harvest","summary":"good-harvest","bonus":1.460000000000001},{"rt":1051.2000000476837,"stimulus":"\n                    <p><b>Action: <em>harvest</em></b></p>\n                    <p>This is the bee that you just saw.</p>\n                    <img src=\"bees-with-color/bee-B2SM.svg\" width=\"200\">\n                    <p><span class=\"greenText\"><b>Successful harvest!</b></span><br>Your pay has increased by $0.02. Your bonus pay is now $0.90.</p>\n            ","response":0,"trial_type":"html-button-response","trial_index":114,"time_elapsed":378202,"internal_node_id":"0.0-4.0-1.53","subject_id":"60338f35010951035cca4a91","study_id":"6197b3f67c2b5cd3b6d9596a","session_id":"619beee6f4dc8f3cdc25d586","condition":"full-information","relevant_dimensions":["pattern","legs"],"bee_group":{"antennae":"X","wings":"X","pattern":"S","legs":"F"},"bonus":1.460000000000001},{"rt":3636.5,"stimulus":"bees-with-color/bee-B1DF.svg","response":0,"trial_type":"image-button-response","trial_index":115,"time_elapsed":381839,"internal_node_id":"0.0-4.0-0.54","subject_id":"60338f35010951035cca4a91","study_id":"6197b3f67c2b5cd3b6d9596a","session_id":"619beee6f4dc8f3cdc25d586","condition":"full-information","relevant_dimensions":["pattern","legs"],"bee_group":{"antennae":"X","wings":"X","pattern":"S","legs":"F"},"action":"harvest","summary":"good-harvest","bonus":1.460000000000001},{"rt":1158.8000000715256,"stimulus":"\n                    <p><b>Action: <em>harvest</em></b></p>\n                    <p>This is the bee that you just saw.</p>\n                    <img src=\"bees-with-color/bee-B1DF.svg\" width=\"200\">\n                    <p><span class=\"greenText\"><b>Successful harvest!</b></span><br>Your pay has increased by $0.02. Your bonus pay is now $0.92.</p>\n            ","response":0,"trial_type":"html-button-response","trial_index":116,"time_elapsed":383000,"internal_node_id":"0.0-4.0-1.54","subject_id":"60338f35010951035cca4a91","study_id":"6197b3f67c2b5cd3b6d9596a","session_id":"619beee6f4dc8f3cdc25d586","condition":"full-information","relevant_dimensions":["pattern","legs"],"bee_group":{"antennae":"X","wings":"X","pattern":"S","legs":"F"},"bonus":1.460000000000001},{"rt":1268.8000000715256,"stimulus":"bees-with-color/bee-B2DF.svg","response":0,"trial_type":"image-button-response","trial_index":117,"time_elapsed":384270,"internal_node_id":"0.0-4.0-0.55","subject_id":"60338f35010951035cca4a91","study_id":"6197b3f67c2b5cd3b6d9596a","session_id":"619beee6f4dc8f3cdc25d586","condition":"full-information","relevant_dimensions":["pattern","legs"],"bee_group":{"antennae":"X","wings":"X","pattern":"S","legs":"F"},"action":"harvest","summary":"good-harvest","bonus":1.460000000000001},{"rt":1037.5,"stimulus":"\n                    <p><b>Action: <em>harvest</em></b></p>\n                    <p>This is the bee that you just saw.</p>\n                    <img src=\"bees-with-color/bee-B2DF.svg\" width=\"200\">\n                    <p><span class=\"greenText\"><b>Successful harvest!</b></span><br>Your pay has increased by $0.02. Your bonus pay is now $0.94.</p>\n            ","response":0,"trial_type":"html-button-response","trial_index":118,"time_elapsed":385309,"internal_node_id":"0.0-4.0-1.55","subject_id":"60338f35010951035cca4a91","study_id":"6197b3f67c2b5cd3b6d9596a","session_id":"619beee6f4dc8f3cdc25d586","condition":"full-information","relevant_dimensions":["pattern","legs"],"bee_group":{"antennae":"X","wings":"X","pattern":"S","legs":"F"},"bonus":1.460000000000001},{"rt":1425.2000000476837,"stimulus":"bees-with-color/bee-A1SF.svg","response":1,"trial_type":"image-button-response","trial_index":119,"time_elapsed":386736,"internal_node_id":"0.0-4.0-0.56","subject_id":"60338f35010951035cca4a91","study_id":"6197b3f67c2b5cd3b6d9596a","session_id":"619beee6f4dc8f3cdc25d586","condition":"full-information","relevant_dimensions":["pattern","legs"],"bee_group":{"antennae":"X","wings":"X","pattern":"S","legs":"F"},"action":"avoid","summary":"good-avoid","bonus":1.460000000000001},{"rt":1066.5999999046326,"stimulus":"\n                    <p><b>Action: <em>avoid</em></b></p>\n                    <p>This is the bee that you just saw.</p>\n                    <img src=\"bees-with-color/bee-A1SF.svg\" width=\"200\">\n                    <p><span class=\"greenText\">Good choice!</span>  This bee would have stung you.<br>Your bonus pay is unchanged, and remains at $0.94.</p>\n            ","response":0,"trial_type":"html-button-response","trial_index":120,"time_elapsed":387804,"internal_node_id":"0.0-4.0-1.56","subject_id":"60338f35010951035cca4a91","study_id":"6197b3f67c2b5cd3b6d9596a","session_id":"619beee6f4dc8f3cdc25d586","condition":"full-information","relevant_dimensions":["pattern","legs"],"bee_group":{"antennae":"X","wings":"X","pattern":"S","legs":"F"},"bonus":1.460000000000001},{"rt":894,"stimulus":"bees-with-color/bee-A1DF.svg","response":0,"trial_type":"image-button-response","trial_index":121,"time_elapsed":388699,"internal_node_id":"0.0-4.0-0.57","subject_id":"60338f35010951035cca4a91","study_id":"6197b3f67c2b5cd3b6d9596a","session_id":"619beee6f4dc8f3cdc25d586","condition":"full-information","relevant_dimensions":["pattern","legs"],"bee_group":{"antennae":"X","wings":"X","pattern":"S","legs":"F"},"action":"harvest","summary":"good-harvest","bonus":1.460000000000001},{"rt":1006.5999999046326,"stimulus":"\n                    <p><b>Action: <em>harvest</em></b></p>\n                    <p>This is the bee that you just saw.</p>\n                    <img src=\"bees-with-color/bee-A1DF.svg\" width=\"200\">\n                    <p><span class=\"greenText\"><b>Successful harvest!</b></span><br>Your pay has increased by $0.02. Your bonus pay is now $0.96.</p>\n            ","response":0,"trial_type":"html-button-response","trial_index":122,"time_elapsed":389707,"internal_node_id":"0.0-4.0-1.57","subject_id":"60338f35010951035cca4a91","study_id":"6197b3f67c2b5cd3b6d9596a","session_id":"619beee6f4dc8f3cdc25d586","condition":"full-information","relevant_dimensions":["pattern","legs"],"bee_group":{"antennae":"X","wings":"X","pattern":"S","legs":"F"},"bonus":1.460000000000001},{"rt":1830,"stimulus":"bees-with-color/bee-A2SF.svg","response":1,"trial_type":"image-button-response","trial_index":123,"time_elapsed":391539,"internal_node_id":"0.0-4.0-0.58","subject_id":"60338f35010951035cca4a91","study_id":"6197b3f67c2b5cd3b6d9596a","session_id":"619beee6f4dc8f3cdc25d586","condition":"full-information","relevant_dimensions":["pattern","legs"],"bee_group":{"antennae":"X","wings":"X","pattern":"S","legs":"F"},"action":"avoid","summary":"good-avoid","bonus":1.460000000000001},{"rt":1005.7999999523163,"stimulus":"\n                    <p><b>Action: <em>avoid</em></b></p>\n                    <p>This is the bee that you just saw.</p>\n                    <img src=\"bees-with-color/bee-A2SF.svg\" width=\"200\">\n                    <p><span class=\"greenText\">Good choice!</span>  This bee would have stung you.<br>Your bonus pay is unchanged, and remains at $0.96.</p>\n            ","response":0,"trial_type":"html-button-response","trial_index":124,"time_elapsed":392546,"internal_node_id":"0.0-4.0-1.58","subject_id":"60338f35010951035cca4a91","study_id":"6197b3f67c2b5cd3b6d9596a","session_id":"619beee6f4dc8f3cdc25d586","condition":"full-information","relevant_dimensions":["pattern","legs"],"bee_group":{"antennae":"X","wings":"X","pattern":"S","legs":"F"},"bonus":1.460000000000001},{"rt":1047.8999999761581,"stimulus":"bees-with-color/bee-A2DF.svg","response":0,"trial_type":"image-button-response","trial_index":125,"time_elapsed":393596,"internal_node_id":"0.0-4.0-0.59","subject_id":"60338f35010951035cca4a91","study_id":"6197b3f67c2b5cd3b6d9596a","session_id":"619beee6f4dc8f3cdc25d586","condition":"full-information","relevant_dimensions":["pattern","legs"],"bee_group":{"antennae":"X","wings":"X","pattern":"S","legs":"F"},"action":"harvest","summary":"good-harvest","bonus":1.460000000000001},{"rt":1164.2999999523163,"stimulus":"\n                    <p><b>Action: <em>harvest</em></b></p>\n                    <p>This is the bee that you just saw.</p>\n                    <img src=\"bees-with-color/bee-A2DF.svg\" width=\"200\">\n                    <p><span class=\"greenText\"><b>Successful harvest!</b></span><br>Your pay has increased by $0.02. Your bonus pay is now $0.98.</p>\n            ","response":0,"trial_type":"html-button-response","trial_index":126,"time_elapsed":394761,"internal_node_id":"0.0-4.0-1.59","subject_id":"60338f35010951035cca4a91","study_id":"6197b3f67c2b5cd3b6d9596a","session_id":"619beee6f4dc8f3cdc25d586","condition":"full-information","relevant_dimensions":["pattern","legs"],"bee_group":{"antennae":"X","wings":"X","pattern":"S","legs":"F"},"bonus":1.460000000000001},{"rt":1258.1000000238419,"stimulus":"bees-with-color/bee-A2SM.svg","response":0,"trial_type":"image-button-response","trial_index":127,"time_elapsed":396021,"internal_node_id":"0.0-4.0-0.60","subject_id":"60338f35010951035cca4a91","study_id":"6197b3f67c2b5cd3b6d9596a","session_id":"619beee6f4dc8f3cdc25d586","condition":"full-information","relevant_dimensions":["pattern","legs"],"bee_group":{"antennae":"X","wings":"X","pattern":"S","legs":"F"},"action":"harvest","summary":"good-harvest","bonus":1.460000000000001},{"rt":1357.3000000715256,"stimulus":"\n                    <p><b>Action: <em>harvest</em></b></p>\n                    <p>This is the bee that you just saw.</p>\n                    <img src=\"bees-with-color/bee-A2SM.svg\" width=\"200\">\n                    <p><span class=\"greenText\"><b>Successful harvest!</b></span><br>Your pay has increased by $0.02. Your bonus pay is now $1.00.</p>\n            ","response":0,"trial_type":"html-button-response","trial_index":128,"time_elapsed":397380,"internal_node_id":"0.0-4.0-1.60","subject_id":"60338f35010951035cca4a91","study_id":"6197b3f67c2b5cd3b6d9596a","session_id":"619beee6f4dc8f3cdc25d586","condition":"full-information","relevant_dimensions":["pattern","legs"],"bee_group":{"antennae":"X","wings":"X","pattern":"S","legs":"F"},"bonus":1.460000000000001},{"rt":1491.2000000476837,"stimulus":"bees-with-color/bee-B1DM.svg","response":0,"trial_type":"image-button-response","trial_index":129,"time_elapsed":398873,"internal_node_id":"0.0-4.0-0.61","subject_id":"60338f35010951035cca4a91","study_id":"6197b3f67c2b5cd3b6d9596a","session_id":"619beee6f4dc8f3cdc25d586","condition":"full-information","relevant_dimensions":["pattern","legs"],"bee_group":{"antennae":"X","wings":"X","pattern":"S","legs":"F"},"action":"harvest","summary":"good-harvest","bonus":1.460000000000001},{"rt":961.8999999761581,"stimulus":"\n                    <p><b>Action: <em>harvest</em></b></p>\n                    <p>This is the bee that you just saw.</p>\n                    <img src=\"bees-with-color/bee-B1DM.svg\" width=\"200\">\n                    <p><span class=\"greenText\"><b>Successful harvest!</b></span><br>Your pay has increased by $0.02. Your bonus pay is now $1.02.</p>\n            ","response":0,"trial_type":"html-button-response","trial_index":130,"time_elapsed":399836,"internal_node_id":"0.0-4.0-1.61","subject_id":"60338f35010951035cca4a91","study_id":"6197b3f67c2b5cd3b6d9596a","session_id":"619beee6f4dc8f3cdc25d586","condition":"full-information","relevant_dimensions":["pattern","legs"],"bee_group":{"antennae":"X","wings":"X","pattern":"S","legs":"F"},"bonus":1.460000000000001},{"rt":1726.5,"stimulus":"bees-with-color/bee-B2DM.svg","response":0,"trial_type":"image-button-response","trial_index":131,"time_elapsed":401564,"internal_node_id":"0.0-4.0-0.62","subject_id":"60338f35010951035cca4a91","study_id":"6197b3f67c2b5cd3b6d9596a","session_id":"619beee6f4dc8f3cdc25d586","condition":"full-information","relevant_dimensions":["pattern","legs"],"bee_group":{"antennae":"X","wings":"X","pattern":"S","legs":"F"},"action":"harvest","summary":"good-harvest","bonus":1.460000000000001},{"rt":1126.2000000476837,"stimulus":"\n                    <p><b>Action: <em>harvest</em></b></p>\n                    <p>This is the bee that you just saw.</p>\n                    <img src=\"bees-with-color/bee-B2DM.svg\" width=\"200\">\n                    <p><span class=\"greenText\"><b>Successful harvest!</b></span><br>Your pay has increased by $0.02. Your bonus pay is now $1.04.</p>\n            ","response":0,"trial_type":"html-button-response","trial_index":132,"time_elapsed":402692,"internal_node_id":"0.0-4.0-1.62","subject_id":"60338f35010951035cca4a91","study_id":"6197b3f67c2b5cd3b6d9596a","session_id":"619beee6f4dc8f3cdc25d586","condition":"full-information","relevant_dimensions":["pattern","legs"],"bee_group":{"antennae":"X","wings":"X","pattern":"S","legs":"F"},"bonus":1.460000000000001},{"rt":1734,"stimulus":"bees-with-color/bee-B1SM.svg","response":0,"trial_type":"image-button-response","trial_index":133,"time_elapsed":404428,"internal_node_id":"0.0-4.0-0.63","subject_id":"60338f35010951035cca4a91","study_id":"6197b3f67c2b5cd3b6d9596a","session_id":"619beee6f4dc8f3cdc25d586","condition":"full-information","relevant_dimensions":["pattern","legs"],"bee_group":{"antennae":"X","wings":"X","pattern":"S","legs":"F"},"action":"harvest","summary":"good-harvest","bonus":1.460000000000001},{"rt":1005.1000000238419,"stimulus":"\n                    <p><b>Action: <em>harvest</em></b></p>\n                    <p>This is the bee that you just saw.</p>\n                    <img src=\"bees-with-color/bee-B1SM.svg\" width=\"200\">\n                    <p><span class=\"greenText\"><b>Successful harvest!</b></span><br>Your pay has increased by $0.02. Your bonus pay is now $1.06.</p>\n            ","response":0,"trial_type":"html-button-response","trial_index":134,"time_elapsed":405435,"internal_node_id":"0.0-4.0-1.63","subject_id":"60338f35010951035cca4a91","study_id":"6197b3f67c2b5cd3b6d9596a","session_id":"619beee6f4dc8f3cdc25d586","condition":"full-information","relevant_dimensions":["pattern","legs"],"bee_group":{"antennae":"X","wings":"X","pattern":"S","legs":"F"},"bonus":1.460000000000001},{"rt":5480.399999976158,"stimulus":"You have completed the first part of this experiment.<br><br>You will now begin a shorter second part, in which you will receive no feedback.<br>The same rules regarding bonus pay apply.<br><br>Press any key to begin.","response":" ","trial_type":"html-keyboard-response","trial_index":135,"time_elapsed":410917,"internal_node_id":"0.0-5.0","subject_id":"60338f35010951035cca4a91","study_id":"6197b3f67c2b5cd3b6d9596a","session_id":"619beee6f4dc8f3cdc25d586","condition":"full-information","relevant_dimensions":["pattern","legs"],"bee_group":{"antennae":"X","wings":"X","pattern":"S","legs":"F"},"bonus":1.460000000000001},{"rt":2937.399999976158,"stimulus":"bees-with-color/bee-B2DM.svg","response":0,"trial_type":"image-button-response","trial_index":136,"time_elapsed":413876,"internal_node_id":"0.0-6.0-0.0","subject_id":"60338f35010951035cca4a91","study_id":"6197b3f67c2b5cd3b6d9596a","session_id":"619beee6f4dc8f3cdc25d586","condition":"full-information","relevant_dimensions":["pattern","legs"],"bee_group":{"antennae":"X","wings":"X","pattern":"S","legs":"F"},"bonus":1.460000000000001},{"rt":1365.3999999761581,"stimulus":"bees-with-color/bee-B2SF.svg","response":1,"trial_type":"image-button-response","trial_index":137,"time_elapsed":415244,"internal_node_id":"0.0-6.0-0.1","subject_id":"60338f35010951035cca4a91","study_id":"6197b3f67c2b5cd3b6d9596a","session_id":"619beee6f4dc8f3cdc25d586","condition":"full-information","relevant_dimensions":["pattern","legs"],"bee_group":{"antennae":"X","wings":"X","pattern":"S","legs":"F"},"bonus":1.460000000000001},{"rt":1095.2000000476837,"stimulus":"bees-with-color/bee-B1DM.svg","response":0,"trial_type":"image-button-response","trial_index":138,"time_elapsed":416342,"internal_node_id":"0.0-6.0-0.2","subject_id":"60338f35010951035cca4a91","study_id":"6197b3f67c2b5cd3b6d9596a","session_id":"619beee6f4dc8f3cdc25d586","condition":"full-information","relevant_dimensions":["pattern","legs"],"bee_group":{"antennae":"X","wings":"X","pattern":"S","legs":"F"},"bonus":1.460000000000001},{"rt":987.1000000238419,"stimulus":"bees-with-color/bee-A2DF.svg","response":0,"trial_type":"image-button-response","trial_index":139,"time_elapsed":417331,"internal_node_id":"0.0-6.0-0.3","subject_id":"60338f35010951035cca4a91","study_id":"6197b3f67c2b5cd3b6d9596a","session_id":"619beee6f4dc8f3cdc25d586","condition":"full-information","relevant_dimensions":["pattern","legs"],"bee_group":{"antennae":"X","wings":"X","pattern":"S","legs":"F"},"bonus":1.460000000000001},{"rt":974.7000000476837,"stimulus":"bees-with-color/bee-A1DM.svg","response":0,"trial_type":"image-button-response","trial_index":140,"time_elapsed":418308,"internal_node_id":"0.0-6.0-0.4","subject_id":"60338f35010951035cca4a91","study_id":"6197b3f67c2b5cd3b6d9596a","session_id":"619beee6f4dc8f3cdc25d586","condition":"full-information","relevant_dimensions":["pattern","legs"],"bee_group":{"antennae":"X","wings":"X","pattern":"S","legs":"F"},"bonus":1.460000000000001},{"rt":1824.1000000238419,"stimulus":"bees-with-color/bee-A2SM.svg","response":0,"trial_type":"image-button-response","trial_index":141,"time_elapsed":420135,"internal_node_id":"0.0-6.0-0.5","subject_id":"60338f35010951035cca4a91","study_id":"6197b3f67c2b5cd3b6d9596a","session_id":"619beee6f4dc8f3cdc25d586","condition":"full-information","relevant_dimensions":["pattern","legs"],"bee_group":{"antennae":"X","wings":"X","pattern":"S","legs":"F"},"bonus":1.460000000000001},{"rt":1511.8999999761581,"stimulus":"bees-with-color/bee-B1SM.svg","response":1,"trial_type":"image-button-response","trial_index":142,"time_elapsed":421649,"internal_node_id":"0.0-6.0-0.6","subject_id":"60338f35010951035cca4a91","study_id":"6197b3f67c2b5cd3b6d9596a","session_id":"619beee6f4dc8f3cdc25d586","condition":"full-information","relevant_dimensions":["pattern","legs"],"bee_group":{"antennae":"X","wings":"X","pattern":"S","legs":"F"},"bonus":1.460000000000001},{"rt":1547.9000000953674,"stimulus":"bees-with-color/bee-A2SF.svg","response":1,"trial_type":"image-button-response","trial_index":143,"time_elapsed":423199,"internal_node_id":"0.0-6.0-0.7","subject_id":"60338f35010951035cca4a91","study_id":"6197b3f67c2b5cd3b6d9596a","session_id":"619beee6f4dc8f3cdc25d586","condition":"full-information","relevant_dimensions":["pattern","legs"],"bee_group":{"antennae":"X","wings":"X","pattern":"S","legs":"F"},"bonus":1.460000000000001},{"rt":2384.5,"stimulus":"bees-with-color/bee-B2SM.svg","response":0,"trial_type":"image-button-response","trial_index":144,"time_elapsed":425586,"internal_node_id":"0.0-6.0-0.8","subject_id":"60338f35010951035cca4a91","study_id":"6197b3f67c2b5cd3b6d9596a","session_id":"619beee6f4dc8f3cdc25d586","condition":"full-information","relevant_dimensions":["pattern","legs"],"bee_group":{"antennae":"X","wings":"X","pattern":"S","legs":"F"},"bonus":1.460000000000001},{"rt":2093.5,"stimulus":"bees-with-color/bee-B1DF.svg","response":0,"trial_type":"image-button-response","trial_index":145,"time_elapsed":427682,"internal_node_id":"0.0-6.0-0.9","subject_id":"60338f35010951035cca4a91","study_id":"6197b3f67c2b5cd3b6d9596a","session_id":"619beee6f4dc8f3cdc25d586","condition":"full-information","relevant_dimensions":["pattern","legs"],"bee_group":{"antennae":"X","wings":"X","pattern":"S","legs":"F"},"bonus":1.460000000000001},{"rt":1645,"stimulus":"bees-with-color/bee-A1SM.svg","response":1,"trial_type":"image-button-response","trial_index":146,"time_elapsed":429329,"internal_node_id":"0.0-6.0-0.10","subject_id":"60338f35010951035cca4a91","study_id":"6197b3f67c2b5cd3b6d9596a","session_id":"619beee6f4dc8f3cdc25d586","condition":"full-information","relevant_dimensions":["pattern","legs"],"bee_group":{"antennae":"X","wings":"X","pattern":"S","legs":"F"},"bonus":1.460000000000001},{"rt":1086.8000000715256,"stimulus":"bees-with-color/bee-A1DF.svg","response":0,"trial_type":"image-button-response","trial_index":147,"time_elapsed":430418,"internal_node_id":"0.0-6.0-0.11","subject_id":"60338f35010951035cca4a91","study_id":"6197b3f67c2b5cd3b6d9596a","session_id":"619beee6f4dc8f3cdc25d586","condition":"full-information","relevant_dimensions":["pattern","legs"],"bee_group":{"antennae":"X","wings":"X","pattern":"S","legs":"F"},"bonus":1.460000000000001},{"rt":1377.8999999761581,"stimulus":"bees-with-color/bee-A2DM.svg","response":0,"trial_type":"image-button-response","trial_index":148,"time_elapsed":431798,"internal_node_id":"0.0-6.0-0.12","subject_id":"60338f35010951035cca4a91","study_id":"6197b3f67c2b5cd3b6d9596a","session_id":"619beee6f4dc8f3cdc25d586","condition":"full-information","relevant_dimensions":["pattern","legs"],"bee_group":{"antennae":"X","wings":"X","pattern":"S","legs":"F"},"bonus":1.460000000000001},{"rt":2118.5,"stimulus":"bees-with-color/bee-B1SF.svg","response":1,"trial_type":"image-button-response","trial_index":149,"time_elapsed":433918,"internal_node_id":"0.0-6.0-0.13","subject_id":"60338f35010951035cca4a91","study_id":"6197b3f67c2b5cd3b6d9596a","session_id":"619beee6f4dc8f3cdc25d586","condition":"full-information","relevant_dimensions":["pattern","legs"],"bee_group":{"antennae":"X","wings":"X","pattern":"S","legs":"F"},"bonus":1.460000000000001},{"rt":1253,"stimulus":"bees-with-color/bee-A1SF.svg","response":1,"trial_type":"image-button-response","trial_index":150,"time_elapsed":435173,"internal_node_id":"0.0-6.0-0.14","subject_id":"60338f35010951035cca4a91","study_id":"6197b3f67c2b5cd3b6d9596a","session_id":"619beee6f4dc8f3cdc25d586","condition":"full-information","relevant_dimensions":["pattern","legs"],"bee_group":{"antennae":"X","wings":"X","pattern":"S","legs":"F"},"bonus":1.460000000000001},{"rt":1132.1000000238419,"stimulus":"bees-with-color/bee-B2DF.svg","response":0,"trial_type":"image-button-response","trial_index":151,"time_elapsed":436307,"internal_node_id":"0.0-6.0-0.15","subject_id":"60338f35010951035cca4a91","study_id":"6197b3f67c2b5cd3b6d9596a","session_id":"619beee6f4dc8f3cdc25d586","condition":"full-information","relevant_dimensions":["pattern","legs"],"bee_group":{"antennae":"X","wings":"X","pattern":"S","legs":"F"},"bonus":1.460000000000001},{"rt":753.8999999761581,"stimulus":"bees-with-color/bee-B1DM.svg","response":0,"trial_type":"image-button-response","trial_index":152,"time_elapsed":437064,"internal_node_id":"0.0-6.0-0.16","subject_id":"60338f35010951035cca4a91","study_id":"6197b3f67c2b5cd3b6d9596a","session_id":"619beee6f4dc8f3cdc25d586","condition":"full-information","relevant_dimensions":["pattern","legs"],"bee_group":{"antennae":"X","wings":"X","pattern":"S","legs":"F"},"bonus":1.460000000000001},{"rt":1451.2999999523163,"stimulus":"bees-with-color/bee-A1DM.svg","response":0,"trial_type":"image-button-response","trial_index":153,"time_elapsed":438517,"internal_node_id":"0.0-6.0-0.17","subject_id":"60338f35010951035cca4a91","study_id":"6197b3f67c2b5cd3b6d9596a","session_id":"619beee6f4dc8f3cdc25d586","condition":"full-information","relevant_dimensions":["pattern","legs"],"bee_group":{"antennae":"X","wings":"X","pattern":"S","legs":"F"},"bonus":1.460000000000001},{"rt":2072.399999976158,"stimulus":"bees-with-color/bee-A2SF.svg","response":1,"trial_type":"image-button-response","trial_index":154,"time_elapsed":440592,"internal_node_id":"0.0-6.0-0.18","subject_id":"60338f35010951035cca4a91","study_id":"6197b3f67c2b5cd3b6d9596a","session_id":"619beee6f4dc8f3cdc25d586","condition":"full-information","relevant_dimensions":["pattern","legs"],"bee_group":{"antennae":"X","wings":"X","pattern":"S","legs":"F"},"bonus":1.460000000000001},{"rt":1068.3999999761581,"stimulus":"bees-with-color/bee-B1DF.svg","response":0,"trial_type":"image-button-response","trial_index":155,"time_elapsed":441662,"internal_node_id":"0.0-6.0-0.19","subject_id":"60338f35010951035cca4a91","study_id":"6197b3f67c2b5cd3b6d9596a","session_id":"619beee6f4dc8f3cdc25d586","condition":"full-information","relevant_dimensions":["pattern","legs"],"bee_group":{"antennae":"X","wings":"X","pattern":"S","legs":"F"},"bonus":1.460000000000001},{"rt":665.1000000238419,"stimulus":"bees-with-color/bee-A2DM.svg","response":0,"trial_type":"image-button-response","trial_index":156,"time_elapsed":442329,"internal_node_id":"0.0-6.0-0.20","subject_id":"60338f35010951035cca4a91","study_id":"6197b3f67c2b5cd3b6d9596a","session_id":"619beee6f4dc8f3cdc25d586","condition":"full-information","relevant_dimensions":["pattern","legs"],"bee_group":{"antennae":"X","wings":"X","pattern":"S","legs":"F"},"bonus":1.460000000000001},{"rt":863.9000000953674,"stimulus":"bees-with-color/bee-B2DM.svg","response":0,"trial_type":"image-button-response","trial_index":157,"time_elapsed":443195,"internal_node_id":"0.0-6.0-0.21","subject_id":"60338f35010951035cca4a91","