[{"success":true,"trial_type":"fullscreen","trial_index":0,"time_elapsed":79856,"internal_node_id":"0.0-0.0","subject_id":"614b413065c09b504a425057","study_id":"60edd13110225f80f9f3709b","session_id":"6196c4a33c2742fc592786ee","condition":"contingent","relevant_dimensions":["antennae","legs"],"bee_group":{"antennae":"A","wings":"X","pattern":"X","legs":"M"},"bonus":0.5800000000000007},{"success":true,"timeout":false,"failed_images":[],"failed_audio":[],"failed_video":[],"trial_type":"preload","trial_index":1,"time_elapsed":82048,"internal_node_id":"0.0-1.0","subject_id":"614b413065c09b504a425057","study_id":"60edd13110225f80f9f3709b","session_id":"6196c4a33c2742fc592786ee","condition":"contingent","relevant_dimensions":["antennae","legs"],"bee_group":{"antennae":"A","wings":"X","pattern":"X","legs":"M"},"bonus":0.5800000000000007},{"rt":1910,"stimulus":"Welcome! Press any key to begin.","response":"m","trial_type":"html-keyboard-response","trial_index":2,"time_elapsed":83958,"internal_node_id":"0.0-2.0","subject_id":"614b413065c09b504a425057","study_id":"60edd13110225f80f9f3709b","session_id":"6196c4a33c2742fc592786ee","condition":"contingent","relevant_dimensions":["antennae","legs"],"bee_group":{"antennae":"A","wings":"X","pattern":"X","legs":"M"},"bonus":0.5800000000000007},{"view_history":[{"page_index":0,"viewing_time":4811},{"page_index":1,"viewing_time":8402},{"page_index":2,"viewing_time":50115},{"page_index":3,"viewing_time":9812},{"page_index":4,"viewing_time":5853},{"page_index":5,"viewing_time":8765},{"page_index":6,"viewing_time":8367},{"page_index":7,"viewing_time":7147},{"page_index":8,"viewing_time":4740},{"page_index":9,"viewing_time":3462},{"page_index":10,"viewing_time":3867},{"page_index":11,"viewing_time":7933},{"page_index":12,"viewing_time":5697},{"page_index":13,"viewing_time":1360},{"page_index":14,"viewing_time":1395}],"rt":131726,"trial_type":"instructions","trial_index":3,"time_elapsed":215684,"internal_node_id":"0.0-3.0-0.0","subject_id":"614b413065c09b504a425057","study_id":"60edd13110225f80f9f3709b","session_id":"6196c4a33c2742fc592786ee","condition":"contingent","relevant_dimensions":["antennae","legs"],"bee_group":{"antennae":"A","wings":"X","pattern":"X","legs":"M"},"bonus":0.5800000000000007},{"rt":21654,"response":{"Q0":["Two or six legs","Stripes or spots on body","Single or double wings","Antennae or no antennae"]},"question_order":[0],"trial_type":"survey-multi-select","trial_index":4,"time_elapsed":237341,"internal_node_id":"0.0-3.0-1.0","subject_id":"614b413065c09b504a425057","study_id":"60edd13110225f80f9f3709b","session_id":"6196c4a33c2742fc592786ee","condition":"contingent","relevant_dimensions":["antennae","legs"],"bee_group":{"antennae":"A","wings":"X","pattern":"X","legs":"M"},"correct":true,"bonus":0.5800000000000007},{"rt":18996,"response":{"Q1":"No.","Q2":"Based on the four features of the bee.","Q3":"You do not learn if it was friendly or dangerous, and do not alter your bonus."},"question_order":[0,1,2],"trial_type":"survey-multi-choice","trial_index":5,"time_elapsed":256339,"internal_node_id":"0.0-3.0-2.0","subject_id":"614b413065c09b504a425057","study_id":"60edd13110225f80f9f3709b","session_id":"6196c4a33c2742fc592786ee","condition":"contingent","relevant_dimensions":["antennae","legs"],"bee_group":{"antennae":"A","wings":"X","pattern":"X","legs":"M"},"correct":true,"bonus":0.5800000000000007},{"rt":2158,"stimulus":"<p>Congrats, you got everything right<br>When you're ready, click the button below to continue to the experiment.</p>","response":0,"trial_type":"html-button-response","trial_index":6,"time_elapsed":258497,"internal_node_id":"0.0-3.0-3.0","subject_id":"614b413065c09b504a425057","study_id":"60edd13110225f80f9f3709b","session_id":"6196c4a33c2742fc592786ee","condition":"contingent","relevant_dimensions":["antennae","legs"],"bee_group":{"antennae":"A","wings":"X","pattern":"X","legs":"M"},"bonus":0.5800000000000007},{"rt":15558,"stimulus":"bees-with-color/bee-A1DM.svg","response":0,"trial_type":"image-button-response","trial_index":7,"time_elapsed":274056,"internal_node_id":"0.0-4.0-0.0","subject_id":"614b413065c09b504a425057","study_id":"60edd13110225f80f9f3709b","session_id":"6196c4a33c2742fc592786ee","condition":"contingent","relevant_dimensions":["antennae","legs"],"bee_group":{"antennae":"A","wings":"X","pattern":"X","legs":"M"},"action":"harvest","summary":"bad-harvest","bonus":0.5800000000000007},{"rt":6930,"stimulus":"\n                    <p><b>Action: <em>harvest</em></b></p>\n                    <p>This is the bee that you just saw.</p>\n                    <img src=\"bees-with-color/bee-A1DM.svg\" width=\"200\">\n                    <p><span class=\"redText\">Bad choice, the bee was angry.</span><br><b>You have been stung!</b><br>Your pay has been decreased by $0.10. Your bonus pay is now $0.44.</p>\n            ","response":0,"trial_type":"html-button-response","trial_index":8,"time_elapsed":280997,"internal_node_id":"0.0-4.0-1.0","subject_id":"614b413065c09b504a425057","study_id":"60edd13110225f80f9f3709b","session_id":"6196c4a33c2742fc592786ee","condition":"contingent","relevant_dimensions":["antennae","legs"],"bee_group":{"antennae":"A","wings":"X","pattern":"X","legs":"M"},"bonus":0.5800000000000007},{"rt":11385,"stimulus":"bees-with-color/bee-A2DM.svg","response":1,"trial_type":"image-button-response","trial_index":9,"time_elapsed":292383,"internal_node_id":"0.0-4.0-0.1","subject_id":"614b413065c09b504a425057","study_id":"60edd13110225f80f9f3709b","session_id":"6196c4a33c2742fc592786ee","condition":"contingent","relevant_dimensions":["antennae","legs"],"bee_group":{"antennae":"A","wings":"X","pattern":"X","legs":"M"},"action":"avoid","summary":"good-avoid","bonus":0.5800000000000007},{"rt":2369,"stimulus":"\n                    <p><b>Action: <em>avoid</em></b></p>\n                    <p>This is the bee that you just saw.</p>\n                    <img src=\"bees-with-color/bee-A2DM.svg\" width=\"200\">\n                    <p><br>Your bonus pay is unchanged, and remains at $0.44.</p>\n            ","response":0,"trial_type":"html-button-response","trial_index":10,"time_elapsed":294753,"internal_node_id":"0.0-4.0-1.1","subject_id":"614b413065c09b504a425057","study_id":"60edd13110225f80f9f3709b","session_id":"6196c4a33c2742fc592786ee","condition":"contingent","relevant_dimensions":["antennae","legs"],"bee_group":{"antennae":"A","wings":"X","pattern":"X","legs":"M"},"bonus":0.5800000000000007},{"rt":3374,"stimulus":"bees-with-color/bee-B2DF.svg","response":0,"trial_type":"image-button-response","trial_index":11,"time_elapsed":298127,"internal_node_id":"0.0-4.0-0.2","subject_id":"614b413065c09b504a425057","study_id":"60edd13110225f80f9f3709b","session_id":"6196c4a33c2742fc592786ee","condition":"contingent","relevant_dimensions":["antennae","legs"],"bee_group":{"antennae":"A","wings":"X","pattern":"X","legs":"M"},"action":"harvest","summary":"good-harvest","bonus":0.5800000000000007},{"rt":12621,"stimulus":"\n                    <p><b>Action: <em>harvest</em></b></p>\n                    <p>This is the bee that you just saw.</p>\n                    <img src=\"bees-with-color/bee-B2DF.svg\" width=\"200\">\n                    <p><span class=\"greenText\"><b>Successful harvest!</b></span><br>Your pay has increased by $0.02. Your bonus pay is now $0.46.</p>\n            ","response":0,"trial_type":"html-button-response","trial_index":12,"time_elapsed":310749,"internal_node_id":"0.0-4.0-1.2","subject_id":"614b413065c09b504a425057","study_id":"60edd13110225f80f9f3709b","session_id":"6196c4a33c2742fc592786ee","condition":"contingent","relevant_dimensions":["antennae","legs"],"bee_group":{"antennae":"A","wings":"X","pattern":"X","legs":"M"},"bonus":0.5800000000000007},{"rt":3002,"stimulus":"bees-with-color/bee-A2SF.svg","response":0,"trial_type":"image-button-response","trial_index":13,"time_elapsed":313750,"internal_node_id":"0.0-4.0-0.3","subject_id":"614b413065c09b504a425057","study_id":"60edd13110225f80f9f3709b","session_id":"6196c4a33c2742fc592786ee","condition":"contingent","relevant_dimensions":["antennae","legs"],"bee_group":{"antennae":"A","wings":"X","pattern":"X","legs":"M"},"action":"harvest","summary":"good-harvest","bonus":0.5800000000000007},{"rt":7154,"stimulus":"\n                    <p><b>Action: <em>harvest</em></b></p>\n                    <p>This is the bee that you just saw.</p>\n                    <img src=\"bees-with-color/bee-A2SF.svg\" width=\"200\">\n                    <p><span class=\"greenText\"><b>Successful harvest!</b></span><br>Your pay has increased by $0.02. Your bonus pay is now $0.48.</p>\n            ","response":0,"trial_type":"html-button-response","trial_index":14,"time_elapsed":320906,"internal_node_id":"0.0-4.0-1.3","subject_id":"614b413065c09b504a425057","study_id":"60edd13110225f80f9f3709b","session_id":"6196c4a33c2742fc592786ee","condition":"contingent","relevant_dimensions":["antennae","legs"],"bee_group":{"antennae":"A","wings":"X","pattern":"X","legs":"M"},"bonus":0.5800000000000007},{"rt":16002,"stimulus":"bees-with-color/bee-B1SM.svg","response":1,"trial_type":"image-button-response","trial_index":15,"time_elapsed":336908,"internal_node_id":"0.0-4.0-0.4","subject_id":"614b413065c09b504a425057","study_id":"60edd13110225f80f9f3709b","session_id":"6196c4a33c2742fc592786ee","condition":"contingent","relevant_dimensions":["antennae","legs"],"bee_group":{"antennae":"A","wings":"X","pattern":"X","legs":"M"},"action":"avoid","summary":"bad-avoid","bonus":0.5800000000000007},{"rt":1266,"stimulus":"\n                    <p><b>Action: <em>avoid</em></b></p>\n                    <p>This is the bee that you just saw.</p>\n                    <img src=\"bees-with-color/bee-B1SM.svg\" width=\"200\">\n                    <p><br>Your bonus pay is unchanged, and remains at $0.48.</p>\n            ","response":0,"trial_type":"html-button-response","trial_index":16,"time_elapsed":338175,"internal_node_id":"0.0-4.0-1.4","subject_id":"614b413065c09b504a425057","study_id":"60edd13110225f80f9f3709b","session_id":"6196c4a33c2742fc592786ee","condition":"contingent","relevant_dimensions":["antennae","legs"],"bee_group":{"antennae":"A","wings":"X","pattern":"X","legs":"M"},"bonus":0.5800000000000007},{"rt":1494,"stimulus":"bees-with-color/bee-A2DF.svg","response":0,"trial_type":"image-button-response","trial_index":17,"time_elapsed":339669,"internal_node_id":"0.0-4.0-0.5","subject_id":"614b413065c09b504a425057","study_id":"60edd13110225f80f9f3709b","session_id":"6196c4a33c2742fc592786ee","condition":"contingent","relevant_dimensions":["antennae","legs"],"bee_group":{"antennae":"A","wings":"X","pattern":"X","legs":"M"},"action":"harvest","summary":"good-harvest","bonus":0.5800000000000007},{"rt":1284,"stimulus":"\n                    <p><b>Action: <em>harvest</em></b></p>\n                    <p>This is the bee that you just saw.</p>\n                    <img src=\"bees-with-color/bee-A2DF.svg\" width=\"200\">\n                    <p><span class=\"greenText\"><b>Successful harvest!</b></span><br>Your pay has increased by $0.02. Your bonus pay is now $0.50.</p>\n            ","response":0,"trial_type":"html-button-response","trial_index":18,"time_elapsed":340954,"internal_node_id":"0.0-4.0-1.5","subject_id":"614b413065c09b504a425057","study_id":"60edd13110225f80f9f3709b","session_id":"6196c4a33c2742fc592786ee","condition":"contingent","relevant_dimensions":["antennae","legs"],"bee_group":{"antennae":"A","wings":"X","pattern":"X","legs":"M"},"bonus":0.5800000000000007},{"rt":3291,"stimulus":"bees-with-color/bee-B2DM.svg","response":0,"trial_type":"image-button-response","trial_index":19,"time_elapsed":344246,"internal_node_id":"0.0-4.0-0.6","subject_id":"614b413065c09b504a425057","study_id":"60edd13110225f80f9f3709b","session_id":"6196c4a33c2742fc592786ee","condition":"contingent","relevant_dimensions":["antennae","legs"],"bee_group":{"antennae":"A","wings":"X","pattern":"X","legs":"M"},"action":"harvest","summary":"good-harvest","bonus":0.5800000000000007},{"rt":741,"stimulus":"\n                    <p><b>Action: <em>harvest</em></b></p>\n                    <p>This is the bee that you just saw.</p>\n                    <img src=\"bees-with-color/bee-B2DM.svg\" width=\"200\">\n                    <p><span class=\"greenText\"><b>Successful harvest!</b></span><br>Your pay has increased by $0.02. Your bonus pay is now $0.52.</p>\n            ","response":0,"trial_type":"html-button-response","trial_index":20,"time_elapsed":344988,"internal_node_id":"0.0-4.0-1.6","subject_id":"614b413065c09b504a425057","study_id":"60edd13110225f80f9f3709b","session_id":"6196c4a33c2742fc592786ee","condition":"contingent","relevant_dimensions":["antennae","legs"],"bee_group":{"antennae":"A","wings":"X","pattern":"X","legs":"M"},"bonus":0.5800000000000007},{"rt":1276,"stimulus":"bees-with-color/bee-B1DM.svg","response":1,"trial_type":"image-button-response","trial_index":21,"time_elapsed":346264,"internal_node_id":"0.0-4.0-0.7","subject_id":"614b413065c09b504a425057","study_id":"60edd13110225f80f9f3709b","session_id":"6196c4a33c2742fc592786ee","condition":"contingent","relevant_dimensions":["antennae","legs"],"bee_group":{"antennae":"A","wings":"X","pattern":"X","legs":"M"},"action":"avoid","summary":"bad-avoid","bonus":0.5800000000000007},{"rt":740,"stimulus":"\n                    <p><b>Action: <em>avoid</em></b></p>\n                    <p>This is the bee that you just saw.</p>\n                    <img src=\"bees-with-color/bee-B1DM.svg\" width=\"200\">\n                    <p><br>Your bonus pay is unchanged, and remains at $0.52.</p>\n            ","response":0,"trial_type":"html-button-response","trial_index":22,"time_elapsed":347004,"internal_node_id":"0.0-4.0-1.7","subject_id":"614b413065c09b504a425057","study_id":"60edd13110225f80f9f3709b","session_id":"6196c4a33c2742fc592786ee","condition":"contingent","relevant_dimensions":["antennae","legs"],"bee_group":{"antennae":"A","wings":"X","pattern":"X","legs":"M"},"bonus":0.5800000000000007},{"rt":1176,"stimulus":"bees-with-color/bee-B1SF.svg","response":1,"trial_type":"image-button-response","trial_index":23,"time_elapsed":348180,"internal_node_id":"0.0-4.0-0.8","subject_id":"614b413065c09b504a425057","study_id":"60edd13110225f80f9f3709b","session_id":"6196c4a33c2742fc592786ee","condition":"contingent","relevant_dimensions":["antennae","legs"],"bee_group":{"antennae":"A","wings":"X","pattern":"X","legs":"M"},"action":"avoid","summary":"bad-avoid","bonus":0.5800000000000007},{"rt":1152,"stimulus":"\n                    <p><b>Action: <em>avoid</em></b></p>\n                    <p>This is the bee that you just saw.</p>\n                    <img src=\"bees-with-color/bee-B1SF.svg\" width=\"200\">\n                    <p><br>Your bonus pay is unchanged, and remains at $0.52.</p>\n            ","response":0,"trial_type":"html-button-response","trial_index":24,"time_elapsed":349334,"internal_node_id":"0.0-4.0-1.8","subject_id":"614b413065c09b504a425057","study_id":"60edd13110225f80f9f3709b","session_id":"6196c4a33c2742fc592786ee","condition":"contingent","relevant_dimensions":["antennae","legs"],"bee_group":{"antennae":"A","wings":"X","pattern":"X","legs":"M"},"bonus":0.5800000000000007},{"rt":935,"stimulus":"bees-with-color/bee-B2SM.svg","response":0,"trial_type":"image-button-response","trial_index":25,"time_elapsed":350269,"internal_node_id":"0.0-4.0-0.9","subject_id":"614b413065c09b504a425057","study_id":"60edd13110225f80f9f3709b","session_id":"6196c4a33c2742fc592786ee","condition":"contingent","relevant_dimensions":["antennae","legs"],"bee_group":{"antennae":"A","wings":"X","pattern":"X","legs":"M"},"action":"harvest","summary":"good-harvest","bonus":0.5800000000000007},{"rt":876,"stimulus":"\n                    <p><b>Action: <em>harvest</em></b></p>\n                    <p>This is the bee that you just saw.</p>\n                    <img src=\"bees-with-color/bee-B2SM.svg\" width=\"200\">\n                    <p><span class=\"greenText\"><b>Successful harvest!</b></span><br>Your pay has increased by $0.02. Your bonus pay is now $0.54.</p>\n            ","response":0,"trial_type":"html-button-response","trial_index":26,"time_elapsed":351147,"internal_node_id":"0.0-4.0-1.9","subject_id":"614b413065c09b504a425057","study_id":"60edd13110225f80f9f3709b","session_id":"6196c4a33c2742fc592786ee","condition":"contingent","relevant_dimensions":["antennae","legs"],"bee_group":{"antennae":"A","wings":"X","pattern":"X","legs":"M"},"bonus":0.5800000000000007},{"rt":4767,"stimulus":"bees-with-color/bee-A1SF.svg","response":1,"trial_type":"image-button-response","trial_index":27,"time_elapsed":355914,"internal_node_id":"0.0-4.0-0.10","subject_id":"614b413065c09b504a425057","study_id":"60edd13110225f80f9f3709b","session_id":"6196c4a33c2742fc592786ee","condition":"contingent","relevant_dimensions":["antennae","legs"],"bee_group":{"antennae":"A","wings":"X","pattern":"X","legs":"M"},"action":"avoid","summary":"bad-avoid","bonus":0.5800000000000007},{"rt":652,"stimulus":"\n                    <p><b>Action: <em>avoid</em></b></p>\n                    <p>This is the bee that you just saw.</p>\n                    <img src=\"bees-with-color/bee-A1SF.svg\" width=\"200\">\n                    <p><br>Your bonus pay is unchanged, and remains at $0.54.</p>\n            ","response":0,"trial_type":"html-button-response","trial_index":28,"time_elapsed":356566,"internal_node_id":"0.0-4.0-1.10","subject_id":"614b413065c09b504a425057","study_id":"60edd13110225f80f9f3709b","session_id":"6196c4a33c2742fc592786ee","condition":"contingent","relevant_dimensions":["antennae","legs"],"bee_group":{"antennae":"A","wings":"X","pattern":"X","legs":"M"},"bonus":0.5800000000000007},{"rt":1730,"stimulus":"bees-with-color/bee-B2SF.svg","response":0,"trial_type":"image-button-response","trial_index":29,"time_elapsed":358297,"internal_node_id":"0.0-4.0-0.11","subject_id":"614b413065c09b504a425057","study_id":"60edd13110225f80f9f3709b","session_id":"6196c4a33c2742fc592786ee","condition":"contingent","relevant_dimensions":["antennae","legs"],"bee_group":{"antennae":"A","wings":"X","pattern":"X","legs":"M"},"action":"harvest","summary":"good-harvest","bonus":0.5800000000000007},{"rt":583,"stimulus":"\n                    <p><b>Action: <em>harvest</em></b></p>\n                    <p>This is the bee that you just saw.</p>\n                    <img src=\"bees-with-color/bee-B2SF.svg\" width=\"200\">\n                    <p><span class=\"greenText\"><b>Successful harvest!</b></span><br>Your pay has increased by $0.02. Your bonus pay is now $0.56.</p>\n            ","response":0,"trial_type":"html-button-response","trial_index":30,"time_elapsed":358882,"internal_node_id":"0.0-4.0-1.11","subject_id":"614b413065c09b504a425057","study_id":"60edd13110225f80f9f3709b","session_id":"6196c4a33c2742fc592786ee","condition":"contingent","relevant_dimensions":["antennae","legs"],"bee_group":{"antennae":"A","wings":"X","pattern":"X","legs":"M"},"bonus":0.5800000000000007},{"rt":5888,"stimulus":"bees-with-color/bee-A2SM.svg","response":0,"trial_type":"image-button-response","trial_index":31,"time_elapsed":364770,"internal_node_id":"0.0-4.0-0.12","subject_id":"614b413065c09b504a425057","study_id":"60edd13110225f80f9f3709b","session_id":"6196c4a33c2742fc592786ee","condition":"contingent","relevant_dimensions":["antennae","legs"],"bee_group":{"antennae":"A","wings":"X","pattern":"X","legs":"M"},"action":"harvest","summary":"bad-harvest","bonus":0.5800000000000007},{"rt":11803,"stimulus":"\n                    <p><b>Action: <em>harvest</em></b></p>\n                    <p>This is the bee that you just saw.</p>\n                    <img src=\"bees-with-color/bee-A2SM.svg\" width=\"200\">\n                    <p><span class=\"redText\">Bad choice, the bee was angry.</span><br><b>You have been stung!</b><br>Your pay has been decreased by $0.10. Your bonus pay is now $0.46.</p>\n            ","response":0,"trial_type":"html-button-response","trial_index":32,"time_elapsed":376575,"internal_node_id":"0.0-4.0-1.12","subject_id":"614b413065c09b504a425057","study_id":"60edd13110225f80f9f3709b","session_id":"6196c4a33c2742fc592786ee","condition":"contingent","relevant_dimensions":["antennae","legs"],"bee_group":{"antennae":"A","wings":"X","pattern":"X","legs":"M"},"bonus":0.5800000000000007},{"rt":1991,"stimulus":"bees-with-color/bee-B1DF.svg","response":1,"trial_type":"image-button-response","trial_index":33,"time_elapsed":378567,"internal_node_id":"0.0-4.0-0.13","subject_id":"614b413065c09b504a425057","study_id":"60edd13110225f80f9f3709b","session_id":"6196c4a33c2742fc592786ee","condition":"contingent","relevant_dimensions":["antennae","legs"],"bee_group":{"antennae":"A","wings":"X","pattern":"X","legs":"M"},"action":"avoid","summary":"bad-avoid","bonus":0.5800000000000007},{"rt":971,"stimulus":"\n                    <p><b>Action: <em>avoid</em></b></p>\n                    <p>This is the bee that you just saw.</p>\n                    <img src=\"bees-with-color/bee-B1DF.svg\" width=\"200\">\n                    <p><br>Your bonus pay is unchanged, and remains at $0.46.</p>\n            ","response":0,"trial_type":"html-button-response","trial_index":34,"time_elapsed":379538,"internal_node_id":"0.0-4.0-1.13","subject_id":"614b413065c09b504a425057","study_id":"60edd13110225f80f9f3709b","session_id":"6196c4a33c2742fc592786ee","condition":"contingent","relevant_dimensions":["antennae","legs"],"bee_group":{"antennae":"A","wings":"X","pattern":"X","legs":"M"},"bonus":0.5800000000000007},{"rt":4813,"stimulus":"bees-with-color/bee-A1SM.svg","response":1,"trial_type":"image-button-response","trial_index":35,"time_elapsed":384353,"internal_node_id":"0.0-4.0-0.14","subject_id":"614b413065c09b504a425057","study_id":"60edd13110225f80f9f3709b","session_id":"6196c4a33c2742fc592786ee","condition":"contingent","relevant_dimensions":["antennae","legs"],"bee_group":{"antennae":"A","wings":"X","pattern":"X","legs":"M"},"action":"avoid","summary":"good-avoid","bonus":0.5800000000000007},{"rt":925,"stimulus":"\n                    <p><b>Action: <em>avoid</em></b></p>\n                    <p>This is the bee that you just saw.</p>\n                    <img src=\"bees-with-color/bee-A1SM.svg\" width=\"200\">\n                    <p><br>Your bonus pay is unchanged, and remains at $0.46.</p>\n            ","response":0,"trial_type":"html-button-response","trial_index":36,"time_elapsed":385279,"internal_node_id":"0.0-4.0-1.14","subject_id":"614b413065c09b504a425057","study_id":"60edd13110225f80f9f3709b","session_id":"6196c4a33c2742fc592786ee","condition":"contingent","relevant_dimensions":["antennae","legs"],"bee_group":{"antennae":"A","wings":"X","pattern":"X","legs":"M"},"bonus":0.5800000000000007},{"rt":2723,"stimulus":"bees-with-color/bee-A1DF.svg","response":1,"trial_type":"image-button-response","trial_index":37,"time_elapsed":388001,"internal_node_id":"0.0-4.0-0.15","subject_id":"614b413065c09b504a425057","study_id":"60edd13110225f80f9f3709b","session_id":"6196c4a33c2742fc592786ee","condition":"contingent","relevant_dimensions":["antennae","legs"],"bee_group":{"antennae":"A","wings":"X","pattern":"X","legs":"M"},"action":"avoid","summary":"bad-avoid","bonus":0.5800000000000007},{"rt":629,"stimulus":"\n                    <p><b>Action: <em>avoid</em></b></p>\n                    <p>This is the bee that you just saw.</p>\n                    <img src=\"bees-with-color/bee-A1DF.svg\" width=\"200\">\n                    <p><br>Your bonus pay is unchanged, and remains at $0.46.</p>\n            ","response":0,"trial_type":"html-button-response","trial_index":38,"time_elapsed":388632,"internal_node_id":"0.0-4.0-1.15","subject_id":"614b413065c09b504a425057","study_id":"60edd13110225f80f9f3709b","session_id":"6196c4a33c2742fc592786ee","condition":"contingent","relevant_dimensions":["antennae","legs"],"bee_group":{"antennae":"A","wings":"X","pattern":"X","legs":"M"},"bonus":0.5800000000000007},{"rt":1447,"stimulus":"bees-with-color/bee-B2SM.svg","response":1,"trial_type":"image-button-response","trial_index":39,"time_elapsed":390077,"internal_node_id":"0.0-4.0-0.16","subject_id":"614b413065c09b504a425057","study_id":"60edd13110225f80f9f3709b","session_id":"6196c4a33c2742fc592786ee","condition":"contingent","relevant_dimensions":["antennae","legs"],"bee_group":{"antennae":"A","wings":"X","pattern":"X","legs":"M"},"action":"avoid","summary":"bad-avoid","bonus":0.5800000000000007},{"rt":501,"stimulus":"\n                    <p><b>Action: <em>avoid</em></b></p>\n                    <p>This is the bee that you just saw.</p>\n                    <img src=\"bees-with-color/bee-B2SM.svg\" width=\"200\">\n                    <p><br>Your bonus pay is unchanged, and remains at $0.46.</p>\n            ","response":0,"trial_type":"html-button-response","trial_index":40,"time_elapsed":390579,"internal_node_id":"0.0-4.0-1.16","subject_id":"614b413065c09b504a425057","study_id":"60edd13110225f80f9f3709b","session_id":"6196c4a33c2742fc592786ee","condition":"contingent","relevant_dimensions":["antennae","legs"],"bee_group":{"antennae":"A","wings":"X","pattern":"X","legs":"M"},"bonus":0.5800000000000007},{"rt":11116,"stimulus":"bees-with-color/bee-B1SF.svg","response":1,"trial_type":"image-button-response","trial_index":41,"time_elapsed":401696,"internal_node_id":"0.0-4.0-0.17","subject_id":"614b413065c09b504a425057","study_id":"60edd13110225f80f9f3709b","session_id":"6196c4a33c2742fc592786ee","condition":"contingent","relevant_dimensions":["antennae","legs"],"bee_group":{"antennae":"A","wings":"X","pattern":"X","legs":"M"},"action":"avoid","summary":"bad-avoid","bonus":0.5800000000000007},{"rt":504,"stimulus":"\n                    <p><b>Action: <em>avoid</em></b></p>\n                    <p>This is the bee that you just saw.</p>\n                    <img src=\"bees-with-color/bee-B1SF.svg\" width=\"200\">\n                    <p><br>Your bonus pay is unchanged, and remains at $0.46.</p>\n            ","response":0,"trial_type":"html-button-response","trial_index":42,"time_elapsed":402202,"internal_node_id":"0.0-4.0-1.17","subject_id":"614b413065c09b504a425057","study_id":"60edd13110225f80f9f3709b","session_id":"6196c4a33c2742fc592786ee","condition":"contingent","relevant_dimensions":["antennae","legs"],"bee_group":{"antennae":"A","wings":"X","pattern":"X","legs":"M"},"bonus":0.5800000000000007},{"rt":4133,"stimulus":"bees-with-color/bee-B2DM.svg","response":0,"trial_type":"image-button-response","trial_index":43,"time_elapsed":406335,"internal_node_id":"0.0-4.0-0.18","subject_id":"614b413065c09b504a425057","study_id":"60edd13110225f80f9f3709b","session_id":"6196c4a33c2742fc592786ee","condition":"contingent","relevant_dimensions":["antennae","legs"],"bee_group":{"antennae":"A","wings":"X","pattern":"X","legs":"M"},"action":"harvest","summary":"good-harvest","bonus":0.5800000000000007},{"rt":12285,"stimulus":"\n                    <p><b>Action: <em>harvest</em></b></p>\n                    <p>This is the bee that you just saw.</p>\n                    <img src=\"bees-with-color/bee-B2DM.svg\" width=\"200\">\n                    <p><span class=\"greenText\"><b>Successful harvest!</b></span><br>Your pay has increased by $0.02. Your bonus pay is now $0.48.</p>\n            ","response":0,"trial_type":"html-button-response","trial_index":44,"time_elapsed":418621,"internal_node_id":"0.0-4.0-1.18","subject_id":"614b413065c09b504a425057","study_id":"60edd13110225f80f9f3709b","session_id":"6196c4a33c2742fc592786ee","condition":"contingent","relevant_dimensions":["antennae","legs"],"bee_group":{"antennae":"A","wings":"X","pattern":"X","legs":"M"},"bonus":0.5800000000000007},{"rt":4494,"stimulus":"bees-with-color/bee-A1DM.svg","response":0,"trial_type":"image-button-response","trial_index":45,"time_elapsed":423115,"internal_node_id":"0.0-4.0-0.19","subject_id":"614b413065c09b504a425057","study_id":"60edd13110225f80f9f3709b","session_id":"6196c4a33c2742fc592786ee","condition":"contingent","relevant_dimensions":["antennae","legs"],"bee_group":{"antennae":"A","wings":"X","pattern":"X","legs":"M"},"action":"harvest","summary":"bad-harvest","bonus":0.5800000000000007},{"rt":8139,"stimulus":"\n                    <p><b>Action: <em>harvest</em></b></p>\n                    <p>This is the bee that you just saw.</p>\n                    <img src=\"bees-with-color/bee-A1DM.svg\" width=\"200\">\n                    <p><span class=\"redText\">Bad choice, the bee was angry.</span><br><b>You have been stung!</b><br>Your pay has been decreased by $0.10. Your bonus pay is now $0.38.</p>\n            ","response":0,"trial_type":"html-button-response","trial_index":46,"time_elapsed":431255,"internal_node_id":"0.0-4.0-1.19","subject_id":"614b413065c09b504a425057","study_id":"60edd13110225f80f9f3709b","session_id":"6196c4a33c2742fc592786ee","condition":"contingent","relevant_dimensions":["antennae","legs"],"bee_group":{"antennae":"A","wings":"X","pattern":"X","legs":"M"},"bonus":0.5800000000000007},{"rt":1756,"stimulus":"bees-with-color/bee-B2DF.svg","response":0,"trial_type":"image-button-response","trial_index":47,"time_elapsed":433011,"internal_node_id":"0.0-4.0-0.20","subject_id":"614b413065c09b504a425057","study_id":"60edd13110225f80f9f3709b","session_id":"6196c4a33c2742fc592786ee","condition":"contingent","relevant_dimensions":["antennae","legs"],"bee_group":{"antennae":"A","wings":"X","pattern":"X","legs":"M"},"action":"harvest","summary":"good-harvest","bonus":0.5800000000000007},{"rt":472,"stimulus":"\n                    <p><b>Action: <em>harvest</em></b></p>\n                    <p>This is the bee that you just saw.</p>\n                    <img src=\"bees-with-color/bee-B2DF.svg\" width=\"200\">\n                    <p><span class=\"greenText\"><b>Successful harvest!</b></span><br>Your pay has increased by $0.02. Your bonus pay is now $0.40.</p>\n            ","response":0,"trial_type":"html-button-response","trial_index":48,"time_elapsed":433484,"internal_node_id":"0.0-4.0-1.20","subject_id":"614b413065c09b504a425057","study_id":"60edd13110225f80f9f3709b","session_id":"6196c4a33c2742fc592786ee","condition":"contingent","relevant_dimensions":["antennae","legs"],"bee_group":{"antennae":"A","wings":"X","pattern":"X","legs":"M"},"bonus":0.5800000000000007},{"rt":2220,"stimulus":"bees-with-color/bee-A1SM.svg","response":1,"trial_type":"image-button-response","trial_index":49,"time_elapsed":435706,"internal_node_id":"0.0-4.0-0.21","subject_id":"614b413065c09b504a425057","study_id":"60edd13110225f80f9f3709b","session_id":"6196c4a33c2742fc592786ee","condition":"contingent","relevant_dimensions":["antennae","legs"],"bee_group":{"antennae":"A","wings":"X","pattern":"X","legs":"M"},"action":"avoid","summary":"good-avoid","bonus":0.5800000000000007},{"rt":478,"stimulus":"\n                    <p><b>Action: <em>avoid</em></b></p>\n                    <p>This is the bee that you just saw.</p>\n                    <img src=\"bees-with-color/bee-A1SM.svg\" width=\"200\">\n                    <p><br>Your bonus pay is unchanged, and remains at $0.40.</p>\n            ","response":0,"trial_type":"html-button-response","trial_index":50,"time_elapsed":436183,"internal_node_id":"0.0-4.0-1.21","subject_id":"614b413065c09b504a425057","study_id":"60edd13110225f80f9f3709b","session_id":"6196c4a33c2742fc592786ee","condition":"contingent","relevant_dimensions":["antennae","legs"],"bee_group":{"antennae":"A","wings":"X","pattern":"X","legs":"M"},"bonus":0.5800000000000007},{"rt":1216,"stimulus":"bees-with-color/bee-A2DF.svg","response":0,"trial_type":"image-button-response","trial_index":51,"time_elapsed":437399,"internal_node_id":"0.0-4.0-0.22","subject_id":"614b413065c09b504a425057","study_id":"60edd13110225f80f9f3709b","session_id":"6196c4a33c2742fc592786ee","condition":"contingent","relevant_dimensions":["antennae","legs"],"bee_group":{"antennae":"A","wings":"X","pattern":"X","legs":"M"},"action":"harvest","summary":"good-harvest","bonus":0.5800000000000007},{"rt":693,"stimulus":"\n                    <p><b>Action: <em>harvest</em></b></p>\n                    <p>This is the bee that you just saw.</p>\n                    <img src=\"bees-with-color/bee-A2DF.svg\" width=\"200\">\n                    <p><span class=\"greenText\"><b>Successful harvest!</b></span><br>Your pay has increased by $0.02. Your bonus pay is now $0.42.</p>\n            ","response":0,"trial_type":"html-button-response","trial_index":52,"time_elapsed":438093,"internal_node_id":"0.0-4.0-1.22","subject_id":"614b413065c09b504a425057","study_id":"60edd13110225f80f9f3709b","session_id":"6196c4a33c2742fc592786ee","condition":"contingent","relevant_dimensions":["antennae","legs"],"bee_group":{"antennae":"A","wings":"X","pattern":"X","legs":"M"},"bonus":0.5800000000000007},{"rt":1369,"stimulus":"bees-with-color/bee-A2SF.svg","response":0,"trial_type":"image-button-response","trial_index":53,"time_elapsed":439463,"internal_node_id":"0.0-4.0-0.23","subject_id":"614b413065c09b504a425057","study_id":"60edd13110225f80f9f3709b","session_id":"6196c4a33c2742fc592786ee","condition":"contingent","relevant_dimensions":["antennae","legs"],"bee_group":{"antennae":"A","wings":"X","pattern":"X","legs":"M"},"action":"harvest","summary":"good-harvest","bonus":0.5800000000000007},{"rt":408,"stimulus":"\n                    <p><b>Action: <em>harvest</em></b></p>\n                    <p>This is the bee that you just saw.</p>\n                    <img src=\"bees-with-color/bee-A2SF.svg\" width=\"200\">\n                    <p><span class=\"greenText\"><b>Successful harvest!</b></span><br>Your pay has increased by $0.02. Your bonus pay is now $0.44.</p>\n            ","response":0,"trial_type":"html-button-response","trial_index":54,"time_elapsed":439871,"internal_node_id":"0.0-4.0-1.23","subject_id":"614b413065c09b504a425057","study_id":"60edd13110225f80f9f3709b","session_id":"6196c4a33c2742fc592786ee","condition":"contingent","relevant_dimensions":["antennae","legs"],"bee_group":{"antennae":"A","wings":"X","pattern":"X","legs":"M"},"bonus":0.5800000000000007},{"rt":1589,"stimulus":"bees-with-color/bee-A1SF.svg","response":1,"trial_type":"image-button-response","trial_index":55,"time_elapsed":441461,"internal_node_id":"0.0-4.0-0.24","subject_id":"614b413065c09b504a425057","study_id":"60edd13110225f80f9f3709b","session_id":"6196c4a33c2742fc592786ee","condition":"contingent","relevant_dimensions":["antennae","legs"],"bee_group":{"antennae":"A","wings":"X","pattern":"X","legs":"M"},"action":"avoid","summary":"bad-avoid","bonus":0.5800000000000007},{"rt":407,"stimulus":"\n                    <p><b>Action: <em>avoid</em></b></p>\n                    <p>This is the bee that you just saw.</p>\n                    <img src=\"bees-with-color/bee-A1SF.svg\" width=\"200\">\n                    <p><br>Your bonus pay is unchanged, and remains at $0.44.</p>\n            ","response":0,"trial_type":"html-button-response","trial_index":56,"time_elapsed":441868,"internal_node_id":"0.0-4.0-1.24","subject_id":"614b413065c09b504a425057","study_id":"60edd13110225f80f9f3709b","session_id":"6196c4a33c2742fc592786ee","condition":"contingent","relevant_dimensions":["antennae","legs"],"bee_group":{"antennae":"A","wings":"X","pattern":"X","legs":"M"},"bonus":0.5800000000000007},{"rt":1289,"stimulus":"bees-with-color/bee-B2SF.svg","response":0,"trial_type":"image-button-response","trial_index":57,"time_elapsed":443158,"internal_node_id":"0.0-4.0-0.25","subject_id":"614b413065c09b504a425057","study_id":"60edd13110225f80f9f3709b","session_id":"6196c4a33c2742fc592786ee","condition":"contingent","relevant_dimensions":["antennae","legs"],"bee_group":{"antennae":"A","wings":"X","pattern":"X","legs":"M"},"action":"harvest","summary":"good-harvest","bonus":0.5800000000000007},{"rt":484,"stimulus":"\n                    <p><b>Action: <em>harvest</em></b></p>\n                    <p>This is the bee that you just saw.</p>\n                    <img src=\"bees-with-color/bee-B2SF.svg\" width=\"200\">\n                    <p><span class=\"greenText\"><b>Successful harvest!</b></span><br>Your pay has increased by $0.02. Your bonus pay is now $0.46.</p>\n            ","response":0,"trial_type":"html-button-response","trial_index":58,"time_elapsed":443642,"internal_node_id":"0.0-4.0-1.25","subject_id":"614b413065c09b504a425057","study_id":"60edd13110225f80f9f3709b","session_id":"6196c4a33c2742fc592786ee","condition":"contingent","relevant_dimensions":["antennae","legs"],"bee_group":{"antennae":"A","wings":"X","pattern":"X","legs":"M"},"bonus":0.5800000000000007},{"rt":1201,"stimulus":"bees-with-color/bee-A2DM.svg","response":1,"trial_type":"image-button-response","trial_index":59,"time_elapsed":444843,"internal_node_id":"0.0-4.0-0.26","subject_id":"614b413065c09b504a425057","study_id":"60edd13110225f80f9f3709b","session_id":"6196c4a33c2742fc592786ee","condition":"contingent","relevant_dimensions":["antennae","legs"],"bee_group":{"antennae":"A","wings":"X","pattern":"X","legs":"M"},"action":"avoid","summary":"good-avoid","bonus":0.5800000000000007},{"rt":438,"stimulus":"\n                    <p><b>Action: <em>avoid</em></b></p>\n                    <p>This is the bee that you just saw.</p>\n                    <img src=\"bees-with-color/bee-A2DM.svg\" width=\"200\">\n                    <p><br>Your bonus pay is unchanged, and remains at $0.46.</p>\n            ","response":0,"trial_type":"html-button-response","trial_index":60,"time_elapsed":445283,"internal_node_id":"0.0-4.0-1.26","subject_id":"614b413065c09b504a425057","study_id":"60edd13110225f80f9f3709b","session_id":"6196c4a33c2742fc592786ee","condition":"contingent","relevant_dimensions":["antennae","legs"],"bee_group":{"antennae":"A","wings":"X","pattern":"X","legs":"M"},"bonus":0.5800000000000007},{"rt":1481,"stimulus":"bees-with-color/bee-B1DF.svg","response":1,"trial_type":"image-button-response","trial_index":61,"time_elapsed":446765,"internal_node_id":"0.0-4.0-0.27","subject_id":"614b413065c09b504a425057","study_id":"60edd13110225f80f9f3709b","session_id":"6196c4a33c2742fc592786ee","condition":"contingent","relevant_dimensions":["antennae","legs"],"bee_group":{"antennae":"A","wings":"X","pattern":"X","legs":"M"},"action":"avoid","summary":"bad-avoid","bonus":0.5800000000000007},{"rt":411,"stimulus":"\n                    <p><b>Action: <em>avoid</em></b></p>\n                    <p>This is the bee that you just saw.</p>\n                    <img src=\"bees-with-color/bee-B1DF.svg\" width=\"200\">\n                    <p><br>Your bonus pay is unchanged, and remains at $0.46.</p>\n            ","response":0,"trial_type":"html-button-response","trial_index":62,"time_elapsed":447177,"internal_node_id":"0.0-4.0-1.27","subject_id":"614b413065c09b504a425057","study_id":"60edd13110225f80f9f3709b","session_id":"6196c4a33c2742fc592786ee","condition":"contingent","relevant_dimensions":["antennae","legs"],"bee_group":{"antennae":"A","wings":"X","pattern":"X","legs":"M"},"bonus":0.5800000000000007},{"rt":2379,"stimulus":"bees-with-color/bee-B1DM.svg","response":1,"trial_type":"image-button-response","trial_index":63,"time_elapsed":449557,"internal_node_id":"0.0-4.0-0.28","subject_id":"614b413065c09b504a425057","study_id":"60edd13110225f80f9f3709b","session_id":"6196c4a33c2742fc592786ee","condition":"contingent","relevant_dimensions":["antennae","legs"],"bee_group":{"antennae":"A","wings":"X","pattern":"X","legs":"M"},"action":"avoid","summary":"bad-avoid","bonus":0.5800000000000007},{"rt":1427,"stimulus":"\n                    <p><b>Action: <em>avoid</em></b></p>\n                    <p>This is the bee that you just saw.</p>\n                    <img src=\"bees-with-color/bee-B1DM.svg\" width=\"200\">\n                    <p><br>Your bonus pay is unchanged, and remains at $0.46.</p>\n            ","response":0,"trial_type":"html-button-response","trial_index":64,"time_elapsed":450984,"internal_node_id":"0.0-4.0-1.28","subject_id":"614b413065c09b504a425057","study_id":"60edd13110225f80f9f3709b","session_id":"6196c4a33c2742fc592786ee","condition":"contingent","relevant_dimensions":["antennae","legs"],"bee_group":{"antennae":"A","wings":"X","pattern":"X","legs":"M"},"bonus":0.5800000000000007},{"rt":13648,"stimulus":"bees-with-color/bee-B1SM.svg","response":1,"trial_type":"image-button-response","trial_index":65,"time_elapsed":464634,"internal_node_id":"0.0-4.0-0.29","subject_id":"614b413065c09b504a425057","study_id":"60edd13110225f80f9f3709b","session_id":"6196c4a33c2742fc592786ee","condition":"contingent","relevant_dimensions":["antennae","legs"],"bee_group":{"antennae":"A","wings":"X","pattern":"X","legs":"M"},"action":"avoid","summary":"bad-avoid","bonus":0.5800000000000007},{"rt":542,"stimulus":"\n                    <p><b>Action: <em>avoid</em></b></p>\n                    <p>This is the bee that you just saw.</p>\n                    <img src=\"bees-with-color/bee-B1SM.svg\" width=\"200\">\n                    <p><br>Your bonus pay is unchanged, and remains at $0.46.</p>\n            ","response":0,"trial_type":"html-button-response","trial_index":66,"time_elapsed":465177,"internal_node_id":"0.0-4.0-1.29","subject_id":"614b413065c09b504a425057","study_id":"60edd13110225f80f9f3709b","session_id":"6196c4a33c2742fc592786ee","condition":"contingent","relevant_dimensions":["antennae","legs"],"bee_group":{"antennae":"A","wings":"X","pattern":"X","legs":"M"},"bonus":0.5800000000000007},{"rt":16853,"stimulus":"bees-with-color/bee-A2SM.svg","response":1,"trial_type":"image-button-response","trial_index":67,"time_elapsed":482031,"internal_node_id":"0.0-4.0-0.30","subject_id":"614b413065c09b504a425057","study_id":"60edd13110225f80f9f3709b","session_id":"6196c4a33c2742fc592786ee","condition":"contingent","relevant_dimensions":["antennae","legs"],"bee_group":{"antennae":"A","wings":"X","pattern":"X","legs":"M"},"action":"avoid","summary":"good-avoid","bonus":0.5800000000000007},{"rt":619,"stimulus":"\n                    <p><b>Action: <em>avoid</em></b></p>\n                    <p>This is the bee that you just saw.</p>\n                    <img src=\"bees-with-color/bee-A2SM.svg\" width=\"200\">\n                    <p><br>Your bonus pay is unchanged, and remains at $0.46.</p>\n            ","response":0,"trial_type":"html-button-response","trial_index":68,"time_elapsed":482652,"internal_node_id":"0.0-4.0-1.30","subject_id":"614b413065c09b504a425057","study_id":"60edd13110225f80f9f3709b","session_id":"6196c4a33c2742fc592786ee","condition":"contingent","relevant_dimensions":["antennae","legs"],"bee_group":{"antennae":"A","wings":"X","pattern":"X","legs":"M"},"bonus":0.5800000000000007},{"rt":25737,"stimulus":"bees-with-color/bee-A1DF.svg","response":1,"trial_type":"image-button-response","trial_index":69,"time_elapsed":508389,"internal_node_id":"0.0-4.0-0.31","subject_id":"614b413065c09b504a425057","study_id":"60edd13110225f80f9f3709b","session_id":"6196c4a33c2742fc592786ee","condition":"contingent","relevant_dimensions":["antennae","legs"],"bee_group":{"antennae":"A","wings":"X","pattern":"X","legs":"M"},"action":"avoid","summary":"bad-avoid","bonus":0.5800000000000007},{"rt":796,"stimulus":"\n                    <p><b>Action: <em>avoid</em></b></p>\n                    <p>This is the bee that you just saw.</p>\n                    <img src=\"bees-with-color/bee-A1DF.svg\" width=\"200\">\n                    <p><br>Your bonus pay is unchanged, and remains at $0.46.</p>\n            ","response":0,"trial_type":"html-button-response","trial_index":70,"time_elapsed":509186,"internal_node_id":"0.0-4.0-1.31","subject_id":"614b413065c09b504a425057","study_id":"60edd13110225f80f9f3709b","session_id":"6196c4a33c2742fc592786ee","condition":"contingent","relevant_dimensions":["antennae","legs"],"bee_group":{"antennae":"A","wings":"X","pattern":"X","legs":"M"},"bonus":0.5800000000000007},{"rt":1586,"stimulus":"bees-with-color/bee-A2DF.svg","response":0,"trial_type":"image-button-response","trial_index":71,"time_elapsed":510773,"internal_node_id":"0.0-4.0-0.32","subject_id":"614b413065c09b504a425057","study_id":"60edd13110225f80f9f3709b","session_id":"6196c4a33c2742fc592786ee","condition":"contingent","relevant_dimensions":["antennae","legs"],"bee_group":{"antennae":"A","wings":"X","pattern":"X","legs":"M"},"action":"harvest","summary":"good-harvest","bonus":0.5800000000000007},{"rt":704,"stimulus":"\n                    <p><b>Action: <em>harvest</em></b></p>\n                    <p>This is the bee that you just saw.</p>\n                    <img src=\"bees-with-color/bee-A2DF.svg\" width=\"200\">\n                    <p><span class=\"greenText\"><b>Successful harvest!</b></span><br>Your pay has increased by $0.02. Your bonus pay is now $0.48.</p>\n            ","response":0,"trial_type":"html-button-response","trial_index":72,"time_elapsed":511478,"internal_node_id":"0.0-4.0-1.32","subject_id":"614b413065c09b504a425057","study_id":"60edd13110225f80f9f3709b","session_id":"6196c4a33c2742fc592786ee","condition":"contingent","relevant_dimensions":["antennae","legs"],"bee_group":{"antennae":"A","wings":"X","pattern":"X","legs":"M"},"bonus":0.5800000000000007},{"rt":1821,"stimulus":"bees-with-color/bee-B1SF.svg","response":1,"trial_type":"image-button-response","trial_index":73,"time_elapsed":513298,"internal_node_id":"0.0-4.0-0.33","subject_id":"614b413065c09b504a425057","study_id":"60edd13110225f80f9f3709b","session_id":"6196c4a33c2742fc592786ee","condition":"contingent","relevant_dimensions":["antennae","legs"],"bee_group":{"antennae":"A","wings":"X","pattern":"X","legs":"M"},"action":"avoid","summary":"bad-avoid","bonus":0.5800000000000007},{"rt":475,"stimulus":"\n                    <p><b>Action: <em>avoid</em></b></p>\n                    <p>This is the bee that you just saw.</p>\n                    <img src=\"bees-with-color/bee-B1SF.svg\" width=\"200\">\n                    <p><br>Your bonus pay is unchanged, and remains at $0.48.</p>\n            ","response":0,"trial_type":"html-button-response","trial_index":74,"time_elapsed":513775,"internal_node_id":"0.0-4.0-1.33","subject_id":"614b413065c09b504a425057","study_id":"60edd13110225f80f9f3709b","session_id":"6196c4a33c2742fc592786ee","condition":"contingent","relevant_dimensions":["antennae","legs"],"bee_group":{"antennae":"A","wings":"X","pattern":"X","legs":"M"},"bonus":0.5800000000000007},{"rt":9088,"stimulus":"bees-with-color/bee-A1DF.svg","response":1,"trial_type":"image-button-response","trial_index":75,"time_elapsed":522863,"internal_node_id":"0.0-4.0-0.34","subject_id":"614b413065c09b504a425057","study_id":"60edd13110225f80f9f3709b","session_id":"6196c4a33c2742fc592786ee","condition":"contingent","relevant_dimensions":["antennae","legs"],"bee_group":{"antennae":"A","wings":"X","pattern":"X","legs":"M"},"action":"avoid","summary":"bad-avoid","bonus":0.5800000000000007},{"rt":849,"stimulus":"\n                    <p><b>Action: <em>avoid</em></b></p>\n                    <p>This is the bee that you just saw.</p>\n                    <img src=\"bees-with-color/bee-A1DF.svg\" width=\"200\">\n                    <p><br>Your bonus pay is unchanged, and remains at $0.48.</p>\n            ","response":0,"trial_type":"html-button-response","trial_index":76,"time_elapsed":523714,"internal_node_id":"0.0-4.0-1.34","subject_id":"614b413065c09b504a425057","study_id":"60edd13110225f80f9f3709b","session_id":"6196c4a33c2742fc592786ee","condition":"contingent","relevant_dimensions":["antennae","legs"],"bee_group":{"antennae":"A","wings":"X","pattern":"X","legs":"M"},"bonus":0.5800000000000007},{"rt":1798,"stimulus":"bees-with-color/bee-B2DM.svg","response":1,"trial_type":"image-button-response","trial_index":77,"time_elapsed":525513,"internal_node_id":"0.0-4.0-0.35","subject_id":"614b413065c09b504a425057","study_id":"60edd13110225f80f9f3709b","session_id":"6196c4a33c2742fc592786ee","condition":"contingent","relevant_dimensions":["antennae","legs"],"bee_group":{"antennae":"A","wings":"X","pattern":"X","legs":"M"},"action":"avoid","summary":"bad-avoid","bonus":0.5800000000000007},{"rt":556,"stimulus":"\n                    <p><b>Action: <em>avoid</em></b></p>\n                    <p>This is the bee that you just saw.</p>\n                    <img src=\"bees-with-color/bee-B2DM.svg\" width=\"200\">\n                    <p><br>Your bonus pay is unchanged, and remains at $0.48.</p>\n            ","response":0,"trial_type":"html-button-response","trial_index":78,"time_elapsed":526069,"internal_node_id":"0.0-4.0-1.35","subject_id":"614b413065c09b504a425057","study_id":"60edd13110225f80f9f3709b","session_id":"6196c4a33c2742fc592786ee","condition":"contingent","relevant_dimensions":["antennae","legs"],"bee_group":{"antennae":"A","wings":"X","pattern":"X","legs":"M"},"bonus":0.5800000000000007},{"rt":2234,"stimulus":"bees-with-color/bee-A2DM.svg","response":1,"trial_type":"image-button-response","trial_index":79,"time_elapsed":528303,"internal_node_id":"0.0-4.0-0.36","subject_id":"614b413065c09b504a425057","study_id":"60edd13110225f80f9f3709b","session_id":"6196c4a33c2742fc592786ee","condition":"contingent","relevant_dimensions":["antennae","legs"],"bee_group":{"antennae":"A","wings":"X","pattern":"X","legs":"M"},"action":"avoid","summary":"good-avoid","bonus":0.5800000000000007},{"rt":487,"stimulus":"\n                    <p><b>Action: <em>avoid</em></b></p>\n                    <p>This is the bee that you just saw.</p>\n                    <img src=\"bees-with-color/bee-A2DM.svg\" width=\"200\">\n                    <p><br>Your bonus pay is unchanged, and remains at $0.48.</p>\n            ","response":0,"trial_type":"html-button-response","trial_index":80,"time_elapsed":528791,"internal_node_id":"0.0-4.0-1.36","subject_id":"614b413065c09b504a425057","study_id":"60edd13110225f80f9f3709b","session_id":"6196c4a33c2742fc592786ee","condition":"contingent","relevant_dimensions":["antennae","legs"],"bee_group":{"antennae":"A","wings":"X","pattern":"X","legs":"M"},"bonus":0.5800000000000007},{"rt":1600,"stimulus":"bees-with-color/bee-B1DM.svg","response":1,"trial_type":"image-button-response","trial_index":81,"time_elapsed":530391,"internal_node_id":"0.0-4.0-0.37","subject_id":"614b413065c09b504a425057","study_id":"60edd13110225f80f9f3709b","session_id":"6196c4a33c2742fc592786ee","condition":"contingent","relevant_dimensions":["antennae","legs"],"bee_group":{"antennae":"A","wings":"X","pattern":"X","legs":"M"},"action":"avoid","summary":"bad-avoid","bonus":0.5800000000000007},{"rt":343,"stimulus":"\n                    <p><b>Action: <em>avoid</em></b></p>\n                    <p>This is the bee that you just saw.</p>\n                    <img src=\"bees-with-color/bee-B1DM.svg\" width=\"200\">\n                    <p><br>Your bonus pay is unchanged, and remains at $0.48.</p>\n            ","response":0,"trial_type":"html-button-response","trial_index":82,"time_elapsed":530735,"internal_node_id":"0.0-4.0-1.37","subject_id":"614b413065c09b504a425057","study_id":"60edd13110225f80f9f3709b","session_id":"6196c4a33c2742fc592786ee","condition":"contingent","relevant_dimensions":["antennae","legs"],"bee_group":{"antennae":"A","wings":"X","pattern":"X","legs":"M"},"bonus":0.5800000000000007},{"rt":1693,"stimulus":"bees-with-color/bee-A2SM.svg","response":1,"trial_type":"image-button-response","trial_index":83,"time_elapsed":532429,"internal_node_id":"0.0-4.0-0.38","subject_id":"614b413065c09b504a425057","study_id":"60edd13110225f80f9f3709b","session_id":"6196c4a33c2742fc592786ee","condition":"contingent","relevant_dimensions":["antennae","legs"],"bee_group":{"antennae":"A","wings":"X","pattern":"X","legs":"M"},"action":"avoid","summary":"good-avoid","bonus":0.5800000000000007},{"rt":296,"stimulus":"\n                    <p><b>Action: <em>avoid</em></b></p>\n                    <p>This is the bee that you just saw.</p>\n                    <img src=\"bees-with-color/bee-A2SM.svg\" width=\"200\">\n                    <p><br>Your bonus pay is unchanged, and remains at $0.48.</p>\n            ","response":0,"trial_type":"html-button-response","trial_index":84,"time_elapsed":532726,"internal_node_id":"0.0-4.0-1.38","subject_id":"614b413065c09b504a425057","study_id":"60edd13110225f80f9f3709b","session_id":"6196c4a33c2742fc592786ee","condition":"contingent","relevant_dimensions":["antennae","legs"],"bee_group":{"antennae":"A","wings":"X","pattern":"X","legs":"M"},"bonus":0.5800000000000007},{"rt":1217,"stimulus":"bees-with-color/bee-A2SF.svg","response":0,"trial_type":"image-button-response","trial_index":85,"time_elapsed":533943,"internal_node_id":"0.0-4.0-0.39","subject_id":"614b413065c09b504a425057","study_id":"60edd13110225f80f9f3709b","session_id":"6196c4a33c2742fc592786ee","condition":"contingent","relevant_dimensions":["antennae","legs"],"bee_group":{"antennae":"A","wings":"X","pattern":"X","legs":"M"},"action":"harvest","summary":"good-harvest","bonus":0.5800000000000007},{"rt":742,"stimulus":"\n                    <p><b>Action: <em>harvest</em></b></p>\n                    <p>This is the bee that you just saw.</p>\n                    <img src=\"bees-with-color/bee-A2SF.svg\" width=\"200\">\n                    <p><span class=\"greenText\"><b>Successful harvest!</b></span><br>Your pay has increased by $0.02. Your bonus pay is now $0.50.</p>\n            ","response":0,"trial_type":"html-button-response","trial_index":86,"time_elapsed":534686,"internal_node_id":"0.0-4.0-1.39","subject_id":"614b413065c09b504a425057","study_id":"60edd13110225f80f9f3709b","session_id":"6196c4a33c2742fc592786ee","condition":"contingent","relevant_dimensions":["antennae","legs"],"bee_group":{"antennae":"A","wings":"X","pattern":"X","legs":"M"},"bonus":0.5800000000000007},{"rt":6692,"stimulus":"bees-with-color/bee-B2SM.svg","response":1,"trial_type":"image-button-response","trial_index":87,"time_elapsed":541379,"internal_node_id":"0.0-4.0-0.40","subject_id":"614b413065c09b504a425057","study_id":"60edd13110225f80f9f3709b","session_id":"6196c4a33c2742fc592786ee","condition":"contingent","relevant_dimensions":["antennae","legs"],"bee_group":{"antennae":"A","wings":"X","pattern":"X","legs":"M"},"action":"avoid","summary":"bad-avoid","bonus":0.5800000000000007},{"rt":1298,"stimulus":"\n                    <p><b>Action: <em>avoid</em></b></p>\n                    <p>This is the bee that you just saw.</p>\n                    <img src=\"bees-with-color/bee-B2SM.svg\" width=\"200\">\n                    <p><br>Your bonus pay is unchanged, and remains at $0.50.</p>\n            ","response":0,"trial_type":"html-button-response","trial_index":88,"time_elapsed":542678,"internal_node_id":"0.0-4.0-1.40","subject_id":"614b413065c09b504a425057","study_id":"60edd13110225f80f9f3709b","session_id":"6196c4a33c2742fc592786ee","condition":"contingent","relevant_dimensions":["antennae","legs"],"bee_group":{"antennae":"A","wings":"X","pattern":"X","legs":"M"},"bonus":0.5800000000000007},{"rt":1208,"stimulus":"bees-with-color/bee-B1DF.svg","response":1,"trial_type":"image-button-response","trial_index":89,"time_elapsed":543887,"internal_node_id":"0.0-4.0-0.41","subject_id":"614b413065c09b504a425057","study_id":"60edd13110225f80f9f3709b","session_id":"6196c4a33c2742fc592786ee","condition":"contingent","relevant_dimensions":["antennae","legs"],"bee_group":{"antennae":"A","wings":"X","pattern":"X","legs":"M"},"action":"avoid","summary":"bad-avoid","bonus":0.5800000000000007},{"rt":374,"stimulus":"\n                    <p><b>Action: <em>avoid</em></b></p>\n                    <p>This is the bee that you just saw.</p>\n                    <img src=\"bees-with-color/bee-B1DF.svg\" width=\"200\">\n                    <p><br>Your bonus pay is unchanged, and remains at $0.50.</p>\n            ","response":0,"trial_type":"html-button-response","trial_index":90,"time_elapsed":544262,"internal_node_id":"0.0-4.0-1.41","subject_id":"614b413065c09b504a425057","study_id":"60edd13110225f80f9f3709b","session_id":"6196c4a33c2742fc592786ee","condition":"contingent","relevant_dimensions":["antennae","legs"],"bee_group":{"antennae":"A","wings":"X","pattern":"X","legs":"M"},"bonus":0.5800000000000007},{"rt":2336,"stimulus":"bees-with-color/bee-B1SM.svg","response":1,"trial_type":"image-button-response","trial_index":91,"time_elapsed":546599,"internal_node_id":"0.0-4.0-0.42","subject_id":"614b413065c09b504a425057","study_id":"60edd13110225f80f9f3709b","session_id":"6196c4a33c2742fc592786ee","condition":"contingent","relevant_dimensions":["antennae","legs"],"bee_group":{"antennae":"A","wings":"X","pattern":"X","legs":"M"},"action":"avoid","summary":"bad-avoid","bonus":0.5800000000000007},{"rt":338,"stimulus":"\n                    <p><b>Action: <em>avoid</em></b></p>\n                    <p>This is the bee that you just saw.</p>\n                    <img src=\"bees-with-color/bee-B1SM.svg\" width=\"200\">\n                    <p><br>Your bonus pay is unchanged, and remains at $0.50.</p>\n            ","response":0,"trial_type":"html-button-response","trial_index":92,"time_elapsed":546937,"internal_node_id":"0.0-4.0-1.42","subject_id":"614b413065c09b504a425057","study_id":"60edd13110225f80f9f3709b","session_id":"6196c4a33c2742fc592786ee","condition":"contingent","relevant_dimensions":["antennae","legs"],"bee_group":{"antennae":"A","wings":"X","pattern":"X","legs":"M"},"bonus":0.5800000000000007},{"rt":1541,"stimulus":"bees-with-color/bee-B2DF.svg","response":0,"trial_type":"image-button-response","trial_index":93,"time_elapsed":548479,"internal_node_id":"0.0-4.0-0.43","subject_id":"614b413065c09b504a425057","study_id":"60edd13110225f80f9f3709b","session_id":"6196c4a33c2742fc592786ee","condition":"contingent","relevant_dimensions":["antennae","legs"],"bee_group":{"antennae":"A","wings":"X","pattern":"X","legs":"M"},"action":"harvest","summary":"good-harvest","bonus":0.5800000000000007},{"rt":598,"stimulus":"\n                    <p><b>Action: <em>harvest</em></b></p>\n                    <p>This is the bee that you just saw.</p>\n                    <img src=\"bees-with-color/bee-B2DF.svg\" width=\"200\">\n                    <p><span class=\"greenText\"><b>Successful harvest!</b></span><br>Your pay has increased by $0.02. Your bonus pay is now $0.52.</p>\n            ","response":0,"trial_type":"html-button-response","trial_index":94,"time_elapsed":549078,"internal_node_id":"0.0-4.0-1.43","subject_id":"614b413065c09b504a425057","study_id":"60edd13110225f80f9f3709b","session_id":"6196c4a33c2742fc592786ee","condition":"contingent","relevant_dimensions":["antennae","legs"],"bee_group":{"antennae":"A","wings":"X","pattern":"X","legs":"M"},"bonus":0.5800000000000007},{"rt":1932,"stimulus":"bees-with-color/bee-A1SF.svg","response":1,"trial_type":"image-button-response","trial_index":95,"time_elapsed":551011,"internal_node_id":"0.0-4.0-0.44","subject_id":"614b413065c09b504a425057","study_id":"60edd13110225f80f9f3709b","session_id":"6196c4a33c2742fc592786ee","condition":"contingent","relevant_dimensions":["antennae","legs"],"bee_group":{"antennae":"A","wings":"X","pattern":"X","legs":"M"},"action":"avoid","summary":"bad-avoid","bonus":0.5800000000000007},{"rt":779,"stimulus":"\n                    <p><b>Action: <em>avoid</em></b></p>\n                    <p>This is the bee that you just saw.</p>\n                    <img src=\"bees-with-color/bee-A1SF.svg\" width=\"200\">\n                    <p><br>Your bonus pay is unchanged, and remains at $0.52.</p>\n            ","response":0,"trial_type":"html-button-response","trial_index":96,"time_elapsed":551790,"internal_node_id":"0.0-4.0-1.44","subject_id":"614b413065c09b504a425057","study_id":"60edd13110225f80f9f3709b","session_id":"6196c4a33c2742fc592786ee","condition":"contingent","relevant_dimensions":["antennae","legs"],"bee_group":{"antennae":"A","wings":"X","pattern":"X","legs":"M"},"bonus":0.5800000000000007},{"rt":1877,"stimulus":"bees-with-color/bee-A1SM.svg","response":1,"trial_type":"image-button-response","trial_index":97,"time_elapsed":553668,"internal_node_id":"0.0-4.0-0.45","subject_id":"614b413065c09b504a425057","study_id":"60edd13110225f80f9f3709b","session_id":"6196c4a33c2742fc592786ee","condition":"contingent","relevant_dimensions":["antennae","legs"],"bee_group":{"antennae":"A","wings":"X","pattern":"X","legs":"M"},"action":"avoid","summary":"good-avoid","bonus":0.5800000000000007},{"rt":496,"stimulus":"\n                    <p><b>Action: <em>avoid</em></b></p>\n                    <p>This is the bee that you just saw.</p>\n                    <img src=\"bees-with-color/bee-A1SM.svg\" width=\"200\">\n                    <p><br>Your bonus pay is unchanged, and remains at $0.52.</p>\n            ","response":0,"trial_type":"html-button-response","trial_index":98,"time_elapsed":554165,"internal_node_id":"0.0-4.0-1.45","subject_id":"614b413065c09b504a425057","study_id":"60edd13110225f80f9f3709b","session_id":"6196c4a33c2742fc592786ee","condition":"contingent","relevant_dimensions":["antennae","legs"],"bee_group":{"antennae":"A","wings":"X","pattern":"X","legs":"M"},"bonus":0.5800000000000007},{"rt":1816,"stimulus":"bees-with-color/bee-A1DM.svg","response":1,"trial_type":"image-button-response","trial_index":99,"time_elapsed":555981,"internal_node_id":"0.0-4.0-0.46","subject_id":"614b413065c09b504a425057","study_id":"60edd13110225f80f9f3709b","session_id":"6196c4a33c2742fc592786ee","condition":"contingent","relevant_dimensions":["antennae","legs"],"bee_group":{"antennae":"A","wings":"X","pattern":"X","legs":"M"},"action":"avoid","summary":"good-avoid","bonus":0.5800000000000007},{"rt":356,"stimulus":"\n                    <p><b>Action: <em>avoid</em></b></p>\n                    <p>This is the bee that you just saw.</p>\n                    <img src=\"bees-with-color/bee-A1DM.svg\" width=\"200\">\n                    <p><br>Your bonus pay is unchanged, and remains at $0.52.</p>\n            ","response":0,"trial_type":"html-button-response","trial_index":100,"time_elapsed":556339,"internal_node_id":"0.0-4.0-1.46","subject_id":"614b413065c09b504a425057","study_id":"60edd13110225f80f9f3709b","session_id":"6196c4a33c2742fc592786ee","condition":"contingent","relevant_dimensions":["antennae","legs"],"bee_group":{"antennae":"A","wings":"X","pattern":"X","legs":"M"},"bonus":0.5800000000000007},{"rt":1404,"stimulus":"bees-with-color/bee-B2SF.svg","response":0,"trial_type":"image-button-response","trial_index":101,"time_elapsed":557744,"internal_node_id":"0.0-4.0-0.47","subject_id":"614b413065c09b504a425057","study_id":"60edd13110225f80f9f3709b","session_id":"6196c4a33c2742fc592786ee","condition":"contingent","relevant_dimensions":["antennae","legs"],"bee_group":{"antennae":"A","wings":"X","pattern":"X","legs":"M"},"action":"harvest","summary":"good-harvest","bonus":0.5800000000000007},{"rt":558,"stimulus":"\n                    <p><b>Action: <em>harvest</em></b></p>\n                    <p>This is the bee that you just saw.</p>\n                    <img src=\"bees-with-color/bee-B2SF.svg\" width=\"200\">\n                    <p><span class=\"greenText\"><b>Successful harvest!</b></span><br>Your pay has increased by $0.02. Your bonus pay is now $0.54.</p>\n            ","response":0,"trial_type":"html-button-response","trial_index":102,"time_elapsed":558302,"internal_node_id":"0.0-4.0-1.47","subject_id":"614b413065c09b504a425057","study_id":"60edd13110225f80f9f3709b","session_id":"6196c4a33c2742fc592786ee","condition":"contingent","relevant_dimensions":["antennae","legs"],"bee_group":{"antennae":"A","wings":"X","pattern":"X","legs":"M"},"bonus":0.5800000000000007},{"rt":2733,"stimulus":"bees-with-color/bee-A2DF.svg","response":0,"trial_type":"image-button-response","trial_index":103,"time_elapsed":561036,"internal_node_id":"0.0-4.0-0.48","subject_id":"614b413065c09b504a425057","study_id":"60edd13110225f80f9f3709b","session_id":"6196c4a33c2742fc592786ee","condition":"contingent","relevant_dimensions":["antennae","legs"],"bee_group":{"antennae":"A","wings":"X","pattern":"X","legs":"M"},"action":"harvest","summary":"good-harvest","bonus":0.5800000000000007},{"rt":762,"stimulus":"\n                    <p><b>Action: <em>harvest</em></b></p>\n                    <p>This is the bee that you just saw.</p>\n                    <img src=\"bees-with-color/bee-A2DF.svg\" width=\"200\">\n                    <p><span class=\"greenText\"><b>Successful harvest!</b></span><br>Your pay has increased by $0.02. Your bonus pay is now $0.56.</p>\n            ","response":0,"trial_type":"html-button-response","trial_index":104,"time_elapsed":561798,"internal_node_id":"0.0-4.0-1.48","subject_id":"614b413065c09b504a425057","study_id":"60edd13110225f80f9f3709b","session_id":"6196c4a33c2742fc592786ee","condition":"contingent","relevant_dimensions":["antennae","legs"],"bee_group":{"antennae":"A","wings":"X","pattern":"X","legs":"M"},"bonus":0.5800000000000007},{"rt":1743,"stimulus":"bees-with-color/bee-A2SM.svg","response":1,"trial_type":"image-button-response","trial_index":105,"time_elapsed":563541,"internal_node_id":"0.0-4.0-0.49","subject_id":"614b413065c09b504a425057","study_id":"60edd13110225f80f9f3709b","session_id":"6196c4a33c2742fc592786ee","condition":"contingent","relevant_dimensions":["antennae","legs"],"bee_group":{"antennae":"A","wings":"X","pattern":"X","legs":"M"},"action":"avoid","summary":"good-avoid","bonus":0.5800000000000007},{"rt":605,"stimulus":"\n                    <p><b>Action: <em>avoid</em></b></p>\n                    <p>This is the bee that you just saw.</p>\n                    <img src=\"bees-with-color/bee-A2SM.svg\" width=\"200\">\n                    <p><br>Your bonus pay is unchanged, and remains at $0.56.</p>\n            ","response":0,"trial_type":"html-button-response","trial_index":106,"time_elapsed":564146,"internal_node_id":"0.0-4.0-1.49","subject_id":"614b413065c09b504a425057","study_id":"60edd13110225f80f9f3709b","session_id":"6196c4a33c2742fc592786ee","condition":"contingent","relevant_dimensions":["antennae","legs"],"bee_group":{"antennae":"A","wings":"X","pattern":"X","legs":"M"},"bonus":0.5800000000000007},{"rt":1530,"stimulus":"bees-with-color/bee-A2SF.svg","response":0,"trial_type":"image-button-response","trial_index":107,"time_elapsed":565677,"internal_node_id":"0.0-4.0-0.50","subject_id":"614b413065c09b504a425057","study_id":"60edd13110225f80f9f3709b","session_id":"6196c4a33c2742fc592786ee","condition":"contingent","relevant_dimensions":["antennae","legs"],"bee_group":{"antennae":"A","wings":"X","pattern":"X","legs":"M"},"action":"harvest","summary":"good-harvest","bonus":0.5800000000000007},{"rt":575,"stimulus":"\n                    <p><b>Action: <em>harvest</em></b></p>\n                    <p>This is the bee that you just saw.</p>\n                    <img src=\"bees-with-color/bee-A2SF.svg\" width=\"200\">\n                    <p><span class=\"greenText\"><b>Successful harvest!</b></span><br>Your pay has increased by $0.02. Your bonus pay is now $0.58.</p>\n            ","response":0,"trial_type":"html-button-response","trial_index":108,"time_elapsed":566252,"internal_node_id":"0.0-4.0-1.50","subject_id":"614b413065c09b504a425057","study_id":"60edd13110225f80f9f3709b","session_id":"6196c4a33c2742fc592786ee","condition":"contingent","relevant_dimensions":["antennae","legs"],"bee_group":{"antennae":"A","wings":"X","pattern":"X","legs":"M"},"bonus":0.5800000000000007},{"rt":1779,"stimulus":"bees-with-color/bee-B2DF.svg","response":0,"trial_type":"image-button-response","trial_index":109,"time_elapsed":568031,"internal_node_id":"0.0-4.0-0.51","subject_id":"614b413065c09b504a425057","study_id":"60edd13110225f80f9f3709b","session_id":"6196c4a33c2742fc592786ee","condition":"contingent","relevant_dimensions":["antennae","legs"],"bee_group":{"antennae":"A","wings":"X","pattern":"X","legs":"M"},"action":"harvest","summary":"good-harvest","bonus":0.5800000000000007},{"rt":488,"stimulus":"\n                    <p><b>Action: <em>harvest</em></b></p>\n                    <p>This is the bee that you just saw.</p>\n                    <img src=\"bees-with-color/bee-B2DF.svg\" width=\"200\">\n                    <p><span class=\"greenText\"><b>Successful harvest!</b></span><br>Your pay has increased by $0.02. Your bonus pay is now $0.60.</p>\n            ","response":0,"trial_type":"html-button-response","trial_index":110,"time_elapsed":568520,"internal_node_id":"0.0-4.0-1.51","subject_id":"614b413065c09b504a425057","study_id":"60edd13110225f80f9f3709b","session_id":"6196c4a33c2742fc592786ee","condition":"contingent","relevant_dimensions":["antennae","legs"],"bee_group":{"antennae":"A","wings":"X","pattern":"X","legs":"M"},"bonus":0.5800000000000007},{"rt":1107,"stimulus":"bees-with-color/bee-B2SM.svg","response":1,"trial_type":"image-button-response","trial_index":111,"time_elapsed":569628,"internal_node_id":"0.0-4.0-0.52","subject_id":"614b413065c09b504a425057","study_id":"60edd13110225f80f9f3709b","session_id":"6196c4a33c2742fc592786ee","condition":"contingent","relevant_dimensions":["antennae","legs"],"bee_group":{"antennae":"A","wings":"X","pattern":"X","legs":"M"},"action":"avoid","summary":"bad-avoid","bonus":0.5800000000000007},{"rt":470,"stimulus":"\n                    <p><b>Action: <em>avoid</em></b></p>\n                    <p>This is the bee that you just saw.</p>\n                    <img src=\"bees-with-color/bee-B2SM.svg\" width=\"200\">\n                    <p><br>Your bonus pay is unchanged, and remains at $0.60.</p>\n            ","response":0,"trial_type":"html-button-response","trial_index":112,"time_elapsed":570098,"internal_node_id":"0.0-4.0-1.52","subject_id":"614b413065c09b504a425057","study_id":"60edd13110225f80f9f3709b","session_id":"6196c4a33c2742fc592786ee","condition":"contingent","relevant_dimensions":["antennae","legs"],"bee_group":{"antennae":"A","wings":"X","pattern":"X","legs":"M"},"bonus":0.5800000000000007},{"rt":1057,"stimulus":"bees-with-color/bee-A1SM.svg","response":1,"trial_type":"image-button-response","trial_index":113,"time_elapsed":571156,"internal_node_id":"0.0-4.0-0.53","subject_id":"614b413065c09b504a425057","study_id":"60edd13110225f80f9f3709b","session_id":"6196c4a33c2742fc592786ee","condition":"contingent","relevant_dimensions":["antennae","legs"],"bee_group":{"antennae":"A","wings":"X","pattern":"X","legs":"M"},"action":"avoid","summary":"good-avoid","bonus":0.5800000000000007},{"rt":451,"stimulus":"\n                    <p><b>Action: <em>avoid</em></b></p>\n                    <p>This is the bee that you just saw.</p>\n                    <img src=\"bees-with-color/bee-A1SM.svg\" width=\"200\">\n                    <p><br>Your bonus pay is unchanged, and remains at $0.60.</p>\n            ","response":0,"trial_type":"html-button-response","trial_index":114,"time_elapsed":571608,"internal_node_id":"0.0-4.0-1.53","subject_id":"614b413065c09b504a425057","study_id":"60edd13110225f80f9f3709b","session_id":"6196c4a33c2742fc592786ee","condition":"contingent","relevant_dimensions":["antennae","legs"],"bee_group":{"antennae":"A","wings":"X","pattern":"X","legs":"M"},"bonus":0.5800000000000007},{"rt":5472,"stimulus":"bees-with-color/bee-A1DF.svg","response":1,"trial_type":"image-button-response","trial_index":115,"time_elapsed":577081,"internal_node_id":"0.0-4.0-0.54","subject_id":"614b413065c09b504a425057","study_id":"60edd13110225f80f9f3709b","session_id":"6196c4a33c2742fc592786ee","condition":"contingent","relevant_dimensions":["antennae","legs"],"bee_group":{"antennae":"A","wings":"X","pattern":"X","legs":"M"},"action":"avoid","summary":"bad-avoid","bonus":0.5800000000000007},{"rt":616,"stimulus":"\n                    <p><b>Action: <em>avoid</em></b></p>\n                    <p>This is the bee that you just saw.</p>\n                    <img src=\"bees-with-color/bee-A1DF.svg\" width=\"200\">\n                    <p><br>Your bonus pay is unchanged, and remains at $0.60.</p>\n            ","response":0,"trial_type":"html-button-response","trial_index":116,"time_elapsed":577698,"internal_node_id":"0.0-4.0-1.54","subject_id":"614b413065c09b504a425057","study_id":"60edd13110225f80f9f3709b","session_id":"6196c4a33c2742fc592786ee","condition":"contingent","relevant_dimensions":["antennae","legs"],"bee_group":{"antennae":"A","wings":"X","pattern":"X","legs":"M"},"bonus":0.5800000000000007},{"rt":1984,"stimulus":"bees-with-color/bee-A1SF.svg","response":1,"trial_type":"image-button-response","trial_index":117,"time_elapsed":579683,"internal_node_id":"0.0-4.0-0.55","subject_id":"614b413065c09b504a425057","study_id":"60edd13110225f80f9f3709b","session_id":"6196c4a33c2742fc592786ee","condition":"contingent","relevant_dimensions":["antennae","legs"],"bee_group":{"antennae":"A","wings":"X","pattern":"X","legs":"M"},"action":"avoid","summary":"bad-avoid","bonus":0.5800000000000007},{"rt":636,"stimulus":"\n                    <p><b>Action: <em>avoid</em></b></p>\n                    <p>This is the bee that you just saw.</p>\n                    <img src=\"bees-with-color/bee-A1SF.svg\" width=\"200\">\n                    <p><br>Your bonus pay is unchanged, and remains at $0.60.</p>\n            ","response":0,"trial_type":"html-button-response","trial_index":118,"time_elapsed":580321,"internal_node_id":"0.0-4.0-1.55","subject_id":"614b413065c09b504a425057","study_id":"60edd13110225f80f9f3709b","session_id":"6196c4a33c2742fc592786ee","condition":"contingent","relevant_dimensions":["antennae","legs"],"bee_group":{"antennae":"A","wings":"X","pattern":"X","legs":"M"},"bonus":0.5800000000000007},{"rt":2155,"stimulus":"bees-with-color/bee-B1SF.svg","response":1,"trial_type":"image-button-response","trial_index":119,"time_elapsed":582476,"internal_node_id":"0.0-4.0-0.56","subject_id":"614b413065c09b504a425057","study_id":"60edd13110225f80f9f3709b","session_id":"6196c4a33c2742fc592786ee","condition":"contingent","relevant_dimensions":["antennae","legs"],"bee_group":{"antennae":"A","wings":"X","pattern":"X","legs":"M"},"action":"avoid","summary":"bad-avoid","bonus":0.5800000000000007},{"rt":567,"stimulus":"\n                    <p><b>Action: <em>avoid</em></b></p>\n                    <p>This is the bee that you just saw.</p>\n                    <img src=\"bees-with-color/bee-B1SF.svg\" width=\"200\">\n                    <p><br>Your bonus pay is unchanged, and remains at $0.60.</p>\n            ","response":0,"trial_type":"html-button-response","trial_index":120,"time_elapsed":583045,"internal_node_id":"0.0-4.0-1.56","subject_id":"614b413065c09b504a425057","study_id":"60edd13110225f80f9f3709b","session_id":"6196c4a33c2742fc592786ee","condition":"contingent","relevant_dimensions":["antennae","legs"],"bee_group":{"antennae":"A","wings":"X","pattern":"X","legs":"M"},"bonus":0.5800000000000007},{"rt":1420,"stimulus":"bees-with-color/bee-A1DM.svg","response":1,"trial_type":"image-button-response","trial_index":121,"time_elapsed":584466,"internal_node_id":"0.0-4.0-0.57","subject_id":"614b413065c09b504a425057","study_id":"60edd13110225f80f9f3709b","session_id":"6196c4a33c2742fc592786ee","condition":"contingent","relevant_dimensions":["antennae","legs"],"bee_group":{"antennae":"A","wings":"X","pattern":"X","legs":"M"},"action":"avoid","summary":"good-avoid","bonus":0.5800000000000007},{"rt":519,"stimulus":"\n                    <p><b>Action: <em>avoid</em></b></p>\n                    <p>This is the bee that you just saw.</p>\n                    <img src=\"bees-with-color/bee-A1DM.svg\" width=\"200\">\n                    <p><br>Your bonus pay is unchanged, and remains at $0.60.</p>\n            ","response":0,"trial_type":"html-button-response","trial_index":122,"time_elapsed":584986,"internal_node_id":"0.0-4.0-1.57","subject_id":"614b413065c09b504a425057","study_id":"60edd13110225f80f9f3709b","session_id":"6196c4a33c2742fc592786ee","condition":"contingent","relevant_dimensions":["antennae","legs"],"bee_group":{"antennae":"A","wings":"X","pattern":"X","legs":"M"},"bonus":0.5800000000000007},{"rt":1019,"stimulus":"bees-with-color/bee-B1DF.svg","response":1,"trial_type":"image-button-response","trial_index":123,"time_elapsed":586006,"internal_node_id":"0.0-4.0-0.58","subject_id":"614b413065c09b504a425057","study_id":"60edd13110225f80f9f3709b","session_id":"6196c4a33c2742fc592786ee","condition":"contingent","relevant_dimensions":["antennae","legs"],"bee_group":{"antennae":"A","wings":"X","pattern":"X","legs":"M"},"action":"avoid","summary":"bad-avoid","bonus":0.5800000000000007},{"rt":833,"stimulus":"\n                    <p><b>Action: <em>avoid</em></b></p>\n                    <p>This is the bee that you just saw.</p>\n                    <img src=\"bees-with-color/bee-B1DF.svg\" width=\"200\">\n                    <p><br>Your bonus pay is unchanged, and remains at $0.60.</p>\n            ","response":0,"trial_type":"html-button-response","trial_index":124,"time_elapsed":586839,"internal_node_id":"0.0-4.0-1.58","subject_id":"614b413065c09b504a425057","study_id":"60edd13110225f80f9f3709b","session_id":"6196c4a33c2742fc592786ee","condition":"contingent","relevant_dimensions":["antennae","legs"],"bee_group":{"antennae":"A","wings":"X","pattern":"X","legs":"M"},"bonus":0.5800000000000007},{"rt":1811,"stimulus":"bees-with-color/bee-A2DM.svg","response":1,"trial_type":"image-button-response","trial_index":125,"time_elapsed":588652,"internal_node_id":"0.0-4.0-0.59","subject_id":"614b413065c09b504a425057","study_id":"60edd13110225f80f9f3709b","session_id":"6196c4a33c2742fc592786ee","condition":"contingent","relevant_dimensions":["antennae","legs"],"bee_group":{"antennae":"A","wings":"X","pattern":"X","legs":"M"},"action":"avoid","summary":"good-avoid","bonus":0.5800000000000007},{"rt":531,"stimulus":"\n                    <p><b>Action: <em>avoid</em></b></p>\n                    <p>This is the bee that you just saw.</p>\n                    <img src=\"bees-with-color/bee-A2DM.svg\" width=\"200\">\n                    <p><br>Your bonus pay is unchanged, and remains at $0.60.</p>\n            ","response":0,"trial_type":"html-button-response","trial_index":126,"time_elapsed":589183,"internal_node_id":"0.0-4.0-1.59","subject_id":"614b413065c09b504a425057","study_id":"60edd13110225f80f9f3709b","session_id":"6196c4a33c2742fc592786ee","condition":"contingent","relevant_dimensions":["antennae","legs"],"bee_group":{"antennae":"A","wings":"X","pattern":"X","legs":"M"},"bonus":0.5800000000000007},{"rt":1026,"stimulus":"bees-with-color/bee-B2SF.svg","response":0,"trial_type":"image-button-response","trial_index":127,"time_elapsed":590209,"internal_node_id":"0.0-4.0-0.60","subject_id":"614b413065c09b504a425057","study_id":"60edd13110225f80f9f3709b","session_id":"6196c4a33c2742fc592786ee","condition":"contingent","relevant_dimensions":["antennae","legs"],"bee_group":{"antennae":"A","wings":"X","pattern":"X","legs":"M"},"action":"harvest","summary":"good-harvest","bonus":0.5800000000000007},{"rt":429,"stimulus":"\n                    <p><b>Action: <em>harvest</em></b></p>\n                    <p>This is the bee that you just saw.</p>\n                    <img src=\"bees-with-color/bee-B2SF.svg\" width=\"200\">\n                    <p><span class=\"greenText\"><b>Successful harvest!</b></span><br>Your pay has increased by $0.02. Your bonus pay is now $0.62.</p>\n            ","response":0,"trial_type":"html-button-response","trial_index":128,"time_elapsed":590640,"internal_node_id":"0.0-4.0-1.60","subject_id":"614b413065c09b504a425057","study_id":"60edd13110225f80f9f3709b","session_id":"6196c4a33c2742fc592786ee","condition":"contingent","relevant_dimensions":["antennae","legs"],"bee_group":{"antennae":"A","wings":"X","pattern":"X","legs":"M"},"bonus":0.5800000000000007},{"rt":1582,"stimulus":"bees-with-color/bee-B2DM.svg","response":1,"trial_type":"image-button-response","trial_index":129,"time_elapsed":592223,"internal_node_id":"0.0-4.0-0.61","subject_id":"614b413065c09b504a425057","study_id":"60edd13110225f80f9f3709b","session_id":"6196c4a33c2742fc592786ee","condition":"contingent","relevant_dimensions":["antennae","legs"],"bee_group":{"antennae":"A","wings":"X","pattern":"X","legs":"M"},"action":"avoid","summary":"bad-avoid","bonus":0.5800000000000007},{"rt":955,"stimulus":"\n                    <p><b>Action: <em>avoid</em></b></p>\n                    <p>This is the bee that you just saw.</p>\n                    <img src=\"bees-with-color/bee-B2DM.svg\" width=\"200\">\n                    <p><br>Your bonus pay is unchanged, and remains at $0.62.</p>\n            ","response":0,"trial_type":"html-button-response","trial_index":130,"time_elapsed":593179,"internal_node_id":"0.0-4.0-1.61","subject_id":"614b413065c09b504a425057","study_id":"60edd13110225f80f9f3709b","session_id":"6196c4a33c2742fc592786ee","condition":"contingent","relevant_dimensions":["antennae","legs"],"bee_group":{"antennae":"A","wings":"X","pattern":"X","legs":"M"},"bonus":0.5800000000000007},{"rt":1479,"stimulus":"bees-with-color/bee-B1SM.svg","response":1,"trial_type":"image-button-response","trial_index":131,"time_elapsed":594659,"internal_node_id":"0.0-4.0-0.62","subject_id":"614b413065c09b504a425057","study_id":"60edd13110225f80f9f3709b","session_id":"6196c4a33c2742fc592786ee","condition":"contingent","relevant_dimensions":["antennae","legs"],"bee_group":{"antennae":"A","wings":"X","pattern":"X","legs":"M"},"action":"avoid","summary":"bad-avoid","bonus":0.5800000000000007},{"rt":371,"stimulus":"\n                    <p><b>Action: <em>avoid</em></b></p>\n                    <p>This is the bee that you just saw.</p>\n                    <img src=\"bees-with-color/bee-B1SM.svg\" width=\"200\">\n                    <p><br>Your bonus pay is unchanged, and remains at $0.62.</p>\n            ","response":0,"trial_type":"html-button-response","trial_index":132,"time_elapsed":595032,"internal_node_id":"0.0-4.0-1.62","subject_id":"614b413065c09b504a425057","study_id":"60edd13110225f80f9f3709b","session_id":"6196c4a33c2742fc592786ee","condition":"contingent","relevant_dimensions":["antennae","legs"],"bee_group":{"antennae":"A","wings":"X","pattern":"X","legs":"M"},"bonus":0.5800000000000007},{"rt":2831,"stimulus":"bees-with-color/bee-B1DM.svg","response":1,"trial_type":"image-button-response","trial_index":133,"time_elapsed":597862,"internal_node_id":"0.0-4.0-0.63","subject_id":"614b413065c09b504a425057","study_id":"60edd13110225f80f9f3709b","session_id":"6196c4a33c2742fc592786ee","condition":"contingent","relevant_dimensions":["antennae","legs"],"bee_group":{"antennae":"A","wings":"X","pattern":"X","legs":"M"},"action":"avoid","summary":"bad-avoid","bonus":0.5800000000000007},{"rt":494,"stimulus":"\n                    <p><b>Action: <em>avoid</em></b></p>\n                    <p>This is the bee that you just saw.</p>\n                    <img src=\"bees-with-color/bee-B1DM.svg\" width=\"200\">\n                    <p><br>Your bonus pay is unchanged, and remains at $0.62.</p>\n            ","response":0,"trial_type":"html-button-response","trial_index":134,"time_elapsed":598356,"internal_node_id":"0.0-4.0-1.63","subject_id":"614b413065c09b504a425057","study_id":"60edd13110225f80f9f3709b","session_id":"6196c4a33c2742fc592786ee","condition":"contingent","relevant_dimensions":["antennae","legs"],"bee_group":{"antennae":"A","wings":"X","pattern":"X","legs":"M"},"bonus":0.5800000000000007},{"rt":9512,"stimulus":"You have completed the first part of this experiment.<br><br>You will now begin a shorter second part, in which you will receive no feedback.<br>The same rules regarding bonus pay apply.<br><br>Press any key to begin.","response":"m","trial_type":"html-keyboard-response","trial_index":135,"time_elapsed":607869,"internal_node_id":"0.0-5.0","subject_id":"614b413065c09b504a425057","study_id":"60edd13110225f80f9f3709b","session_id":"6196c4a33c2742fc592786ee","condition":"contingent","relevant_dimensions":["antennae","legs"],"bee_group":{"antennae":"A","wings":"X","pattern":"X","legs":"M"},"bonus":0.5800000000000007},{"rt":3729,"stimulus":"bees-with-color/bee-B2DM.svg","response":0,"trial_type":"image-button-response","trial_index":136,"time_elapsed":611600,"internal_node_id":"0.0-6.0-0.0","subject_id":"614b413065c09b504a425057","study_id":"60edd13110225f80f9f3709b","session_id":"6196c4a33c2742fc592786ee","condition":"contingent","relevant_dimensions":["antennae","legs"],"bee_group":{"antennae":"A","wings":"X","pattern":"X","legs":"M"},"bonus":0.5800000000000007},{"rt":2387,"stimulus":"bees-with-color/bee-B2DF.svg","response":1,"trial_type":"image-button-response","trial_index":137,"time_elapsed":613987,"internal_node_id":"0.0-6.0-0.1","subject_id":"614b413065c09b504a425057","study_id":"60edd13110225f80f9f3709b","session_id":"6196c4a33c2742fc592786ee","condition":"contingent","relevant_dimensions":["antennae","legs"],"bee_group":{"antennae":"A","wings":"X","pattern":"X","legs":"M"},"bonus":0.5800000000000007},{"rt":3475,"stimulus":"bees-with-color/bee-A1SF.svg","response":0,"trial_type":"image-button-response","trial_index":138,"time_elapsed":617462,"internal_node_id":"0.0-6.0-0.2","subject_id":"614b413065c09b504a425057","study_id":"60edd13110225f80f9f3709b","session_id":"6196c4a33c2742fc592786ee","condition":"contingent","relevant_dimensions":["antennae","legs"],"bee_group":{"antennae":"A","wings":"X","pattern":"X","legs":"M"},"bonus":0.5800000000000007},{"rt":19355,"stimulus":"bees-with-color/bee-A2SM.svg","response":1,"trial_type":"image-button-response","trial_index":139,"time_elapsed":636818,"internal_node_id":"0.0-6.0-0.3","subject_id":"614b413065c09b504a425057","study_id":"60edd13110225f80f9f3709b","session_id":"6196c4a33c2742fc592786ee","condition":"contingent","relevant_dimensions":["antennae","legs"],"bee_group":{"antennae":"A","wings":"X","pattern":"X","legs":"M"},"bonus":0.5800000000000007},{"rt":1534,"stimulus":"bees-with-color/bee-A2DF.svg","response":1,"trial_type":"image-button-response","trial_index":140,"time_elapsed":638352,"internal_node_id":"0.0-6.0-0.4","subject_id":"614b413065c09b504a425057","study_id":"60edd13110225f80f9f3709b","session_id":"6196c4a33c2742fc592786ee","condition":"contingent","relevant_dimensions":["antennae","legs"],"bee_group":{"antennae":"A","wings":"X","pattern":"X","legs":"M"},"bonus":0.5800000000000007},{"rt":675,"stimulus":"bees-with-color/bee-B1SF.svg","response":0,"trial_type":"image-button-response","trial_index":141,"time_elapsed":639028,"internal_node_id":"0.0-6.0-0.5","subject_id":"614b413065c09b504a425057","study_id":"60edd13110225f80f9f3709b","session_id":"6196c4a33c2742fc592786ee","condition":"contingent","relevant_dimensions":["antennae","legs"],"bee_group":{"antennae":"A","wings":"X","pattern":"X","legs":"M"},"bonus":0.5800000000000007},{"rt":1873,"stimulus":"bees-with-color/bee-B1DF.svg","response":0,"trial_type":"image-button-response","trial_index":142,"time_elapsed":640902,"internal_node_id":"0.0-6.0-0.6","subject_id":"614b413065c09b504a425057","study_id":"60edd13110225f80f9f3709b","session_id":"6196c4a33c2742fc592786ee","condition":"contingent","relevant_dimensions":["antennae","legs"],"bee_group":{"antennae":"A","wings":"X","pattern":"X","legs":"M"},"bonus":0.5800000000000007},{"rt":734,"stimulus":"bees-with-color/bee-A1SM.svg","response":1,"trial_type":"image-button-response","trial_index":143,"time_elapsed":641636,"internal_node_id":"0.0-6.0-0.7","subject_id":"614b413065c09b504a425057","study_id":"60edd13110225f80f9f3709b","session_id":"6196c4a33c2742fc592786ee","condition":"contingent","relevant_dimensions":["antennae","legs"],"bee_group":{"antennae":"A","wings":"X","pattern":"X","legs":"M"},"bonus":0.5800000000000007},{"rt":2249,"stimulus":"bees-with-color/bee-B1SM.svg","response":1,"trial_type":"image-button-response","trial_index":144,"time_elapsed":643885,"internal_node_id":"0.0-6.0-0.8","subject_id":"614b413065c09b504a425057","study_id":"60edd13110225f80f9f3709b","session_id":"6196c4a33c2742fc592786ee","condition":"contingent","relevant_dimensions":["antennae","legs"],"bee_group":{"antennae":"A","wings":"X","pattern":"X","legs":"M"},"bonus":0.5800000000000007},{"rt":773,"stimulus":"bees-with-color/bee-B2SM.svg","response":0,"trial_type":"image-button-response","trial_index":145,"time_elapsed":644658,"internal_node_id":"0.0-6.0-0.9","subject_id":"614b413065c09b504a425057","study_id":"60edd13110225f80f9f3709b","session_id":"6196c4a33c2742fc592786ee","condition":"contingent","relevant_dimensions":["antennae","legs"],"bee_group":{"antennae":"A","wings":"X","pattern":"X","legs":"M"},"bonus":0.5800000000000007},{"rt":2625,"stimulus":"bees-with-color/bee-A1DM.svg","response":1,"trial_type":"image-button-response","trial_index":146,"time_elapsed":647284,"internal_node_id":"0.0-6.0-0.10","subject_id":"614b413065c09b504a425057","study_id":"60edd13110225f80f9f3709b","session_id":"6196c4a33c2742fc592786ee","condition":"contingent","relevant_dimensions":["antennae","legs"],"bee_group":{"antennae":"A","wings":"X","pattern":"X","legs":"M"},"bonus":0.5800000000000007},{"rt":1255,"stimulus":"bees-with-color/bee-B1DM.svg","response":1,"trial_type":"image-button-response","trial_index":147,"time_elapsed":648538,"internal_node_id":"0.0-6.0-0.11","subject_id":"614b413065c09b504a425057","study_id":"60edd13110225f80f9f3709b","session_id":"6196c4a33c2742fc592786ee","condition":"contingent","relevant_dimensions":["antennae","legs"],"bee_group":{"antennae":"A","wings":"X","pattern":"X","legs":"M"},"bonus":0.5800000000000007},{"rt":754,"stimulus":"bees-with-color/bee-A2DM.svg","response":0,"trial_type":"image-button-response","trial_index":148,"time_elapsed":649294,"internal_node_id":"0.0-6.0-0.12","subject_id":"614b413065c09b504a425057","study_id":"60edd13110225f80f9f3709b","session_id":"6196c4a33c2742fc592786ee","condition":"contingent","relevant_dimensions":["antennae","legs"],"bee_group":{"antennae":"A","wings":"X","pattern":"X","legs":"M"},"bonus":0.5800000000000007},{"rt":1561,"stimulus":"bees-with-color/bee-A1DF.svg","response":1,"trial_type":"image-button-response","trial_index":149,"time_elapsed":650856,"internal_node_id":"0.0-6.0-0.13","subject_id":"614b413065c09b504a425057","study_id":"60edd13110225f80f9f3709b","session_id":"6196c4a33c2742fc592786ee","condition":"contingent","relevant_dimensions":["antennae","legs"],"bee_group":{"antennae":"A","wings":"X","pattern":"X","legs":"M"},"bonus":0.5800000000000007},{"rt":1355,"stimulus":"bees-with-color/bee-B2SF.svg","response":0,"trial_type":"image-button-response","trial_index":150,"time_elapsed":652213,"internal_node_id":"0.0-6.0-0.14","subject_id":"614b413065c09b504a425057","study_id":"60edd13110225f80f9f3709b","session_id":"6196c4a33c2742fc592786ee","condition":"contingent","relevant_dimensions":["antennae","legs"],"bee_group":{"antennae":"A","wings":"X","pattern":"X","legs":"M"},"bonus":0.5800000000000007},{"rt":398,"stimulus":"bees-with-color/bee-A2SF.svg","response":0,"trial_type":"image-button-response","trial_index":151,"time_elapsed":652612,"internal_node_id":"0.0-6.0-0.15","subject_id":"614b413065c09b504a425057","study_id":"60edd13110225f80f9f3709b","session_id":"6196c4a33c2742fc592786ee","condition":"contingent","relevant_dimensions":["antennae","legs"],"bee_group":{"antennae":"A","wings":"X","pattern":"X","legs":"M"},"bonus":0.5800000000000007},{"rt":583,"stimulus":"bees-with-color/bee-A1SF.svg","response":1,"trial_type":"image-button-response","trial_index":152,"time_elapsed":653195,"internal_node_id":"0.0-6.0-0.16","subject_id":"614b413065c09b504a425057","study_id":"60edd13110225f80f9f3709b","session_id":"6196c4a33c2742fc592786ee","condition":"contingent","relevant_dimensions":["antennae","legs"],"bee_group":{"antennae":"A","wings":"X","pattern":"X","legs":"M"},"bonus":0.5800000000000007},{"rt":1452,"stimulus":"bees-with-color/bee-A2SM.svg","response":1,"trial_type":"image-button-response","trial_index":153,"time_elapsed":654648,"internal_node_id":"0.0-6.0-0.17","subject_id":"614b413065c09b504a425057","study_id":"60edd13110225f80f9f3709b","session_id":"6196c4a33c2742fc592786ee","condition":"contingent","relevant_dimensions":["antennae","legs"],"bee_group":{"antennae":"A","wings":"X","pattern":"X","legs":"M"},"bonus":0.5800000000000007},{"rt":630,"stimulus":"bees-with-color/bee-B2SF.svg","response":1,"trial_type":"image-button-response","trial_index":154,"time_elapsed":655279,"internal_node_id":"0.0-6.0-0.18","subject_id":"614b413065c09b504a425057","study_id":"60edd13110225f80f9f3709b","session_id":"6196c4a33c2742fc592786ee","condition":"contingent","relevant_dimensions":["antennae","legs"],"bee_group":{"antennae":"A","wings":"X","pattern":"X","legs":"M"},"bonus":0.5800000000000007},{"rt":556,"stimulus":"bees-with-color/bee-A1SM.svg","response":0,"trial_type":"image-button-response","trial_index":155,"time_elapsed":655835,"internal_node_id":"0.0-6.0-0.19","subject_id":"614b413065c09b504a425057","study_id":"60edd13110225f80f9f3709b","session_id":"6196c4a33c2742fc592786ee","condition":"contingent","relevant_dimensions":["antennae","legs"],"bee_group":{"antennae":"A","wings":"X","pattern":"X","legs":"M"},"bonus":0.5800000000000007},{"rt":534,"stimulus":"bees-with-color/bee-A1DF.svg","response":0,"trial_type":"image-button-response","trial_index":156,"time_elapsed":656372,"internal_node_id":"0.0-6.0-0.20","subject_id":"614b413065c09b504a425057","study_id":"60edd13110225f80f9f3709b","session_id":"6196c4a33c2742fc592786ee","condition":"contingent","relevant_dimensions":["antennae","legs"],"bee_group":{"antennae":"A","wings":"X","pattern":"X","legs":"M"},"bonus":0.5800000000000007},{"rt":1840,"stimulus":"bees-with-color/bee-A2SF.svg","response":1,"trial_type":"image-button-response","trial_index":157,"time_elapsed":658212,"internal_node_id":"0.0-6.0-0.21","subject_id":"614b413065c09b504a425057","study_id":"60edd13110225f80f9f3709b","session_id":"6196c4a33c2742fc592786ee","condition":"contingent","relevant_dimensions":["antennae","legs"],"bee_group":{"antennae":"A","wings":"X","pattern":"X","legs":"M"},"bonus":0.5800000000000007},{"rt":558,"stimulus":"bees-with-color/bee-B2SM.svg","response":0,"trial_type":"image-button-response","trial_index":158,"time_elapsed":658772,"internal_node_id":"0.0-6.0-0.22","subject_id":"614b413065c09b504a425057","study_id":"60edd13110225f80f9f3709b","session_id":"6196c4a33c2742fc592786ee","condition":"contingent","relevant_dimensions":["antennae","legs"],"bee_group":{"antennae":"A","wings":"X","pattern":"X","legs":"M"},"bonus":0.5800000000000007},{"rt":2352,"stimulus":"bees-with-color/bee-B1DM.svg","response":0,"trial_type":"image-button-response","trial_index":159,"time_elapsed":661124,"internal_node_id":"0.0-6.0-0.23","subject_id":"614b413065c09b504a425057","study_id":"60edd13110225f80f9f3709b","session_id":"6196c4a33c2742fc592786ee","condition":"contingent","relevant_dimensions":["antennae","legs"],"bee_group":{"antennae":"A","wings":"X","pattern":"X","legs":"M"},"bonus":0.5800000000000007},{"rt":440,"stimulus":"bees-with-color/bee-A1DM.svg","response":1,"trial_type":"image-button-response","trial_index":160,"time_elapsed":661564,"internal_node_id":"0.0-6.0-0.24","subject_id":"614b413065c09b504a425057","study_id":"60edd13110225f80f9f3709b","session_id":"6196c4a33c2742fc592786ee","condition":"contingent","relevant_dimensions":["antennae","legs"],"bee_group":{"antennae":"A","wings":"X","pattern":"X","legs":"M"},"bonus":0.5800000000000007},{"rt":1463,"stimulus":"bees-with-color/bee-B2DM.svg","response":0,"trial_type":"image-button-response","trial_index":161,"time_elapsed":663028,"internal_node_id":"0.0-6.0-0.25","subject_id":"614b413065c09b504a425057","study_id":"60edd13110225f80f9f3709b","session_id":"6196c4a33c2742fc592786ee","condition":"contingent","relevant_dimensions":["antennae","legs"],"bee_group":{"antennae":"A","wings":"X","pattern":"X","legs":"M"},"bonus":0.5800000000000007},{"rt":1138,"stimulus":"bees-with-color/bee-B1SM.svg","response":1,"trial_type":"image-button-response","trial_index":162,"time_elapsed":664166,"internal_node_id":"0.0-6.0-0.26","subject_id":"614b413065c09b504a425057","study_id":"60edd13110225f80f9f3709b","session_id":"6196c4a33c2742fc592786ee","condition":"contingent","relevant_dimensions":["antennae","legs"],"bee_group":{"antennae":"A","wings":"X","pattern":"X","legs":"M"},"bonus":0.5800000000000007},{"rt":429,"stimulus":"bees-with-color/bee-B2DF.svg","response":0,"trial_type":"image-button-response","trial_index":163,"time_elapsed":664596,"internal_node_id":"0.0-6.0-0.27","subject_id":"614b413065c09b504a425057","study_id":"60edd13110225f80f9f3709b","session_id":"6196c4a33c2742fc592786ee","condition":"contingent","relevant_dimensions":["antennae","legs"],"bee_group":{"antennae":"A","wings":"X","pattern":"X","legs":"M"},"bonus":0.5800000000000007},{"rt":585,"stimulus":"bees-with-color/bee-A2DM.svg","response":0,"trial_type":"image-button-response","trial_index":164,"time_elapsed":665183,"internal_node_id":"0.0-6.0-0.28","subject_id":"614b413065c09b504a425057","study_id":"60edd13110225f80f9f3709b","session_id":"6196c4a33c2742fc592786ee","condition":"contingent","relevant_dimensions":["antennae","legs"],"bee_group":{"antennae":"A","wings":"X","pattern":"X","legs":"M"},"bonus":0.5800000000000007},{"rt":1885,"stimulus":"bees-with-color/bee-B1SF.svg","response":0,"trial_type":"image-button-response","trial_index":165,"time_elapsed":667067,"internal_node_id":"0.0-6.0-0.29","subject_id":"614b413065c09b504a425057","study_id":"60edd13110225f80f9f3709b","session_id":"6196c4a33c2742fc592786ee","condition":"contingent","relevant_dimensions":["antennae","legs"],"bee_group":{"antennae":"A","wings":"X","pattern":"X","legs":"M"},"bonus":0.5800000000000007},{"rt":331,"stimulus":"bees-with-color/bee-B1DF.svg","response":1,"trial_type":"image-button-response","trial_index":166,"time_elapsed":667398,"internal_node_id":"0.0-6.0-0.30","subject_id":"614b413065c09b504a425057","study_id":"60edd13110225f80f9f3709b","session_id":"6196c4a33c2742fc592786ee","condition":"contingent","relevant_dimensions":["antennae","legs"],"bee_group":{"antennae":"A","wings":"X","pattern":"X","legs":"M"},"bonus":0.5800000000000007},{"rt":1475,"stimulus":"bees-with-color/bee-A2DF.svg","response":1,"trial_type":"image-button-response","trial_index":167,"time_elapsed":668874,"internal_node_id":"0.0-6.0-0.31","subject_id":"614b413065c09b504a425057","study_id":"60edd13110225f80f9f3709b","session_id":"6196c4a33c2742fc592786ee","condition":"contingent","relevant_dimensions":["antennae","legs"],"bee_group":{"antennae":"A","wings":"X","pattern":"X","legs":"M"},"bonus":0.5800000000000007},{"rt":15944,"stimulus":"You started with $2.50 of base pay.<br><br>\n            You made $0.58 in bonus pay,\n            for a total of <b>$3.08</b>.","response":0,"trial_type":"html-button-response","trial_index":168,"time_elapsed":684818,"internal_node_id":"0.0-7.0-0.0","subject_id":"614b413065c09b504a425057","study_id":"60edd13110225f80f9f3709b","session_id":"6196c4a33c2742fc592786ee","condition":"contingent","relevant_dimensions":["antennae","legs"],"bee_group":{"antennae":"A","wings":"X","pattern":"X","legs":"M"},"bonus":0.5800000000000007},{"rt":9775,"response":{"percent-dangerous-bees":"70"},"trial_type":"survey-text","trial_index":169,"time_elapsed":694594,"internal_node_id":"0.0-7.0-1.0","subject_id":"614b413065c09b504a425057","study_id":"60edd13110225f80f9f3709b","session_id":"6196c4a33c2742fc592786ee","condition":"contingent","relevant_dimensions":["antennae","legs"],"bee_group":{"antennae":"A","wings":"X","pattern":"X","legs":"M"},"bonus":0.5800000000000007},{"rt":9187,"response":{"feature-perception":["Wings","Legs"]},"question_order":[0],"trial_type":"survey-multi-select","trial_index":170,"time_elapsed":703782,"internal_node_id":"0.0-7.0-2.0","subject_id":"614b413065c09b504a425057","study_id