[{"success":true,"trial_type":"fullscreen","trial_index":0,"time_elapsed":9239,"internal_node_id":"0.0-0.0","subject_id":"613bf413729dea836480c2c7","study_id":"60edd13110225f80f9f3709b","session_id":"6196c4a529da98ed259c3e29","condition":"full-information","relevant_dimensions":["antennae","legs"],"bee_group":{"antennae":"A","wings":"X","pattern":"X","legs":"F"},"bonus":0.48000000000000054},{"success":true,"timeout":false,"failed_images":[],"failed_audio":[],"failed_video":[],"trial_type":"preload","trial_index":1,"time_elapsed":13376,"internal_node_id":"0.0-1.0","subject_id":"613bf413729dea836480c2c7","study_id":"60edd13110225f80f9f3709b","session_id":"6196c4a529da98ed259c3e29","condition":"full-information","relevant_dimensions":["antennae","legs"],"bee_group":{"antennae":"A","wings":"X","pattern":"X","legs":"F"},"bonus":0.48000000000000054},{"rt":8483.09999999404,"stimulus":"Welcome! Press any key to begin.","response":" ","trial_type":"html-keyboard-response","trial_index":2,"time_elapsed":21860,"internal_node_id":"0.0-2.0","subject_id":"613bf413729dea836480c2c7","study_id":"60edd13110225f80f9f3709b","session_id":"6196c4a529da98ed259c3e29","condition":"full-information","relevant_dimensions":["antennae","legs"],"bee_group":{"antennae":"A","wings":"X","pattern":"X","legs":"F"},"bonus":0.48000000000000054},{"view_history":[{"page_index":0,"viewing_time":9129.39999999106},{"page_index":1,"viewing_time":24611.60000000894},{"page_index":2,"viewing_time":25805.89999999106},{"page_index":3,"viewing_time":31508},{"page_index":4,"viewing_time":10699.90000000596},{"page_index":5,"viewing_time":25273.79999999702},{"page_index":6,"viewing_time":21642},{"page_index":7,"viewing_time":27755.79999999702},{"page_index":8,"viewing_time":12946.10000000894},{"page_index":9,"viewing_time":6550.0999999940395},{"page_index":10,"viewing_time":6316},{"page_index":11,"viewing_time":16515.79999999702},{"page_index":12,"viewing_time":16995.90000000596},{"page_index":13,"viewing_time":7401.9000000059605},{"page_index":14,"viewing_time":3430.0999999940395}],"rt":246582.70000000298,"trial_type":"instructions","trial_index":3,"time_elapsed":268452,"internal_node_id":"0.0-3.0-0.0","subject_id":"613bf413729dea836480c2c7","study_id":"60edd13110225f80f9f3709b","session_id":"6196c4a529da98ed259c3e29","condition":"full-information","relevant_dimensions":["antennae","legs"],"bee_group":{"antennae":"A","wings":"X","pattern":"X","legs":"F"},"bonus":0.48000000000000054},{"rt":34096.39999999106,"response":{"Q0":["Two or six legs","Stripes or spots on body","Single or double wings","Antennae or no antennae"]},"question_order":[0],"trial_type":"survey-multi-select","trial_index":4,"time_elapsed":302553,"internal_node_id":"0.0-3.0-1.0","subject_id":"613bf413729dea836480c2c7","study_id":"60edd13110225f80f9f3709b","session_id":"6196c4a529da98ed259c3e29","condition":"full-information","relevant_dimensions":["antennae","legs"],"bee_group":{"antennae":"A","wings":"X","pattern":"X","legs":"F"},"correct":true,"bonus":0.48000000000000054},{"rt":33288.5,"response":{"Q1":"No.","Q2":"Based on the four features of the bee.","Q3":"You do not learn if it was friendly or dangerous, and do not alter your bonus."},"question_order":[0,1,2],"trial_type":"survey-multi-choice","trial_index":5,"time_elapsed":335847,"internal_node_id":"0.0-3.0-2.0","subject_id":"613bf413729dea836480c2c7","study_id":"60edd13110225f80f9f3709b","session_id":"6196c4a529da98ed259c3e29","condition":"full-information","relevant_dimensions":["antennae","legs"],"bee_group":{"antennae":"A","wings":"X","pattern":"X","legs":"F"},"correct":false,"bonus":0.48000000000000054},{"rt":3593,"stimulus":"<p>You did not answer all comprehension questions correctly.<br>Press <b>continue</b> to review the instructions again.</p>","response":0,"trial_type":"html-button-response","trial_index":6,"time_elapsed":339445,"internal_node_id":"0.0-3.0-3.0","subject_id":"613bf413729dea836480c2c7","study_id":"60edd13110225f80f9f3709b","session_id":"6196c4a529da98ed259c3e29","condition":"full-information","relevant_dimensions":["antennae","legs"],"bee_group":{"antennae":"A","wings":"X","pattern":"X","legs":"F"},"bonus":0.48000000000000054},{"view_history":[{"page_index":0,"viewing_time":5713.899999991059},{"page_index":1,"viewing_time":15534},{"page_index":2,"viewing_time":16782},{"page_index":3,"viewing_time":18768},{"page_index":4,"viewing_time":42583.70000000298},{"page_index":5,"viewing_time":23276},{"page_index":6,"viewing_time":11522},{"page_index":7,"viewing_time":7231.9000000059605},{"page_index":8,"viewing_time":16163.79999999702},{"page_index":9,"viewing_time":7800.20000000298},{"page_index":10,"viewing_time":7561.79999999702},{"page_index":11,"viewing_time":13400},{"page_index":12,"viewing_time":5630.0999999940395},{"page_index":13,"viewing_time":1239.800000011921},{"page_index":14,"viewing_time":938.0999999940395}],"rt":194145.79999999702,"trial_type":"instructions","trial_index":7,"time_elapsed":533591,"internal_node_id":"0.0-3.0-4.0-0.0","subject_id":"613bf413729dea836480c2c7","study_id":"60edd13110225f80f9f3709b","session_id":"6196c4a529da98ed259c3e29","condition":"full-information","relevant_dimensions":["antennae","legs"],"bee_group":{"antennae":"A","wings":"X","pattern":"X","legs":"F"},"bonus":0.48000000000000054},{"rt":13219.60000000894,"response":{"Q0":["Two or six legs","Stripes or spots on body","Single or double wings","Antennae or no antennae"]},"question_order":[0],"trial_type":"survey-multi-select","trial_index":8,"time_elapsed":546816,"internal_node_id":"0.0-3.0-4.0-1.0","subject_id":"613bf413729dea836480c2c7","study_id":"60edd13110225f80f9f3709b","session_id":"6196c4a529da98ed259c3e29","condition":"full-information","relevant_dimensions":["antennae","legs"],"bee_group":{"antennae":"A","wings":"X","pattern":"X","legs":"F"},"correct":true,"bonus":0.48000000000000054},{"rt":19163.09999999404,"response":{"Q1":"No.","Q2":"Based on the four features of the bee.","Q3":"You learn if it was friendly or dangerous, but do not alter your bonus."},"question_order":[0,1,2],"trial_type":"survey-multi-choice","trial_index":9,"time_elapsed":565983,"internal_node_id":"0.0-3.0-4.0-2.0","subject_id":"613bf413729dea836480c2c7","study_id":"60edd13110225f80f9f3709b","session_id":"6196c4a529da98ed259c3e29","condition":"full-information","relevant_dimensions":["antennae","legs"],"bee_group":{"antennae":"A","wings":"X","pattern":"X","legs":"F"},"correct":true,"bonus":0.48000000000000054},{"rt":7927.0999999940395,"stimulus":"<p>Congrats, you got everything right<br>When you're ready, click the button below to continue to the experiment.</p>","response":0,"trial_type":"html-button-response","trial_index":10,"time_elapsed":573915,"internal_node_id":"0.0-3.0-4.0-3.0","subject_id":"613bf413729dea836480c2c7","study_id":"60edd13110225f80f9f3709b","session_id":"6196c4a529da98ed259c3e29","condition":"full-information","relevant_dimensions":["antennae","legs"],"bee_group":{"antennae":"A","wings":"X","pattern":"X","legs":"F"},"bonus":0.48000000000000054},{"rt":22294.5,"stimulus":"bees-with-color/bee-A2DF.svg","response":0,"trial_type":"image-button-response","trial_index":11,"time_elapsed":596213,"internal_node_id":"0.0-4.0-0.0","subject_id":"613bf413729dea836480c2c7","study_id":"60edd13110225f80f9f3709b","session_id":"6196c4a529da98ed259c3e29","condition":"full-information","relevant_dimensions":["antennae","legs"],"bee_group":{"antennae":"A","wings":"X","pattern":"X","legs":"F"},"action":"harvest","summary":"bad-harvest","bonus":0.48000000000000054},{"rt":8634.60000000894,"stimulus":"\n                    <p><b>Action: <em>harvest</em></b></p>\n                    <p>This is the bee that you just saw.</p>\n                    <img src=\"bees-with-color/bee-A2DF.svg\" width=\"200\">\n                    <p><span class=\"redText\">Bad choice, the bee was angry.</span><br><b>You have been stung!</b><br>Your pay has been decreased by $0.10. Your bonus pay is now $0.44.</p>\n            ","response":0,"trial_type":"html-button-response","trial_index":12,"time_elapsed":604851,"internal_node_id":"0.0-4.0-1.0","subject_id":"613bf413729dea836480c2c7","study_id":"60edd13110225f80f9f3709b","session_id":"6196c4a529da98ed259c3e29","condition":"full-information","relevant_dimensions":["antennae","legs"],"bee_group":{"antennae":"A","wings":"X","pattern":"X","legs":"F"},"bonus":0.48000000000000054},{"rt":14359.79999999702,"stimulus":"bees-with-color/bee-A2SM.svg","response":0,"trial_type":"image-button-response","trial_index":13,"time_elapsed":619212,"internal_node_id":"0.0-4.0-0.1","subject_id":"613bf413729dea836480c2c7","study_id":"60edd13110225f80f9f3709b","session_id":"6196c4a529da98ed259c3e29","condition":"full-information","relevant_dimensions":["antennae","legs"],"bee_group":{"antennae":"A","wings":"X","pattern":"X","legs":"F"},"action":"harvest","summary":"good-harvest","bonus":0.48000000000000054},{"rt":19816.09999999404,"stimulus":"\n                    <p><b>Action: <em>harvest</em></b></p>\n                    <p>This is the bee that you just saw.</p>\n                    <img src=\"bees-with-color/bee-A2SM.svg\" width=\"200\">\n                    <p><span class=\"greenText\"><b>Successful harvest!</b></span><br>Your pay has increased by $0.02. Your bonus pay is now $0.46.</p>\n            ","response":0,"trial_type":"html-button-response","trial_index":14,"time_elapsed":639031,"internal_node_id":"0.0-4.0-1.1","subject_id":"613bf413729dea836480c2c7","study_id":"60edd13110225f80f9f3709b","session_id":"6196c4a529da98ed259c3e29","condition":"full-information","relevant_dimensions":["antennae","legs"],"bee_group":{"antennae":"A","wings":"X","pattern":"X","legs":"F"},"bonus":0.48000000000000054},{"rt":3667.5,"stimulus":"bees-with-color/bee-B1DF.svg","response":1,"trial_type":"image-button-response","trial_index":15,"time_elapsed":642701,"internal_node_id":"0.0-4.0-0.2","subject_id":"613bf413729dea836480c2c7","study_id":"60edd13110225f80f9f3709b","session_id":"6196c4a529da98ed259c3e29","condition":"full-information","relevant_dimensions":["antennae","legs"],"bee_group":{"antennae":"A","wings":"X","pattern":"X","legs":"F"},"action":"avoid","summary":"bad-avoid","bonus":0.48000000000000054},{"rt":22362.20000000298,"stimulus":"\n                    <p><b>Action: <em>avoid</em></b></p>\n                    <p>This is the bee that you just saw.</p>\n                    <img src=\"bees-with-color/bee-B1DF.svg\" width=\"200\">\n                    <p><span class=\"redText\">Bad choice,</span> the bee was friendly.<br>Your bonus pay is unchanged, and remains at $0.46.</p>\n            ","response":0,"trial_type":"html-button-response","trial_index":16,"time_elapsed":665065,"internal_node_id":"0.0-4.0-1.2","subject_id":"613bf413729dea836480c2c7","study_id":"60edd13110225f80f9f3709b","session_id":"6196c4a529da98ed259c3e29","condition":"full-information","relevant_dimensions":["antennae","legs"],"bee_group":{"antennae":"A","wings":"X","pattern":"X","legs":"F"},"bonus":0.48000000000000054},{"rt":5657.9000000059605,"stimulus":"bees-with-color/bee-A1DF.svg","response":0,"trial_type":"image-button-response","trial_index":17,"time_elapsed":670725,"internal_node_id":"0.0-4.0-0.3","subject_id":"613bf413729dea836480c2c7","study_id":"60edd13110225f80f9f3709b","session_id":"6196c4a529da98ed259c3e29","condition":"full-information","relevant_dimensions":["antennae","legs"],"bee_group":{"antennae":"A","wings":"X","pattern":"X","legs":"F"},"action":"harvest","summary":"bad-harvest","bonus":0.48000000000000054},{"rt":12702.10000000894,"stimulus":"\n                    <p><b>Action: <em>harvest</em></b></p>\n                    <p>This is the bee that you just saw.</p>\n                    <img src=\"bees-with-color/bee-A1DF.svg\" width=\"200\">\n                    <p><span class=\"redText\">Bad choice, the bee was angry.</span><br><b>You have been stung!</b><br>Your pay has been decreased by $0.10. Your bonus pay is now $0.36.</p>\n            ","response":0,"trial_type":"html-button-response","trial_index":18,"time_elapsed":683429,"internal_node_id":"0.0-4.0-1.3","subject_id":"613bf413729dea836480c2c7","study_id":"60edd13110225f80f9f3709b","session_id":"6196c4a529da98ed259c3e29","condition":"full-information","relevant_dimensions":["antennae","legs"],"bee_group":{"antennae":"A","wings":"X","pattern":"X","legs":"F"},"bonus":0.48000000000000054},{"rt":3509.7000000029802,"stimulus":"bees-with-color/bee-B1DM.svg","response":0,"trial_type":"image-button-response","trial_index":19,"time_elapsed":686941,"internal_node_id":"0.0-4.0-0.4","subject_id":"613bf413729dea836480c2c7","study_id":"60edd13110225f80f9f3709b","session_id":"6196c4a529da98ed259c3e29","condition":"full-information","relevant_dimensions":["antennae","legs"],"bee_group":{"antennae":"A","wings":"X","pattern":"X","legs":"F"},"action":"harvest","summary":"good-harvest","bonus":0.48000000000000054},{"rt":6897.5999999940395,"stimulus":"\n                    <p><b>Action: <em>harvest</em></b></p>\n                    <p>This is the bee that you just saw.</p>\n                    <img src=\"bees-with-color/bee-B1DM.svg\" width=\"200\">\n                    <p><span class=\"greenText\"><b>Successful harvest!</b></span><br>Your pay has increased by $0.02. Your bonus pay is now $0.38.</p>\n            ","response":0,"trial_type":"html-button-response","trial_index":20,"time_elapsed":693841,"internal_node_id":"0.0-4.0-1.4","subject_id":"613bf413729dea836480c2c7","study_id":"60edd13110225f80f9f3709b","session_id":"6196c4a529da98ed259c3e29","condition":"full-information","relevant_dimensions":["antennae","legs"],"bee_group":{"antennae":"A","wings":"X","pattern":"X","legs":"F"},"bonus":0.48000000000000054},{"rt":2196.1000000089407,"stimulus":"bees-with-color/bee-A2DM.svg","response":1,"trial_type":"image-button-response","trial_index":21,"time_elapsed":696039,"internal_node_id":"0.0-4.0-0.5","subject_id":"613bf413729dea836480c2c7","study_id":"60edd13110225f80f9f3709b","session_id":"6196c4a529da98ed259c3e29","condition":"full-information","relevant_dimensions":["antennae","legs"],"bee_group":{"antennae":"A","wings":"X","pattern":"X","legs":"F"},"action":"avoid","summary":"bad-avoid","bonus":0.48000000000000054},{"rt":9436.29999999702,"stimulus":"\n                    <p><b>Action: <em>avoid</em></b></p>\n                    <p>This is the bee that you just saw.</p>\n                    <img src=\"bees-with-color/bee-A2DM.svg\" width=\"200\">\n                    <p><span class=\"redText\">Bad choice,</span> the bee was friendly.<br>Your bonus pay is unchanged, and remains at $0.38.</p>\n            ","response":0,"trial_type":"html-button-response","trial_index":22,"time_elapsed":705477,"internal_node_id":"0.0-4.0-1.5","subject_id":"613bf413729dea836480c2c7","study_id":"60edd13110225f80f9f3709b","session_id":"6196c4a529da98ed259c3e29","condition":"full-information","relevant_dimensions":["antennae","legs"],"bee_group":{"antennae":"A","wings":"X","pattern":"X","legs":"F"},"bonus":0.48000000000000054},{"rt":2474,"stimulus":"bees-with-color/bee-A1DM.svg","response":1,"trial_type":"image-button-response","trial_index":23,"time_elapsed":707953,"internal_node_id":"0.0-4.0-0.6","subject_id":"613bf413729dea836480c2c7","study_id":"60edd13110225f80f9f3709b","session_id":"6196c4a529da98ed259c3e29","condition":"full-information","relevant_dimensions":["antennae","legs"],"bee_group":{"antennae":"A","wings":"X","pattern":"X","legs":"F"},"action":"avoid","summary":"bad-avoid","bonus":0.48000000000000054},{"rt":5897.9000000059605,"stimulus":"\n                    <p><b>Action: <em>avoid</em></b></p>\n                    <p>This is the bee that you just saw.</p>\n                    <img src=\"bees-with-color/bee-A1DM.svg\" width=\"200\">\n                    <p><span class=\"redText\">Bad choice,</span> the bee was friendly.<br>Your bonus pay is unchanged, and remains at $0.38.</p>\n            ","response":0,"trial_type":"html-button-response","trial_index":24,"time_elapsed":713853,"internal_node_id":"0.0-4.0-1.6","subject_id":"613bf413729dea836480c2c7","study_id":"60edd13110225f80f9f3709b","session_id":"6196c4a529da98ed259c3e29","condition":"full-information","relevant_dimensions":["antennae","legs"],"bee_group":{"antennae":"A","wings":"X","pattern":"X","legs":"F"},"bonus":0.48000000000000054},{"rt":7660.20000000298,"stimulus":"bees-with-color/bee-B1SF.svg","response":1,"trial_type":"image-button-response","trial_index":25,"time_elapsed":721515,"internal_node_id":"0.0-4.0-0.7","subject_id":"613bf413729dea836480c2c7","study_id":"60edd13110225f80f9f3709b","session_id":"6196c4a529da98ed259c3e29","condition":"full-information","relevant_dimensions":["antennae","legs"],"bee_group":{"antennae":"A","wings":"X","pattern":"X","legs":"F"},"action":"avoid","summary":"bad-avoid","bonus":0.48000000000000054},{"rt":5212.20000000298,"stimulus":"\n                    <p><b>Action: <em>avoid</em></b></p>\n                    <p>This is the bee that you just saw.</p>\n                    <img src=\"bees-with-color/bee-B1SF.svg\" width=\"200\">\n                    <p><span class=\"redText\">Bad choice,</span> the bee was friendly.<br>Your bonus pay is unchanged, and remains at $0.38.</p>\n            ","response":0,"trial_type":"html-button-response","trial_index":26,"time_elapsed":726729,"internal_node_id":"0.0-4.0-1.7","subject_id":"613bf413729dea836480c2c7","study_id":"60edd13110225f80f9f3709b","session_id":"6196c4a529da98ed259c3e29","condition":"full-information","relevant_dimensions":["antennae","legs"],"bee_group":{"antennae":"A","wings":"X","pattern":"X","legs":"F"},"bonus":0.48000000000000054},{"rt":1875.7000000029802,"stimulus":"bees-with-color/bee-A1SM.svg","response":0,"trial_type":"image-button-response","trial_index":27,"time_elapsed":728607,"internal_node_id":"0.0-4.0-0.8","subject_id":"613bf413729dea836480c2c7","study_id":"60edd13110225f80f9f3709b","session_id":"6196c4a529da98ed259c3e29","condition":"full-information","relevant_dimensions":["antennae","legs"],"bee_group":{"antennae":"A","wings":"X","pattern":"X","legs":"F"},"action":"harvest","summary":"good-harvest","bonus":0.48000000000000054},{"rt":2516.2000000029802,"stimulus":"\n                    <p><b>Action: <em>harvest</em></b></p>\n                    <p>This is the bee that you just saw.</p>\n                    <img src=\"bees-with-color/bee-A1SM.svg\" width=\"200\">\n                    <p><span class=\"greenText\"><b>Successful harvest!</b></span><br>Your pay has increased by $0.02. Your bonus pay is now $0.40.</p>\n            ","response":0,"trial_type":"html-button-response","trial_index":28,"time_elapsed":731125,"internal_node_id":"0.0-4.0-1.8","subject_id":"613bf413729dea836480c2c7","study_id":"60edd13110225f80f9f3709b","session_id":"6196c4a529da98ed259c3e29","condition":"full-information","relevant_dimensions":["antennae","legs"],"bee_group":{"antennae":"A","wings":"X","pattern":"X","legs":"F"},"bonus":0.48000000000000054},{"rt":1810.2000000029802,"stimulus":"bees-with-color/bee-B2SM.svg","response":1,"trial_type":"image-button-response","trial_index":29,"time_elapsed":732937,"internal_node_id":"0.0-4.0-0.9","subject_id":"613bf413729dea836480c2c7","study_id":"60edd13110225f80f9f3709b","session_id":"6196c4a529da98ed259c3e29","condition":"full-information","relevant_dimensions":["antennae","legs"],"bee_group":{"antennae":"A","wings":"X","pattern":"X","legs":"F"},"action":"avoid","summary":"bad-avoid","bonus":0.48000000000000054},{"rt":3043.9000000059605,"stimulus":"\n                    <p><b>Action: <em>avoid</em></b></p>\n                    <p>This is the bee that you just saw.</p>\n                    <img src=\"bees-with-color/bee-B2SM.svg\" width=\"200\">\n                    <p><span class=\"redText\">Bad choice,</span> the bee was friendly.<br>Your bonus pay is unchanged, and remains at $0.40.</p>\n            ","response":0,"trial_type":"html-button-response","trial_index":30,"time_elapsed":735983,"internal_node_id":"0.0-4.0-1.9","subject_id":"613bf413729dea836480c2c7","study_id":"60edd13110225f80f9f3709b","session_id":"6196c4a529da98ed259c3e29","condition":"full-information","relevant_dimensions":["antennae","legs"],"bee_group":{"antennae":"A","wings":"X","pattern":"X","legs":"F"},"bonus":0.48000000000000054},{"rt":2830.1000000089407,"stimulus":"bees-with-color/bee-A2SF.svg","response":0,"trial_type":"image-button-response","trial_index":31,"time_elapsed":738814,"internal_node_id":"0.0-4.0-0.10","subject_id":"613bf413729dea836480c2c7","study_id":"60edd13110225f80f9f3709b","session_id":"6196c4a529da98ed259c3e29","condition":"full-information","relevant_dimensions":["antennae","legs"],"bee_group":{"antennae":"A","wings":"X","pattern":"X","legs":"F"},"action":"harvest","summary":"bad-harvest","bonus":0.48000000000000054},{"rt":4086.199999988079,"stimulus":"\n                    <p><b>Action: <em>harvest</em></b></p>\n                    <p>This is the bee that you just saw.</p>\n                    <img src=\"bees-with-color/bee-A2SF.svg\" width=\"200\">\n                    <p><span class=\"redText\">Bad choice, the bee was angry.</span><br><b>You have been stung!</b><br>Your pay has been decreased by $0.10. Your bonus pay is now $0.30.</p>\n            ","response":0,"trial_type":"html-button-response","trial_index":32,"time_elapsed":742903,"internal_node_id":"0.0-4.0-1.10","subject_id":"613bf413729dea836480c2c7","study_id":"60edd13110225f80f9f3709b","session_id":"6196c4a529da98ed259c3e29","condition":"full-information","relevant_dimensions":["antennae","legs"],"bee_group":{"antennae":"A","wings":"X","pattern":"X","legs":"F"},"bonus":0.48000000000000054},{"rt":3107.7999999970198,"stimulus":"bees-with-color/bee-B2DM.svg","response":1,"trial_type":"image-button-response","trial_index":33,"time_elapsed":746012,"internal_node_id":"0.0-4.0-0.11","subject_id":"613bf413729dea836480c2c7","study_id":"60edd13110225f80f9f3709b","session_id":"6196c4a529da98ed259c3e29","condition":"full-information","relevant_dimensions":["antennae","legs"],"bee_group":{"antennae":"A","wings":"X","pattern":"X","legs":"F"},"action":"avoid","summary":"bad-avoid","bonus":0.48000000000000054},{"rt":7352.29999999702,"stimulus":"\n                    <p><b>Action: <em>avoid</em></b></p>\n                    <p>This is the bee that you just saw.</p>\n                    <img src=\"bees-with-color/bee-B2DM.svg\" width=\"200\">\n                    <p><span class=\"redText\">Bad choice,</span> the bee was friendly.<br>Your bonus pay is unchanged, and remains at $0.30.</p>\n            ","response":0,"trial_type":"html-button-response","trial_index":34,"time_elapsed":753367,"internal_node_id":"0.0-4.0-1.11","subject_id":"613bf413729dea836480c2c7","study_id":"60edd13110225f80f9f3709b","session_id":"6196c4a529da98ed259c3e29","condition":"full-information","relevant_dimensions":["antennae","legs"],"bee_group":{"antennae":"A","wings":"X","pattern":"X","legs":"F"},"bonus":0.48000000000000054},{"rt":4856,"stimulus":"bees-with-color/bee-B2DF.svg","response":1,"trial_type":"image-button-response","trial_index":35,"time_elapsed":758224,"internal_node_id":"0.0-4.0-0.12","subject_id":"613bf413729dea836480c2c7","study_id":"60edd13110225f80f9f3709b","session_id":"6196c4a529da98ed259c3e29","condition":"full-information","relevant_dimensions":["antennae","legs"],"bee_group":{"antennae":"A","wings":"X","pattern":"X","legs":"F"},"action":"avoid","summary":"bad-avoid","bonus":0.48000000000000054},{"rt":2530.3999999910593,"stimulus":"\n                    <p><b>Action: <em>avoid</em></b></p>\n                    <p>This is the bee that you just saw.</p>\n                    <img src=\"bees-with-color/bee-B2DF.svg\" width=\"200\">\n                    <p><span class=\"redText\">Bad choice,</span> the bee was friendly.<br>Your bonus pay is unchanged, and remains at $0.30.</p>\n            ","response":0,"trial_type":"html-button-response","trial_index":36,"time_elapsed":760757,"internal_node_id":"0.0-4.0-1.12","subject_id":"613bf413729dea836480c2c7","study_id":"60edd13110225f80f9f3709b","session_id":"6196c4a529da98ed259c3e29","condition":"full-information","relevant_dimensions":["antennae","legs"],"bee_group":{"antennae":"A","wings":"X","pattern":"X","legs":"F"},"bonus":0.48000000000000054},{"rt":3178.199999988079,"stimulus":"bees-with-color/bee-A1SF.svg","response":0,"trial_type":"image-button-response","trial_index":37,"time_elapsed":763936,"internal_node_id":"0.0-4.0-0.13","subject_id":"613bf413729dea836480c2c7","study_id":"60edd13110225f80f9f3709b","session_id":"6196c4a529da98ed259c3e29","condition":"full-information","relevant_dimensions":["antennae","legs"],"bee_group":{"antennae":"A","wings":"X","pattern":"X","legs":"F"},"action":"harvest","summary":"bad-harvest","bonus":0.48000000000000054},{"rt":2574.3999999910593,"stimulus":"\n                    <p><b>Action: <em>harvest</em></b></p>\n                    <p>This is the bee that you just saw.</p>\n                    <img src=\"bees-with-color/bee-A1SF.svg\" width=\"200\">\n                    <p><span class=\"redText\">Bad choice, the bee was angry.</span><br><b>You have been stung!</b><br>Your pay has been decreased by $0.10. Your bonus pay is now $0.20.</p>\n            ","response":0,"trial_type":"html-button-response","trial_index":38,"time_elapsed":766513,"internal_node_id":"0.0-4.0-1.13","subject_id":"613bf413729dea836480c2c7","study_id":"60edd13110225f80f9f3709b","session_id":"6196c4a529da98ed259c3e29","condition":"full-information","relevant_dimensions":["antennae","legs"],"bee_group":{"antennae":"A","wings":"X","pattern":"X","legs":"F"},"bonus":0.48000000000000054},{"rt":2898.0999999940395,"stimulus":"bees-with-color/bee-B1SM.svg","response":0,"trial_type":"image-button-response","trial_index":39,"time_elapsed":769412,"internal_node_id":"0.0-4.0-0.14","subject_id":"613bf413729dea836480c2c7","study_id":"60edd13110225f80f9f3709b","session_id":"6196c4a529da98ed259c3e29","condition":"full-information","relevant_dimensions":["antennae","legs"],"bee_group":{"antennae":"A","wings":"X","pattern":"X","legs":"F"},"action":"harvest","summary":"good-harvest","bonus":0.48000000000000054},{"rt":4378.399999991059,"stimulus":"\n                    <p><b>Action: <em>harvest</em></b></p>\n                    <p>This is the bee that you just saw.</p>\n                    <img src=\"bees-with-color/bee-B1SM.svg\" width=\"200\">\n                    <p><span class=\"greenText\"><b>Successful harvest!</b></span><br>Your pay has increased by $0.02. Your bonus pay is now $0.22.</p>\n            ","response":0,"trial_type":"html-button-response","trial_index":40,"time_elapsed":773793,"internal_node_id":"0.0-4.0-1.14","subject_id":"613bf413729dea836480c2c7","study_id":"60edd13110225f80f9f3709b","session_id":"6196c4a529da98ed259c3e29","condition":"full-information","relevant_dimensions":["antennae","legs"],"bee_group":{"antennae":"A","wings":"X","pattern":"X","legs":"F"},"bonus":0.48000000000000054},{"rt":1857.7999999970198,"stimulus":"bees-with-color/bee-B2SF.svg","response":1,"trial_type":"image-button-response","trial_index":41,"time_elapsed":775653,"internal_node_id":"0.0-4.0-0.15","subject_id":"613bf413729dea836480c2c7","study_id":"60edd13110225f80f9f3709b","session_id":"6196c4a529da98ed259c3e29","condition":"full-information","relevant_dimensions":["antennae","legs"],"bee_group":{"antennae":"A","wings":"X","pattern":"X","legs":"F"},"action":"avoid","summary":"bad-avoid","bonus":0.48000000000000054},{"rt":2192.2999999970198,"stimulus":"\n                    <p><b>Action: <em>avoid</em></b></p>\n                    <p>This is the bee that you just saw.</p>\n                    <img src=\"bees-with-color/bee-B2SF.svg\" width=\"200\">\n                    <p><span class=\"redText\">Bad choice,</span> the bee was friendly.<br>Your bonus pay is unchanged, and remains at $0.22.</p>\n            ","response":0,"trial_type":"html-button-response","trial_index":42,"time_elapsed":777847,"internal_node_id":"0.0-4.0-1.15","subject_id":"613bf413729dea836480c2c7","study_id":"60edd13110225f80f9f3709b","session_id":"6196c4a529da98ed259c3e29","condition":"full-information","relevant_dimensions":["antennae","legs"],"bee_group":{"antennae":"A","wings":"X","pattern":"X","legs":"F"},"bonus":0.48000000000000054},{"rt":6616.0999999940395,"stimulus":"bees-with-color/bee-B1SF.svg","response":1,"trial_type":"image-button-response","trial_index":43,"time_elapsed":784464,"internal_node_id":"0.0-4.0-0.16","subject_id":"613bf413729dea836480c2c7","study_id":"60edd13110225f80f9f3709b","session_id":"6196c4a529da98ed259c3e29","condition":"full-information","relevant_dimensions":["antennae","legs"],"bee_group":{"antennae":"A","wings":"X","pattern":"X","legs":"F"},"action":"avoid","summary":"bad-avoid","bonus":0.48000000000000054},{"rt":1852.4000000059605,"stimulus":"\n                    <p><b>Action: <em>avoid</em></b></p>\n                    <p>This is the bee that you just saw.</p>\n                    <img src=\"bees-with-color/bee-B1SF.svg\" width=\"200\">\n                    <p><span class=\"redText\">Bad choice,</span> the bee was friendly.<br>Your bonus pay is unchanged, and remains at $0.22.</p>\n            ","response":0,"trial_type":"html-button-response","trial_index":44,"time_elapsed":786318,"internal_node_id":"0.0-4.0-1.16","subject_id":"613bf413729dea836480c2c7","study_id":"60edd13110225f80f9f3709b","session_id":"6196c4a529da98ed259c3e29","condition":"full-information","relevant_dimensions":["antennae","legs"],"bee_group":{"antennae":"A","wings":"X","pattern":"X","legs":"F"},"bonus":0.48000000000000054},{"rt":3716.2999999970198,"stimulus":"bees-with-color/bee-A1DF.svg","response":1,"trial_type":"image-button-response","trial_index":45,"time_elapsed":790036,"internal_node_id":"0.0-4.0-0.17","subject_id":"613bf413729dea836480c2c7","study_id":"60edd13110225f80f9f3709b","session_id":"6196c4a529da98ed259c3e29","condition":"full-information","relevant_dimensions":["antennae","legs"],"bee_group":{"antennae":"A","wings":"X","pattern":"X","legs":"F"},"action":"avoid","summary":"good-avoid","bonus":0.48000000000000054},{"rt":1528.5,"stimulus":"\n                    <p><b>Action: <em>avoid</em></b></p>\n                    <p>This is the bee that you just saw.</p>\n                    <img src=\"bees-with-color/bee-A1DF.svg\" width=\"200\">\n                    <p><span class=\"greenText\">Good choice!</span>  This bee would have stung you.<br>Your bonus pay is unchanged, and remains at $0.22.</p>\n            ","response":0,"trial_type":"html-button-response","trial_index":46,"time_elapsed":791566,"internal_node_id":"0.0-4.0-1.17","subject_id":"613bf413729dea836480c2c7","study_id":"60edd13110225f80f9f3709b","session_id":"6196c4a529da98ed259c3e29","condition":"full-information","relevant_dimensions":["antennae","legs"],"bee_group":{"antennae":"A","wings":"X","pattern":"X","legs":"F"},"bonus":0.48000000000000054},{"rt":2378,"stimulus":"bees-with-color/bee-B2DF.svg","response":0,"trial_type":"image-button-response","trial_index":47,"time_elapsed":793946,"internal_node_id":"0.0-4.0-0.18","subject_id":"613bf413729dea836480c2c7","study_id":"60edd13110225f80f9f3709b","session_id":"6196c4a529da98ed259c3e29","condition":"full-information","relevant_dimensions":["antennae","legs"],"bee_group":{"antennae":"A","wings":"X","pattern":"X","legs":"F"},"action":"harvest","summary":"good-harvest","bonus":0.48000000000000054},{"rt":13804.300000011921,"stimulus":"\n                    <p><b>Action: <em>harvest</em></b></p>\n                    <p>This is the bee that you just saw.</p>\n                    <img src=\"bees-with-color/bee-B2DF.svg\" width=\"200\">\n                    <p><span class=\"greenText\"><b>Successful harvest!</b></span><br>Your pay has increased by $0.02. Your bonus pay is now $0.24.</p>\n            ","response":0,"trial_type":"html-button-response","trial_index":48,"time_elapsed":807752,"internal_node_id":"0.0-4.0-1.18","subject_id":"613bf413729dea836480c2c7","study_id":"60edd13110225f80f9f3709b","session_id":"6196c4a529da98ed259c3e29","condition":"full-information","relevant_dimensions":["antennae","legs"],"bee_group":{"antennae":"A","wings":"X","pattern":"X","legs":"F"},"bonus":0.48000000000000054},{"rt":3020.300000011921,"stimulus":"bees-with-color/bee-B1SM.svg","response":0,"trial_type":"image-button-response","trial_index":49,"time_elapsed":810774,"internal_node_id":"0.0-4.0-0.19","subject_id":"613bf413729dea836480c2c7","study_id":"60edd13110225f80f9f3709b","session_id":"6196c4a529da98ed259c3e29","condition":"full-information","relevant_dimensions":["antennae","legs"],"bee_group":{"antennae":"A","wings":"X","pattern":"X","legs":"F"},"action":"harvest","summary":"good-harvest","bonus":0.48000000000000054},{"rt":18480.29999999702,"stimulus":"\n                    <p><b>Action: <em>harvest</em></b></p>\n                    <p>This is the bee that you just saw.</p>\n                    <img src=\"bees-with-color/bee-B1SM.svg\" width=\"200\">\n                    <p><span class=\"greenText\"><b>Successful harvest!</b></span><br>Your pay has increased by $0.02. Your bonus pay is now $0.26.</p>\n            ","response":0,"trial_type":"html-button-response","trial_index":50,"time_elapsed":829256,"internal_node_id":"0.0-4.0-1.19","subject_id":"613bf413729dea836480c2c7","study_id":"60edd13110225f80f9f3709b","session_id":"6196c4a529da98ed259c3e29","condition":"full-information","relevant_dimensions":["antennae","legs"],"bee_group":{"antennae":"A","wings":"X","pattern":"X","legs":"F"},"bonus":0.48000000000000054},{"rt":4384.4000000059605,"stimulus":"bees-with-color/bee-B1DM.svg","response":0,"trial_type":"image-button-response","trial_index":51,"time_elapsed":833642,"internal_node_id":"0.0-4.0-0.20","subject_id":"613bf413729dea836480c2c7","study_id":"60edd13110225f80f9f3709b","session_id":"6196c4a529da98ed259c3e29","condition":"full-information","relevant_dimensions":["antennae","legs"],"bee_group":{"antennae":"A","wings":"X","pattern":"X","legs":"F"},"action":"harvest","summary":"good-harvest","bonus":0.48000000000000054},{"rt":2114.3999999910593,"stimulus":"\n                    <p><b>Action: <em>harvest</em></b></p>\n                    <p>This is the bee that you just saw.</p>\n                    <img src=\"bees-with-color/bee-B1DM.svg\" width=\"200\">\n                    <p><span class=\"greenText\"><b>Successful harvest!</b></span><br>Your pay has increased by $0.02. Your bonus pay is now $0.28.</p>\n            ","response":0,"trial_type":"html-button-response","trial_index":52,"time_elapsed":835758,"internal_node_id":"0.0-4.0-1.20","subject_id":"613bf413729dea836480c2c7","study_id":"60edd13110225f80f9f3709b","session_id":"6196c4a529da98ed259c3e29","condition":"full-information","relevant_dimensions":["antennae","legs"],"bee_group":{"antennae":"A","wings":"X","pattern":"X","legs":"F"},"bonus":0.48000000000000054},{"rt":3110.3999999910593,"stimulus":"bees-with-color/bee-B1DF.svg","response":0,"trial_type":"image-button-response","trial_index":53,"time_elapsed":838870,"internal_node_id":"0.0-4.0-0.21","subject_id":"613bf413729dea836480c2c7","study_id":"60edd13110225f80f9f3709b","session_id":"6196c4a529da98ed259c3e29","condition":"full-information","relevant_dimensions":["antennae","legs"],"bee_group":{"antennae":"A","wings":"X","pattern":"X","legs":"F"},"action":"harvest","summary":"good-harvest","bonus":0.48000000000000054},{"rt":964.2999999970198,"stimulus":"\n                    <p><b>Action: <em>harvest</em></b></p>\n                    <p>This is the bee that you just saw.</p>\n                    <img src=\"bees-with-color/bee-B1DF.svg\" width=\"200\">\n                    <p><span class=\"greenText\"><b>Successful harvest!</b></span><br>Your pay has increased by $0.02. Your bonus pay is now $0.30.</p>\n            ","response":0,"trial_type":"html-button-response","trial_index":54,"time_elapsed":839836,"internal_node_id":"0.0-4.0-1.21","subject_id":"613bf413729dea836480c2c7","study_id":"60edd13110225f80f9f3709b","session_id":"6196c4a529da98ed259c3e29","condition":"full-information","relevant_dimensions":["antennae","legs"],"bee_group":{"antennae":"A","wings":"X","pattern":"X","legs":"F"},"bonus":0.48000000000000054},{"rt":7314.29999999702,"stimulus":"bees-with-color/bee-B2SM.svg","response":0,"trial_type":"image-button-response","trial_index":55,"time_elapsed":847152,"internal_node_id":"0.0-4.0-0.22","subject_id":"613bf413729dea836480c2c7","study_id":"60edd13110225f80f9f3709b","session_id":"6196c4a529da98ed259c3e29","condition":"full-information","relevant_dimensions":["antennae","legs"],"bee_group":{"antennae":"A","wings":"X","pattern":"X","legs":"F"},"action":"harvest","summary":"good-harvest","bonus":0.48000000000000054},{"rt":14642.39999999106,"stimulus":"\n                    <p><b>Action: <em>harvest</em></b></p>\n                    <p>This is the bee that you just saw.</p>\n                    <img src=\"bees-with-color/bee-B2SM.svg\" width=\"200\">\n                    <p><span class=\"greenText\"><b>Successful harvest!</b></span><br>Your pay has increased by $0.02. Your bonus pay is now $0.32.</p>\n            ","response":0,"trial_type":"html-button-response","trial_index":56,"time_elapsed":861796,"internal_node_id":"0.0-4.0-1.22","subject_id":"613bf413729dea836480c2c7","study_id":"60edd13110225f80f9f3709b","session_id":"6196c4a529da98ed259c3e29","condition":"full-information","relevant_dimensions":["antennae","legs"],"bee_group":{"antennae":"A","wings":"X","pattern":"X","legs":"F"},"bonus":0.48000000000000054},{"rt":4060.1000000089407,"stimulus":"bees-with-color/bee-A2DF.svg","response":1,"trial_type":"image-button-response","trial_index":57,"time_elapsed":865858,"internal_node_id":"0.0-4.0-0.23","subject_id":"613bf413729dea836480c2c7","study_id":"60edd13110225f80f9f3709b","session_id":"6196c4a529da98ed259c3e29","condition":"full-information","relevant_dimensions":["antennae","legs"],"bee_group":{"antennae":"A","wings":"X","pattern":"X","legs":"F"},"action":"avoid","summary":"good-avoid","bonus":0.48000000000000054},{"rt":1982.2999999970198,"stimulus":"\n                    <p><b>Action: <em>avoid</em></b></p>\n                    <p>This is the bee that you just saw.</p>\n                    <img src=\"bees-with-color/bee-A2DF.svg\" width=\"200\">\n                    <p><span class=\"greenText\">Good choice!</span>  This bee would have stung you.<br>Your bonus pay is unchanged, and remains at $0.32.</p>\n            ","response":0,"trial_type":"html-button-response","trial_index":58,"time_elapsed":867842,"internal_node_id":"0.0-4.0-1.23","subject_id":"613bf413729dea836480c2c7","study_id":"60edd13110225f80f9f3709b","session_id":"6196c4a529da98ed259c3e29","condition":"full-information","relevant_dimensions":["antennae","legs"],"bee_group":{"antennae":"A","wings":"X","pattern":"X","legs":"F"},"bonus":0.48000000000000054},{"rt":2454.4000000059605,"stimulus":"bees-with-color/bee-A1DM.svg","response":1,"trial_type":"image-button-response","trial_index":59,"time_elapsed":870298,"internal_node_id":"0.0-4.0-0.24","subject_id":"613bf413729dea836480c2c7","study_id":"60edd13110225f80f9f3709b","session_id":"6196c4a529da98ed259c3e29","condition":"full-information","relevant_dimensions":["antennae","legs"],"bee_group":{"antennae":"A","wings":"X","pattern":"X","legs":"F"},"action":"avoid","summary":"bad-avoid","bonus":0.48000000000000054},{"rt":11816.39999999106,"stimulus":"\n                    <p><b>Action: <em>avoid</em></b></p>\n                    <p>This is the bee that you just saw.</p>\n                    <img src=\"bees-with-color/bee-A1DM.svg\" width=\"200\">\n                    <p><span class=\"redText\">Bad choice,</span> the bee was friendly.<br>Your bonus pay is unchanged, and remains at $0.32.</p>\n            ","response":0,"trial_type":"html-button-response","trial_index":60,"time_elapsed":882116,"internal_node_id":"0.0-4.0-1.24","subject_id":"613bf413729dea836480c2c7","study_id":"60edd13110225f80f9f3709b","session_id":"6196c4a529da98ed259c3e29","condition":"full-information","relevant_dimensions":["antennae","legs"],"bee_group":{"antennae":"A","wings":"X","pattern":"X","legs":"F"},"bonus":0.48000000000000054},{"rt":8524.199999988079,"stimulus":"bees-with-color/bee-A2SM.svg","response":0,"trial_type":"image-button-response","trial_index":61,"time_elapsed":890642,"internal_node_id":"0.0-4.0-0.25","subject_id":"613bf413729dea836480c2c7","study_id":"60edd13110225f80f9f3709b","session_id":"6196c4a529da98ed259c3e29","condition":"full-information","relevant_dimensions":["antennae","legs"],"bee_group":{"antennae":"A","wings":"X","pattern":"X","legs":"F"},"action":"harvest","summary":"good-harvest","bonus":0.48000000000000054},{"rt":1096.3999999910593,"stimulus":"\n                    <p><b>Action: <em>harvest</em></b></p>\n                    <p>This is the bee that you just saw.</p>\n                    <img src=\"bees-with-color/bee-A2SM.svg\" width=\"200\">\n                    <p><span class=\"greenText\"><b>Successful harvest!</b></span><br>Your pay has increased by $0.02. Your bonus pay is now $0.34.</p>\n            ","response":0,"trial_type":"html-button-response","trial_index":62,"time_elapsed":891740,"internal_node_id":"0.0-4.0-1.25","subject_id":"613bf413729dea836480c2c7","study_id":"60edd13110225f80f9f3709b","session_id":"6196c4a529da98ed259c3e29","condition":"full-information","relevant_dimensions":["antennae","legs"],"bee_group":{"antennae":"A","wings":"X","pattern":"X","legs":"F"},"bonus":0.48000000000000054},{"rt":3064.3999999910593,"stimulus":"bees-with-color/bee-B2DM.svg","response":0,"trial_type":"image-button-response","trial_index":63,"time_elapsed":894806,"internal_node_id":"0.0-4.0-0.26","subject_id":"613bf413729dea836480c2c7","study_id":"60edd13110225f80f9f3709b","session_id":"6196c4a529da98ed259c3e29","condition":"full-information","relevant_dimensions":["antennae","legs"],"bee_group":{"antennae":"A","wings":"X","pattern":"X","legs":"F"},"action":"harvest","summary":"good-harvest","bonus":0.48000000000000054},{"rt":1344.2999999970198,"stimulus":"\n                    <p><b>Action: <em>harvest</em></b></p>\n                    <p>This is the bee that you just saw.</p>\n                    <img src=\"bees-with-color/bee-B2DM.svg\" width=\"200\">\n                    <p><span class=\"greenText\"><b>Successful harvest!</b></span><br>Your pay has increased by $0.02. Your bonus pay is now $0.36.</p>\n            ","response":0,"trial_type":"html-button-response","trial_index":64,"time_elapsed":896152,"internal_node_id":"0.0-4.0-1.26","subject_id":"613bf413729dea836480c2c7","study_id":"60edd13110225f80f9f3709b","session_id":"6196c4a529da98ed259c3e29","condition":"full-information","relevant_dimensions":["antennae","legs"],"bee_group":{"antennae":"A","wings":"X","pattern":"X","legs":"F"},"bonus":0.48000000000000054},{"rt":2726.4000000059605,"stimulus":"bees-with-color/bee-A1SM.svg","response":1,"trial_type":"image-button-response","trial_index":65,"time_elapsed":898880,"internal_node_id":"0.0-4.0-0.27","subject_id":"613bf413729dea836480c2c7","study_id":"60edd13110225f80f9f3709b","session_id":"6196c4a529da98ed259c3e29","condition":"full-information","relevant_dimensions":["antennae","legs"],"bee_group":{"antennae":"A","wings":"X","pattern":"X","legs":"F"},"action":"avoid","summary":"bad-avoid","bonus":0.48000000000000054},{"rt":1094.2999999970198,"stimulus":"\n                    <p><b>Action: <em>avoid</em></b></p>\n                    <p>This is the bee that you just saw.</p>\n                    <img src=\"bees-with-color/bee-A1SM.svg\" width=\"200\">\n                    <p><span class=\"redText\">Bad choice,</span> the bee was friendly.<br>Your bonus pay is unchanged, and remains at $0.36.</p>\n            ","response":0,"trial_type":"html-button-response","trial_index":66,"time_elapsed":899976,"internal_node_id":"0.0-4.0-1.27","subject_id":"613bf413729dea836480c2c7","study_id":"60edd13110225f80f9f3709b","session_id":"6196c4a529da98ed259c3e29","condition":"full-information","relevant_dimensions":["antennae","legs"],"bee_group":{"antennae":"A","wings":"X","pattern":"X","legs":"F"},"bonus":0.48000000000000054},{"rt":9198.39999999106,"stimulus":"bees-with-color/bee-B2SF.svg","response":1,"trial_type":"image-button-response","trial_index":67,"time_elapsed":909176,"internal_node_id":"0.0-4.0-0.28","subject_id":"613bf413729dea836480c2c7","study_id":"60edd13110225f80f9f3709b","session_id":"6196c4a529da98ed259c3e29","condition":"full-information","relevant_dimensions":["antennae","legs"],"bee_group":{"antennae":"A","wings":"X","pattern":"X","legs":"F"},"action":"avoid","summary":"bad-avoid","bonus":0.48000000000000054},{"rt":886.2999999970198,"stimulus":"\n                    <p><b>Action: <em>avoid</em></b></p>\n                    <p>This is the bee that you just saw.</p>\n                    <img src=\"bees-with-color/bee-B2SF.svg\" width=\"200\">\n                    <p><span class=\"redText\">Bad choice,</span> the bee was friendly.<br>Your bonus pay is unchanged, and remains at $0.36.</p>\n            ","response":0,"trial_type":"html-button-response","trial_index":68,"time_elapsed":910064,"internal_node_id":"0.0-4.0-1.28","subject_id":"613bf413729dea836480c2c7","study_id":"60edd13110225f80f9f3709b","session_id":"6196c4a529da98ed259c3e29","condition":"full-information","relevant_dimensions":["antennae","legs"],"bee_group":{"antennae":"A","wings":"X","pattern":"X","legs":"F"},"bonus":0.48000000000000054},{"rt":3208.0999999940395,"stimulus":"bees-with-color/bee-A1SF.svg","response":0,"trial_type":"image-button-response","trial_index":69,"time_elapsed":913274,"internal_node_id":"0.0-4.0-0.29","subject_id":"613bf413729dea836480c2c7","study_id":"60edd13110225f80f9f3709b","session_id":"6196c4a529da98ed259c3e29","condition":"full-information","relevant_dimensions":["antennae","legs"],"bee_group":{"antennae":"A","wings":"X","pattern":"X","legs":"F"},"action":"harvest","summary":"bad-harvest","bonus":0.48000000000000054},{"rt":1184.2999999970198,"stimulus":"\n                    <p><b>Action: <em>harvest</em></b></p>\n                    <p>This is the bee that you just saw.</p>\n                    <img src=\"bees-with-color/bee-A1SF.svg\" width=\"200\">\n                    <p><span class=\"redText\">Bad choice, the bee was angry.</span><br><b>You have been stung!</b><br>Your pay has been decreased by $0.10. Your bonus pay is now $0.26.</p>\n            ","response":0,"trial_type":"html-button-response","trial_index":70,"time_elapsed":914460,"internal_node_id":"0.0-4.0-1.29","subject_id":"613bf413729dea836480c2c7","study_id":"60edd13110225f80f9f3709b","session_id":"6196c4a529da98ed259c3e29","condition":"full-information","relevant_dimensions":["antennae","legs"],"bee_group":{"antennae":"A","wings":"X","pattern":"X","legs":"F"},"bonus":0.48000000000000054},{"rt":7158.20000000298,"stimulus":"bees-with-color/bee-A2SF.svg","response":0,"trial_type":"image-button-response","trial_index":71,"time_elapsed":921620,"internal_node_id":"0.0-4.0-0.30","subject_id":"613bf413729dea836480c2c7","study_id":"60edd13110225f80f9f3709b","session_id":"6196c4a529da98ed259c3e29","condition":"full-information","relevant_dimensions":["antennae","legs"],"bee_group":{"antennae":"A","wings":"X","pattern":"X","legs":"F"},"action":"harvest","summary":"bad-harvest","bonus":0.48000000000000054},{"rt":1168,"stimulus":"\n                    <p><b>Action: <em>harvest</em></b></p>\n                    <p>This is the bee that you just saw.</p>\n                    <img src=\"bees-with-color/bee-A2SF.svg\" width=\"200\">\n                    <p><span class=\"redText\">Bad choice, the bee was angry.</span><br><b>You have been stung!</b><br>Your pay has been decreased by $0.10. Your bonus pay is now $0.16.</p>\n            ","response":0,"trial_type":"html-button-response","trial_index":72,"time_elapsed":922790,"internal_node_id":"0.0-4.0-1.30","subject_id":"613bf413729dea836480c2c7","study_id":"60edd13110225f80f9f3709b","session_id":"6196c4a529da98ed259c3e29","condition":"full-information","relevant_dimensions":["antennae","legs"],"bee_group":{"antennae":"A","wings":"X","pattern":"X","legs":"F"},"bonus":0.48000000000000054},{"rt":2504.2000000029802,"stimulus":"bees-with-color/bee-A2DM.svg","response":0,"trial_type":"image-button-response","trial_index":73,"time_elapsed":925296,"internal_node_id":"0.0-4.0-0.31","subject_id":"613bf413729dea836480c2c7","study_id":"60edd13110225f80f9f3709b","session_id":"6196c4a529da98ed259c3e29","condition":"full-information","relevant_dimensions":["antennae","legs"],"bee_group":{"antennae":"A","wings":"X","pattern":"X","legs":"F"},"action":"harvest","summary":"good-harvest","bonus":0.48000000000000054},{"rt":758.4000000059605,"stimulus":"\n                    <p><b>Action: <em>harvest</em></b></p>\n                    <p>This is the bee that you just saw.</p>\n                    <img src=\"bees-with-color/bee-A2DM.svg\" width=\"200\">\n                    <p><span class=\"greenText\"><b>Successful harvest!</b></span><br>Your pay has increased by $0.02. Your bonus pay is now $0.18.</p>\n            ","response":0,"trial_type":"html-button-response","trial_index":74,"time_elapsed":926056,"internal_node_id":"0.0-4.0-1.31","subject_id":"613bf413729dea836480c2c7","study_id":"60edd13110225f80f9f3709b","session_id":"6196c4a529da98ed259c3e29","condition":"full-information","relevant_dimensions":["antennae","legs"],"bee_group":{"antennae":"A","wings":"X","pattern":"X","legs":"F"},"bonus":0.48000000000000054},{"rt":2986.6000000089407,"stimulus":"bees-with-color/bee-B2DM.svg","response":0,"trial_type":"image-button-response","trial_index":75,"time_elapsed":929044,"internal_node_id":"0.0-4.0-0.32","subject_id":"613bf413729dea836480c2c7","study_id":"60edd13110225f80f9f3709b","session_id":"6196c4a529da98ed259c3e29","condition":"full-information","relevant_dimensions":["antennae","legs"],"bee_group":{"antennae":"A","wings":"X","pattern":"X","legs":"F"},"action":"harvest","summary":"good-harvest","bonus":0.48000000000000054},{"rt":658.5,"stimulus":"\n                    <p><b>Action: <em>harvest</em></b></p>\n                    <p>This is the bee that you just saw.</p>\n                    <img src=\"bees-with-color/bee-B2DM.svg\" width=\"200\">\n                    <p><span class=\"greenText\"><b>Successful harvest!</b></span><br>Your pay has increased by $0.02. Your bonus pay is now $0.20.</p>\n            ","response":0,"trial_type":"html-button-response","trial_index":76,"time_elapsed":929704,"internal_node_id":"0.0-4.0-1.32","subject_id":"613bf413729dea836480c2c7","study_id":"60edd13110225f80f9f3709b","session_id":"6196c4a529da98ed259c3e29","condition":"full-information","relevant_dimensions":["antennae","legs"],"bee_group":{"antennae":"A","wings":"X","pattern":"X","legs":"F"},"bonus":0.48000000000000054},{"rt":4122.4000000059605,"stimulus":"bees-with-color/bee-A1SM.svg","response":0,"trial_type":"image-button-response","trial_index":77,"time_elapsed":933828,"internal_node_id":"0.0-4.0-0.33","subject_id":"613bf413729dea836480c2c7","study_id":"60edd13110225f80f9f3709b","session_id":"6196c4a529da98ed259c3e29","condition":"full-information","relevant_dimensions":["antennae","legs"],"bee_group":{"antennae":"A","wings":"X","pattern":"X","legs":"F"},"action":"harvest","summary":"good-harvest","bonus":0.48000000000000054},{"rt":830.5,"stimulus":"\n                    <p><b>Action: <em>harvest</em></b></p>\n                    <p>This is the bee that you just saw.</p>\n                    <img src=\"bees-with-color/bee-A1SM.svg\" width=\"200\">\n                    <p><span class=\"greenText\"><b>Successful harvest!</b></span><br>Your pay has increased by $0.02. Your bonus pay is now $0.22.</p>\n            ","response":0,"trial_type":"html-button-response","trial_index":78,"time_elapsed":934660,"internal_node_id":"0.0-4.0-1.33","subject_id":"613bf413729dea836480c2c7","study_id":"60edd13110225f80f9f3709b","session_id":"6196c4a529da98ed259c3e29","condition":"full-information","relevant_dimensions":["antennae","legs"],"bee_group":{"antennae":"A","wings":"X","pattern":"X","legs":"F"},"bonus":0.48000000000000054},{"rt":2284.300000011921,"stimulus":"bees-with-color/bee-A1DM.svg","response":1,"trial_type":"image-button-response","trial_index":79,"time_elapsed":936946,"internal_node_id":"0.0-4.0-0.34","subject_id":"613bf413729dea836480c2c7","study_id":"60edd13110225f80f9f3709b","session_id":"6196c4a529da98ed259c3e29","condition":"full-information","relevant_dimensions":["antennae","legs"],"bee_group":{"antennae":"A","wings":"X","pattern":"X","legs":"F"},"action":"avoid","summary":"bad-avoid","bonus":0.48000000000000054},{"rt":1046.2999999970198,"stimulus":"\n                    <p><b>Action: <em>avoid</em></b></p>\n                    <p>This is the bee that you just saw.</p>\n                    <img src=\"bees-with-color/bee-A1DM.svg\" width=\"200\">\n                    <p><span class=\"redText\">Bad choice,</span> the bee was friendly.<br>Your bonus pay is unchanged, and remains at $0.22.</p>\n            ","response":0,"trial_type":"html-button-response","trial_index":80,"time_elapsed":937994,"internal_node_id":"0.0-4.0-1.34","subject_id":"613bf413729dea836480c2c7","study_id":"60edd13110225f80f9f3709b","session_id":"6196c4a529da98ed259c3e29","condition":"full-information","relevant_dimensions":["antennae","legs"],"bee_group":{"antennae":"A","wings":"X","pattern":"X","legs":"F"},"bonus":0.48000000000000054},{"rt":3878.2000000029802,"stimulus":"bees-with-color/bee-A2DM.svg","response":0,"trial_type":"image-button-response","trial_index":81,"time_elapsed":941874,"internal_node_id":"0.0-4.0-0.35","subject_id":"613bf413729dea836480c2c7","study_id":"60edd13110225f80f9f3709b","session_id":"6196c4a529da98ed259c3e29","condition":"full-information","relevant_dimensions":["antennae","legs"],"bee_group":{"antennae":"A","wings":"X","pattern":"X","legs":"F"},"action":"harvest","summary":"good-harvest","bonus":0.48000000000000054},{"rt":582.3000000119209,"stimulus":"\n                    <p><b>Action: <em>harvest</em></b></p>\n                    <p>This is the bee that you just saw.</p>\n                    <img src=\"bees-with-color/bee-A2DM.svg\" width=\"200\">\n                    <p><span class=\"greenText\"><b>Successful harvest!</b></span><br>Your pay has increased by $0.02. Your bonus pay is now $0.24.</p>\n            ","response":0,"trial_type":"html-button-response","trial_index":82,"time_elapsed":942458,"internal_node_id":"0.0-4.0-1.35","subject_id":"613bf413729dea836480c2c7","study_id":"60edd13110225f80f9f3709b","session_id":"6196c4a529da98ed259c3e29","condition":"full-information","relevant_dimensions":["antennae","legs"],"bee_group":{"antennae":"A","wings":"X","pattern":"X","legs":"F"},"bonus":0.48000000000000054},{"rt":4070.300000011921,"stimulus":"bees-with-color/bee-A1DF.svg","response":1,"trial_type":"image-button-response","trial_index":83,"time_elapsed":946530,"internal_node_id":"0.0-4.0-0.36","subject_id":"613bf413729dea836480c2c7","study_id":"60edd13110225f80f9f3709b","session_id":"6196c4a529da98ed259c3e29","condition":"full-information","relevant_dimensions":["antennae","legs"],"bee_group":{"antennae":"A","wings":"X","pattern":"X","legs":"F"},"action":"avoid","summary":"good-avoid","bonus":0.48000000000000054},{"rt":916.3000000119209,"stimulus":"\n                    <p><b>Action: <em>avoid</em></b></p>\n                    <p>This is the bee that you just saw.</p>\n                    <img src=\"bees-with-color/bee-A1DF.svg\" width=\"200\">\n                    <p><span class=\"greenText\">Good choice!</span>  This bee would have stung you.<br>Your bonus pay is unchanged, and remains at $0.24.</p>\n            ","response":0,"trial_type":"html-button-response","trial_index":84,"time_elapsed":947448,"internal_node_id":"0.0-4.0-1.36","subject_id":"613bf413729dea836480c2c7","study_id":"60edd13110225f80f9f3709b","session_id":"6196c4a529da98ed259c3e29","condition":"full-information","relevant_dimensions":["antennae","legs"],"bee_group":{"antennae":"A","wings":"X","pattern":"X","legs":"F"},"bonus":0.48000000000000054},{"rt":4738.300000011921,"stimulus":"bees-with-color/bee-A2SF.svg","response":0,"trial_type":"image-button-response","trial_index":85,"time_elapsed":952188,"internal_node_id":"0.0-4.0-0.37","subject_id":"613bf413729dea836480c2c7","study_id":"60edd13110225f80f9f3709b","session_id":"6196c4a529da98ed259c3e29","condition":"full-information","relevant_dimensions":["antennae","legs"],"bee_group":{"antennae":"A","wings":"X","pattern":"X","legs":"F"},"action":"harvest","summary":"bad-harvest","bonus":0.48000000000000054},{"rt":2568.2999999970198,"stimulus":"\n                    <p><b>Action: <em>harvest</em></b></p>\n                    <p>This is the bee that you just saw.</p>\n                    <img src=\"bees-with-color/bee-A2SF.svg\" width=\"200\">\n                    <p><span class=\"redText\">Bad choice, the bee was angry.</span><br><b>You have been stung!</b><br>Your pay has been decreased by $0.10. Your bonus pay is now $0.14.</p>\n            ","response":0,"trial_type":"html-button-response","trial_index":86,"time_elapsed":954758,"internal_node_id":"0.0-4.0-1.37","subject_id":"613bf413729dea836480c2c7","study_id":"60edd13110225f80f9f3709b","session_id":"6196c4a529da98ed259c3e29","condition":"full-information","relevant_dimensions":["antennae","legs"],"bee_group":{"antennae":"A","wings":"X","pattern":"X","legs":"F"},"bonus":0.48000000000000054},{"rt":11744.20000000298,"stimulus":"bees-with-color/bee-B1SF.svg","response":1,"trial_type":"image-button-response","trial_index":87,"time_elapsed":966504,"internal_node_id":"0.0-4.0-0.38","subject_id":"613bf413729dea836480c2c7","study_id":"60edd13110225f80f9f3709b","session_id":"6196c4a529da98ed259c3e29","condition":"full-information","relevant_dimensions":["antennae","legs"],"bee_group":{"antennae":"A","wings":"X","pattern":"X","legs":"F"},"action":"avoid","summary":"bad-avoid","bonus":0.48000000000000054},{"rt":1182.0999999940395,"stimulus":"\n                    <p><b>Action: <em>avoid</em></b></p>\n                    <p>This is the bee that you just saw.</p>\n                    <img src=\"bees-with-color/bee-B1SF.svg\" width=\"200\">\n                    <p><span class=\"redText\">Bad choice,</span> the bee was friendly.<br>Your bonus pay is unchanged, and remains at $0.14.</p>\n            ","response":0,"trial_type":"html-button-response","trial_index":88,"time_elapsed":967688,"internal_node_id":"0.0-4.0-1.38","subject_id":"613bf413729dea836480c2c7","study_id":"60edd13110225f80f9f3709b","session_id":"6196c4a529da98ed259c3e29","condition":"full-information","relevant_dimensions":["antennae","legs"],"bee_group":{"antennae":"A","wings":"X","pattern":"X","legs":"F"},"bonus":0.48000000000000054},{"rt":8752.09999999404,"stimulus":"bees-with-color/bee-B1SM.svg","response":1,"trial_type":"image-button-response","trial_index":89,"time_elapsed":976442,"internal_node_id":"0.0-4.0-0.39","subject_id":"613bf413729dea836480c2c7","study_id":"60edd13110225f80f9f3709b","session_id":"6196c4a529da98ed259c3e29","condition":"full-information","relevant_dimensions":["antennae","legs"],"bee_group":{"antennae":"A","wings":"X","pattern":"X","legs":"F"},"action":"avoid","summary":"bad-avoid","bonus":0.48000000000000054},{"rt":988.2000000029802,"stimulus":"\n                    <p><b>Action: <em>avoid</em></b></p>\n                    <p>This is the bee that you just saw.</p>\n                    <img src=\"bees-with-color/bee-B1SM.svg\" width=\"200\">\n                    <p><span class=\"redText\">Bad choice,</span> the bee was friendly.<br>Your bonus pay is unchanged, and remains at $0.14.</p>\n            ","response":0,"trial_type":"html-button-response","trial_index":90,"time_elapsed":977432,"internal_node_id":"0.0-4.0-1.39","subject_id":"613bf413729dea836480c2c7","study_id":"60edd13110225f80f9f3709b","session_id":"6196c4a529da98ed259c3e29","condition":"full-information","relevant_dimensions":["antennae","legs"],"bee_group":{"antennae":"A","wings":"X","pattern":"X","legs":"F"},"bonus":0.48000000000000054},{"rt":1929.7999999970198,"stimulus":"bees-with-color/bee-A2SM.svg","response":0,"trial_type":"image-button-response","trial_index":91,"time_elapsed":979364,"internal_node_id":"0.0-4.0-0.40","subject_id":"613bf413729dea836480c2c7","study_id":"60edd13110225f80f9f3709b","session_id":"6196c4a529da98ed259c3e29","condition":"full-information","relevant_dimensions":["antennae","legs"],"bee_group":{"antennae":"A","wings":"X","pattern":"X","legs":"F"},"action":"harvest","summary":"good-harvest","bonus":0.48000000000000054},{"rt":830.3999999910593,"stimulus":"\n                    <p><b>Action: <em>harvest</em></b></p>\n                    <p>This is the bee that you just saw.</p>\n                    <img src=\"bees-with-color/bee-A2SM.svg\" width=\"200\">\n                    <p><span class=\"greenText\"><b>Successful harvest!</b></span><br>Your pay has increased by $0.02. Your bonus pay is now $0.16.</p>\n            ","response":0,"trial_type":"html-button-response","trial_index":92,"time_elapsed":980196,"internal_node_id":"0.0-4.0-1.40","subject_id":"613bf413729dea836480c2c7","study_id":"60edd13110225f80f9f3709b","session_id":"6196c4a529da98ed259c3e29","condition":"full-information","relevant_dimensions":["antennae","legs"],"bee_group":{"antennae":"A","wings":"X","pattern":"X","legs":"F"},"bonus":0.48000000000000054},{"rt":2230.5999999940395,"stimulus":"bees-with-color/bee-A2DF.svg","response":1,"trial_type":"image-button-response","trial_index":93,"time_elapsed":982428,"internal_node_id":"0.0-4.0-0.41","subject_id":"613bf413729dea836480c2c7","study_id":"60edd13110225f80f9f3709b","session_id":"6196c4a529da98ed259c3e29","condition":"full-information","relevant_dimensions":["antennae","legs"],"bee_group":{"antennae":"A","wings":"X","pattern":"X","legs":"F"},"action":"avoid","summary":"good-avoid","bonus":0.48000000000000054},{"rt":824.3999999910593,"stimulus":"\n                    <p><b>Action: <em>avoid</em></b></p>\n                    <p>This is the bee that you just saw.</p>\n                    <img src=\"bees-with-color/bee-A2DF.svg\" width=\"200\">\n                    <p><span class=\"greenText\">Good choice!</span>  This bee would have stung you.<br>Your bonus pay is unchanged, and remains at $0.16.</p>\n            ","response":0,"trial_type":"html-button-response","trial_index":94,"time_elapsed":983254,"internal_node_id":"0.0-4.0-1.41","subject_id":"613bf413729dea836480c2c7","study_id":"60edd13110225f80f9f3709b","session_id":"6196c4a529da98ed259c3e29","condition":"full-information","relevant_dimensions":["antennae","legs"],"bee_group":{"antennae":"A","wings":"X","pattern":"X","legs":"F"},"bonus":0.48000000000000054},{"rt":2232.7000000029802,"stimulus":"bees-with-color/bee-B2SF.svg","response":0,"trial_type":"image-button-response","trial_index":95,"time_elapsed":985488,"internal_node_id":"0.0-4.0-0.42","subject_id":"613bf413729dea836480c2c7","study_id":"60edd13110225f80f9f3709b","session_id":"6196c4a529da98ed259c3e29","condition":"full-information","relevant_dimensions":["antennae","legs"],"bee_group":{"antennae":"A","wings":"X","pattern":"X","legs":"F"},"action":"harvest","summary":"good-harvest","bonus":0.48000000000000054},{"rt":688.5,"stimulus":"\n                    <p><b>Action: <em>harvest</em></b></p>\n                    <p>This is the bee that you just saw.</p>\n                    <img src=\"bees-with-color/bee-B2SF.svg\" width=\"200\">\n                    <p><span class=\"greenText\"><b>Successful harvest!</b></span><br>Your pay has increased by $0.02. Your bonus pay is now $0.18.</p>\n            ","response":0,"trial_type":"html-button-response","trial_index":96,"time_elapsed":986178,"internal_node_id":"0.0-4.0-1.42","subject_id":"613bf413729dea836480c2c7","study_id":"60edd13110225f80f9f3709b","session_id":"6196c4a529da98ed259c3e29","condition":"full-information","relevant_dimensions":["antennae","legs"],"bee_group":{"antennae":"A","wings":"X","pattern":"X","legs":"F"},"bonus":0.48000000000000054},{"rt":2132.2999999970198,"stimulus":"bees-with-color/bee-B2DF.svg","response":0,"trial_type":"image-button-response","trial_index":97,"time_elapsed":988312,"internal_node_id":"0.0-4.0-0.43","subject_id":"613bf413729dea836480c2c7","study_id":"60edd13110225f80f9f3709b","session_id":"6196c4a529da98ed259c3e29","condition":"full-information","relevant_dimensions":["antennae","legs"],"bee_group":{"antennae":"A","wings":"X","pattern":"X","legs":"F"},"action":"harvest","summary":"good-harvest","bonus":0.48000000000000054},{"rt":676.5,"stimulus":"\n                    <p><b>Action: <em>harvest</em></b></p>\n                    <p>This is the bee that you just saw.</p>\n                    <img src=\"bees-with-color/bee-B2DF.svg\" width=\"200\">\n                    <p><span class=\"greenText\"><b>Successful harvest!</b></span><br>Your pay has increased by $0.02. Your bonus pay is now $0.20.</p>\n            ","response":0,"trial_type":"html-button-response","trial_index":98,"time_elapsed":988990,"internal_node_id":"0.0-4.0-1.43","subject_id":"613bf413729dea836480c2c7","study_id":"60edd13110225f80f9f3709b","session_id":"6196c4a529da98ed259c3e29","condition":"full-information","relevant_dimensions":["antennae","legs"],"bee_group":{"antennae":"A","wings":"X","pattern":"X","legs":"F"},"bonus":0.48000000000000054},{"rt":2576.7000000029802,"stimulus":"bees-with-color/bee-B1DF.svg","response":1,"trial_type":"image-button-response","trial_index":99,"time_elapsed":991568,"internal_node_id":"0.0-4.0-0.44","subject_id":"613bf413729dea836480c2c7","study_id":"60edd13110225f80f9f3709b","session_id":"6196c4a529da98ed259c3e29","condition":"full-information","relevant_dimensions":["antennae","legs"],"bee_group":{"antennae":"A","wings":"X","pattern":"X","legs":"F"},"action":"avoid","summary":"bad-avoid","bonus":0.48000000000000054},{"rt":1024.2000000029802,"stimulus":"\n                    <p><b>Action: <em>avoid</em></b></p>\n                    <p>This is the bee that you just saw.</p>\n                    <img src=\"bees-with-color/bee-B1DF.svg\" width=\"200\">\n                    <p><span class=\"redText\">Bad choice,</span> the bee was friendly.<br>Your bonus pay is unchanged, and remains at $0.20.</p>\n            ","response":0,"trial_type":"html-button-response","trial_index":100,"time_elapsed":992594,"internal_node_id":"0.0-4.0-1.44","subject_id":"613bf413729dea836480c2c7","study_id":"60edd13110225f80f9f3709b","session_id":"6196c4a529da98ed259c3e29","condition":"full-information","relevant_dimensions":["antennae","legs"],"bee_group":{"antennae":"A","wings":"X","pattern":"X","legs":"F"},"bonus":0.48000000000000054},{"rt":2706.4000000059605,"stimulus":"bees-with-color/bee-A1SF.svg","response":1,"trial_type":"image-button-response","trial_index":101,"time_elapsed":995302,"internal_node_id":"0.0-4.0-0.45","subject_id":"613bf413729dea836480c2c7","study_id":"60edd13110225f80f9f3709b","session_id":"6196c4a529da98ed259c3e29","condition":"full-information","relevant_dimensions":["antennae","legs"],"bee_group":{"antennae":"A","wings":"X","pattern":"X","legs":"F"},"action":"avoid","summary":"good-avoid","bonus":0.48000000000000054},{"rt":890.1000000089407,"stimulus":"\n                    <p><b>Action: <em>avoid</em></b></p>\n                    <p>This is the bee that you just saw.</p>\n                    <img src=\"bees-with-color/bee-A1SF.svg\" width=\"200\">\n                    <p><span class=\"greenText\">Good choice!</span>  This bee would have stung you.<br>Your bonus pay is unchanged, and remains at $0.20.</p>\n            ","response":0,"trial_type":"html-button-response","trial_index":102,"time_elapsed":996194,"internal_node_id":"0.0-4.0-1.45","subject_id":"613bf413729dea836480c2c7","study_id":"60edd13110225f80f9f3709b","session_id":"6196c4a529da98ed259c3e29","condition":"full-information","relevant_dimensions":["antennae","legs"],"bee_group":{"antennae":"A","wings":"X","pattern":"X","legs":"F"},"bonus":0.48000000000000054},{"rt":2166.3999999910593,"stimulus":"bees-with-color/bee-B1DM.svg","response":0,"trial_type":"image-button-response","trial_index":103,"time_elapsed":998362,"internal_node_id":"0.0-4.0-0.46","subject_id":"613bf413729dea836480c2c7","study_id":"60edd13110225f80f9f3709b","session_id":"6196c4a529da98ed259c3e29","condition":"full-information","relevant_dimensions":["antennae","legs"],"bee_group":{"antennae":"A","wings":"X","pattern":"X","legs":"F"},"action":"harvest","summary":"good-harvest","bonus":0.48000000000000054},{"rt":800.2999999970198,"stimulus":"\n                    <p><b>Action: <em>harvest</em></b></p>\n                    <p>This is the bee that you just saw.</p>\n                    <img src=\"bees-with-color/bee-B1DM.svg\" width=\"200\">\n                    <p><span class=\"greenText\"><b>Successful harvest!</b></span><br>Your pay has increased by $0.02. Your bonus pay is now $0.22.</p>\n            ","response":0,"trial_type":"html-button-response","trial_index":104,"time_elapsed":999164,"internal_node_id":"0.0-4.0-1.46","subject_id":"613bf413729dea836480c2c7","study_id":"60edd13110225f80f9f3709b","session_id":"6196c4a529da98ed259c3e29","condition":"full-information","relevant_dimensions":["antennae","legs"],"bee_group":{"antennae":"A","wings":"X","pattern":"X","legs":"F"},"bonus":0.48000000000000054},{"rt":2482.5,"stimulus":"bees-with-color/bee-B2SM.svg","response":0,"trial_type":"image-button-response","trial_index":105,"time_elapsed":1001648,"internal_node_id":"0.0-4.0-0.47","subject_id":"613bf413729dea836480c2c7","study_id":"60edd13110225f80f9f3709b","session_id":"6196c4a529da98ed259c3e29","condition":"full-information","relevant_dimensions":["antennae","legs"],"bee_group":{"antennae":"A","wings":"X","pattern":"X","legs":"F"},"action":"harvest","summary":"good-harvest","bonus":0.48000000000000054},{"rt":816.2999999970198,"stimulus":"\n                    <p><b>Action: <em>harvest</em></b></p>\n                    <p>This is the bee that you just saw.</p>\n                    <img src=\"bees-with-color/bee-B2SM.svg\" width=\"200\">\n                    <p><span class=\"greenText\"><b>Successful harvest!</b></span><br>Your pay has increased by $0.02. Your bonus pay is now $0.24.</p>\n            ","response":0,"trial_type":"html-button-response","trial_index":106,"time_elapsed":1002466,"internal_node_id":"0.0-4.0-1.47","subject_id":"613bf413729dea836480c2c7","study_id":"60edd13110225f80f9f3709b","session_id":"6196c4a529da98ed259c3e29","condition":"full-information","relevant_dimensions":["antennae","legs"],"bee_group":{"antennae":"A","wings":"X","pattern":"X","legs":"F"},"bonus":0.48000000000000054},{"rt":2296.2000000029802,"stimulus":"bees-with-color/bee-B2DM.svg","response":0,"trial_type":"image-button-response","trial_index":107,"time_elapsed":1004764,"internal_node_id":"0.0-4.0-0.48","subject_id":"613bf413729dea836480c2c7","study_id":"60edd13110225f80f9f3709b","session_id":"6196c4a529da98ed259c3e29","condition":"full-information","relevant_dimensions":["antennae","legs"],"bee_group":{"antennae":"A","wings":"X","pattern":"X","legs":"F"},"action":"harvest","summary":"good-harvest","bonus":0.48000000000000054},{"rt":824.2999999970198,"stimulus":"\n                    <p><b>Action: <em>harvest</em></b></p>\n                    <p>This is the bee that you just saw.</p>\n                    <img src=\"bees-with-color/bee-B2DM.svg\" width=\"200\">\n                    <p><span class=\"greenText\"><b>Successful harvest!</b></span><br>Your pay has increased by $0.02. Your bonus pay is now $0.26.</p>\n            ","response":0,"trial_type":"html-button-response","trial_index":108,"time_elapsed":1005590,"internal_node_id":"0.0-4.0-1.48","subject_id":"613bf413729dea836480c2c7","study_id":"60edd13110225f80f9f3709b","session_id":"6196c4a529da98ed259c3e29","condition":"full-information","relevant_dimensions":["antennae","legs"],"bee_group":{"antennae":"A","wings":"X","pattern":"X","legs":"F"},"bonus":0.48000000000000054},{"rt":2494.2999999970198,"stimulus":"bees-with-color/bee-A2DM.svg","response":0,"trial_type":"image-button-response","trial_index":109,"time_elapsed":1008086,"internal_node_id":"0.0-4.0-0.49","subject_id":"613bf413729dea836480c2c7","study_id":"60edd13110225f80f9f3709b","session_id":"6196c4a529da98ed259c3e29","condition":"full-information","relevant_dimensions":["antennae","legs"],"bee_group":{"antennae":"A","wings":"X","pattern":"X","legs":"F"},"action":"harvest","summary":"good-harvest","bonus":0.48000000000000054},{"rt":586.2999999970198,"stimulus":"\n                    <p><b>Action: <em>harvest</em></b></p>\n                    <p>This is the bee that you just saw.</p>\n                    <img src=\"bees-with-color/bee-A2DM.svg\" width=\"200\">\n                    <p><span class=\"greenText\"><b>Successful harvest!</b></span><br>Your pay has increased by $0.02. Your bonus pay is now $0.28.</p>\n            ","response":0,"trial_type":"html-button-response","trial_index":110,"time_elapsed":1008673,"internal_node_id":"0.0-4.0-1.49","subject_id":"613bf413729dea836480c2c7","study_id":"60edd13110225f80f9f3709b","session_id":"6196c4a529da98ed259c3e29","condition":"full-information","relevant_dimensions":["antennae","legs"],"bee_group":{"antennae":"A","wings":"X","pattern":"X","legs":"F"},"bonus":0.48000000000000054},{"rt":2752.7999999970198,"stimulus":"bees-with-color/bee-B2SF.svg","response":0,"trial_type":"image-button-response","trial_index":111,"time_elapsed":1011428,"internal_node_id":"0.0-4.0-0.50","subject_id":"613bf413729dea836480c2c7","study_id":"60edd13110225f80f9f3709b","session_id":"6196c4a529da98ed259c3e29","condition":"full-information","relevant_dimensions":["antennae","legs"],"bee_group":{"antennae":"A","wings":"X","pattern":"X","legs":"F"},"action":"harvest","summary":"good-harvest","bonus":0.48000000000000054},{"rt":998.5,"stimulus":"\n                    <p><b>Action: <em>harvest</em></b></p>\n                    <p>This is the bee that you just saw.</p>\n                    <img src=\"bees-with-color/bee-B2SF.svg\" width=\"200\">\n                    <p><span class=\"greenText\"><b>Successful harvest!</b></span><br>Your pay has increased by $0.02. Your bonus pay is now $0.30.</p>\n            ","response":0,"trial_type":"html-button-response","trial_index":112,"time_elapsed":1012428,"internal_node_id":"0.0-4.0-1.50","subject_id":"613bf413729dea836480c2c7","study_id":"60edd13110225f80f9f3709b","session_id":"6196c4a529da98ed259c3e29","condition":"full-information","relevant_dimensions":["antennae","legs"],"bee_group":{"antennae":"A","wings":"X","pattern":"X","legs":"F"},"bonus":0.48000000000000054},{"rt":1522.2999999970198,"stimulus":"bees-with-color/bee-A1SF.svg","response":1,"trial_type":"image-button-response","trial_index":113,"time_elapsed":1013952,"internal_node_id":"0.0-4.0-0.51","subject_id":"613bf413729dea836480c2c7","study_id":"60edd13110225f80f9f3709b","session_id":"6196c4a529da98ed259c3e29","condition":"full-information","relevant_dimensions":["antennae","legs"],"bee_group":{"antennae":"A","wings":"X","pattern":"X","legs":"F"},"action":"avoid","summary":"good-avoid","bonus":0.48000000000000054},{"rt":856.1999999880791,"stimulus":"\n                    <p><b>Action: <em>avoid</em></b></p>\n                    <p>This is the bee that you just saw.</p>\n                    <img src=\"bees-with-color/bee-A1SF.svg\" width=\"200\">\n                    <p><span class=\"greenText\">Good choice!</span>  This bee would have stung you.<br>Your bonus pay is unchanged, and remains at $0.30.</p>\n            ","response":0,"trial_type":"html-button-response","trial_index":114,"time_elapsed":1014809,"internal_node_id":"0.0-4.0-1.51","subject_id":"613bf413729dea836480c2c7","study_id":"60edd13110225f80f9f3709b","session_id":"6196c4a529da98ed259c3e29","condition":"full-information","relevant_dimensions":["antennae","legs"],"bee_group":{"antennae":"A","wings":"X","pattern":"X","legs":"F"},"bonus":0.48000000000000054},{"rt":5294.79999999702,"stimulus":"bees-with-color/bee-A2DF.svg","response":1,"trial_type":"image-button-response","trial_index":115,"time_elapsed":1020105,"internal_node_id":"0.0-4.0-0.52","subject_id":"613bf413729dea836480c2c7","study_id":"60edd13110225f80f9f3709b","session_id":"6196c4a529da98ed259c3e29","condition":"full-information","relevant_dimensions":["antennae","legs"],"bee_group":{"antennae":"A","wings":"X","pattern":"X","legs":"F"},"action":"avoid","summary":"good-avoid","bonus":0.48000000000000054},{"rt":904.3999999910593,"stimulus":"\n                    <p><b>Action: <em>avoid</em></b></p>\n                    <p>This is the bee that you just saw.</p>\n                    <img src=\"bees-with-color/bee-A2DF.svg\" width=\"200\">\n                    <p><span class=\"greenText\">Good choice!</span>  This bee would have stung you.<br>Your bonus pay is unchanged, and remains at $0.30.</p>\n            ","response":0,"trial_type":"html-button-response","trial_index":116,"time_elapsed":1021011,"internal_node_id":"0.0-4.0-1.52","subject_id":"613bf413729dea836480c2c7","study_id":"60edd13110225f80f9f3709b","session_id":"6196c4a529da98ed259c3e29","condition":"full-information","relevant_dimensions":["antennae","legs"],"bee_group":{"antennae":"A","wings":"X","pattern":"X","legs":"F"},"bonus":0.48000000000000054},{"rt":2494.4000000059605,"stimulus":"bees-with-color/bee-A2SM.svg","response":0,"trial_type":"image-button-response","trial_index":117,"time_elapsed":1023508,"internal_node_id":"0.0-4.0-0.53","subject_id":"613bf413729dea836480c2c7","study_id":"60edd13110225f80f9f3709b","session_id":"6196c4a529da98ed259c3e29","condition":"full-information","relevant_dimensions":["antennae","legs"],"bee_group":{"antennae":"A","wings":"X","pattern":"X","legs":"F"},"action":"harvest","summary":"good-harvest","bonus":0.48000000000000054},{"rt":866.2999999970198,"stimulus":"\n                    <p><b>Action: <em>harvest</em></b></p>\n                    <p>This is the bee that you just saw.</p>\n                    <img src=\"bees-with-color/bee-A2SM.svg\" width=\"200\">\n                    <p><span class=\"greenText\"><b>Successful harvest!</b></span><br>Your pay has increased by $0.02. Your bonus pay is now $0.32.</p>\n            ","response":0,"trial_type":"html-button-response","trial_index":118,"time_elapsed":1024375,"internal_node_id":"0.0-4.0-1.53","subject_id":"613bf413729dea836480c2c7","study_id":"60edd13110225f80f9f3709b","session_id":"6196c4a529da98ed259c3e29","condition":"full-information","relevant_dimensions":["antennae","legs"],"bee_group":{"antennae":"A","wings":"X","pattern":"X","legs":"F"},"bonus":0.48000000000000054},{"rt":3238.5,"stimulus":"bees-with-color/bee-B2SM.svg","response":0,"trial_type":"image-button-response","trial_index":119,"time_elapsed":1027616,"internal_node_id":"0.0-4.0-0.54","subject_id":"613bf413729dea836480c2c7","study_id":"60edd13110225f80f9f3709b","session_id":"6196c4a529da98ed259c3e29","condition":"full-information","relevant_dimensions":["antennae","legs"],"bee_group":{"antennae":"A","wings":"X","pattern":"X","legs":"F"},"action":"harvest","summary":"good-harvest","bonus":0.48000000000000054},{"rt":978.2999999970198,"stimulus":"\n                    <p><b>Action: <em>harvest</em></b></p>\n                    <p>This is the bee that you just saw.</p>\n                    <img src=\"bees-with-color/bee-B2SM.svg\" width=\"200\">\n                    <p><span class=\"greenText\"><b>Successful harvest!</b></span><br>Your pay has increased by $0.02. Your bonus pay is now $0.34.</p>\n            ","response":0,"trial_type":"html-button-response","trial_index":120,"time_elapsed":1028595,"internal_node_id":"0.0-4.0-1.54","subject_id":"613bf413729dea836480c2c7","study_id":"60edd13110225f80f9f3709b","session_id":"6196c4a529da98ed259c3e29","condition":"full-information","relevant_dimensions":["antennae","legs"],"bee_group":{"antennae":"A","wings":"X","pattern":"X","legs":"F"},"bonus":0.48000000000000054},{"rt":2200.199999988079,"stimulus":"bees-with-color/bee-A1DM.svg","response":1,"trial_type":"image-button-response","trial_index":121,"time_elapsed":1030797,"internal_node_id":"0.0-4.0-0.55","subject_id":"613bf413729dea836480c2c7","study_id":"60edd13110225f80f9f3709b","session_id":"6196c4a529da98ed259c3e29","condition":"full-information","relevant_dimensions":["antennae","legs"],"bee_group":{"antennae":"A","wings":"X","pattern":"X","legs":"F"},"action":"avoid","summary":"bad-avoid","bonus":0.48000000000000054},{"rt":916.2999999970198,"stimulus":"\n                    <p><b>Action: <em>avoid</em></b></p>\n                    <p>This is the bee that you just saw.</p>\n                    <img src=\"bees-with-color/bee-A1DM.svg\" width=\"200\">\n                    <p><span class=\"redText\">Bad choice,</span> the bee was friendly.<br>Your bonus pay is unchanged, and remains at $0.34.</p>\n            ","response":0,"trial_type":"html-button-response","trial_index":122,"time_elapsed":1031716,"internal_node_id":"0.0-4.0-1.55","subject_id":"613bf413729dea836480c2c7","study_id":"60edd13110225f80f9f3709b","session_id":"6196c4a529da98ed259c3e29","condition":"full-information","relevant_dimensions":["antennae","legs"],"bee_group":{"antennae":"A","wings":"X","pattern":"X","legs":"F"},"bonus":0.48000000000000054},{"rt":2090.2999999970198,"stimulus":"bees-with-color/bee-B1DM.svg","response":0,"trial_type":"image-button-response","trial_index":123,"time_elapsed":1033808,"internal_node_id":"0.0-4.0-0.56","subject_id":"613bf413729dea836480c2c7","study_id":"60edd13110225f80f9f3709b","session_id":"6196c4a529da98ed259c3e29","condition":"full-information","relevant_dimensions":["antennae","legs"],"bee_group":{"antennae":"A","wings":"X","pattern":"X","legs":"F"},"action":"harvest","summary":"good-harvest","bonus":0.48000000000000054},{"rt":1097.8999999910593,"stimulus":"\n                    <p><b>Action: <em>harvest</em></b></p>\n                    <p>This is the bee that you just saw.</p>\n                    <img src=\"bees-with-color/bee-B1DM.svg\" width=\"200\">\n                    <p><span class=\"greenText\"><b>Successful harvest!</b></span><br>Your pay has increased by $0.02. Your bonus pay is now $0.36.</p>\n            ","response":0,"trial_type":"html-button-response","trial_index":124,"time_elapsed":1034907,"internal_node_id":"0.0-4.0-1.56","subject_id":"613bf413729dea836480c2c7","study_id":"60edd13110225f80f9f3709b","session_id":"6196c4a529da98ed259c3e29","condition":"full-information","relevant_dimensions":["antennae","legs"],"bee_group":{"antennae":"A","wings":"X","pattern":"X","legs":"F"},"bonus":0.48000000000000054},{"rt":5556.699999988079,"stimulus":"bees-with-color/bee-B1SF.svg","response":1,"trial_type":"image-button-response","trial_index":125,"time_elapsed":1040466,"internal_node_id":"0.0-4.0-0.57","subject_id":"613bf413729dea836480c2c7","study_id":"60edd13110225f80f9f3709b","session_id":"6196c4a529da98ed259c3e29","condition":"full-information","relevant_dimensions":["antennae","legs"],"bee_group":{"antennae":"A","wings":"X","pattern":"X","legs":"F"},"action":"avoid","summary":"bad-avoid","bonus":0.48000000000000054},{"rt":1448.0999999940395,"stimulus":"\n                    <p><b>Action: <em>avoid</em></b></p>\n                    <p>This is the bee that you just saw.</p>\n                    <img src=\"bees-with-color/bee-B1SF.svg\" width=\"200\">\n                    <p><span class=\"redText\">Bad choice,</span> the bee was friendly.<br>Your bonus pay is unchanged, and remains at $0.36.</p>\n            ","response":0,"trial_type":"html-button-response","trial_index":126,"time_elapsed":1041915,"internal_node_id":"0.0-4.0-1.57","subject_id":"613bf413729dea836480c2c7","study_id":"60edd13110225f80f9f3709b","session_id":"6196c4a529da98ed259c3e29","condition":"full-information","relevant_dimensions":["antennae","legs"],"bee_group":{"antennae":"A","wings":"X","pattern":"X","legs":"F"},"bonus":0.48000000000000054},{"rt":3560.2999999970198,"stimulus":"bees-with-color/bee-B1DF.svg","response":0,"trial_type":"image-button-response","trial_index":127,"time_elapsed":1045479,"internal_node_id":"0.0-4.0-0.58","subject_id":"613bf413729dea836480c2c7","study_id":"60edd13110225f80f9f3709b","session_id":"6196c4a529da98ed259c3e29","condition":"full-information","relevant_dimensions":["antennae","legs"],"bee_group":{"antennae":"A","wings":"X","pattern":"X","legs":"F"},"action":"harvest","summary":"good-harvest","bonus":0.48000000000000054},{"rt":958.4000000059605,"stimulus":"\n                    <p><b>Action: <em>harvest</em></b></p>\n                    <p>This is the bee that you just saw.</p>\n                    <img src=\"bees-with-color/bee-B1DF.svg\" width=\"200\">\n                    <p><span class=\"greenText\"><b>Successful harvest!</b></span><br>Your pay has increased by $0.02. Your bonus pay is now $0.38.</p>\n            ","response":0,"trial_type":"html-button-response","trial_index":128,"time_elapsed":1046439,"internal_node_id":"0.0-4.0-1.58","subject_id":"613bf413729dea836480c2c7","study_id":"60edd13110225f80f9f3709b","session_id":"6196c4a529da98ed259c3e29","condition":"full-information","relevant_dimensions":["antennae","legs"],"bee_group":{"antennae":"A","wings":"X","pattern":"X","legs":"F"},"bonus":0.48000000000000054},{"rt":1952.4000000059605,"stimulus":"bees-with-color/bee-B2DF.svg","response":0,"trial_type":"image-button-response","trial_index":129,"time_elapsed":1048393,"internal_node_id":"0.0-4.0-0.59","subject_id":"613bf413729dea836480c2c7","study_id":"60edd13110225f80f9f3709b","session_id":"6196c4a529da98ed259c3e29","condition":"full-information","relevant_dimensions":["antennae","legs"],"bee_group":{"antennae":"A","wings":"X","pattern":"X","legs":"F"},"action":"harvest","summary":"good-harvest","bonus":0.48000000000000054},{"rt":784.5,"stimulus":"\n                    <p><b>Action: <em>harvest</em></b></p>\n                    <p>This is the bee that you just saw.</p>\n                    <img src=\"bees-with-color/bee-B2DF.svg\" width=\"200\">\n                    <p><span class=\"greenText\"><b>Successful harvest!</b></span><br>Your pay has increased by $0.02. Your bonus pay is now $0.40.</p>\n            ","response":0,"trial_type":"html-button-response","trial_index":130,"time_elapsed":1049179,"internal_node_id":"0.0-4.0-1.59","subject_id":"613bf413729dea836480c2c7","study_id":"60edd13110225f80f9f3709b","session_id":"6196c4a529da98ed259c3e29","condition":"full-information","relevant_dimensions":["antennae","legs"],"bee_group":{"antennae":"A","wings":"X","pattern":"X","legs":"F"},"bonus":0.48000000000000054},{"rt":3404.7000000029802,"stimulus":"bees-with-color/bee-B1SM.svg","response":1,"trial_type":"image-button-response","trial_index":131,"time_elapsed":1052586,"internal_node_id":"0.0-4.0-0.60","subject_id":"613bf413729dea836480c2c7","study_id":"60edd13110225f80f9f3709b","session_id":"6196c4a529da98ed259c3e29","condition":"full-information","relevant_dimensions":["antennae","legs"],"bee_group":{"antennae":"A","wings":"X","pattern":"X","legs":"F"},"action":"avoid","summary":"bad-avoid","bonus":0.48000000000000054},{"rt":818.2999999970198,"stimulus":"\n                    <p><b>Action: <em>avoid</em></b></p>\n                    <p>This is the bee that you just saw.</p>\n                    <img src=\"bees-with-color/bee-B1SM.svg\" width=\"200\">\n                    <p><span class=\"redText\">Bad choice,</span> the bee was friendly.<br>Your bonus pay is unchanged, and remains at $0.40.</p>\n            ","response":0,"trial_type":"html-button-response","trial_index":132,"time_elapsed":1053405,"internal_node_id":"0.0-4.0-1.60","subject_id":"613bf413729dea836480c2c7","study_id":"60edd13110225f80f9f3709b","session_id":"6196c4a529da98ed259c3e29","condition":"full-information","relevant_dimensions":["antennae","legs"],"bee_group":{"antennae":"A","wings":"X","pattern":"X","legs":"F"},"bonus":0.48000000000000054},{"rt":2468.2999999970198,"stimulus":"bees-with-color/bee-A1SM.svg","response":1,"trial_type":"image-button-response","trial_index":133,"time_elapsed":1055875,"internal_node_id":"0.0-4.0-0.61","subject_id":"613bf413729dea836480c2c7","study_id":"60edd13110225f80f9f3709b","session_id":"6196c4a529da98ed259c3e29","condition":"full-information","relevant_dimensions":["antennae","legs"],"bee_group":{"antennae":"A","wings":"X","pattern":"X","legs":"F"},"action":"avoid","summary":"bad-avoid","bonus":0.48000000000000054},{"rt":844.4000000059605,"stimulus":"\n                    <p><b>Action: <em>avoid</em></b></p>\n                    <p>This is the bee that you just saw.</p>\n                    <img src=\"bees-with-color/bee-A1SM.svg\" width=\"200\">\n                    <p><span class=\"redText\">Bad choice,</span> the bee was friendly.<br>Your bonus pay is unchanged, and remains at $0.40.</p>\n            ","response":0,"trial_type":"html-button-response","trial_index":134,"time_elapsed":1056721,"internal_node_id":"0.0-4.0-1.61","subject_id":"613bf413729dea836480c2c7","study_id":"60edd13110225f80f9f3709b","session_id":"6196c4a529da98ed259c3e29","condition":"full-information","relevant_dimensions":["antennae","legs"],"bee_group":{"antennae":"A","wings":"X","pattern":"X","legs":"F"},"bonus":0.48000000000000054},{"rt":2400.4000000059605,"stimulus":"bees-with-color/bee-A2SF.svg","response":0,"trial_type":"image-button-response","trial_index":135,"time_elapsed":1059123,"internal_node_id":"0.0-4.0-0.62","subject_id":"613bf413729dea836480c2c7","study_id":"60edd13110225f80f9f3709b","session_id":"6196c4a529da98ed259c3e29","condition":"full-information","relevant_dimensions":["antennae","legs"],"bee_group":{"antennae":"A","wings":"X","pattern":"X","legs":"F"},"action":"harvest","summary":"bad-harvest","bonus":0.48000000000000054},{"rt":1208.300000011921,"stimulus":"\n                    <p><b>Action: <em>harvest</em></b></p>\n                    <p>This is the bee that you just saw.</p>\n                    <img src=\"bees-with-color/bee-A2SF.svg\" width=\"200\">\n                    <p><span class=\"redText\">Bad choice, the bee was angry.</span><br><b>You have been stung!</b><br>Your pay has been decreased by $0.10. Your bonus pay is now $0.30.</p>\n            ","response":0,"trial_type":"html-button-response","trial_index":136,"time_elapsed":1060333,"internal_node_id":"0.0-4.0-1.62","subject_id":"613bf413729dea836480c2c7","study_id":"60edd13110225f80f9f3709b","session_id":"6196c4a529da98ed259c3e29","condition":"full-information","relevant_dimensions":["antennae","legs"],"bee_group":{"antennae":"A","wings":"X","pattern":"X","legs":"F"},"bonus":0.48000000000000054},{"rt":2630.4000000059605,"stimulus":"bees-with-color/bee-A1DF.svg","response":1,"trial_type":"image-button-response","trial_index":137,"time_elapsed":1062965,"internal_node_id":"0.0-4.0-0.63","subject_id":"613bf413729dea836480c2c7","study_id":"60edd13110225f80f9f3709b","session_id":"6196c4a529da98ed259c3e29","condition":"full-information","relevant_dimensions":["antennae","legs"],"bee_group":{"antennae":"A","wings":"X","pattern":"X","legs":"F"},"action":"avoid","summary":"good-avoid","bonus":0.48000000000000054},{"rt":692.2000000029802,"stimulus":"\n                    <p><b>Action: <em>avoid</em></b></p>\n                    <p>This is the bee that you just saw.</p>\n                    <img src=\"bees-with-color/bee-A1DF.svg\" width=\"200\">\n                    <p><span class=\"greenText\">Good choice!</span>  This bee would have stung you.<br>Your bonus pay is unchanged, and remains at $0.30.</p>\n            ","response":0,"trial_type":"html-button-response","trial_index":138,"time_elapsed":1063659,"internal_node_id":"0.0-4.0-1.63","subject_id":"613bf413729dea836480c2c7","study_id":"60edd13110225f80f9f3709b","session_id":"6196c4a529da98ed259c3e29","condition":"full-information","relevant_dimensions":["antennae","legs"],"bee_group":{"antennae":"A","wings":"X","pattern":"X","legs":"F"},"bonus":0.48000000000000054},{"rt":15657.60000000894,"stimulus":"You have completed the first part of this experiment.<br><br>You will now begin a shorter second part, in which you will receive no feedback.<br>The same rules regarding bonus pay apply.<br><br>Press any key to begin.","response":" ","trial_type":"html-keyboard-response","trial_index":139,"time_elapsed":1079319,"internal_node_id":"0.0-5.0","subject_id":"613bf413729dea836480c2c7","study_id":"60edd13110225f80f9f3709b","session_id":"6196c4a529da98ed259c3e29","condition":"full-information","relevant_dimensions":["antennae","legs"],"bee_group":{"antennae":"A","wings":"X","pattern":"X","legs":"F"},"bonus":0.48000000000000054},{"rt":6021.20000000298,"stimulus":"bees-with-color/bee-A1DF.svg","response":1,"trial_type":"image-button-response","trial_index":140,"time_elapsed":1085349,"internal_node_id":"0.0-6.0-0.0","subject_id":"613bf413729dea836480c2c7","study_id":"60edd13110225f80f9f3709b","session_id":"6196c4a529da98ed259c3e29","condition":"full-information","relevant_dimensions":["antennae","legs"],"bee_group":{"antennae":"A","wings":"X","pattern":"X","legs":"F"},"bonus":0.48000000000000054},{"rt":9260,"stimulus":"bees-with-color/bee-A2SM.svg","response":0,"trial_type":"image-button-response","trial_index":141,"time_elapsed":1094611,"internal_node_id":"0.0-6.0-0.1","subject_id":"613bf413729dea836480c2c7","study_id":"60edd13110225f80f9f3709b","session_id":"6196c4a529da98ed259c3e29","condition":"full-information","relevant_dimensions":["antennae","legs"],"bee_group":{"antennae":"A","wings":"X","pattern":"X","legs":"F"},"bonus":0.48000000000000054},{"rt":6112.100000008941,"stimulus":"bees-with-color/bee-B1SF.svg","response":1,"trial_type":"image-button-response","trial_index":142,"time_elapsed":1100725,"internal_node_id":"0.0-6.0-0.2","subject_id":"613bf413729dea836480c2c7","study_id":"60edd13110225f80f9f3709b","session_id":"6196c4a529da98ed259c3e29","condition":"full-information","relevant_dimensions":["antennae","legs"],"bee_group":{"antennae":"A","wings":"X","pattern":"X","legs":"F"},"bonus":0.48000000000000054},{"rt":3425.800000011921,"stimulus":"bees-with-color/bee-B2DM.svg","response":0,"trial_type":"image-button-response","trial_index":143,"time_elapsed":1104153,"internal_node_id":"0.0-6.0-0.3","subject_id":"613bf413729dea836480c2c7","study_id":"60edd13110225f80f9f3709b","session_id":"6196c4a529da98ed259c3e29","condition":"full-information","relevant_dimensions":["antennae","legs"],"bee_group":{"antennae":"A","wings":"X","pattern":"X","legs":"F"},"bonus":0.48000000000000054},{"rt":2328.4000000059605,"stimulus":"bees-with-color/bee-B1DM.svg","response":0,"trial_type":"image-button-response","trial_index":144,"time_elapsed":1106483,"internal_node_id":"0.0-6.0-0.4","subject_id":"613bf413729dea836480c2c7","study_id":"60edd13110225f80f9f3709b","session_id":"6196c4a529da98ed259c3e29","condition":"full-information","relevant_dimensions":["antennae","legs"],"bee_group":{"antennae":"A","wings":"X","pattern":"X","legs":"F"},"bonus":0.48000000000000054},{"rt":3262.2000000029802,"stimulus":"bees-with-color/bee-B2SF.svg","response":1,"trial_type":"image-button-response","trial_index":145,"time_elapsed":1109747,"internal_node_id":"0.0-6.0-0.5","subject_id":"613bf413729dea836480c2c7","study_id":"60edd13110225f80f9f3709b","session_id":"6196c4a529da98ed259c3e29","condition":"full-information","relevant_dimensions":["antennae","legs"],"bee_group":{"antennae":"A","wings":"X","pattern":"X","legs":"F"},"bonus":0.48000000000000054},{"rt":3612.2000000029802,"stimulus":"bees-with-color/bee-A1SF.svg","response":0,"trial_type":"image-button-response","trial_index":146,"time_elapsed":1113361,"internal_node_id":"0.0-6.0-0.6","subject_id":"613bf413729dea836480c2c7","study_id":"60edd13110225f80f9f3709b","session_id":"6196c4a529da98ed259c3e29","condition":"full-information","relevant_dimensions":["antennae","legs"],"bee_group":{"antennae":"A","wings":"X","pattern":"X","legs":"F"},"bonus":0.48000000000000054},{"rt":3128.2000000029802,"stimulus":"bees-with-color/bee-B2SM.svg","response":1,"trial_type":"image-button-response","trial_index":147,"time_elapsed":1116491,"internal_node_id":"0.0-6.0-0.7","subject_id":"613bf413729dea836480c2c7","study_id":"60edd13110225f80f9f3709b","session_id":"6196c4a529da98ed259c3e29","condition":"full-information","relevant_dimensions":["antennae","legs"],"bee_group":{"antennae":"A","wings":"X","pattern":"X","legs":"F"},"bonus":0.48000000000000054},{"rt":3506.5,"stimulus":"bees-with-color/bee-A2DM.svg","response":1,"trial_type":"image-button-response","trial_index":148,"time_elapsed":1119999,"internal_node_id":"0.0-6.0-0.8","subject_id":"613bf413729dea836480c2c7","study_id":"60edd13110225f80f9f3709b","session_id":"6196c4a529da98ed259c3e29","condition":"full-information","relevant_dimensions":["antennae","legs"],"bee_group":{"antennae":"A","wings":"X","pattern":"X","legs":"F"},"bonus":0.48000000000000054},{"rt":4628,"stimulus":"bees-with-color/bee-A1SM.svg","response":0,"trial_type":"image-button-response","trial_index":149,"time_elapsed":1124629,"internal_node_id":"0.0-6.0-0.9","subject_id":"613bf413729dea836480c2c7","study_id":"60edd13110225f80f9f3709b","session_id":"6196c4a529da98ed259c3e29","condition":"full-information","relevant_dimensions":["antennae","legs"],"bee_group":{"antennae":"A","wings":"X","pattern":"X","legs":"F"},"bonus":0.48000000000000054},{"rt":7644,"stimulus":"bees-with-color/bee-A2SF.svg","response":1,"trial_type":"image-button-response","trial_index":150,"time_elapsed":1132275,"internal_node_id":"0.0-6.0-0.10","subject_id":"613bf413729dea836480c2c7","study_id":"60edd13110225f80f9f3709b","session_id":"6196c4a529da98ed259c3e29","condition":"full-information","relevant_dimensions":["antennae","legs"],"bee_group":{"antennae":"A","wings":"X","pattern":"X","legs":"F"},"bonus":0.48000000000000054},{"rt":3234.1000000089407,"stimulus":"bees-with-color/bee-B1SM.svg","response":1,"trial_type":"image-button-response","trial_index":151,"time_elapsed":1135511,"internal_node_id":"0.0-6.0-0.11","subject_id":"613bf413729dea836480c2c7","study_id":"60edd13110225f80f9f3709b","session_id":"6196c4a529da98ed259c3e29","condition":"full-information","relevant_dimensions":["antennae","legs"],"bee_group":{"antennae":"A","wings":"X","pattern":"X","legs":"F"},"bonus":0.48000000000000054},{"rt":2207.0999999940395,"stimulus":"bees-with-color/bee-B2DF.svg","response":0,"trial_type":"image-button-response","trial_index":152,"time_elapsed":1137719,"internal_node_id":"0.0-6.0-0.12","subject_id":"613bf413729dea836480c2c7","study_id":"60edd13110225f80f9f3709b","session_id":"6196c4a529da98ed259c3e29","condition":"full-information","relevant_dimensions":["antennae","legs"],"bee_group":{"antennae":"A","wings":"X","pattern":"X","legs":"F"},"bonus":0.48000000000000054},{"rt":3992.2000000029802,"stimulus":"bees-with-color/bee-A1DM.svg","response":1,"trial_type":"image-button-response","trial_index":153,"time_elapsed":1141713,"internal_node_id":"0.0-6.0-0.13","subject_id":"613bf413729dea836480c2c7","study_id":"60edd13110225f80f9f3709b","session_id":"6196c4a529da98ed259c3e29","condition":"full-information","relevant_dimensions":["antennae","legs"],"bee_group":{"antennae":"A","wings":"X","pattern":"X","legs":"F"},"bonus":0.48000000000000054},{"rt":3494.2999999970198,"stimulus":"bees-with-color/bee-A2DF.svg","response":1,"trial_type":"image-button-response","trial_index":154,"time_elapsed":1145209,"internal_node_id":"0.0-6.0-0.14","subject_id":"613bf413729dea836480c2c7","study_id":"60edd13110225f80f9f3709b","session_id":"6196c4a529da98ed259c3e29","condition":"full-information","relevant_dimensions":["