[{"success":true,"trial_type":"fullscreen","trial_index":0,"time_elapsed":2885,"internal_node_id":"0.0-0.0","subject_id":"60aa79fa99f7d53701b02256","study_id":"6197b3f67c2b5cd3b6d9596a","session_id":"619beeeb2cd16c8cf0742b85","condition":"contingent","relevant_dimensions":["wings","legs"],"bee_group":{"antennae":"X","wings":"1","pattern":"X","legs":"F"},"bonus":1.060000000000001},{"success":true,"timeout":false,"failed_images":[],"failed_audio":[],"failed_video":[],"trial_type":"preload","trial_index":1,"time_elapsed":3129,"internal_node_id":"0.0-1.0","subject_id":"60aa79fa99f7d53701b02256","study_id":"6197b3f67c2b5cd3b6d9596a","session_id":"619beeeb2cd16c8cf0742b85","condition":"contingent","relevant_dimensions":["wings","legs"],"bee_group":{"antennae":"X","wings":"1","pattern":"X","legs":"F"},"bonus":1.060000000000001},{"rt":1586.1000000005588,"stimulus":"Welcome! Press any key to begin.","response":" ","trial_type":"html-keyboard-response","trial_index":2,"time_elapsed":4719,"internal_node_id":"0.0-2.0","subject_id":"60aa79fa99f7d53701b02256","study_id":"6197b3f67c2b5cd3b6d9596a","session_id":"619beeeb2cd16c8cf0742b85","condition":"contingent","relevant_dimensions":["wings","legs"],"bee_group":{"antennae":"X","wings":"1","pattern":"X","legs":"F"},"bonus":1.060000000000001},{"view_history":[{"page_index":0,"viewing_time":1485.5999999996275},{"page_index":1,"viewing_time":2012.5999999996275},{"page_index":2,"viewing_time":2449.4000000003725},{"page_index":3,"viewing_time":1025},{"page_index":4,"viewing_time":917.2000000001863},{"page_index":5,"viewing_time":548.5},{"page_index":6,"viewing_time":987.8999999994412},{"page_index":7,"viewing_time":1215},{"page_index":8,"viewing_time":449},{"page_index":9,"viewing_time":210},{"page_index":10,"viewing_time":397.20000000018626},{"page_index":11,"viewing_time":1214.2999999998137},{"page_index":12,"viewing_time":4122.4000000003725},{"page_index":13,"viewing_time":1155.5999999996275},{"page_index":14,"viewing_time":608.1000000005588}],"rt":18798.799999999814,"trial_type":"instructions","trial_index":3,"time_elapsed":23522,"internal_node_id":"0.0-3.0-0.0","subject_id":"60aa79fa99f7d53701b02256","study_id":"6197b3f67c2b5cd3b6d9596a","session_id":"619beeeb2cd16c8cf0742b85","condition":"contingent","relevant_dimensions":["wings","legs"],"bee_group":{"antennae":"X","wings":"1","pattern":"X","legs":"F"},"bonus":1.060000000000001},{"rt":11813.300000000745,"response":{"Q0":["Two or six legs","Stripes or spots on body","Single or double wings","Antennae or no antennae"]},"question_order":[0],"trial_type":"survey-multi-select","trial_index":4,"time_elapsed":35358,"internal_node_id":"0.0-3.0-1.0","subject_id":"60aa79fa99f7d53701b02256","study_id":"6197b3f67c2b5cd3b6d9596a","session_id":"619beeeb2cd16c8cf0742b85","condition":"contingent","relevant_dimensions":["wings","legs"],"bee_group":{"antennae":"X","wings":"1","pattern":"X","legs":"F"},"correct":true,"bonus":1.060000000000001},{"rt":10785.099999999627,"response":{"Q1":"No.","Q2":"Based on the four features of the bee.","Q3":"You do not learn if it was friendly or dangerous, and do not alter your bonus."},"question_order":[0,1,2],"trial_type":"survey-multi-choice","trial_index":5,"time_elapsed":46155,"internal_node_id":"0.0-3.0-2.0","subject_id":"60aa79fa99f7d53701b02256","study_id":"6197b3f67c2b5cd3b6d9596a","session_id":"619beeeb2cd16c8cf0742b85","condition":"contingent","relevant_dimensions":["wings","legs"],"bee_group":{"antennae":"X","wings":"1","pattern":"X","legs":"F"},"correct":true,"bonus":1.060000000000001},{"rt":1675,"stimulus":"<p>Congrats, you got everything right<br>When you're ready, click the button below to continue to the experiment.</p>","response":0,"trial_type":"html-button-response","trial_index":6,"time_elapsed":47838,"internal_node_id":"0.0-3.0-3.0","subject_id":"60aa79fa99f7d53701b02256","study_id":"6197b3f67c2b5cd3b6d9596a","session_id":"619beeeb2cd16c8cf0742b85","condition":"contingent","relevant_dimensions":["wings","legs"],"bee_group":{"antennae":"X","wings":"1","pattern":"X","legs":"F"},"bonus":1.060000000000001},{"rt":11268.599999999627,"stimulus":"bees-with-color/bee-B1DF.svg","response":0,"trial_type":"image-button-response","trial_index":7,"time_elapsed":59116,"internal_node_id":"0.0-4.0-0.0","subject_id":"60aa79fa99f7d53701b02256","study_id":"6197b3f67c2b5cd3b6d9596a","session_id":"619beeeb2cd16c8cf0742b85","condition":"contingent","relevant_dimensions":["wings","legs"],"bee_group":{"antennae":"X","wings":"1","pattern":"X","legs":"F"},"action":"harvest","summary":"bad-harvest","bonus":1.060000000000001},{"rt":4740.100000000559,"stimulus":"\n                    <p><b>Action: <em>harvest</em></b></p>\n                    <p>This is the bee that you just saw.</p>\n                    <img src=\"bees-with-color/bee-B1DF.svg\" width=\"200\">\n                    <p><span class=\"redText\">Bad choice, the bee was angry.</span><br><b>You have been stung!</b><br>Your pay has been decreased by $0.10. Your bonus pay is now $0.44.</p>\n            ","response":0,"trial_type":"html-button-response","trial_index":8,"time_elapsed":63866,"internal_node_id":"0.0-4.0-1.0","subject_id":"60aa79fa99f7d53701b02256","study_id":"6197b3f67c2b5cd3b6d9596a","session_id":"619beeeb2cd16c8cf0742b85","condition":"contingent","relevant_dimensions":["wings","legs"],"bee_group":{"antennae":"X","wings":"1","pattern":"X","legs":"F"},"bonus":1.060000000000001},{"rt":2530.2999999998137,"stimulus":"bees-with-color/bee-B2DF.svg","response":0,"trial_type":"image-button-response","trial_index":9,"time_elapsed":66406,"internal_node_id":"0.0-4.0-0.1","subject_id":"60aa79fa99f7d53701b02256","study_id":"6197b3f67c2b5cd3b6d9596a","session_id":"619beeeb2cd16c8cf0742b85","condition":"contingent","relevant_dimensions":["wings","legs"],"bee_group":{"antennae":"X","wings":"1","pattern":"X","legs":"F"},"action":"harvest","summary":"good-harvest","bonus":1.060000000000001},{"rt":2063.2000000001863,"stimulus":"\n                    <p><b>Action: <em>harvest</em></b></p>\n                    <p>This is the bee that you just saw.</p>\n                    <img src=\"bees-with-color/bee-B2DF.svg\" width=\"200\">\n                    <p><span class=\"greenText\"><b>Successful harvest!</b></span><br>Your pay has increased by $0.02. Your bonus pay is now $0.46.</p>\n            ","response":0,"trial_type":"html-button-response","trial_index":10,"time_elapsed":68477,"internal_node_id":"0.0-4.0-1.1","subject_id":"60aa79fa99f7d53701b02256","study_id":"6197b3f67c2b5cd3b6d9596a","session_id":"619beeeb2cd16c8cf0742b85","condition":"contingent","relevant_dimensions":["wings","legs"],"bee_group":{"antennae":"X","wings":"1","pattern":"X","legs":"F"},"bonus":1.060000000000001},{"rt":2709.2999999998137,"stimulus":"bees-with-color/bee-B2SM.svg","response":0,"trial_type":"image-button-response","trial_index":11,"time_elapsed":71196,"internal_node_id":"0.0-4.0-0.2","subject_id":"60aa79fa99f7d53701b02256","study_id":"6197b3f67c2b5cd3b6d9596a","session_id":"619beeeb2cd16c8cf0742b85","condition":"contingent","relevant_dimensions":["wings","legs"],"bee_group":{"antennae":"X","wings":"1","pattern":"X","legs":"F"},"action":"harvest","summary":"good-harvest","bonus":1.060000000000001},{"rt":1546.5,"stimulus":"\n                    <p><b>Action: <em>harvest</em></b></p>\n                    <p>This is the bee that you just saw.</p>\n                    <img src=\"bees-with-color/bee-B2SM.svg\" width=\"200\">\n                    <p><span class=\"greenText\"><b>Successful harvest!</b></span><br>Your pay has increased by $0.02. Your bonus pay is now $0.48.</p>\n            ","response":0,"trial_type":"html-button-response","trial_index":12,"time_elapsed":72750,"internal_node_id":"0.0-4.0-1.2","subject_id":"60aa79fa99f7d53701b02256","study_id":"6197b3f67c2b5cd3b6d9596a","session_id":"619beeeb2cd16c8cf0742b85","condition":"contingent","relevant_dimensions":["wings","legs"],"bee_group":{"antennae":"X","wings":"1","pattern":"X","legs":"F"},"bonus":1.060000000000001},{"rt":1954.4000000003725,"stimulus":"bees-with-color/bee-B1SM.svg","response":0,"trial_type":"image-button-response","trial_index":13,"time_elapsed":74713,"internal_node_id":"0.0-4.0-0.3","subject_id":"60aa79fa99f7d53701b02256","study_id":"6197b3f67c2b5cd3b6d9596a","session_id":"619beeeb2cd16c8cf0742b85","condition":"contingent","relevant_dimensions":["wings","legs"],"bee_group":{"antennae":"X","wings":"1","pattern":"X","legs":"F"},"action":"harvest","summary":"good-harvest","bonus":1.060000000000001},{"rt":1357.5999999996275,"stimulus":"\n                    <p><b>Action: <em>harvest</em></b></p>\n                    <p>This is the bee that you just saw.</p>\n                    <img src=\"bees-with-color/bee-B1SM.svg\" width=\"200\">\n                    <p><span class=\"greenText\"><b>Successful harvest!</b></span><br>Your pay has increased by $0.02. Your bonus pay is now $0.50.</p>\n            ","response":0,"trial_type":"html-button-response","trial_index":14,"time_elapsed":76078,"internal_node_id":"0.0-4.0-1.3","subject_id":"60aa79fa99f7d53701b02256","study_id":"6197b3f67c2b5cd3b6d9596a","session_id":"619beeeb2cd16c8cf0742b85","condition":"contingent","relevant_dimensions":["wings","legs"],"bee_group":{"antennae":"X","wings":"1","pattern":"X","legs":"F"},"bonus":1.060000000000001},{"rt":1666.7999999998137,"stimulus":"bees-with-color/bee-B2DM.svg","response":0,"trial_type":"image-button-response","trial_index":15,"time_elapsed":77754,"internal_node_id":"0.0-4.0-0.4","subject_id":"60aa79fa99f7d53701b02256","study_id":"6197b3f67c2b5cd3b6d9596a","session_id":"619beeeb2cd16c8cf0742b85","condition":"contingent","relevant_dimensions":["wings","legs"],"bee_group":{"antennae":"X","wings":"1","pattern":"X","legs":"F"},"action":"harvest","summary":"good-harvest","bonus":1.060000000000001},{"rt":1338.5999999996275,"stimulus":"\n                    <p><b>Action: <em>harvest</em></b></p>\n                    <p>This is the bee that you just saw.</p>\n                    <img src=\"bees-with-color/bee-B2DM.svg\" width=\"200\">\n                    <p><span class=\"greenText\"><b>Successful harvest!</b></span><br>Your pay has increased by $0.02. Your bonus pay is now $0.52.</p>\n            ","response":0,"trial_type":"html-button-response","trial_index":16,"time_elapsed":79100,"internal_node_id":"0.0-4.0-1.4","subject_id":"60aa79fa99f7d53701b02256","study_id":"6197b3f67c2b5cd3b6d9596a","session_id":"619beeeb2cd16c8cf0742b85","condition":"contingent","relevant_dimensions":["wings","legs"],"bee_group":{"antennae":"X","wings":"1","pattern":"X","legs":"F"},"bonus":1.060000000000001},{"rt":1437.300000000745,"stimulus":"bees-with-color/bee-A1DM.svg","response":0,"trial_type":"image-button-response","trial_index":17,"time_elapsed":80543,"internal_node_id":"0.0-4.0-0.5","subject_id":"60aa79fa99f7d53701b02256","study_id":"6197b3f67c2b5cd3b6d9596a","session_id":"619beeeb2cd16c8cf0742b85","condition":"contingent","relevant_dimensions":["wings","legs"],"bee_group":{"antennae":"X","wings":"1","pattern":"X","legs":"F"},"action":"harvest","summary":"good-harvest","bonus":1.060000000000001},{"rt":1018.2000000001863,"stimulus":"\n                    <p><b>Action: <em>harvest</em></b></p>\n                    <p>This is the bee that you just saw.</p>\n                    <img src=\"bees-with-color/bee-A1DM.svg\" width=\"200\">\n                    <p><span class=\"greenText\"><b>Successful harvest!</b></span><br>Your pay has increased by $0.02. Your bonus pay is now $0.54.</p>\n            ","response":0,"trial_type":"html-button-response","trial_index":18,"time_elapsed":81569,"internal_node_id":"0.0-4.0-1.5","subject_id":"60aa79fa99f7d53701b02256","study_id":"6197b3f67c2b5cd3b6d9596a","session_id":"619beeeb2cd16c8cf0742b85","condition":"contingent","relevant_dimensions":["wings","legs"],"bee_group":{"antennae":"X","wings":"1","pattern":"X","legs":"F"},"bonus":1.060000000000001},{"rt":1684.7000000001863,"stimulus":"bees-with-color/bee-A2DM.svg","response":0,"trial_type":"image-button-response","trial_index":19,"time_elapsed":83262,"internal_node_id":"0.0-4.0-0.6","subject_id":"60aa79fa99f7d53701b02256","study_id":"6197b3f67c2b5cd3b6d9596a","session_id":"619beeeb2cd16c8cf0742b85","condition":"contingent","relevant_dimensions":["wings","legs"],"bee_group":{"antennae":"X","wings":"1","pattern":"X","legs":"F"},"action":"harvest","summary":"good-harvest","bonus":1.060000000000001},{"rt":1986.8999999994412,"stimulus":"\n                    <p><b>Action: <em>harvest</em></b></p>\n                    <p>This is the bee that you just saw.</p>\n                    <img src=\"bees-with-color/bee-A2DM.svg\" width=\"200\">\n                    <p><span class=\"greenText\"><b>Successful harvest!</b></span><br>Your pay has increased by $0.02. Your bonus pay is now $0.56.</p>\n            ","response":0,"trial_type":"html-button-response","trial_index":20,"time_elapsed":85256,"internal_node_id":"0.0-4.0-1.6","subject_id":"60aa79fa99f7d53701b02256","study_id":"6197b3f67c2b5cd3b6d9596a","session_id":"619beeeb2cd16c8cf0742b85","condition":"contingent","relevant_dimensions":["wings","legs"],"bee_group":{"antennae":"X","wings":"1","pattern":"X","legs":"F"},"bonus":1.060000000000001},{"rt":1745.4000000003725,"stimulus":"bees-with-color/bee-A1DF.svg","response":0,"trial_type":"image-button-response","trial_index":21,"time_elapsed":87009,"internal_node_id":"0.0-4.0-0.7","subject_id":"60aa79fa99f7d53701b02256","study_id":"6197b3f67c2b5cd3b6d9596a","session_id":"619beeeb2cd16c8cf0742b85","condition":"contingent","relevant_dimensions":["wings","legs"],"bee_group":{"antennae":"X","wings":"1","pattern":"X","legs":"F"},"action":"harvest","summary":"bad-harvest","bonus":1.060000000000001},{"rt":1278.2000000001863,"stimulus":"\n                    <p><b>Action: <em>harvest</em></b></p>\n                    <p>This is the bee that you just saw.</p>\n                    <img src=\"bees-with-color/bee-A1DF.svg\" width=\"200\">\n                    <p><span class=\"redText\">Bad choice, the bee was angry.</span><br><b>You have been stung!</b><br>Your pay has been decreased by $0.10. Your bonus pay is now $0.46.</p>\n            ","response":0,"trial_type":"html-button-response","trial_index":22,"time_elapsed":88295,"internal_node_id":"0.0-4.0-1.7","subject_id":"60aa79fa99f7d53701b02256","study_id":"6197b3f67c2b5cd3b6d9596a","session_id":"619beeeb2cd16c8cf0742b85","condition":"contingent","relevant_dimensions":["wings","legs"],"bee_group":{"antennae":"X","wings":"1","pattern":"X","legs":"F"},"bonus":1.060000000000001},{"rt":1514.7000000001863,"stimulus":"bees-with-color/bee-B1DM.svg","response":0,"trial_type":"image-button-response","trial_index":23,"time_elapsed":89819,"internal_node_id":"0.0-4.0-0.8","subject_id":"60aa79fa99f7d53701b02256","study_id":"6197b3f67c2b5cd3b6d9596a","session_id":"619beeeb2cd16c8cf0742b85","condition":"contingent","relevant_dimensions":["wings","legs"],"bee_group":{"antennae":"X","wings":"1","pattern":"X","legs":"F"},"action":"harvest","summary":"good-harvest","bonus":1.060000000000001},{"rt":4206,"stimulus":"\n                    <p><b>Action: <em>harvest</em></b></p>\n                    <p>This is the bee that you just saw.</p>\n                    <img src=\"bees-with-color/bee-B1DM.svg\" width=\"200\">\n                    <p><span class=\"greenText\"><b>Successful harvest!</b></span><br>Your pay has increased by $0.02. Your bonus pay is now $0.48.</p>\n            ","response":0,"trial_type":"html-button-response","trial_index":24,"time_elapsed":94032,"internal_node_id":"0.0-4.0-1.8","subject_id":"60aa79fa99f7d53701b02256","study_id":"6197b3f67c2b5cd3b6d9596a","session_id":"619beeeb2cd16c8cf0742b85","condition":"contingent","relevant_dimensions":["wings","legs"],"bee_group":{"antennae":"X","wings":"1","pattern":"X","legs":"F"},"bonus":1.060000000000001},{"rt":4763,"stimulus":"bees-with-color/bee-A1SF.svg","response":0,"trial_type":"image-button-response","trial_index":25,"time_elapsed":98801,"internal_node_id":"0.0-4.0-0.9","subject_id":"60aa79fa99f7d53701b02256","study_id":"6197b3f67c2b5cd3b6d9596a","session_id":"619beeeb2cd16c8cf0742b85","condition":"contingent","relevant_dimensions":["wings","legs"],"bee_group":{"antennae":"X","wings":"1","pattern":"X","legs":"F"},"action":"harvest","summary":"bad-harvest","bonus":1.060000000000001},{"rt":1078.4000000003725,"stimulus":"\n                    <p><b>Action: <em>harvest</em></b></p>\n                    <p>This is the bee that you just saw.</p>\n                    <img src=\"bees-with-color/bee-A1SF.svg\" width=\"200\">\n                    <p><span class=\"redText\">Bad choice, the bee was angry.</span><br><b>You have been stung!</b><br>Your pay has been decreased by $0.10. Your bonus pay is now $0.38.</p>\n            ","response":0,"trial_type":"html-button-response","trial_index":26,"time_elapsed":99886,"internal_node_id":"0.0-4.0-1.9","subject_id":"60aa79fa99f7d53701b02256","study_id":"6197b3f67c2b5cd3b6d9596a","session_id":"619beeeb2cd16c8cf0742b85","condition":"contingent","relevant_dimensions":["wings","legs"],"bee_group":{"antennae":"X","wings":"1","pattern":"X","legs":"F"},"bonus":1.060000000000001},{"rt":1149.5999999996275,"stimulus":"bees-with-color/bee-A2DF.svg","response":0,"trial_type":"image-button-response","trial_index":27,"time_elapsed":101042,"internal_node_id":"0.0-4.0-0.10","subject_id":"60aa79fa99f7d53701b02256","study_id":"6197b3f67c2b5cd3b6d9596a","session_id":"619beeeb2cd16c8cf0742b85","condition":"contingent","relevant_dimensions":["wings","legs"],"bee_group":{"antennae":"X","wings":"1","pattern":"X","legs":"F"},"action":"harvest","summary":"good-harvest","bonus":1.060000000000001},{"rt":2086.7999999998137,"stimulus":"\n                    <p><b>Action: <em>harvest</em></b></p>\n                    <p>This is the bee that you just saw.</p>\n                    <img src=\"bees-with-color/bee-A2DF.svg\" width=\"200\">\n                    <p><span class=\"greenText\"><b>Successful harvest!</b></span><br>Your pay has increased by $0.02. Your bonus pay is now $0.40.</p>\n            ","response":0,"trial_type":"html-button-response","trial_index":28,"time_elapsed":103134,"internal_node_id":"0.0-4.0-1.10","subject_id":"60aa79fa99f7d53701b02256","study_id":"6197b3f67c2b5cd3b6d9596a","session_id":"619beeeb2cd16c8cf0742b85","condition":"contingent","relevant_dimensions":["wings","legs"],"bee_group":{"antennae":"X","wings":"1","pattern":"X","legs":"F"},"bonus":1.060000000000001},{"rt":3762.7999999998137,"stimulus":"bees-with-color/bee-B2SF.svg","response":1,"trial_type":"image-button-response","trial_index":29,"time_elapsed":106902,"internal_node_id":"0.0-4.0-0.11","subject_id":"60aa79fa99f7d53701b02256","study_id":"6197b3f67c2b5cd3b6d9596a","session_id":"619beeeb2cd16c8cf0742b85","condition":"contingent","relevant_dimensions":["wings","legs"],"bee_group":{"antennae":"X","wings":"1","pattern":"X","legs":"F"},"action":"avoid","summary":"bad-avoid","bonus":1.060000000000001},{"rt":2693.5,"stimulus":"\n                    <p><b>Action: <em>avoid</em></b></p>\n                    <p>This is the bee that you just saw.</p>\n                    <img src=\"bees-with-color/bee-B2SF.svg\" width=\"200\">\n                    <p><br>Your bonus pay is unchanged, and remains at $0.40.</p>\n            ","response":0,"trial_type":"html-button-response","trial_index":30,"time_elapsed":109601,"internal_node_id":"0.0-4.0-1.11","subject_id":"60aa79fa99f7d53701b02256","study_id":"6197b3f67c2b5cd3b6d9596a","session_id":"619beeeb2cd16c8cf0742b85","condition":"contingent","relevant_dimensions":["wings","legs"],"bee_group":{"antennae":"X","wings":"1","pattern":"X","legs":"F"},"bonus":1.060000000000001},{"rt":1207.5,"stimulus":"bees-with-color/bee-A2SF.svg","response":0,"trial_type":"image-button-response","trial_index":31,"time_elapsed":110815,"internal_node_id":"0.0-4.0-0.12","subject_id":"60aa79fa99f7d53701b02256","study_id":"6197b3f67c2b5cd3b6d9596a","session_id":"619beeeb2cd16c8cf0742b85","condition":"contingent","relevant_dimensions":["wings","legs"],"bee_group":{"antennae":"X","wings":"1","pattern":"X","legs":"F"},"action":"harvest","summary":"good-harvest","bonus":1.060000000000001},{"rt":1528.5999999996275,"stimulus":"\n                    <p><b>Action: <em>harvest</em></b></p>\n                    <p>This is the bee that you just saw.</p>\n                    <img src=\"bees-with-color/bee-A2SF.svg\" width=\"200\">\n                    <p><span class=\"greenText\"><b>Successful harvest!</b></span><br>Your pay has increased by $0.02. Your bonus pay is now $0.42.</p>\n            ","response":0,"trial_type":"html-button-response","trial_index":32,"time_elapsed":112348,"internal_node_id":"0.0-4.0-1.12","subject_id":"60aa79fa99f7d53701b02256","study_id":"6197b3f67c2b5cd3b6d9596a","session_id":"619beeeb2cd16c8cf0742b85","condition":"contingent","relevant_dimensions":["wings","legs"],"bee_group":{"antennae":"X","wings":"1","pattern":"X","legs":"F"},"bonus":1.060000000000001},{"rt":1104.2999999998137,"stimulus":"bees-with-color/bee-A1SM.svg","response":0,"trial_type":"image-button-response","trial_index":33,"time_elapsed":113457,"internal_node_id":"0.0-4.0-0.13","subject_id":"60aa79fa99f7d53701b02256","study_id":"6197b3f67c2b5cd3b6d9596a","session_id":"619beeeb2cd16c8cf0742b85","condition":"contingent","relevant_dimensions":["wings","legs"],"bee_group":{"antennae":"X","wings":"1","pattern":"X","legs":"F"},"action":"harvest","summary":"good-harvest","bonus":1.060000000000001},{"rt":1337.7000000001863,"stimulus":"\n                    <p><b>Action: <em>harvest</em></b></p>\n                    <p>This is the bee that you just saw.</p>\n                    <img src=\"bees-with-color/bee-A1SM.svg\" width=\"200\">\n                    <p><span class=\"greenText\"><b>Successful harvest!</b></span><br>Your pay has increased by $0.02. Your bonus pay is now $0.44.</p>\n            ","response":0,"trial_type":"html-button-response","trial_index":34,"time_elapsed":114800,"internal_node_id":"0.0-4.0-1.13","subject_id":"60aa79fa99f7d53701b02256","study_id":"6197b3f67c2b5cd3b6d9596a","session_id":"619beeeb2cd16c8cf0742b85","condition":"contingent","relevant_dimensions":["wings","legs"],"bee_group":{"antennae":"X","wings":"1","pattern":"X","legs":"F"},"bonus":1.060000000000001},{"rt":1591.2000000001863,"stimulus":"bees-with-color/bee-B1SF.svg","response":1,"trial_type":"image-button-response","trial_index":35,"time_elapsed":116397,"internal_node_id":"0.0-4.0-0.14","subject_id":"60aa79fa99f7d53701b02256","study_id":"6197b3f67c2b5cd3b6d9596a","session_id":"619beeeb2cd16c8cf0742b85","condition":"contingent","relevant_dimensions":["wings","legs"],"bee_group":{"antennae":"X","wings":"1","pattern":"X","legs":"F"},"action":"avoid","summary":"good-avoid","bonus":1.060000000000001},{"rt":1647.4000000003725,"stimulus":"\n                    <p><b>Action: <em>avoid</em></b></p>\n                    <p>This is the bee that you just saw.</p>\n                    <img src=\"bees-with-color/bee-B1SF.svg\" width=\"200\">\n                    <p><br>Your bonus pay is unchanged, and remains at $0.44.</p>\n            ","response":0,"trial_type":"html-button-response","trial_index":36,"time_elapsed":118049,"internal_node_id":"0.0-4.0-1.14","subject_id":"60aa79fa99f7d53701b02256","study_id":"6197b3f67c2b5cd3b6d9596a","session_id":"619beeeb2cd16c8cf0742b85","condition":"contingent","relevant_dimensions":["wings","legs"],"bee_group":{"antennae":"X","wings":"1","pattern":"X","legs":"F"},"bonus":1.060000000000001},{"rt":1399.3999999994412,"stimulus":"bees-with-color/bee-A2SM.svg","response":0,"trial_type":"image-button-response","trial_index":37,"time_elapsed":119455,"internal_node_id":"0.0-4.0-0.15","subject_id":"60aa79fa99f7d53701b02256","study_id":"6197b3f67c2b5cd3b6d9596a","session_id":"619beeeb2cd16c8cf0742b85","condition":"contingent","relevant_dimensions":["wings","legs"],"bee_group":{"antennae":"X","wings":"1","pattern":"X","legs":"F"},"action":"harvest","summary":"good-harvest","bonus":1.060000000000001},{"rt":1231.2999999998137,"stimulus":"\n                    <p><b>Action: <em>harvest</em></b></p>\n                    <p>This is the bee that you just saw.</p>\n                    <img src=\"bees-with-color/bee-A2SM.svg\" width=\"200\">\n                    <p><span class=\"greenText\"><b>Successful harvest!</b></span><br>Your pay has increased by $0.02. Your bonus pay is now $0.46.</p>\n            ","response":0,"trial_type":"html-button-response","trial_index":38,"time_elapsed":120690,"internal_node_id":"0.0-4.0-1.15","subject_id":"60aa79fa99f7d53701b02256","study_id":"6197b3f67c2b5cd3b6d9596a","session_id":"619beeeb2cd16c8cf0742b85","condition":"contingent","relevant_dimensions":["wings","legs"],"bee_group":{"antennae":"X","wings":"1","pattern":"X","legs":"F"},"bonus":1.060000000000001},{"rt":1400.9000000003725,"stimulus":"bees-with-color/bee-B1SM.svg","response":0,"trial_type":"image-button-response","trial_index":39,"time_elapsed":122097,"internal_node_id":"0.0-4.0-0.16","subject_id":"60aa79fa99f7d53701b02256","study_id":"6197b3f67c2b5cd3b6d9596a","session_id":"619beeeb2cd16c8cf0742b85","condition":"contingent","relevant_dimensions":["wings","legs"],"bee_group":{"antennae":"X","wings":"1","pattern":"X","legs":"F"},"action":"harvest","summary":"good-harvest","bonus":1.060000000000001},{"rt":1627.4000000003725,"stimulus":"\n                    <p><b>Action: <em>harvest</em></b></p>\n                    <p>This is the bee that you just saw.</p>\n                    <img src=\"bees-with-color/bee-B1SM.svg\" width=\"200\">\n                    <p><span class=\"greenText\"><b>Successful harvest!</b></span><br>Your pay has increased by $0.02. Your bonus pay is now $0.48.</p>\n            ","response":0,"trial_type":"html-button-response","trial_index":40,"time_elapsed":123729,"internal_node_id":"0.0-4.0-1.16","subject_id":"60aa79fa99f7d53701b02256","study_id":"6197b3f67c2b5cd3b6d9596a","session_id":"619beeeb2cd16c8cf0742b85","condition":"contingent","relevant_dimensions":["wings","legs"],"bee_group":{"antennae":"X","wings":"1","pattern":"X","legs":"F"},"bonus":1.060000000000001},{"rt":1647.2999999998137,"stimulus":"bees-with-color/bee-B1DF.svg","response":1,"trial_type":"image-button-response","trial_index":41,"time_elapsed":125384,"internal_node_id":"0.0-4.0-0.17","subject_id":"60aa79fa99f7d53701b02256","study_id":"6197b3f67c2b5cd3b6d9596a","session_id":"619beeeb2cd16c8cf0742b85","condition":"contingent","relevant_dimensions":["wings","legs"],"bee_group":{"antennae":"X","wings":"1","pattern":"X","legs":"F"},"action":"avoid","summary":"good-avoid","bonus":1.060000000000001},{"rt":1020.5999999996275,"stimulus":"\n                    <p><b>Action: <em>avoid</em></b></p>\n                    <p>This is the bee that you just saw.</p>\n                    <img src=\"bees-with-color/bee-B1DF.svg\" width=\"200\">\n                    <p><br>Your bonus pay is unchanged, and remains at $0.48.</p>\n            ","response":0,"trial_type":"html-button-response","trial_index":42,"time_elapsed":126409,"internal_node_id":"0.0-4.0-1.17","subject_id":"60aa79fa99f7d53701b02256","study_id":"6197b3f67c2b5cd3b6d9596a","session_id":"619beeeb2cd16c8cf0742b85","condition":"contingent","relevant_dimensions":["wings","legs"],"bee_group":{"antennae":"X","wings":"1","pattern":"X","legs":"F"},"bonus":1.060000000000001},{"rt":852.4000000003725,"stimulus":"bees-with-color/bee-B2SF.svg","response":0,"trial_type":"image-button-response","trial_index":43,"time_elapsed":127267,"internal_node_id":"0.0-4.0-0.18","subject_id":"60aa79fa99f7d53701b02256","study_id":"6197b3f67c2b5cd3b6d9596a","session_id":"619beeeb2cd16c8cf0742b85","condition":"contingent","relevant_dimensions":["wings","legs"],"bee_group":{"antennae":"X","wings":"1","pattern":"X","legs":"F"},"action":"harvest","summary":"good-harvest","bonus":1.060000000000001},{"rt":789.5,"stimulus":"\n                    <p><b>Action: <em>harvest</em></b></p>\n                    <p>This is the bee that you just saw.</p>\n                    <img src=\"bees-with-color/bee-B2SF.svg\" width=\"200\">\n                    <p><span class=\"greenText\"><b>Successful harvest!</b></span><br>Your pay has increased by $0.02. Your bonus pay is now $0.50.</p>\n            ","response":0,"trial_type":"html-button-response","trial_index":44,"time_elapsed":128063,"internal_node_id":"0.0-4.0-1.18","subject_id":"60aa79fa99f7d53701b02256","study_id":"6197b3f67c2b5cd3b6d9596a","session_id":"619beeeb2cd16c8cf0742b85","condition":"contingent","relevant_dimensions":["wings","legs"],"bee_group":{"antennae":"X","wings":"1","pattern":"X","legs":"F"},"bonus":1.060000000000001},{"rt":851.5999999996275,"stimulus":"bees-with-color/bee-A2DF.svg","response":0,"trial_type":"image-button-response","trial_index":45,"time_elapsed":128920,"internal_node_id":"0.0-4.0-0.19","subject_id":"60aa79fa99f7d53701b02256","study_id":"6197b3f67c2b5cd3b6d9596a","session_id":"619beeeb2cd16c8cf0742b85","condition":"contingent","relevant_dimensions":["wings","legs"],"bee_group":{"antennae":"X","wings":"1","pattern":"X","legs":"F"},"action":"harvest","summary":"good-harvest","bonus":1.060000000000001},{"rt":1589.2000000001863,"stimulus":"\n                    <p><b>Action: <em>harvest</em></b></p>\n                    <p>This is the bee that you just saw.</p>\n                    <img src=\"bees-with-color/bee-A2DF.svg\" width=\"200\">\n                    <p><span class=\"greenText\"><b>Successful harvest!</b></span><br>Your pay has increased by $0.02. Your bonus pay is now $0.52.</p>\n            ","response":0,"trial_type":"html-button-response","trial_index":46,"time_elapsed":130515,"internal_node_id":"0.0-4.0-1.19","subject_id":"60aa79fa99f7d53701b02256","study_id":"6197b3f67c2b5cd3b6d9596a","session_id":"619beeeb2cd16c8cf0742b85","condition":"contingent","relevant_dimensions":["wings","legs"],"bee_group":{"antennae":"X","wings":"1","pattern":"X","legs":"F"},"bonus":1.060000000000001},{"rt":940.2999999998137,"stimulus":"bees-with-color/bee-A2SF.svg","response":0,"trial_type":"image-button-response","trial_index":47,"time_elapsed":131461,"internal_node_id":"0.0-4.0-0.20","subject_id":"60aa79fa99f7d53701b02256","study_id":"6197b3f67c2b5cd3b6d9596a","session_id":"619beeeb2cd16c8cf0742b85","condition":"contingent","relevant_dimensions":["wings","legs"],"bee_group":{"antennae":"X","wings":"1","pattern":"X","legs":"F"},"action":"harvest","summary":"good-harvest","bonus":1.060000000000001},{"rt":869.5,"stimulus":"\n                    <p><b>Action: <em>harvest</em></b></p>\n                    <p>This is the bee that you just saw.</p>\n                    <img src=\"bees-with-color/bee-A2SF.svg\" width=\"200\">\n                    <p><span class=\"greenText\"><b>Successful harvest!</b></span><br>Your pay has increased by $0.02. Your bonus pay is now $0.54.</p>\n            ","response":0,"trial_type":"html-button-response","trial_index":48,"time_elapsed":132337,"internal_node_id":"0.0-4.0-1.20","subject_id":"60aa79fa99f7d53701b02256","study_id":"6197b3f67c2b5cd3b6d9596a","session_id":"619beeeb2cd16c8cf0742b85","condition":"contingent","relevant_dimensions":["wings","legs"],"bee_group":{"antennae":"X","wings":"1","pattern":"X","legs":"F"},"bonus":1.060000000000001},{"rt":962.8999999994412,"stimulus":"bees-with-color/bee-A2DM.svg","response":0,"trial_type":"image-button-response","trial_index":49,"time_elapsed":133306,"internal_node_id":"0.0-4.0-0.21","subject_id":"60aa79fa99f7d53701b02256","study_id":"6197b3f67c2b5cd3b6d9596a","session_id":"619beeeb2cd16c8cf0742b85","condition":"contingent","relevant_dimensions":["wings","legs"],"bee_group":{"antennae":"X","wings":"1","pattern":"X","legs":"F"},"action":"harvest","summary":"good-harvest","bonus":1.060000000000001},{"rt":790.2999999998137,"stimulus":"\n                    <p><b>Action: <em>harvest</em></b></p>\n                    <p>This is the bee that you just saw.</p>\n                    <img src=\"bees-with-color/bee-A2DM.svg\" width=\"200\">\n                    <p><span class=\"greenText\"><b>Successful harvest!</b></span><br>Your pay has increased by $0.02. Your bonus pay is now $0.56.</p>\n            ","response":0,"trial_type":"html-button-response","trial_index":50,"time_elapsed":134102,"internal_node_id":"0.0-4.0-1.21","subject_id":"60aa79fa99f7d53701b02256","study_id":"6197b3f67c2b5cd3b6d9596a","session_id":"619beeeb2cd16c8cf0742b85","condition":"contingent","relevant_dimensions":["wings","legs"],"bee_group":{"antennae":"X","wings":"1","pattern":"X","legs":"F"},"bonus":1.060000000000001},{"rt":942.8999999994412,"stimulus":"bees-with-color/bee-B2SM.svg","response":0,"trial_type":"image-button-response","trial_index":51,"time_elapsed":135050,"internal_node_id":"0.0-4.0-0.22","subject_id":"60aa79fa99f7d53701b02256","study_id":"6197b3f67c2b5cd3b6d9596a","session_id":"619beeeb2cd16c8cf0742b85","condition":"contingent","relevant_dimensions":["wings","legs"],"bee_group":{"antennae":"X","wings":"1","pattern":"X","legs":"F"},"action":"harvest","summary":"good-harvest","bonus":1.060000000000001},{"rt":851.5,"stimulus":"\n                    <p><b>Action: <em>harvest</em></b></p>\n                    <p>This is the bee that you just saw.</p>\n                    <img src=\"bees-with-color/bee-B2SM.svg\" width=\"200\">\n                    <p><span class=\"greenText\"><b>Successful harvest!</b></span><br>Your pay has increased by $0.02. Your bonus pay is now $0.58.</p>\n            ","response":0,"trial_type":"html-button-response","trial_index":52,"time_elapsed":135908,"internal_node_id":"0.0-4.0-1.22","subject_id":"60aa79fa99f7d53701b02256","study_id":"6197b3f67c2b5cd3b6d9596a","session_id":"619beeeb2cd16c8cf0742b85","condition":"contingent","relevant_dimensions":["wings","legs"],"bee_group":{"antennae":"X","wings":"1","pattern":"X","legs":"F"},"bonus":1.060000000000001},{"rt":941.9000000003725,"stimulus":"bees-with-color/bee-A1DF.svg","response":0,"trial_type":"image-button-response","trial_index":53,"time_elapsed":136856,"internal_node_id":"0.0-4.0-0.23","subject_id":"60aa79fa99f7d53701b02256","study_id":"6197b3f67c2b5cd3b6d9596a","session_id":"619beeeb2cd16c8cf0742b85","condition":"contingent","relevant_dimensions":["wings","legs"],"bee_group":{"antennae":"X","wings":"1","pattern":"X","legs":"F"},"action":"harvest","summary":"bad-harvest","bonus":1.060000000000001},{"rt":1038.2999999998137,"stimulus":"\n                    <p><b>Action: <em>harvest</em></b></p>\n                    <p>This is the bee that you just saw.</p>\n                    <img src=\"bees-with-color/bee-A1DF.svg\" width=\"200\">\n                    <p><span class=\"redText\">Bad choice, the bee was angry.</span><br><b>You have been stung!</b><br>Your pay has been decreased by $0.10. Your bonus pay is now $0.48.</p>\n            ","response":0,"trial_type":"html-button-response","trial_index":54,"time_elapsed":137901,"internal_node_id":"0.0-4.0-1.23","subject_id":"60aa79fa99f7d53701b02256","study_id":"6197b3f67c2b5cd3b6d9596a","session_id":"619beeeb2cd16c8cf0742b85","condition":"contingent","relevant_dimensions":["wings","legs"],"bee_group":{"antennae":"X","wings":"1","pattern":"X","legs":"F"},"bonus":1.060000000000001},{"rt":919.9000000003725,"stimulus":"bees-with-color/bee-B2DF.svg","response":1,"trial_type":"image-button-response","trial_index":55,"time_elapsed":138827,"internal_node_id":"0.0-4.0-0.24","subject_id":"60aa79fa99f7d53701b02256","study_id":"6197b3f67c2b5cd3b6d9596a","session_id":"619beeeb2cd16c8cf0742b85","condition":"contingent","relevant_dimensions":["wings","legs"],"bee_group":{"antennae":"X","wings":"1","pattern":"X","legs":"F"},"action":"avoid","summary":"bad-avoid","bonus":1.060000000000001},{"rt":912.3999999994412,"stimulus":"\n                    <p><b>Action: <em>avoid</em></b></p>\n                    <p>This is the bee that you just saw.</p>\n                    <img src=\"bees-with-color/bee-B2DF.svg\" width=\"200\">\n                    <p><br>Your bonus pay is unchanged, and remains at $0.48.</p>\n            ","response":0,"trial_type":"html-button-response","trial_index":56,"time_elapsed":139746,"internal_node_id":"0.0-4.0-1.24","subject_id":"60aa79fa99f7d53701b02256","study_id":"6197b3f67c2b5cd3b6d9596a","session_id":"619beeeb2cd16c8cf0742b85","condition":"contingent","relevant_dimensions":["wings","legs"],"bee_group":{"antennae":"X","wings":"1","pattern":"X","legs":"F"},"bonus":1.060000000000001},{"rt":751.9000000003725,"stimulus":"bees-with-color/bee-A1DM.svg","response":0,"trial_type":"image-button-response","trial_index":57,"time_elapsed":140503,"internal_node_id":"0.0-4.0-0.25","subject_id":"60aa79fa99f7d53701b02256","study_id":"6197b3f67c2b5cd3b6d9596a","session_id":"619beeeb2cd16c8cf0742b85","condition":"contingent","relevant_dimensions":["wings","legs"],"bee_group":{"antennae":"X","wings":"1","pattern":"X","legs":"F"},"action":"harvest","summary":"good-harvest","bonus":1.060000000000001},{"rt":1266.7999999998137,"stimulus":"\n                    <p><b>Action: <em>harvest</em></b></p>\n                    <p>This is the bee that you just saw.</p>\n                    <img src=\"bees-with-color/bee-A1DM.svg\" width=\"200\">\n                    <p><span class=\"greenText\"><b>Successful harvest!</b></span><br>Your pay has increased by $0.02. Your bonus pay is now $0.50.</p>\n            ","response":0,"trial_type":"html-button-response","trial_index":58,"time_elapsed":141777,"internal_node_id":"0.0-4.0-1.25","subject_id":"60aa79fa99f7d53701b02256","study_id":"6197b3f67c2b5cd3b6d9596a","session_id":"619beeeb2cd16c8cf0742b85","condition":"contingent","relevant_dimensions":["wings","legs"],"bee_group":{"antennae":"X","wings":"1","pattern":"X","legs":"F"},"bonus":1.060000000000001},{"rt":1231.8999999994412,"stimulus":"bees-with-color/bee-A1SM.svg","response":0,"trial_type":"image-button-response","trial_index":59,"time_elapsed":143014,"internal_node_id":"0.0-4.0-0.26","subject_id":"60aa79fa99f7d53701b02256","study_id":"6197b3f67c2b5cd3b6d9596a","session_id":"619beeeb2cd16c8cf0742b85","condition":"contingent","relevant_dimensions":["wings","legs"],"bee_group":{"antennae":"X","wings":"1","pattern":"X","legs":"F"},"action":"harvest","summary":"good-harvest","bonus":1.060000000000001},{"rt":1008.6999999992549,"stimulus":"\n                    <p><b>Action: <em>harvest</em></b></p>\n                    <p>This is the bee that you just saw.</p>\n                    <img src=\"bees-with-color/bee-A1SM.svg\" width=\"200\">\n                    <p><span class=\"greenText\"><b>Successful harvest!</b></span><br>Your pay has increased by $0.02. Your bonus pay is now $0.52.</p>\n            ","response":0,"trial_type":"html-button-response","trial_index":60,"time_elapsed":144031,"internal_node_id":"0.0-4.0-1.26","subject_id":"60aa79fa99f7d53701b02256","study_id":"6197b3f67c2b5cd3b6d9596a","session_id":"619beeeb2cd16c8cf0742b85","condition":"contingent","relevant_dimensions":["wings","legs"],"bee_group":{"antennae":"X","wings":"1","pattern":"X","legs":"F"},"bonus":1.060000000000001},{"rt":1010.5999999996275,"stimulus":"bees-with-color/bee-B2DM.svg","response":0,"trial_type":"image-button-response","trial_index":61,"time_elapsed":145048,"internal_node_id":"0.0-4.0-0.27","subject_id":"60aa79fa99f7d53701b02256","study_id":"6197b3f67c2b5cd3b6d9596a","session_id":"619beeeb2cd16c8cf0742b85","condition":"contingent","relevant_dimensions":["wings","legs"],"bee_group":{"antennae":"X","wings":"1","pattern":"X","legs":"F"},"action":"harvest","summary":"good-harvest","bonus":1.060000000000001},{"rt":920.2000000001863,"stimulus":"\n                    <p><b>Action: <em>harvest</em></b></p>\n                    <p>This is the bee that you just saw.</p>\n                    <img src=\"bees-with-color/bee-B2DM.svg\" width=\"200\">\n                    <p><span class=\"greenText\"><b>Successful harvest!</b></span><br>Your pay has increased by $0.02. Your bonus pay is now $0.54.</p>\n            ","response":0,"trial_type":"html-button-response","trial_index":62,"time_elapsed":145976,"internal_node_id":"0.0-4.0-1.27","subject_id":"60aa79fa99f7d53701b02256","study_id":"6197b3f67c2b5cd3b6d9596a","session_id":"619beeeb2cd16c8cf0742b85","condition":"contingent","relevant_dimensions":["wings","legs"],"bee_group":{"antennae":"X","wings":"1","pattern":"X","legs":"F"},"bonus":1.060000000000001},{"rt":1588.6000000005588,"stimulus":"bees-with-color/bee-A2SM.svg","response":0,"trial_type":"image-button-response","trial_index":63,"time_elapsed":147570,"internal_node_id":"0.0-4.0-0.28","subject_id":"60aa79fa99f7d53701b02256","study_id":"6197b3f67c2b5cd3b6d9596a","session_id":"619beeeb2cd16c8cf0742b85","condition":"contingent","relevant_dimensions":["wings","legs"],"bee_group":{"antennae":"X","wings":"1","pattern":"X","legs":"F"},"action":"harvest","summary":"good-harvest","bonus":1.060000000000001},{"rt":1496.4000000003725,"stimulus":"\n                    <p><b>Action: <em>harvest</em></b></p>\n                    <p>This is the bee that you just saw.</p>\n                    <img src=\"bees-with-color/bee-A2SM.svg\" width=\"200\">\n                    <p><span class=\"greenText\"><b>Successful harvest!</b></span><br>Your pay has increased by $0.02. Your bonus pay is now $0.56.</p>\n            ","response":0,"trial_type":"html-button-response","trial_index":64,"time_elapsed":149074,"internal_node_id":"0.0-4.0-1.28","subject_id":"60aa79fa99f7d53701b02256","study_id":"6197b3f67c2b5cd3b6d9596a","session_id":"619beeeb2cd16c8cf0742b85","condition":"contingent","relevant_dimensions":["wings","legs"],"bee_group":{"antennae":"X","wings":"1","pattern":"X","legs":"F"},"bonus":1.060000000000001},{"rt":2443.100000000559,"stimulus":"bees-with-color/bee-B1DM.svg","response":1,"trial_type":"image-button-response","trial_index":65,"time_elapsed":151523,"internal_node_id":"0.0-4.0-0.29","subject_id":"60aa79fa99f7d53701b02256","study_id":"6197b3f67c2b5cd3b6d9596a","session_id":"619beeeb2cd16c8cf0742b85","condition":"contingent","relevant_dimensions":["wings","legs"],"bee_group":{"antennae":"X","wings":"1","pattern":"X","legs":"F"},"action":"avoid","summary":"bad-avoid","bonus":1.060000000000001},{"rt":940.2000000001863,"stimulus":"\n                    <p><b>Action: <em>avoid</em></b></p>\n                    <p>This is the bee that you just saw.</p>\n                    <img src=\"bees-with-color/bee-B1DM.svg\" width=\"200\">\n                    <p><br>Your bonus pay is unchanged, and remains at $0.56.</p>\n            ","response":0,"trial_type":"html-button-response","trial_index":66,"time_elapsed":152470,"internal_node_id":"0.0-4.0-1.29","subject_id":"60aa79fa99f7d53701b02256","study_id":"6197b3f67c2b5cd3b6d9596a","session_id":"619beeeb2cd16c8cf0742b85","condition":"contingent","relevant_dimensions":["wings","legs"],"bee_group":{"antennae":"X","wings":"1","pattern":"X","legs":"F"},"bonus":1.060000000000001},{"rt":2144.5999999996275,"stimulus":"bees-with-color/bee-A1SF.svg","response":1,"trial_type":"image-button-response","trial_index":67,"time_elapsed":154621,"internal_node_id":"0.0-4.0-0.30","subject_id":"60aa79fa99f7d53701b02256","study_id":"6197b3f67c2b5cd3b6d9596a","session_id":"619beeeb2cd16c8cf0742b85","condition":"contingent","relevant_dimensions":["wings","legs"],"bee_group":{"antennae":"X","wings":"1","pattern":"X","legs":"F"},"action":"avoid","summary":"good-avoid","bonus":1.060000000000001},{"rt":1051.7999999998137,"stimulus":"\n                    <p><b>Action: <em>avoid</em></b></p>\n                    <p>This is the bee that you just saw.</p>\n                    <img src=\"bees-with-color/bee-A1SF.svg\" width=\"200\">\n                    <p><br>Your bonus pay is unchanged, and remains at $0.56.</p>\n            ","response":0,"trial_type":"html-button-response","trial_index":68,"time_elapsed":155677,"internal_node_id":"0.0-4.0-1.30","subject_id":"60aa79fa99f7d53701b02256","study_id":"6197b3f67c2b5cd3b6d9596a","session_id":"619beeeb2cd16c8cf0742b85","condition":"contingent","relevant_dimensions":["wings","legs"],"bee_group":{"antennae":"X","wings":"1","pattern":"X","legs":"F"},"bonus":1.060000000000001},{"rt":1309.699999999255,"stimulus":"bees-with-color/bee-B1SF.svg","response":1,"trial_type":"image-button-response","trial_index":69,"time_elapsed":156992,"internal_node_id":"0.0-4.0-0.31","subject_id":"60aa79fa99f7d53701b02256","study_id":"6197b3f67c2b5cd3b6d9596a","session_id":"619beeeb2cd16c8cf0742b85","condition":"contingent","relevant_dimensions":["wings","legs"],"bee_group":{"antennae":"X","wings":"1","pattern":"X","legs":"F"},"action":"avoid","summary":"good-avoid","bonus":1.060000000000001},{"rt":832.7999999998137,"stimulus":"\n                    <p><b>Action: <em>avoid</em></b></p>\n                    <p>This is the bee that you just saw.</p>\n                    <img src=\"bees-with-color/bee-B1SF.svg\" width=\"200\">\n                    <p><br>Your bonus pay is unchanged, and remains at $0.56.</p>\n            ","response":0,"trial_type":"html-button-response","trial_index":70,"time_elapsed":157831,"internal_node_id":"0.0-4.0-1.31","subject_id":"60aa79fa99f7d53701b02256","study_id":"6197b3f67c2b5cd3b6d9596a","session_id":"619beeeb2cd16c8cf0742b85","condition":"contingent","relevant_dimensions":["wings","legs"],"bee_group":{"antennae":"X","wings":"1","pattern":"X","legs":"F"},"bonus":1.060000000000001},{"rt":1696.800000000745,"stimulus":"bees-with-color/bee-A1SF.svg","response":0,"trial_type":"image-button-response","trial_index":71,"time_elapsed":159534,"internal_node_id":"0.0-4.0-0.32","subject_id":"60aa79fa99f7d53701b02256","study_id":"6197b3f67c2b5cd3b6d9596a","session_id":"619beeeb2cd16c8cf0742b85","condition":"contingent","relevant_dimensions":["wings","legs"],"bee_group":{"antennae":"X","wings":"1","pattern":"X","legs":"F"},"action":"harvest","summary":"bad-harvest","bonus":1.060000000000001},{"rt":1310.5,"stimulus":"\n                    <p><b>Action: <em>harvest</em></b></p>\n                    <p>This is the bee that you just saw.</p>\n                    <img src=\"bees-with-color/bee-A1SF.svg\" width=\"200\">\n                    <p><span class=\"redText\">Bad choice, the bee was angry.</span><br><b>You have been stung!</b><br>Your pay has been decreased by $0.10. Your bonus pay is now $0.46.</p>\n            ","response":0,"trial_type":"html-button-response","trial_index":72,"time_elapsed":160849,"internal_node_id":"0.0-4.0-1.32","subject_id":"60aa79fa99f7d53701b02256","study_id":"6197b3f67c2b5cd3b6d9596a","session_id":"619beeeb2cd16c8cf0742b85","condition":"contingent","relevant_dimensions":["wings","legs"],"bee_group":{"antennae":"X","wings":"1","pattern":"X","legs":"F"},"bonus":1.060000000000001},{"rt":1839.0999999996275,"stimulus":"bees-with-color/bee-A2SM.svg","response":0,"trial_type":"image-button-response","trial_index":73,"time_elapsed":162693,"internal_node_id":"0.0-4.0-0.33","subject_id":"60aa79fa99f7d53701b02256","study_id":"6197b3f67c2b5cd3b6d9596a","session_id":"619beeeb2cd16c8cf0742b85","condition":"contingent","relevant_dimensions":["wings","legs"],"bee_group":{"antennae":"X","wings":"1","pattern":"X","legs":"F"},"action":"harvest","summary":"good-harvest","bonus":1.060000000000001},{"rt":1170.9000000003725,"stimulus":"\n                    <p><b>Action: <em>harvest</em></b></p>\n                    <p>This is the bee that you just saw.</p>\n                    <img src=\"bees-with-color/bee-A2SM.svg\" width=\"200\">\n                    <p><span class=\"greenText\"><b>Successful harvest!</b></span><br>Your pay has increased by $0.02. Your bonus pay is now $0.48.</p>\n            ","response":0,"trial_type":"html-button-response","trial_index":74,"time_elapsed":163869,"internal_node_id":"0.0-4.0-1.33","subject_id":"60aa79fa99f7d53701b02256","study_id":"6197b3f67c2b5cd3b6d9596a","session_id":"619beeeb2cd16c8cf0742b85","condition":"contingent","relevant_dimensions":["wings","legs"],"bee_group":{"antennae":"X","wings":"1","pattern":"X","legs":"F"},"bonus":1.060000000000001},{"rt":1570.0999999996275,"stimulus":"bees-with-color/bee-B1DM.svg","response":0,"trial_type":"image-button-response","trial_index":75,"time_elapsed":165445,"internal_node_id":"0.0-4.0-0.34","subject_id":"60aa79fa99f7d53701b02256","study_id":"6197b3f67c2b5cd3b6d9596a","session_id":"619beeeb2cd16c8cf0742b85","condition":"contingent","relevant_dimensions":["wings","legs"],"bee_group":{"antennae":"X","wings":"1","pattern":"X","legs":"F"},"action":"harvest","summary":"good-harvest","bonus":1.060000000000001},{"rt":1497.5,"stimulus":"\n                    <p><b>Action: <em>harvest</em></b></p>\n                    <p>This is the bee that you just saw.</p>\n                    <img src=\"bees-with-color/bee-B1DM.svg\" width=\"200\">\n                    <p><span class=\"greenText\"><b>Successful harvest!</b></span><br>Your pay has increased by $0.02. Your bonus pay is now $0.50.</p>\n            ","response":0,"trial_type":"html-button-response","trial_index":76,"time_elapsed":166948,"internal_node_id":"0.0-4.0-1.34","subject_id":"60aa79fa99f7d53701b02256","study_id":"6197b3f67c2b5cd3b6d9596a","session_id":"619beeeb2cd16c8cf0742b85","condition":"contingent","relevant_dimensions":["wings","legs"],"bee_group":{"antennae":"X","wings":"1","pattern":"X","legs":"F"},"bonus":1.060000000000001},{"rt":1590.5,"stimulus":"bees-with-color/bee-B1SF.svg","response":1,"trial_type":"image-button-response","trial_index":77,"time_elapsed":168543,"internal_node_id":"0.0-4.0-0.35","subject_id":"60aa79fa99f7d53701b02256","study_id":"6197b3f67c2b5cd3b6d9596a","session_id":"619beeeb2cd16c8cf0742b85","condition":"contingent","relevant_dimensions":["wings","legs"],"bee_group":{"antennae":"X","wings":"1","pattern":"X","legs":"F"},"action":"avoid","summary":"good-avoid","bonus":1.060000000000001},{"rt":920.6000000005588,"stimulus":"\n                    <p><b>Action: <em>avoid</em></b></p>\n                    <p>This is the bee that you just saw.</p>\n                    <img src=\"bees-with-color/bee-B1SF.svg\" width=\"200\">\n                    <p><br>Your bonus pay is unchanged, and remains at $0.50.</p>\n            ","response":0,"trial_type":"html-button-response","trial_index":78,"time_elapsed":169469,"internal_node_id":"0.0-4.0-1.35","subject_id":"60aa79fa99f7d53701b02256","study_id":"6197b3f67c2b5cd3b6d9596a","session_id":"619beeeb2cd16c8cf0742b85","condition":"contingent","relevant_dimensions":["wings","legs"],"bee_group":{"antennae":"X","wings":"1","pattern":"X","legs":"F"},"bonus":1.060000000000001},{"rt":2793.2999999998137,"stimulus":"bees-with-color/bee-A2DF.svg","response":0,"trial_type":"image-button-response","trial_index":79,"time_elapsed":172269,"internal_node_id":"0.0-4.0-0.36","subject_id":"60aa79fa99f7d53701b02256","study_id":"6197b3f67c2b5cd3b6d9596a","session_id":"619beeeb2cd16c8cf0742b85","condition":"contingent","relevant_dimensions":["wings","legs"],"bee_group":{"antennae":"X","wings":"1","pattern":"X","legs":"F"},"action":"harvest","summary":"good-harvest","bonus":1.060000000000001},{"rt":1777.7999999998137,"stimulus":"\n                    <p><b>Action: <em>harvest</em></b></p>\n                    <p>This is the bee that you just saw.</p>\n                    <img src=\"bees-with-color/bee-A2DF.svg\" width=\"200\">\n                    <p><span class=\"greenText\"><b>Successful harvest!</b></span><br>Your pay has increased by $0.02. Your bonus pay is now $0.52.</p>\n            ","response":0,"trial_type":"html-button-response","trial_index":80,"time_elapsed":174051,"internal_node_id":"0.0-4.0-1.36","subject_id":"60aa79fa99f7d53701b02256","study_id":"6197b3f67c2b5cd3b6d9596a","session_id":"619beeeb2cd16c8cf0742b85","condition":"contingent","relevant_dimensions":["wings","legs"],"bee_group":{"antennae":"X","wings":"1","pattern":"X","legs":"F"},"bonus":1.060000000000001},{"rt":2355.9000000003725,"stimulus":"bees-with-color/bee-B2SF.svg","response":1,"trial_type":"image-button-response","trial_index":81,"time_elapsed":176413,"internal_node_id":"0.0-4.0-0.37","subject_id":"60aa79fa99f7d53701b02256","study_id":"6197b3f67c2b5cd3b6d9596a","session_id":"619beeeb2cd16c8cf0742b85","condition":"contingent","relevant_dimensions":["wings","legs"],"bee_group":{"antennae":"X","wings":"1","pattern":"X","legs":"F"},"action":"avoid","summary":"bad-avoid","bonus":1.060000000000001},{"rt":1339.4000000003725,"stimulus":"\n                    <p><b>Action: <em>avoid</em></b></p>\n                    <p>This is the bee that you just saw.</p>\n                    <img src=\"bees-with-color/bee-B2SF.svg\" width=\"200\">\n                    <p><br>Your bonus pay is unchanged, and remains at $0.52.</p>\n            ","response":0,"trial_type":"html-button-response","trial_index":82,"time_elapsed":177758,"internal_node_id":"0.0-4.0-1.37","subject_id":"60aa79fa99f7d53701b02256","study_id":"6197b3f67c2b5cd3b6d9596a","session_id":"619beeeb2cd16c8cf0742b85","condition":"contingent","relevant_dimensions":["wings","legs"],"bee_group":{"antennae":"X","wings":"1","pattern":"X","legs":"F"},"bonus":1.060000000000001},{"rt":2027,"stimulus":"bees-with-color/bee-B2DF.svg","response":1,"trial_type":"image-button-response","trial_index":83,"time_elapsed":179791,"internal_node_id":"0.0-4.0-0.38","subject_id":"60aa79fa99f7d53701b02256","study_id":"6197b3f67c2b5cd3b6d9596a","session_id":"619beeeb2cd16c8cf0742b85","condition":"contingent","relevant_dimensions":["wings","legs"],"bee_group":{"antennae":"X","wings":"1","pattern":"X","legs":"F"},"action":"avoid","summary":"bad-avoid","bonus":1.060000000000001},{"rt":1098.7999999998137,"stimulus":"\n                    <p><b>Action: <em>avoid</em></b></p>\n                    <p>This is the bee that you just saw.</p>\n                    <img src=\"bees-with-color/bee-B2DF.svg\" width=\"200\">\n                    <p><br>Your bonus pay is unchanged, and remains at $0.52.</p>\n            ","response":0,"trial_type":"html-button-response","trial_index":84,"time_elapsed":180896,"internal_node_id":"0.0-4.0-1.38","subject_id":"60aa79fa99f7d53701b02256","study_id":"6197b3f67c2b5cd3b6d9596a","session_id":"619beeeb2cd16c8cf0742b85","condition":"contingent","relevant_dimensions":["wings","legs"],"bee_group":{"antennae":"X","wings":"1","pattern":"X","legs":"F"},"bonus":1.060000000000001},{"rt":1569.2999999998137,"stimulus":"bees-with-color/bee-B2DM.svg","response":0,"trial_type":"image-button-response","trial_index":85,"time_elapsed":182471,"internal_node_id":"0.0-4.0-0.39","subject_id":"60aa79fa99f7d53701b02256","study_id":"6197b3f67c2b5cd3b6d9596a","session_id":"619beeeb2cd16c8cf0742b85","condition":"contingent","relevant_dimensions":["wings","legs"],"bee_group":{"antennae":"X","wings":"1","pattern":"X","legs":"F"},"action":"harvest","summary":"good-harvest","bonus":1.060000000000001},{"rt":1230,"stimulus":"\n                    <p><b>Action: <em>harvest</em></b></p>\n                    <p>This is the bee that you just saw.</p>\n                    <img src=\"bees-with-color/bee-B2DM.svg\" width=\"200\">\n                    <p><span class=\"greenText\"><b>Successful harvest!</b></span><br>Your pay has increased by $0.02. Your bonus pay is now $0.54.</p>\n            ","response":0,"trial_type":"html-button-response","trial_index":86,"time_elapsed":183707,"internal_node_id":"0.0-4.0-1.39","subject_id":"60aa79fa99f7d53701b02256","study_id":"6197b3f67c2b5cd3b6d9596a","session_id":"619beeeb2cd16c8cf0742b85","condition":"contingent","relevant_dimensions":["wings","legs"],"bee_group":{"antennae":"X","wings":"1","pattern":"X","legs":"F"},"bonus":1.060000000000001},{"rt":1151.5,"stimulus":"bees-with-color/bee-B1SM.svg","response":1,"trial_type":"image-button-response","trial_index":87,"time_elapsed":184865,"internal_node_id":"0.0-4.0-0.40","subject_id":"60aa79fa99f7d53701b02256","study_id":"6197b3f67c2b5cd3b6d9596a","session_id":"619beeeb2cd16c8cf0742b85","condition":"contingent","relevant_dimensions":["wings","legs"],"bee_group":{"antennae":"X","wings":"1","pattern":"X","legs":"F"},"action":"avoid","summary":"bad-avoid","bonus":1.060000000000001},{"rt":1017,"stimulus":"\n                    <p><b>Action: <em>avoid</em></b></p>\n                    <p>This is the bee that you just saw.</p>\n                    <img src=\"bees-with-color/bee-B1SM.svg\" width=\"200\">\n                    <p><br>Your bonus pay is unchanged, and remains at $0.54.</p>\n            ","response":0,"trial_type":"html-button-response","trial_index":88,"time_elapsed":185887,"internal_node_id":"0.0-4.0-1.40","subject_id":"60aa79fa99f7d53701b02256","study_id":"6197b3f67c2b5cd3b6d9596a","session_id":"619beeeb2cd16c8cf0742b85","condition":"contingent","relevant_dimensions":["wings","legs"],"bee_group":{"antennae":"X","wings":"1","pattern":"X","legs":"F"},"bonus":1.060000000000001},{"rt":1838,"stimulus":"bees-with-color/bee-A1DF.svg","response":1,"trial_type":"image-button-response","trial_index":89,"time_elapsed":187731,"internal_node_id":"0.0-4.0-0.41","subject_id":"60aa79fa99f7d53701b02256","study_id":"6197b3f67c2b5cd3b6d9596a","session_id":"619beeeb2cd16c8cf0742b85","condition":"contingent","relevant_dimensions":["wings","legs"],"bee_group":{"antennae":"X","wings":"1","pattern":"X","legs":"F"},"action":"avoid","summary":"good-avoid","bonus":1.060000000000001},{"rt":830.2999999998137,"stimulus":"\n                    <p><b>Action: <em>avoid</em></b></p>\n                    <p>This is the bee that you just saw.</p>\n                    <img src=\"bees-with-color/bee-A1DF.svg\" width=\"200\">\n                    <p><br>Your bonus pay is unchanged, and remains at $0.54.</p>\n            ","response":0,"trial_type":"html-button-response","trial_index":90,"time_elapsed":188568,"internal_node_id":"0.0-4.0-1.41","subject_id":"60aa79fa99f7d53701b02256","study_id":"6197b3f67c2b5cd3b6d9596a","session_id":"619beeeb2cd16c8cf0742b85","condition":"contingent","relevant_dimensions":["wings","legs"],"bee_group":{"antennae":"X","wings":"1","pattern":"X","legs":"F"},"bonus":1.060000000000001},{"rt":1607.3999999994412,"stimulus":"bees-with-color/bee-A2DM.svg","response":0,"trial_type":"image-button-response","trial_index":91,"time_elapsed":190181,"internal_node_id":"0.0-4.0-0.42","subject_id":"60aa79fa99f7d53701b02256","study_id":"6197b3f67c2b5cd3b6d9596a","session_id":"619beeeb2cd16c8cf0742b85","condition":"contingent","relevant_dimensions":["wings","legs"],"bee_group":{"antennae":"X","wings":"1","pattern":"X","legs":"F"},"action":"harvest","summary":"good-harvest","bonus":1.060000000000001},{"rt":1379.5,"stimulus":"\n                    <p><b>Action: <em>harvest</em></b></p>\n                    <p>This is the bee that you just saw.</p>\n                    <img src=\"bees-with-color/bee-A2DM.svg\" width=\"200\">\n                    <p><span class=\"greenText\"><b>Successful harvest!</b></span><br>Your pay has increased by $0.02. Your bonus pay is now $0.56.</p>\n            ","response":0,"trial_type":"html-button-response","trial_index":92,"time_elapsed":191567,"internal_node_id":"0.0-4.0-1.42","subject_id":"60aa79fa99f7d53701b02256","study_id":"6197b3f67c2b5cd3b6d9596a","session_id":"619beeeb2cd16c8cf0742b85","condition":"contingent","relevant_dimensions":["wings","legs"],"bee_group":{"antennae":"X","wings":"1","pattern":"X","legs":"F"},"bonus":1.060000000000001},{"rt":1687.0999999996275,"stimulus":"bees-with-color/bee-A1SM.svg","response":0,"trial_type":"image-button-response","trial_index":93,"time_elapsed":193261,"internal_node_id":"0.0-4.0-0.43","subject_id":"60aa79fa99f7d53701b02256","study_id":"6197b3f67c2b5cd3b6d9596a","session_id":"619beeeb2cd16c8cf0742b85","condition":"contingent","relevant_dimensions":["wings","legs"],"bee_group":{"antennae":"X","wings":"1","pattern":"X","legs":"F"},"action":"harvest","summary":"good-harvest","bonus":1.060000000000001},{"rt":1021,"stimulus":"\n                    <p><b>Action: <em>harvest</em></b></p>\n                    <p>This is the bee that you just saw.</p>\n                    <img src=\"bees-with-color/bee-A1SM.svg\" width=\"200\">\n                    <p><span class=\"greenText\"><b>Successful harvest!</b></span><br>Your pay has increased by $0.02. Your bonus pay is now $0.58.</p>\n            ","response":0,"trial_type":"html-button-response","trial_index":94,"time_elapsed":194287,"internal_node_id":"0.0-4.0-1.43","subject_id":"60aa79fa99f7d53701b02256","study_id":"6197b3f67c2b5cd3b6d9596a","session_id":"619beeeb2cd16c8cf0742b85","condition":"contingent","relevant_dimensions":["wings","legs"],"bee_group":{"antennae":"X","wings":"1","pattern":"X","legs":"F"},"bonus":1.060000000000001},{"rt":961.1000000005588,"stimulus":"bees-with-color/bee-B2SM.svg","response":0,"trial_type":"image-button-response","trial_index":95,"time_elapsed":195254,"internal_node_id":"0.0-4.0-0.44","subject_id":"60aa79fa99f7d53701b02256","study_id":"6197b3f67c2b5cd3b6d9596a","session_id":"619beeeb2cd16c8cf0742b85","condition":"contingent","relevant_dimensions":["wings","legs"],"bee_group":{"antennae":"X","wings":"1","pattern":"X","legs":"F"},"action":"harvest","summary":"good-harvest","bonus":1.060000000000001},{"rt":1507.3999999994412,"stimulus":"\n                    <p><b>Action: <em>harvest</em></b></p>\n                    <p>This is the bee that you just saw.</p>\n                    <img src=\"bees-with-color/bee-B2SM.svg\" width=\"200\">\n                    <p><span class=\"greenText\"><b>Successful harvest!</b></span><br>Your pay has increased by $0.02. Your bonus pay is now $0.60.</p>\n            ","response":0,"trial_type":"html-button-response","trial_index":96,"time_elapsed":196768,"internal_node_id":"0.0-4.0-1.44","subject_id":"60aa79fa99f7d53701b02256","study_id":"6197b3f67c2b5cd3b6d9596a","session_id":"619beeeb2cd16c8cf0742b85","condition":"contingent","relevant_dimensions":["wings","legs"],"bee_group":{"antennae":"X","wings":"1","pattern":"X","legs":"F"},"bonus":1.060000000000001},{"rt":1837.2000000001863,"stimulus":"bees-with-color/bee-A2SF.svg","response":0,"trial_type":"image-button-response","trial_index":97,"time_elapsed":198611,"internal_node_id":"0.0-4.0-0.45","subject_id":"60aa79fa99f7d53701b02256","study_id":"6197b3f67c2b5cd3b6d9596a","session_id":"619beeeb2cd16c8cf0742b85","condition":"contingent","relevant_dimensions":["wings","legs"],"bee_group":{"antennae":"X","wings":"1","pattern":"X","legs":"F"},"action":"harvest","summary":"good-harvest","bonus":1.060000000000001},{"rt":1308.7000000001863,"stimulus":"\n                    <p><b>Action: <em>harvest</em></b></p>\n                    <p>This is the bee that you just saw.</p>\n                    <img src=\"bees-with-color/bee-A2SF.svg\" width=\"200\">\n                    <p><span class=\"greenText\"><b>Successful harvest!</b></span><br>Your pay has increased by $0.02. Your bonus pay is now $0.62.</p>\n            ","response":0,"trial_type":"html-button-response","trial_index":98,"time_elapsed":199927,"internal_node_id":"0.0-4.0-1.45","subject_id":"60aa79fa99f7d53701b02256","study_id":"6197b3f67c2b5cd3b6d9596a","session_id":"619beeeb2cd16c8cf0742b85","condition":"contingent","relevant_dimensions":["wings","legs"],"bee_group":{"antennae":"X","wings":"1","pattern":"X","legs":"F"},"bonus":1.060000000000001},{"rt":1299.5,"stimulus":"bees-with-color/bee-A1DM.svg","response":0,"trial_type":"image-button-response","trial_index":99,"time_elapsed":201233,"internal_node_id":"0.0-4.0-0.46","subject_id":"60aa79fa99f7d53701b02256","study_id":"6197b3f67c2b5cd3b6d9596a","session_id":"619beeeb2cd16c8cf0742b85","condition":"contingent","relevant_dimensions":["wings","legs"],"bee_group":{"antennae":"X","wings":"1","pattern":"X","legs":"F"},"action":"harvest","summary":"good-harvest","bonus":1.060000000000001},{"rt":1155.7000000001863,"stimulus":"\n                    <p><b>Action: <em>harvest</em></b></p>\n                    <p>This is the bee that you just saw.</p>\n                    <img src=\"bees-with-color/bee-A1DM.svg\" width=\"200\">\n                    <p><span class=\"greenText\"><b>Successful harvest!</b></span><br>Your pay has increased by $0.02. Your bonus pay is now $0.64.</p>\n            ","response":0,"trial_type":"html-button-response","trial_index":100,"time_elapsed":202396,"internal_node_id":"0.0-4.0-1.46","subject_id":"60aa79fa99f7d53701b02256","study_id":"6197b3f67c2b5cd3b6d9596a","session_id":"619beeeb2cd16c8cf0742b85","condition":"contingent","relevant_dimensions":["wings","legs"],"bee_group":{"antennae":"X","wings":"1","pattern":"X","legs":"F"},"bonus":1.060000000000001},{"rt":1510.5999999996275,"stimulus":"bees-with-color/bee-B1DF.svg","response":1,"trial_type":"image-button-response","trial_index":101,"time_elapsed":203911,"internal_node_id":"0.0-4.0-0.47","subject_id":"60aa79fa99f7d53701b02256","study_id":"6197b3f67c2b5cd3b6d9596a","session_id":"619beeeb2cd16c8cf0742b85","condition":"contingent","relevant_dimensions":["wings","legs"],"bee_group":{"antennae":"X","wings":"1","pattern":"X","legs":"F"},"action":"avoid","summary":"good-avoid","bonus":1.060000000000001},{"rt":1042.7999999998137,"stimulus":"\n                    <p><b>Action: <em>avoid</em></b></p>\n                    <p>This is the bee that you just saw.</p>\n                    <img src=\"bees-with-color/bee-B1DF.svg\" width=\"200\">\n                    <p><br>Your bonus pay is unchanged, and remains at $0.64.</p>\n            ","response":0,"trial_type":"html-button-response","trial_index":102,"time_elapsed":204959,"internal_node_id":"0.0-4.0-1.47","subject_id":"60aa79fa99f7d53701b02256","study_id":"6197b3f67c2b5cd3b6d9596a","session_id":"619beeeb2cd16c8cf0742b85","condition":"contingent","relevant_dimensions":["wings","legs"],"bee_group":{"antennae":"X","wings":"1","pattern":"X","legs":"F"},"bonus":1.060000000000001},{"rt":2008,"stimulus":"bees-with-color/bee-B1SM.svg","response":0,"trial_type":"image-button-response","trial_index":103,"time_elapsed":206971,"internal_node_id":"0.0-4.0-0.48","subject_id":"60aa79fa99f7d53701b02256","study_id":"6197b3f67c2b5cd3b6d9596a","session_id":"619beeeb2cd16c8cf0742b85","condition":"contingent","relevant_dimensions":["wings","legs"],"bee_group":{"antennae":"X","wings":"1","pattern":"X","legs":"F"},"action":"harvest","summary":"good-harvest","bonus":1.060000000000001},{"rt":1796.2999999998137,"stimulus":"\n                    <p><b>Action: <em>harvest</em></b></p>\n                    <p>This is the bee that you just saw.</p>\n                    <img src=\"bees-with-color/bee-B1SM.svg\" width=\"200\">\n                    <p><span class=\"greenText\"><b>Successful harvest!</b></span><br>Your pay has increased by $0.02. Your bonus pay is now $0.66.</p>\n            ","response":0,"trial_type":"html-button-response","trial_index":104,"time_elapsed":208772,"internal_node_id":"0.0-4.0-1.48","subject_id":"60aa79fa99f7d53701b02256","study_id":"6197b3f67c2b5cd3b6d9596a","session_id":"619beeeb2cd16c8cf0742b85","condition":"contingent","relevant_dimensions":["wings","legs"],"bee_group":{"antennae":"X","wings":"1","pattern":"X","legs":"F"},"bonus":1.060000000000001},{"rt":2563.600000000559,"stimulus":"bees-with-color/bee-B2SF.svg","response":1,"trial_type":"image-button-response","trial_index":105,"time_elapsed":211342,"internal_node_id":"0.0-4.0-0.49","subject_id":"60aa79fa99f7d53701b02256","study_id":"6197b3f67c2b5cd3b6d9596a","session_id":"619beeeb2cd16c8cf0742b85","condition":"contingent","relevant_dimensions":["wings","legs"],"bee_group":{"antennae":"X","wings":"1","pattern":"X","legs":"F"},"action":"avoid","summary":"bad-avoid","bonus":1.060000000000001},{"rt":1209.5999999996275,"stimulus":"\n                    <p><b>Action: <em>avoid</em></b></p>\n                    <p>This is the bee that you just saw.</p>\n                    <img src=\"bees-with-color/bee-B2SF.svg\" width=\"200\">\n                    <p><br>Your bonus pay is unchanged, and remains at $0.66.</p>\n            ","response":0,"trial_type":"html-button-response","trial_index":106,"time_elapsed":212557,"internal_node_id":"0.0-4.0-1.49","subject_id":"60aa79fa99f7d53701b02256","study_id":"6197b3f67c2b5cd3b6d9596a","session_id":"619beeeb2cd16c8cf0742b85","condition":"contingent","relevant_dimensions":["wings","legs"],"bee_group":{"antennae":"X","wings":"1","pattern":"X","legs":"F"},"bonus":1.060000000000001},{"rt":1820.4000000003725,"stimulus":"bees-with-color/bee-B2DM.svg","response":0,"trial_type":"image-button-response","trial_index":107,"time_elapsed":214381,"internal_node_id":"0.0-4.0-0.50","subject_id":"60aa79fa99f7d53701b02256","study_id":"6197b3f67c2b5cd3b6d9596a","session_id":"619beeeb2cd16c8cf0742b85","condition":"contingent","relevant_dimensions":["wings","legs"],"bee_group":{"antennae":"X","wings":"1","pattern":"X","legs":"F"},"action":"harvest","summary":"good-harvest","bonus":1.060000000000001},{"rt":1856.8999999994412,"stimulus":"\n                    <p><b>Action: <em>harvest</em></b></p>\n                    <p>This is the bee that you just saw.</p>\n                    <img src=\"bees-with-color/bee-B2DM.svg\" width=\"200\">\n                    <p><span class=\"greenText\"><b>Successful harvest!</b></span><br>Your pay has increased by $0.02. Your bonus pay is now $0.68.</p>\n            ","response":0,"trial_type":"html-button-response","trial_index":108,"time_elapsed":216244,"internal_node_id":"0.0-4.0-1.50","subject_id":"60aa79fa99f7d53701b02256","study_id":"6197b3f67c2b5cd3b6d9596a","session_id":"619beeeb2cd16c8cf0742b85","condition":"contingent","relevant_dimensions":["wings","legs"],"bee_group":{"antennae":"X","wings":"1","pattern":"X","legs":"F"},"bonus":1.060000000000001},{"rt":1497.5999999996275,"stimulus":"bees-with-color/bee-A2SF.svg","response":1,"trial_type":"image-button-response","trial_index":109,"time_elapsed":217747,"internal_node_id":"0.0-4.0-0.51","subject_id":"60aa79fa99f7d53701b02256","study_id":"6197b3f67c2b5cd3b6d9596a","session_id":"619beeeb2cd16c8cf0742b85","condition":"contingent","relevant_dimensions":["wings","legs"],"bee_group":{"antennae":"X","wings":"1","pattern":"X","legs":"F"},"action":"avoid","summary":"bad-avoid","bonus":1.060000000000001},{"rt":942.1000000005588,"stimulus":"\n                    <p><b>Action: <em>avoid</em></b></p>\n                    <p>This is the bee that you just saw.</p>\n                    <img src=\"bees-with-color/bee-A2SF.svg\" width=\"200\">\n                    <p><br>Your bonus pay is unchanged, and remains at $0.68.</p>\n            ","response":0,"trial_type":"html-button-response","trial_index":110,"time_elapsed":218694,"internal_node_id":"0.0-4.0-1.51","subject_id":"60aa79fa99f7d53701b02256","study_id":"6197b3f67c2b5cd3b6d9596a","session_id":"619beeeb2cd16c8cf0742b85","condition":"contingent","relevant_dimensions":["wings","legs"],"bee_group":{"antennae":"X","wings":"1","pattern":"X","legs":"F"},"bonus":1.060000000000001},{"rt":1509.7000000001863,"stimulus":"bees-with-color/bee-A1DM.svg","response":0,"trial_type":"image-button-response","trial_index":111,"time_elapsed":220208,"internal_node_id":"0.0-4.0-0.52","subject_id":"60aa79fa99f7d53701b02256","study_id":"6197b3f67c2b5cd3b6d9596a","session_id":"619beeeb2cd16c8cf0742b85","condition":"contingent","relevant_dimensions":["wings","legs"],"bee_group":{"antennae":"X","wings":"1","pattern":"X","legs":"F"},"action":"harvest","summary":"good-harvest","bonus":1.060000000000001},{"rt":19104.299999999814,"stimulus":"\n                    <p><b>Action: <em>harvest</em></b></p>\n                    <p>This is the bee that you just saw.</p>\n                    <img src=\"bees-with-color/bee-A1DM.svg\" width=\"200\">\n                    <p><span class=\"greenText\"><b>Successful harvest!</b></span><br>Your pay has increased by $0.02. Your bonus pay is now $0.70.</p>\n            ","response":0,"trial_type":"html-button-response","trial_index":112,"time_elapsed":239316,"internal_node_id":"0.0-4.0-1.52","subject_id":"60aa79fa99f7d53701b02256","study_id":"6197b3f67c2b5cd3b6d9596a","session_id":"619beeeb2cd16c8cf0742b85","condition":"contingent","relevant_dimensions":["wings","legs"],"bee_group":{"antennae":"X","wings":"1","pattern":"X","legs":"F"},"bonus":1.060000000000001},{"rt":1546.2000000001863,"stimulus":"bees-with-color/bee-A2DM.svg","response":0,"trial_type":"image-button-response","trial_index":113,"time_elapsed":240869,"internal_node_id":"0.0-4.0-0.53","subject_id":"60aa79fa99f7d53701b02256","study_id":"6197b3f67c2b5cd3b6d9596a","session_id":"619beeeb2cd16c8cf0742b85","condition":"contingent","relevant_dimensions":["wings","legs"],"bee_group":{"antennae":"X","wings":"1","pattern":"X","legs":"F"},"action":"harvest","summary":"good-harvest","bonus":1.060000000000001},{"rt":1419,"stimulus":"\n                    <p><b>Action: <em>harvest</em></b></p>\n                    <p>This is the bee that you just saw.</p>\n                    <img src=\"bees-with-color/bee-A2DM.svg\" width=\"200\">\n                    <p><span class=\"greenText\"><b>Successful harvest!</b></span><br>Your pay has increased by $0.02. Your bonus pay is now $0.72.</p>\n            ","response":0,"trial_type":"html-button-response","trial_index":114,"time_elapsed":242294,"internal_node_id":"0.0-4.0-1.53","subject_id":"60aa79fa99f7d53701b02256","study_id":"6197b3f67c2b5cd3b6d9596a","session_id":"619beeeb2cd16c8cf0742b85","condition":"contingent","relevant_dimensions":["wings","legs"],"bee_group":{"antennae":"X","wings":"1","pattern":"X","legs":"F"},"bonus":1.060000000000001},{"rt":1478.7000000001863,"stimulus":"bees-with-color/bee-A1DF.svg","response":1,"trial_type":"image-button-response","trial_index":115,"time_elapsed":243778,"internal_node_id":"0.0-4.0-0.54","subject_id":"60aa79fa99f7d53701b02256","study_id":"6197b3f67c2b5cd3b6d9596a","session_id":"619beeeb2cd16c8cf0742b85","condition":"contingent","relevant_dimensions":["wings","legs"],"bee_group":{"antennae":"X","wings":"1","pattern":"X","legs":"F"},"action":"avoid","summary":"good-avoid","bonus":1.060000000000001},{"rt":3760.2999999998137,"stimulus":"\n                    <p><b>Action: <em>avoid</em></b></p>\n                    <p>This is the bee that you just saw.</p>\n                    <img src=\"bees-with-color/bee-A1DF.svg\" width=\"200\">\n                    <p><br>Your bonus pay is unchanged, and remains at $0.72.</p>\n            ","response":0,"trial_type":"html-button-response","trial_index":116,"time_elapsed":247544,"internal_node_id":"0.0-4.0-1.54","subject_id":"60aa79fa99f7d53701b02256","study_id":"6197b3f67c2b5cd3b6d9596a","session_id":"619beeeb2cd16c8cf0742b85","condition":"contingent","relevant_dimensions":["wings","legs"],"bee_group":{"antennae":"X","wings":"1","pattern":"X","legs":"F"},"bonus":1.060000000000001},{"rt":1275.2999999998137,"stimulus":"bees-with-color/bee-A1SF.svg","response":1,"trial_type":"image-button-response","trial_index":117,"time_elapsed":248827,"internal_node_id":"0.0-4.0-0.55","subject_id":"60aa79fa99f7d53701b02256","study_id":"6197b3f67c2b5cd3b6d9596a","session_id":"619beeeb2cd16c8cf0742b85","condition":"contingent","relevant_dimensions":["wings","legs"],"bee_group":{"antennae":"X","wings":"1","pattern":"X","legs":"F"},"action":"avoid","summary":"good-avoid","bonus":1.060000000000001},{"rt":793.5999999996275,"stimulus":"\n                    <p><b>Action: <em>avoid</em></b></p>\n                    <p>This is the bee that you just saw.</p>\n                    <img src=\"bees-with-color/bee-A1SF.svg\" width=\"200\">\n                    <p><br>Your bonus pay is unchanged, and remains at $0.72.</p>\n            ","response":0,"trial_type":"html-button-response","trial_index":118,"time_elapsed":249625,"internal_node_id":"0.0-4.0-1.55","subject_id":"60aa79fa99f7d53701b02256","study_id":"6197b3f67c2b5cd3b6d9596a","session_id":"619beeeb2cd16c8cf0742b85","condition":"contingent","relevant_dimensions":["wings","legs"],"bee_group":{"antennae":"X","wings":"1","pattern":"X","legs":"F"},"bonus":1.060000000000001},{"rt":1478.5999999996275,"stimulus":"bees-with-color/bee-A2DF.svg","response":1,"trial_type":"image-button-response","trial_index":119,"time_elapsed":251110,"internal_node_id":"0.0-4.0-0.56","subject_id":"60aa79fa99f7d53701b02256","study_id":"6197b3f67c2b5cd3b6d9596a","session_id":"619beeeb2cd16c8cf0742b85","condition":"contingent","relevant_dimensions":["wings","legs"],"bee_group":{"antennae":"X","wings":"1","pattern":"X","legs":"F"},"action":"avoid","summary":"bad-avoid","bonus":1.060000000000001},{"rt":939.9000000003725,"stimulus":"\n                    <p><b>Action: <em>avoid</em></b></p>\n                    <p>This is the bee that you just saw.</p>\n                    <img src=\"bees-with-color/bee-A2DF.svg\" width=\"200\">\n                    <p><br>Your bonus pay is unchanged, and remains at $0.72.</p>\n            ","response":0,"trial_type":"html-button-response","trial_index":120,"time_elapsed":252056,"internal_node_id":"0.0-4.0-1.56","subject_id":"60aa79fa99f7d53701b02256","study_id":"6197b3f67c2b5cd3b6d9596a","session_id":"619beeeb2cd16c8cf0742b85","condition":"contingent","relevant_dimensions":["wings","legs"],"bee_group":{"antennae":"X","wings":"1","pattern":"X","legs":"F"},"bonus":1.060000000000001},{"rt":1249,"stimulus":"bees-with-color/bee-B1DF.svg","response":1,"trial_type":"image-button-response","trial_index":121,"time_elapsed":253310,"internal_node_id":"0.0-4.0-0.57","subject_id":"60aa79fa99f7d53701b02256","study_id":"6197b3f67c2b5cd3b6d9596a","session_id":"619beeeb2cd16c8cf0742b85","condition":"contingent","relevant_dimensions":["wings","legs"],"bee_group":{"antennae":"X","wings":"1","pattern":"X","legs":"F"},"action":"avoid","summary":"good-avoid","bonus":1.060000000000001},{"rt":961.5,"stimulus":"\n                    <p><b>Action: <em>avoid</em></b></p>\n                    <p>This is the bee that you just saw.</p>\n                    <img src=\"bees-with-color/bee-B1DF.svg\" width=\"200\">\n                    <p><br>Your bonus pay is unchanged, and remains at $0.72.</p>\n            ","response":0,"trial_type":"html-button-response","trial_index":122,"time_elapsed":254278,"internal_node_id":"0.0-4.0-1.57","subject_id":"60aa79fa99f7d53701b02256","study_id":"6197b3f67c2b5cd3b6d9596a","session_id":"619beeeb2cd16c8cf0742b85","condition":"contingent","relevant_dimensions":["wings","legs"],"bee_group":{"antennae":"X","wings":"1","pattern":"X","legs":"F"},"bonus":1.060000000000001},{"rt":1539.2999999998137,"stimulus":"bees-with-color/bee-A1SM.svg","response":1,"trial_type":"image-button-response","trial_index":123,"time_elapsed":255822,"internal_node_id":"0.0-4.0-0.58","subject_id":"60aa79fa99f7d53701b02256","study_id":"6197b3f67c2b5cd3b6d9596a","session_id":"619beeeb2cd16c8cf0742b85","condition":"contingent","relevant_dimensions":["wings","legs"],"bee_group":{"antennae":"X","wings":"1","pattern":"X","legs":"F"},"action":"avoid","summary":"bad-avoid","bonus":1.060000000000001},{"rt":1057.9000000003725,"stimulus":"\n                    <p><b>Action: <em>avoid</em></b></p>\n                    <p>This is the bee that you just saw.</p>\n                    <img src=\"bees-with-color/bee-A1SM.svg\" width=\"200\">\n                    <p><br>Your bonus pay is unchanged, and remains at $0.72.</p>\n            ","response":0,"trial_type":"html-button-response","trial_index":124,"time_elapsed":256886,"internal_node_id":"0.0-4.0-1.58","subject_id":"60aa79fa99f7d53701b02256","study_id":"6197b3f67c2b5cd3b6d9596a","session_id":"619beeeb2cd16c8cf0742b85","condition":"contingent","relevant_dimensions":["wings","legs"],"bee_group":{"antennae":"X","wings":"1","pattern":"X","legs":"F"},"bonus":1.060000000000001},{"rt":1528.300000000745,"stimulus":"bees-with-color/bee-B2SM.svg","response":0,"trial_type":"image-button-response","trial_index":125,"time_elapsed":258420,"internal_node_id":"0.0-4.0-0.59","subject_id":"60aa79fa99f7d53701b02256","study_id":"6197b3f67c2b5cd3b6d9596a","session_id":"619beeeb2cd16c8cf0742b85","condition":"contingent","relevant_dimensions":["wings","legs"],"bee_group":{"antennae":"X","wings":"1","pattern":"X","legs":"F"},"action":"harvest","summary":"good-harvest","bonus":1.060000000000001},{"rt":1151.7999999998137,"stimulus":"\n                    <p><b>Action: <em>harvest</em></b></p>\n                    <p>This is the bee that you just saw.</p>\n                    <img src=\"bees-with-color/bee-B2SM.svg\" width=\"200\">\n                    <p><span class=\"greenText\"><b>Successful harvest!</b></span><br>Your pay has increased by $0.02. Your bonus pay is now $0.74.</p>\n            ","response":0,"trial_type":"html-button-response","trial_index":126,"time_elapsed":259577,"internal_node_id":"0.0-4.0-1.59","subject_id":"60aa79fa99f7d53701b02256","study_id":"6197b3f67c2b5cd3b6d9596a","session_id":"619beeeb2cd16c8cf0742b85","condition":"contingent","relevant_dimensions":["wings","legs"],"bee_group":{"antennae":"X","wings":"1","pattern":"X","legs":"F"},"bonus":1.060000000000001},{"rt":1346.199999999255,"stimulus":"bees-with-color/bee-B1DM.svg","response":1,"trial_type":"image-button-response","trial_index":127,"time_elapsed":260930,"internal_node_id":"0.0-4.0-0.60","subject_id":"60aa79fa99f7d53701b02256","study_id":"6197b3f67c2b5cd3b6d9596a","session_id":"619beeeb2cd16c8cf0742b85","condition":"contingent","relevant_dimensions":["wings","legs"],"bee_group":{"antennae":"X","wings":"1","pattern":"X","legs":"F"},"action":"avoid","summary":"bad-avoid","bonus":1.060000000000001},{"rt":843.3000000007451,"stimulus":"\n                    <p><b>Action: <em>avoid</em></b></p>\n                    <p>This is the bee that you just saw.</p>\n                    <img src=\"bees-with-color/bee-B1DM.svg\" width=\"200\">\n                    <p><br>Your bonus pay is unchanged, and remains at $0.74.</p>\n            ","response":0,"trial_type":"html-button-response","trial_index":128,"time_elapsed":261779,"internal_node_id":"0.0-4.0-1.60","subject_id":"60aa79fa99f7d53701b02256","study_id":"6197b3f67c2b5cd3b6d9596a","session_id":"619beeeb2cd16c8cf0742b85","condition":"contingent","relevant_dimensions":["wings","legs"],"bee_group":{"antennae":"X","wings":"1","pattern":"X","legs":"F"},"bonus":1.060000000000001},{"rt":1287.6000000005588,"stimulus":"bees-with-color/bee-A2SM.svg","response":0,"trial_type":"image-button-response","trial_index":129,"time_elapsed":263072,"internal_node_id":"0.0-4.0-0.61","subject_id":"60aa79fa99f7d53701b02256","study_id":"6197b3f67c2b5cd3b6d9596a","session_id":"619beeeb2cd16c8cf0742b85","condition":"contingent","relevant_dimensions":["wings","legs"],"bee_group":{"antennae":"X","wings":"1","pattern":"X","legs":"F"},"action":"harvest","summary":"good-harvest","bonus":1.060000000000001},{"rt":890.1000000005588,"stimulus":"\n                    <p><b>Action: <em>harvest</em></b></p>\n                    <p>This is the bee that you just saw.</p>\n                    <img src=\"bees-with-color/bee-A2SM.svg\" width=\"200\">\n                    <p><span class=\"greenText\"><b>Successful harvest!</b></span><br>Your pay has increased by $0.02. Your bonus pay is now $0.76.</p>\n            ","response":0,"trial_type":"html-button-response","trial_index":130,"time_elapsed":263969,"internal_node_id":"0.0-4.0-1.61","subject_id":"60aa79fa99f7d53701b02256","study_id":"6197b3f67c2b5cd3b6d9596a","session_id":"619beeeb2cd16c8cf0742b85","condition":"contingent","relevant_dimensions":["wings","legs"],"bee_group":{"antennae":"X","wings":"1","pattern":"X","legs":"F"},"bonus":1.060000000000001},{"rt":1339.4000000003725,"stimulus":"bees-with-color/bee-B2DF.svg","response":1,"trial_type":"image-button-response","trial_index":131,"time_elapsed":265314,"internal_node_id":"0.0-4.0-0.62","subject_id":"60aa79fa99f7d53701b02256","study_id":"6197b3f67c2b5cd3b6d9596a","session_id":"619beeeb2cd16c8cf0742b85","condition":"contingent","relevant_dimensions":["wings","legs"],"bee_group":{"antennae":"X","wings":"1","pattern":"X","legs":"F"},"action":"avoid","summary":"bad-avoid","bonus":1.060000000000001},{"rt":1170.7000000001863,"stimulus":"\n                    <p><b>Action: <em>avoid</em></b></p>\n                    <p>This is the bee that you just saw.</p>\n                    <img src=\"bees-with-color/bee-B2DF.svg\" width=\"200\">\n                    <p><br>Your bonus pay is unchanged, and remains at $0.76.</p>\n            ","response":0,"trial_type":"html-button-response","trial_index":132,"time_elapsed":266492,"internal_node_id":"0.0-4.0-1.62","subject_id":"60aa79fa99f7d53701b02256","study_id":"6197b3f67c2b5cd3b6d9596a","session_id":"619beeeb2cd16c8cf0742b85","condition":"contingent","relevant_dimensions":["wings","legs"],"bee_group":{"antennae":"X","wings":"1","pattern":"X","legs":"F"},"bonus":1.060000000000001},{"rt":1606.6000000005588,"stimulus":"bees-with-color/bee-B1SF.svg","response":1,"trial_type":"image-button-response","trial_index":133,"time_elapsed":268105,"internal_node_id":"0.0-4.0-0.63","subject_id":"60aa79fa99f7d53701b02256","study_id":"6197b3f67c2b5cd3b6d9596a","session_id":"619beeeb2cd16c8cf0742b85","condition":"contingent","relevant_dimensions":["wings","legs"],"bee_group":{"antennae":"X","wings":"1","pattern":"X","legs":"F"},"action":"avoid","summary":"good-avoid","bonus":1.060000000000001},{"rt":719.2999999998137,"stimulus":"\n                    <p><b>Action: <em>avoid</em></b></p>\n                    <p>This is the bee that you just saw.</p>\n                    <img src=\"bees-with-color/bee-B1SF.svg\" width=\"200\">\n                    <p><br>Your bonus pay is unchanged, and remains at $0.76.</p>\n            ","response":0,"trial_type":"html-button-response","trial_index":134,"time_elapsed":268832,"internal_node_id":"0.0-4.0-1.63","subject_id":"60aa79fa99f7d53701b02256","study_id":"6197b3f67c2b5cd3b6d9596a","session_id":"619beeeb2cd16c8cf0742b85","condition":"contingent","relevant_dimensions":["wings","legs"],"bee_group":{"antennae":"X","wings":"1","pattern":"X","legs":"F"},"bonus":1.060000000000001},{"rt":4119.600000000559,"stimulus":"You have completed the first part of this experiment.<br><br>You will now begin a shorter second part, in which you will receive no feedback.<br>The same rules regarding bonus pay apply.<br><br>Press any key to begin.","response":" ","trial_type":"html-keyboard-response","trial_index":135,"time_elapsed":272962,"internal_node_id":"0.0-5.0","subject_id":"60aa79fa99f7d53701b02256","study_id":"6197b3f67c2b5cd3b6d9596a","session_id":"619beeeb2cd16c8cf0742b85","condition":"contingent","relevant_dimensions":["wings","legs"],"bee_group":{"antennae":"X","wings":"1","pattern":"X","legs":"F"},"bonus":1.060000000000001},{"rt":1944.7000000001863,"stimulus":"bees-with-color/bee-B2SM.svg","response":0,"trial_type":"image-button-response","trial_index":136,"time_elapsed":274989,"internal_node_id":"0.0-6.0-0.0","subject_id":"60aa79fa99f7d53701b02256","study_id":"6197b3f67c2b5cd3b6d9596a","session_id":"619beeeb2cd16c8cf0742b85","condition":"contingent","relevant_dimensions":["wings","legs"],"bee_group":{"antennae":"X","wings":"1","pattern":"X","legs":"F"},"bonus":1.060000000000001},{"rt":2650.7000000001863,"stimulus":"bees-with-color/bee-B2DM.svg","response":0,"trial_type":"image-button-response","trial_index":137,"time_elapsed":277651,"internal_node_id":"0.0-6.0-0.1","subject_id":"60aa79fa99f7d53701b02256","study_id":"6197b3f67c2b5cd3b6d9596a","session_id":"619beeeb2cd16c8cf0742b85","condition":"contingent","relevant_dimensions":["wings","legs"],"bee_group":{"antennae":"X","wings":"1","pattern":"X","legs":"F"},"bonus":1.060000000000001},{"rt":1161.9000000003725,"stimulus":"bees-with-color/bee-A2SF.svg","response":1,"trial_type":"image-button-response","trial_index":138,"time_elapsed":278824,"internal_node_id":"0.0-6.0-0.2","subject_id":"60aa79fa99f7d53701b02256","study_id":"6197b3f67c2b5cd3b6d9596a","session_id":"619beeeb2cd16c8cf0742b85","condition":"contingent","relevant_dimensions":["wings","legs"],"bee_group":{"antennae":"X","wings":"1","pattern":"X","legs":"F"},"bonus":1.060000000000001},{"rt":1245.199999999255,"stimulus":"bees-with-color/bee-A2DF.svg","response":1,"trial_type":"image-button-response","trial_index":139,"time_elapsed":280081,"internal_node_id":"0.0-6.0-0.3","subject_id":"60aa79fa99f7d53701b02256","study_id":"6197b3f67c2b5cd3b6d9596a","session_id":"619beeeb2cd16c8cf0742b85","condition":"contingent","relevant_dimensions":["wings","legs"],"bee_group":{"antennae":"X","wings":"1","pattern":"X","legs":"F"},"bonus":1.060000000000001},{"rt":925.2999999998137,"stimulus":"bees-with-color/bee-B1DF.svg","response":1,"trial_type":"image-button-response","trial_index":140,"time_elapsed":281015,"internal_node_id":"0.0-6.0-0.4","subject_id":"60aa79fa99f7d53701b02256","study_id":"6197b3f67c2b5cd3b6d9596a","session_id":"619beeeb2cd16c8cf0742b85","condition":"contingent","relevant_dimensions":["wings","legs"],"bee_group":{"antennae":"X","wings":"1","pattern":"X","legs":"F"},"bonus":1.060000000000001},{"rt":1379.6000000005588,"stimulus":"bees-with-color/bee-B1SM.svg","response":0,"trial_type":"image-button-response","trial_index":141,"time_elapsed":282400,"internal_node_id":"0.0-6.0-0.5","subject_id":"60aa79fa99f7d53701b02256","study_id":"6197b3f67c2b5cd3b6d9596a","session_id":"619beeeb2cd16c8cf0742b85","condition":"contingent","relevant_dimensions":["wings","legs"],"bee_group":{"antennae":"X","wings":"1","pattern":"X","legs":"F"},"bonus":1.060000000000001},{"rt":1280.2000000001863,"stimulus":"bees-with-color/bee-A1DF.svg","response":1,"trial_type":"image-button-response","trial_index":142,"time_elapsed":283687,"internal_node_id":"0.0-6.0-0.6","subject_id":"60aa79fa99f7d53701b02256","study_id":"6197b3f67c2b5cd3b6d9596a","session_id":"619beeeb2cd16c8cf0742b85","condition":"contingent","relevant_dimensions":["wings","legs"],"bee_group":{"antennae":"X","wings":"1","pattern":"X","legs":"F"},"bonus":1.060000000000001},{"rt":1176.5999999996275,"stimulus":"bees-with-color/bee-A2SM.svg","response":0,"trial_type":"image-button-response","trial_index":143,"time_elapsed":284872,"internal_node_id":"0.0-6.0-0.7","subject_id":"60aa79fa99f7d53701b02256","study_id":"6197b3f67c2b5cd3b6d9596a","session_id":"619beeeb2cd16c8cf0742b85","condition":"contingent","relevant_dimensions":["wings","legs"],"bee_group":{"antennae":"X","wings":"1","pattern":"X","legs":"F"},"bonus":1.060000000000001},{"rt":1356.9000000003725,"stimulus":"bees-with-color/bee-A1SF.svg","response":1,"trial_type":"image-button-response","trial_index":144,"time_elapsed":286236,"internal_node_id":"0.0-6.0-0.8","subject_id":"60aa79fa99f7d53701b02256","study_id":"6197b3f67c2b5cd3b6d9596a","session_id":"619beeeb2cd16c8cf0742b85","condition":"contingent","relevant_dimensions":["wings","legs"],"bee_group":{"antennae":"X","wings":"1","pattern":"X","legs":"F"},"bonus":1.060000000000001},{"rt":3429.4000000003725,"stimulus":"bees-with-color/bee-B2SF.svg","response":1,"trial_type":"image-button-response","trial_index":145,"time_elapsed":289673,"internal_node_id":"0.0-6.0-0.9","subject_id":"60aa79fa99f7d53701b02256","study_id":"6197b3f67c2b5cd3b6d9596a","session_id":"619beeeb2cd16c8cf0742b85","condition":"contingent","relevant_dimensions":["wings","legs"],"bee_group":{"antennae":"X","wings":"1","pattern":"X","legs":"F"},"bonus":1.060000000000001},{"rt":2791.399999999441,"stimulus":"bees-with-color/bee-A2DM.svg","response":0,"trial_type":"image-button-response","trial_index":146,"time_elapsed":292472,"internal_node_id":"0.0-6.0-0.10","subject_id":"60aa79fa99f7d53701b02256","study_id":"6197b3f67c2b5cd3b6d9596a","session_id":"619beeeb2cd16c8cf0742b85","condition":"contingent","relevant_dimensions":["wings","legs"],"bee_group":{"antennae":"X","wings":"1","pattern":"X","legs":"F"},"bonus":1.060000000000001},{"rt":1434.5,"stimulus":"bees-with-color/bee-B1DM.svg","response":0,"trial_type":"image-button-response","trial_index":147,"time_elapsed":293914,"internal_node_id":"0.0-6.0-0.11","subject_id":"60aa79fa99f7d53701b02256","study_id":"6197b3f67c2b5cd3b6d9596a","session_id":"619beeeb2cd16c8cf0742b85","condition":"contingent","relevant_dimensions":["wings","legs"],"bee_group":{"antennae":"X","wings":"1","pattern":"X","legs":"F"},"bonus":1.060000000000001},{"rt":883.9000000003725,"stimulus":"bees-with-color/bee-A1DM.svg","response":0,"trial_type":"image-button-response","trial_index":148,"time_elapsed":294804,"internal_node_id":"0.0-6.0-0.12","subject_id":"60aa79fa99f7d53701b02256","study_id":"6197b3f67c2b5cd3b6d9596a","session_id":"619beeeb2cd16c8cf0742b85","condition":"contingent","relevant_dimensions":["wings","legs"],"bee_group":{"antennae":"X","wings":"1","pattern":"X","legs":"F"},"bonus":1.060000000000001},{"rt":1117.7000000001863,"stimulus":"bees-with-color/bee-A1SM.svg","response":0,"trial_type":"image-button-response","trial_index":149,"time_elapsed":295930,"internal_node_id":"0.0-6.0-0.13","subject_id":"60aa79fa99f7d53701b02256","study_id":"6197b3f67c2b5cd3b6d9596a","session_id":"619beeeb2cd16c8cf0742b85","condition":"contingent","relevant_dimensions":["wings","legs"],"bee_group":{"antennae":"X","wings":"1","pattern":"X","legs":"F"},"bonus":1.060000000000001},{"rt":1564.7000000001863,"stimulus":"bees-with-color/bee-B2DF.svg","response":1,"trial_type":"image-button-response","trial_index":150,"time_elapsed":297504,"internal_node_id":"0.0-6.0-0.14","subject_id":"60aa79fa99f7d53701b02256","study_id":"6197b3f67c2b5cd3b6d9596a","session_id":"619beeeb2cd16c8cf0742b85","condition":"contingent","relevant_dimensions":["wings","legs"],"bee_group":{"antennae":"X","wings":"1","pattern":"X","legs":"F"},"bonus":1.060000000000001},{"rt":850.7000000001863,"stimulus":"bees-with-color/bee-B1SF.svg","response":1,"trial_type":"image-button-response","trial_index":151,"time_elapsed":298362,"internal_node_id":"0.0-6.0-0.15","subject_id":"60aa79fa99f7d53701b02256","study_id":"6197b3f67c2b5cd3b6d9596a","session_id":"619beeeb2cd16c8cf0742b85","condition":"contingent","relevant_dimensions":["wings","legs"],"bee_group":{"antennae":"X","wings":"1","pattern":"X","legs":"F"},"bonus":1.060000000000001},{"rt":1398.7999999998137,"stimulus":"bees-with-color/bee-B1SM.svg","response":0,"trial_type":"image-button-response","trial_index":152,"time_elapsed":299768,"internal_node_id":"0.0-6.0-0.16","subject_id":"60aa79fa99f7d53701b02256","study_id":"6197b3f67c2b5cd3b6d9596a","session_id":"619beeeb2cd16c8cf0742b85","condition":"contingent","relevant_dimensions":["wings","legs"],"bee_group":{"antennae":"X","wings":"1","pattern":"X","legs":"F"},"bonus":1.060000000000001},{"rt":1189.5,"stimulus":"bees-with-color/bee-A2DM.svg","response":0,"trial_type":"image-button-response","trial_index":153,"time_elapsed":300963,"internal_node_id":"0.0-6.0-0.17","subject_id":"60aa79fa99f7d53701b02256","study_id":"6197b3f67c2b5cd3b6d9596a","session_id":"619beeeb2cd16c8cf0742b85","condition":"contingent","relevant_dimensions":["wings","legs"],"bee_group":{"antennae":"X","wings":"1","pattern":"X","legs":"F"},"bonus":1.060000000000001},{"rt":921.6000000005588,"stimulus":"bees-with-color/bee-B1DM.svg","response":1,"trial_type":"image-button-response","trial_index":154,"time_elapsed":301891,"internal_node_id":"0.0-6.0-0.18","subject_id":"60aa79fa99f7d53701b02256","study_id":"6197b3f67c2b5cd3b6d9596a","session_id":"619beeeb2cd16c8cf0742b85","condition":"contingent","relevant_dimensions":["wings","legs"],"bee_group":{"antennae":"X","wings":"1","pattern":"X","legs":"F"},"bonus":1.060000000000001},{"rt":702.6000000005588,"stimulus":"bees-with-color/bee-B1DF.svg","response":1,"trial_type":"image-button-response","trial_index":155,"time_elapsed":302600,"internal_node_id":"0.0-6.0-0.19","subject_id":"60aa79fa99f7d53701b02256","study_id":"6197b3f67c2b5cd3b6d9596a","session_id":"619beeeb2cd16c8cf0742b85","condition":"contingent","relevant_dimensions":["wings","legs"],"bee_group":{"antennae":"X","wings":"1","pattern":"X","legs":"F"},"bonus":1.060000000000001},{"rt":1698.0999999996275,"stimulus":"bees-with-color/bee-B2DM.svg","response":0,"trial_type":"image-button-response","trial_index":156,"time_elapsed":304304,"internal_node_id":"0.0-6.0-0.20","subject_id":"60aa79fa99f7d53701b02256","study_id":"6197b3f67c2b5cd3b6d9596a","session_id":"619beeeb2cd16c8cf0742b85","condition":"contingent","relevant_dimensions":["wings","legs"],"bee_group":{"antennae":"X","wings":"1","pattern":"X","legs":"F"},"bonus":1.060000000000001},{"rt":31335.5,"stimulus":"bees-with-color/bee-A1SF.svg","response":1,"trial_type":"image-button-response","trial_index":157,"time_elapsed":335648,"internal_node_id":"0.0-6.0-0.21","subject_id":"60aa79fa99f7d53701b02256","study_id":"6197b3f67c2b5cd3b6d9596a","session_id":"619beeeb2cd16c8cf0742b85","condition":"contingent","relevant_dimensions":["wings","legs"],"bee_group":{"antennae":"X","wings":"1","pattern":"X","legs":"F"},"bonus":1.060000000000001},{"rt":1407.2999999998137,"stimulus":"bees-with-color/bee-A2SM.svg","response":0,"trial_type":"image-button-response","trial_index":158,"time_elapsed":337069,"internal_node_id":"0.0-6.0-0.22","subject_id":"60aa79fa99f7d53701b02256","study_id":"6197b3f67c2b5cd3b6d9596a","session_id":"619beeeb2cd16c8cf0742b85","condition":"contingent","relevant_dimensions":["wings","legs"],"bee_group":{"antennae":"X","wings":"1","pattern":"X","legs":"F"},"bonus":1.060000000000001},{"rt":1102.0999999996275,"stimulus":"bees-with-color/bee-A1DM.svg","response":0,"trial_type":"image-button-response","trial_index":159,"time_elapsed":338180,"internal_node_id":"0.0-6.0-0.23","subject_id":"60aa79fa99f7d53701b02256","study_id":"6197b3f67c2b5cd3b6d9596a","session_id":"619beeeb2cd16c8cf0742b85","condition":"contingent","relevant_dimensions":["wings","legs"],"bee_group":{"antennae":"X","wings":"1","pattern":"X","legs":"F"},"bonus":1.060000000000001},{"rt":1691.7999999998137,"stimulus":"bees-with-color/bee-B2SF.svg","response":1,"trial_type":"image-button-response","trial_index":160,"time_elapsed":339880,"internal_node_id":"0.0-6.0-0.24","subject_id":"60aa79fa99f7d53701b02256","study_id":"6197b3f67c2b5cd3b6d9596a","session_id":"619beeeb2cd16c8cf0742b85","condition":"contingent","relevant_dimensions":["wings","legs"],"bee_group":{"antennae":"X","wings":"1","pattern":"X","legs":"F"},"bonus":1.060000000000001},{"rt":3798,"stimulus":"bees-with-color/bee-B2DF.svg","response":1,"trial_type":"image-button-response","trial_index":161,"time_elapsed":343684,"internal_node_id":"0.0-6.0-0.25","subject_id":"60aa79fa99f7d53701b02256","study_id":"6197b3f67c2b5cd3b6d9596a","session_id":"619beeeb2cd16c8cf0742b85","condition":"contingent","relevant_dimensions":["wings","legs"],"bee_group":{"antennae":"X","wings":"1","pattern":"X","legs":"F"},"bonus":1.060000000000001},{"rt":1626.3999999994412,"stimulus":"bees-with-color/bee-B2SM.svg","response":0,"trial_type":"image-button-response","trial_index":162,"time_elapsed":345317,"internal_node_id":"0.0-6.0-0.26","subject_id":"60aa79fa99f7d53701b02256","study_id":"6197b3f67c2b5cd3b6d9596a","session_id":"619beeeb2cd16c8cf0742b85","condition":"contingent","relevant_dimensions":["wings","legs"],"bee_group":{"antennae":"X","wings":"1","pattern":"X","legs":"F"},"bonus":1.060000000000001},{"rt":829.5,"stimulus":"bees-with-color/bee-A1DF.svg","response":1,"trial_type":"image-button-response","trial_index":163,"time_elapsed":346152,"internal_node_id":"0.0-6.0-0.27","subject_id":"60aa79fa99f7d53701b02256","study_id":"6197b3f67c2b5cd3b6d9596a","session_id":"619beeeb2cd16c8cf0742b85","condition":"contingent","relevant_dimensions":["wings","legs"],"bee_group":{"antennae":"X","wings":"1","pattern":"X","legs":"F"},"bonus":1.060000000000001},{"rt":1111.6000000005588,"stimulus":"bees-with-color/bee-A2SF.svg","response":1,"trial_type":"image-button-response","trial_index":164,"time_elapsed":347270,"