[{"success":true,"trial_type":"fullscreen","trial_index":0,"time_elapsed":10568,"internal_node_id":"0.0-0.0","subject_id":"612aad990e951a20d5ba78a2","study_id":"60edd13110225f80f9f3709b","session_id":"6196c4a381972c7d99b43d24","condition":"full-information","relevant_dimensions":["antennae","legs"],"bee_group":{"antennae":"A","wings":"X","pattern":"X","legs":"M"},"bonus":0.06000000000000076},{"success":true,"timeout":false,"failed_images":[],"failed_audio":[],"failed_video":[],"trial_type":"preload","trial_index":1,"time_elapsed":12441,"internal_node_id":"0.0-1.0","subject_id":"612aad990e951a20d5ba78a2","study_id":"60edd13110225f80f9f3709b","session_id":"6196c4a381972c7d99b43d24","condition":"full-information","relevant_dimensions":["antennae","legs"],"bee_group":{"antennae":"A","wings":"X","pattern":"X","legs":"M"},"bonus":0.06000000000000076},{"rt":6314,"stimulus":"Welcome! Press any key to begin.","response":" ","trial_type":"html-keyboard-response","trial_index":2,"time_elapsed":18756,"internal_node_id":"0.0-2.0","subject_id":"612aad990e951a20d5ba78a2","study_id":"60edd13110225f80f9f3709b","session_id":"6196c4a381972c7d99b43d24","condition":"full-information","relevant_dimensions":["antennae","legs"],"bee_group":{"antennae":"A","wings":"X","pattern":"X","legs":"M"},"bonus":0.06000000000000076},{"view_history":[{"page_index":0,"viewing_time":19881},{"page_index":1,"viewing_time":25429},{"page_index":2,"viewing_time":19878},{"page_index":3,"viewing_time":31070},{"page_index":4,"viewing_time":12722},{"page_index":5,"viewing_time":10876},{"page_index":6,"viewing_time":17076},{"page_index":7,"viewing_time":12805},{"page_index":8,"viewing_time":7911},{"page_index":7,"viewing_time":1902},{"page_index":8,"viewing_time":3904},{"page_index":9,"viewing_time":7586},{"page_index":10,"viewing_time":5708},{"page_index":11,"viewing_time":17738},{"page_index":12,"viewing_time":13330},{"page_index":13,"viewing_time":3322},{"page_index":14,"viewing_time":6748}],"rt":217886,"trial_type":"instructions","trial_index":3,"time_elapsed":236644,"internal_node_id":"0.0-3.0-0.0","subject_id":"612aad990e951a20d5ba78a2","study_id":"60edd13110225f80f9f3709b","session_id":"6196c4a381972c7d99b43d24","condition":"full-information","relevant_dimensions":["antennae","legs"],"bee_group":{"antennae":"A","wings":"X","pattern":"X","legs":"M"},"bonus":0.06000000000000076},{"rt":33808,"response":{"Q0":["Two or six legs","Stripes or spots on body","Single or double wings","Antennae or no antennae"]},"question_order":[0],"trial_type":"survey-multi-select","trial_index":4,"time_elapsed":270455,"internal_node_id":"0.0-3.0-1.0","subject_id":"612aad990e951a20d5ba78a2","study_id":"60edd13110225f80f9f3709b","session_id":"6196c4a381972c7d99b43d24","condition":"full-information","relevant_dimensions":["antennae","legs"],"bee_group":{"antennae":"A","wings":"X","pattern":"X","legs":"M"},"correct":true,"bonus":0.06000000000000076},{"rt":47175,"response":{"Q1":"No.","Q2":"Based on the four features of the bee.","Q3":"You learn if it was friendly or dangerous, but do not alter your bonus."},"question_order":[0,1,2],"trial_type":"survey-multi-choice","trial_index":5,"time_elapsed":317634,"internal_node_id":"0.0-3.0-2.0","subject_id":"612aad990e951a20d5ba78a2","study_id":"60edd13110225f80f9f3709b","session_id":"6196c4a381972c7d99b43d24","condition":"full-information","relevant_dimensions":["antennae","legs"],"bee_group":{"antennae":"A","wings":"X","pattern":"X","legs":"M"},"correct":true,"bonus":0.06000000000000076},{"rt":6867,"stimulus":"<p>Congrats, you got everything right<br>When you're ready, click the button below to continue to the experiment.</p>","response":0,"trial_type":"html-button-response","trial_index":6,"time_elapsed":324501,"internal_node_id":"0.0-3.0-3.0","subject_id":"612aad990e951a20d5ba78a2","study_id":"60edd13110225f80f9f3709b","session_id":"6196c4a381972c7d99b43d24","condition":"full-information","relevant_dimensions":["antennae","legs"],"bee_group":{"antennae":"A","wings":"X","pattern":"X","legs":"M"},"bonus":0.06000000000000076},{"rt":11670,"stimulus":"bees-with-color/bee-B2DM.svg","response":0,"trial_type":"image-button-response","trial_index":7,"time_elapsed":336173,"internal_node_id":"0.0-4.0-0.0","subject_id":"612aad990e951a20d5ba78a2","study_id":"60edd13110225f80f9f3709b","session_id":"6196c4a381972c7d99b43d24","condition":"full-information","relevant_dimensions":["antennae","legs"],"bee_group":{"antennae":"A","wings":"X","pattern":"X","legs":"M"},"action":"harvest","summary":"good-harvest","bonus":0.06000000000000076},{"rt":8683,"stimulus":"\n                    <p><b>Action: <em>harvest</em></b></p>\n                    <p>This is the bee that you just saw.</p>\n                    <img src=\"bees-with-color/bee-B2DM.svg\" width=\"200\">\n                    <p><span class=\"greenText\"><b>Successful harvest!</b></span><br>Your pay has increased by $0.02. Your bonus pay is now $0.56.</p>\n            ","response":0,"trial_type":"html-button-response","trial_index":8,"time_elapsed":344875,"internal_node_id":"0.0-4.0-1.0","subject_id":"612aad990e951a20d5ba78a2","study_id":"60edd13110225f80f9f3709b","session_id":"6196c4a381972c7d99b43d24","condition":"full-information","relevant_dimensions":["antennae","legs"],"bee_group":{"antennae":"A","wings":"X","pattern":"X","legs":"M"},"bonus":0.06000000000000076},{"rt":5703,"stimulus":"bees-with-color/bee-A1SM.svg","response":0,"trial_type":"image-button-response","trial_index":9,"time_elapsed":350579,"internal_node_id":"0.0-4.0-0.1","subject_id":"612aad990e951a20d5ba78a2","study_id":"60edd13110225f80f9f3709b","session_id":"6196c4a381972c7d99b43d24","condition":"full-information","relevant_dimensions":["antennae","legs"],"bee_group":{"antennae":"A","wings":"X","pattern":"X","legs":"M"},"action":"harvest","summary":"bad-harvest","bonus":0.06000000000000076},{"rt":22671,"stimulus":"\n                    <p><b>Action: <em>harvest</em></b></p>\n                    <p>This is the bee that you just saw.</p>\n                    <img src=\"bees-with-color/bee-A1SM.svg\" width=\"200\">\n                    <p><span class=\"redText\">Bad choice, the bee was angry.</span><br><b>You have been stung!</b><br>Your pay has been decreased by $0.10. Your bonus pay is now $0.46.</p>\n            ","response":0,"trial_type":"html-button-response","trial_index":10,"time_elapsed":373251,"internal_node_id":"0.0-4.0-1.1","subject_id":"612aad990e951a20d5ba78a2","study_id":"60edd13110225f80f9f3709b","session_id":"6196c4a381972c7d99b43d24","condition":"full-information","relevant_dimensions":["antennae","legs"],"bee_group":{"antennae":"A","wings":"X","pattern":"X","legs":"M"},"bonus":0.06000000000000076},{"rt":7456,"stimulus":"bees-with-color/bee-B1SM.svg","response":1,"trial_type":"image-button-response","trial_index":11,"time_elapsed":380708,"internal_node_id":"0.0-4.0-0.2","subject_id":"612aad990e951a20d5ba78a2","study_id":"60edd13110225f80f9f3709b","session_id":"6196c4a381972c7d99b43d24","condition":"full-information","relevant_dimensions":["antennae","legs"],"bee_group":{"antennae":"A","wings":"X","pattern":"X","legs":"M"},"action":"avoid","summary":"bad-avoid","bonus":0.06000000000000076},{"rt":17776,"stimulus":"\n                    <p><b>Action: <em>avoid</em></b></p>\n                    <p>This is the bee that you just saw.</p>\n                    <img src=\"bees-with-color/bee-B1SM.svg\" width=\"200\">\n                    <p><span class=\"redText\">Bad choice,</span> the bee was friendly.<br>Your bonus pay is unchanged, and remains at $0.46.</p>\n            ","response":0,"trial_type":"html-button-response","trial_index":12,"time_elapsed":398485,"internal_node_id":"0.0-4.0-1.2","subject_id":"612aad990e951a20d5ba78a2","study_id":"60edd13110225f80f9f3709b","session_id":"6196c4a381972c7d99b43d24","condition":"full-information","relevant_dimensions":["antennae","legs"],"bee_group":{"antennae":"A","wings":"X","pattern":"X","legs":"M"},"bonus":0.06000000000000076},{"rt":9535,"stimulus":"bees-with-color/bee-B2DF.svg","response":0,"trial_type":"image-button-response","trial_index":13,"time_elapsed":408021,"internal_node_id":"0.0-4.0-0.3","subject_id":"612aad990e951a20d5ba78a2","study_id":"60edd13110225f80f9f3709b","session_id":"6196c4a381972c7d99b43d24","condition":"full-information","relevant_dimensions":["antennae","legs"],"bee_group":{"antennae":"A","wings":"X","pattern":"X","legs":"M"},"action":"harvest","summary":"good-harvest","bonus":0.06000000000000076},{"rt":5880,"stimulus":"\n                    <p><b>Action: <em>harvest</em></b></p>\n                    <p>This is the bee that you just saw.</p>\n                    <img src=\"bees-with-color/bee-B2DF.svg\" width=\"200\">\n                    <p><span class=\"greenText\"><b>Successful harvest!</b></span><br>Your pay has increased by $0.02. Your bonus pay is now $0.48.</p>\n            ","response":0,"trial_type":"html-button-response","trial_index":14,"time_elapsed":413903,"internal_node_id":"0.0-4.0-1.3","subject_id":"612aad990e951a20d5ba78a2","study_id":"60edd13110225f80f9f3709b","session_id":"6196c4a381972c7d99b43d24","condition":"full-information","relevant_dimensions":["antennae","legs"],"bee_group":{"antennae":"A","wings":"X","pattern":"X","legs":"M"},"bonus":0.06000000000000076},{"rt":4440,"stimulus":"bees-with-color/bee-A2SM.svg","response":1,"trial_type":"image-button-response","trial_index":15,"time_elapsed":418343,"internal_node_id":"0.0-4.0-0.4","subject_id":"612aad990e951a20d5ba78a2","study_id":"60edd13110225f80f9f3709b","session_id":"6196c4a381972c7d99b43d24","condition":"full-information","relevant_dimensions":["antennae","legs"],"bee_group":{"antennae":"A","wings":"X","pattern":"X","legs":"M"},"action":"avoid","summary":"good-avoid","bonus":0.06000000000000076},{"rt":3842,"stimulus":"\n                    <p><b>Action: <em>avoid</em></b></p>\n                    <p>This is the bee that you just saw.</p>\n                    <img src=\"bees-with-color/bee-A2SM.svg\" width=\"200\">\n                    <p><span class=\"greenText\">Good choice!</span>  This bee would have stung you.<br>Your bonus pay is unchanged, and remains at $0.48.</p>\n            ","response":0,"trial_type":"html-button-response","trial_index":16,"time_elapsed":422186,"internal_node_id":"0.0-4.0-1.4","subject_id":"612aad990e951a20d5ba78a2","study_id":"60edd13110225f80f9f3709b","session_id":"6196c4a381972c7d99b43d24","condition":"full-information","relevant_dimensions":["antennae","legs"],"bee_group":{"antennae":"A","wings":"X","pattern":"X","legs":"M"},"bonus":0.06000000000000076},{"rt":6007,"stimulus":"bees-with-color/bee-B1DF.svg","response":0,"trial_type":"image-button-response","trial_index":17,"time_elapsed":428194,"internal_node_id":"0.0-4.0-0.5","subject_id":"612aad990e951a20d5ba78a2","study_id":"60edd13110225f80f9f3709b","session_id":"6196c4a381972c7d99b43d24","condition":"full-information","relevant_dimensions":["antennae","legs"],"bee_group":{"antennae":"A","wings":"X","pattern":"X","legs":"M"},"action":"harvest","summary":"good-harvest","bonus":0.06000000000000076},{"rt":2220,"stimulus":"\n                    <p><b>Action: <em>harvest</em></b></p>\n                    <p>This is the bee that you just saw.</p>\n                    <img src=\"bees-with-color/bee-B1DF.svg\" width=\"200\">\n                    <p><span class=\"greenText\"><b>Successful harvest!</b></span><br>Your pay has increased by $0.02. Your bonus pay is now $0.50.</p>\n            ","response":0,"trial_type":"html-button-response","trial_index":18,"time_elapsed":430417,"internal_node_id":"0.0-4.0-1.5","subject_id":"612aad990e951a20d5ba78a2","study_id":"60edd13110225f80f9f3709b","session_id":"6196c4a381972c7d99b43d24","condition":"full-information","relevant_dimensions":["antennae","legs"],"bee_group":{"antennae":"A","wings":"X","pattern":"X","legs":"M"},"bonus":0.06000000000000076},{"rt":2386,"stimulus":"bees-with-color/bee-A2SF.svg","response":1,"trial_type":"image-button-response","trial_index":19,"time_elapsed":432805,"internal_node_id":"0.0-4.0-0.6","subject_id":"612aad990e951a20d5ba78a2","study_id":"60edd13110225f80f9f3709b","session_id":"6196c4a381972c7d99b43d24","condition":"full-information","relevant_dimensions":["antennae","legs"],"bee_group":{"antennae":"A","wings":"X","pattern":"X","legs":"M"},"action":"avoid","summary":"bad-avoid","bonus":0.06000000000000076},{"rt":20095,"stimulus":"\n                    <p><b>Action: <em>avoid</em></b></p>\n                    <p>This is the bee that you just saw.</p>\n                    <img src=\"bees-with-color/bee-A2SF.svg\" width=\"200\">\n                    <p><span class=\"redText\">Bad choice,</span> the bee was friendly.<br>Your bonus pay is unchanged, and remains at $0.50.</p>\n            ","response":0,"trial_type":"html-button-response","trial_index":20,"time_elapsed":452901,"internal_node_id":"0.0-4.0-1.6","subject_id":"612aad990e951a20d5ba78a2","study_id":"60edd13110225f80f9f3709b","session_id":"6196c4a381972c7d99b43d24","condition":"full-information","relevant_dimensions":["antennae","legs"],"bee_group":{"antennae":"A","wings":"X","pattern":"X","legs":"M"},"bonus":0.06000000000000076},{"rt":1877,"stimulus":"bees-with-color/bee-B1SF.svg","response":1,"trial_type":"image-button-response","trial_index":21,"time_elapsed":454779,"internal_node_id":"0.0-4.0-0.7","subject_id":"612aad990e951a20d5ba78a2","study_id":"60edd13110225f80f9f3709b","session_id":"6196c4a381972c7d99b43d24","condition":"full-information","relevant_dimensions":["antennae","legs"],"bee_group":{"antennae":"A","wings":"X","pattern":"X","legs":"M"},"action":"avoid","summary":"bad-avoid","bonus":0.06000000000000076},{"rt":10046,"stimulus":"\n                    <p><b>Action: <em>avoid</em></b></p>\n                    <p>This is the bee that you just saw.</p>\n                    <img src=\"bees-with-color/bee-B1SF.svg\" width=\"200\">\n                    <p><span class=\"redText\">Bad choice,</span> the bee was friendly.<br>Your bonus pay is unchanged, and remains at $0.50.</p>\n            ","response":0,"trial_type":"html-button-response","trial_index":22,"time_elapsed":464826,"internal_node_id":"0.0-4.0-1.7","subject_id":"612aad990e951a20d5ba78a2","study_id":"60edd13110225f80f9f3709b","session_id":"6196c4a381972c7d99b43d24","condition":"full-information","relevant_dimensions":["antennae","legs"],"bee_group":{"antennae":"A","wings":"X","pattern":"X","legs":"M"},"bonus":0.06000000000000076},{"rt":3295,"stimulus":"bees-with-color/bee-B2SM.svg","response":0,"trial_type":"image-button-response","trial_index":23,"time_elapsed":468123,"internal_node_id":"0.0-4.0-0.8","subject_id":"612aad990e951a20d5ba78a2","study_id":"60edd13110225f80f9f3709b","session_id":"6196c4a381972c7d99b43d24","condition":"full-information","relevant_dimensions":["antennae","legs"],"bee_group":{"antennae":"A","wings":"X","pattern":"X","legs":"M"},"action":"harvest","summary":"good-harvest","bonus":0.06000000000000076},{"rt":2411,"stimulus":"\n                    <p><b>Action: <em>harvest</em></b></p>\n                    <p>This is the bee that you just saw.</p>\n                    <img src=\"bees-with-color/bee-B2SM.svg\" width=\"200\">\n                    <p><span class=\"greenText\"><b>Successful harvest!</b></span><br>Your pay has increased by $0.02. Your bonus pay is now $0.52.</p>\n            ","response":0,"trial_type":"html-button-response","trial_index":24,"time_elapsed":470534,"internal_node_id":"0.0-4.0-1.8","subject_id":"612aad990e951a20d5ba78a2","study_id":"60edd13110225f80f9f3709b","session_id":"6196c4a381972c7d99b43d24","condition":"full-information","relevant_dimensions":["antennae","legs"],"bee_group":{"antennae":"A","wings":"X","pattern":"X","legs":"M"},"bonus":0.06000000000000076},{"rt":3924,"stimulus":"bees-with-color/bee-B1DM.svg","response":0,"trial_type":"image-button-response","trial_index":25,"time_elapsed":474460,"internal_node_id":"0.0-4.0-0.9","subject_id":"612aad990e951a20d5ba78a2","study_id":"60edd13110225f80f9f3709b","session_id":"6196c4a381972c7d99b43d24","condition":"full-information","relevant_dimensions":["antennae","legs"],"bee_group":{"antennae":"A","wings":"X","pattern":"X","legs":"M"},"action":"harvest","summary":"good-harvest","bonus":0.06000000000000076},{"rt":1605,"stimulus":"\n                    <p><b>Action: <em>harvest</em></b></p>\n                    <p>This is the bee that you just saw.</p>\n                    <img src=\"bees-with-color/bee-B1DM.svg\" width=\"200\">\n                    <p><span class=\"greenText\"><b>Successful harvest!</b></span><br>Your pay has increased by $0.02. Your bonus pay is now $0.54.</p>\n            ","response":0,"trial_type":"html-button-response","trial_index":26,"time_elapsed":476067,"internal_node_id":"0.0-4.0-1.9","subject_id":"612aad990e951a20d5ba78a2","study_id":"60edd13110225f80f9f3709b","session_id":"6196c4a381972c7d99b43d24","condition":"full-information","relevant_dimensions":["antennae","legs"],"bee_group":{"antennae":"A","wings":"X","pattern":"X","legs":"M"},"bonus":0.06000000000000076},{"rt":3251,"stimulus":"bees-with-color/bee-A2DF.svg","response":1,"trial_type":"image-button-response","trial_index":27,"time_elapsed":479319,"internal_node_id":"0.0-4.0-0.10","subject_id":"612aad990e951a20d5ba78a2","study_id":"60edd13110225f80f9f3709b","session_id":"6196c4a381972c7d99b43d24","condition":"full-information","relevant_dimensions":["antennae","legs"],"bee_group":{"antennae":"A","wings":"X","pattern":"X","legs":"M"},"action":"avoid","summary":"bad-avoid","bonus":0.06000000000000076},{"rt":4140,"stimulus":"\n                    <p><b>Action: <em>avoid</em></b></p>\n                    <p>This is the bee that you just saw.</p>\n                    <img src=\"bees-with-color/bee-A2DF.svg\" width=\"200\">\n                    <p><span class=\"redText\">Bad choice,</span> the bee was friendly.<br>Your bonus pay is unchanged, and remains at $0.54.</p>\n            ","response":0,"trial_type":"html-button-response","trial_index":28,"time_elapsed":483458,"internal_node_id":"0.0-4.0-1.10","subject_id":"612aad990e951a20d5ba78a2","study_id":"60edd13110225f80f9f3709b","session_id":"6196c4a381972c7d99b43d24","condition":"full-information","relevant_dimensions":["antennae","legs"],"bee_group":{"antennae":"A","wings":"X","pattern":"X","legs":"M"},"bonus":0.06000000000000076},{"rt":2737,"stimulus":"bees-with-color/bee-A1SF.svg","response":1,"trial_type":"image-button-response","trial_index":29,"time_elapsed":486197,"internal_node_id":"0.0-4.0-0.11","subject_id":"612aad990e951a20d5ba78a2","study_id":"60edd13110225f80f9f3709b","session_id":"6196c4a381972c7d99b43d24","condition":"full-information","relevant_dimensions":["antennae","legs"],"bee_group":{"antennae":"A","wings":"X","pattern":"X","legs":"M"},"action":"avoid","summary":"bad-avoid","bonus":0.06000000000000076},{"rt":16349,"stimulus":"\n                    <p><b>Action: <em>avoid</em></b></p>\n                    <p>This is the bee that you just saw.</p>\n                    <img src=\"bees-with-color/bee-A1SF.svg\" width=\"200\">\n                    <p><span class=\"redText\">Bad choice,</span> the bee was friendly.<br>Your bonus pay is unchanged, and remains at $0.54.</p>\n            ","response":0,"trial_type":"html-button-response","trial_index":30,"time_elapsed":502547,"internal_node_id":"0.0-4.0-1.11","subject_id":"612aad990e951a20d5ba78a2","study_id":"60edd13110225f80f9f3709b","session_id":"6196c4a381972c7d99b43d24","condition":"full-information","relevant_dimensions":["antennae","legs"],"bee_group":{"antennae":"A","wings":"X","pattern":"X","legs":"M"},"bonus":0.06000000000000076},{"rt":2596,"stimulus":"bees-with-color/bee-A2DM.svg","response":1,"trial_type":"image-button-response","trial_index":31,"time_elapsed":505145,"internal_node_id":"0.0-4.0-0.12","subject_id":"612aad990e951a20d5ba78a2","study_id":"60edd13110225f80f9f3709b","session_id":"6196c4a381972c7d99b43d24","condition":"full-information","relevant_dimensions":["antennae","legs"],"bee_group":{"antennae":"A","wings":"X","pattern":"X","legs":"M"},"action":"avoid","summary":"good-avoid","bonus":0.06000000000000076},{"rt":2878,"stimulus":"\n                    <p><b>Action: <em>avoid</em></b></p>\n                    <p>This is the bee that you just saw.</p>\n                    <img src=\"bees-with-color/bee-A2DM.svg\" width=\"200\">\n                    <p><span class=\"greenText\">Good choice!</span>  This bee would have stung you.<br>Your bonus pay is unchanged, and remains at $0.54.</p>\n            ","response":0,"trial_type":"html-button-response","trial_index":32,"time_elapsed":508022,"internal_node_id":"0.0-4.0-1.12","subject_id":"612aad990e951a20d5ba78a2","study_id":"60edd13110225f80f9f3709b","session_id":"6196c4a381972c7d99b43d24","condition":"full-information","relevant_dimensions":["antennae","legs"],"bee_group":{"antennae":"A","wings":"X","pattern":"X","legs":"M"},"bonus":0.06000000000000076},{"rt":3118,"stimulus":"bees-with-color/bee-A1DM.svg","response":0,"trial_type":"image-button-response","trial_index":33,"time_elapsed":511142,"internal_node_id":"0.0-4.0-0.13","subject_id":"612aad990e951a20d5ba78a2","study_id":"60edd13110225f80f9f3709b","session_id":"6196c4a381972c7d99b43d24","condition":"full-information","relevant_dimensions":["antennae","legs"],"bee_group":{"antennae":"A","wings":"X","pattern":"X","legs":"M"},"action":"harvest","summary":"bad-harvest","bonus":0.06000000000000076},{"rt":8724,"stimulus":"\n                    <p><b>Action: <em>harvest</em></b></p>\n                    <p>This is the bee that you just saw.</p>\n                    <img src=\"bees-with-color/bee-A1DM.svg\" width=\"200\">\n                    <p><span class=\"redText\">Bad choice, the bee was angry.</span><br><b>You have been stung!</b><br>Your pay has been decreased by $0.10. Your bonus pay is now $0.44.</p>\n            ","response":0,"trial_type":"html-button-response","trial_index":34,"time_elapsed":519869,"internal_node_id":"0.0-4.0-1.13","subject_id":"612aad990e951a20d5ba78a2","study_id":"60edd13110225f80f9f3709b","session_id":"6196c4a381972c7d99b43d24","condition":"full-information","relevant_dimensions":["antennae","legs"],"bee_group":{"antennae":"A","wings":"X","pattern":"X","legs":"M"},"bonus":0.06000000000000076},{"rt":6651,"stimulus":"bees-with-color/bee-B2SF.svg","response":1,"trial_type":"image-button-response","trial_index":35,"time_elapsed":526521,"internal_node_id":"0.0-4.0-0.14","subject_id":"612aad990e951a20d5ba78a2","study_id":"60edd13110225f80f9f3709b","session_id":"6196c4a381972c7d99b43d24","condition":"full-information","relevant_dimensions":["antennae","legs"],"bee_group":{"antennae":"A","wings":"X","pattern":"X","legs":"M"},"action":"avoid","summary":"bad-avoid","bonus":0.06000000000000076},{"rt":1874,"stimulus":"\n                    <p><b>Action: <em>avoid</em></b></p>\n                    <p>This is the bee that you just saw.</p>\n                    <img src=\"bees-with-color/bee-B2SF.svg\" width=\"200\">\n                    <p><span class=\"redText\">Bad choice,</span> the bee was friendly.<br>Your bonus pay is unchanged, and remains at $0.44.</p>\n            ","response":0,"trial_type":"html-button-response","trial_index":36,"time_elapsed":528397,"internal_node_id":"0.0-4.0-1.14","subject_id":"612aad990e951a20d5ba78a2","study_id":"60edd13110225f80f9f3709b","session_id":"6196c4a381972c7d99b43d24","condition":"full-information","relevant_dimensions":["antennae","legs"],"bee_group":{"antennae":"A","wings":"X","pattern":"X","legs":"M"},"bonus":0.06000000000000076},{"rt":2580,"stimulus":"bees-with-color/bee-A1DF.svg","response":1,"trial_type":"image-button-response","trial_index":37,"time_elapsed":530978,"internal_node_id":"0.0-4.0-0.15","subject_id":"612aad990e951a20d5ba78a2","study_id":"60edd13110225f80f9f3709b","session_id":"6196c4a381972c7d99b43d24","condition":"full-information","relevant_dimensions":["antennae","legs"],"bee_group":{"antennae":"A","wings":"X","pattern":"X","legs":"M"},"action":"avoid","summary":"bad-avoid","bonus":0.06000000000000076},{"rt":2193,"stimulus":"\n                    <p><b>Action: <em>avoid</em></b></p>\n                    <p>This is the bee that you just saw.</p>\n                    <img src=\"bees-with-color/bee-A1DF.svg\" width=\"200\">\n                    <p><span class=\"redText\">Bad choice,</span> the bee was friendly.<br>Your bonus pay is unchanged, and remains at $0.44.</p>\n            ","response":0,"trial_type":"html-button-response","trial_index":38,"time_elapsed":533172,"internal_node_id":"0.0-4.0-1.15","subject_id":"612aad990e951a20d5ba78a2","study_id":"60edd13110225f80f9f3709b","session_id":"6196c4a381972c7d99b43d24","condition":"full-information","relevant_dimensions":["antennae","legs"],"bee_group":{"antennae":"A","wings":"X","pattern":"X","legs":"M"},"bonus":0.06000000000000076},{"rt":1957,"stimulus":"bees-with-color/bee-A2SF.svg","response":1,"trial_type":"image-button-response","trial_index":39,"time_elapsed":535130,"internal_node_id":"0.0-4.0-0.16","subject_id":"612aad990e951a20d5ba78a2","study_id":"60edd13110225f80f9f3709b","session_id":"6196c4a381972c7d99b43d24","condition":"full-information","relevant_dimensions":["antennae","legs"],"bee_group":{"antennae":"A","wings":"X","pattern":"X","legs":"M"},"action":"avoid","summary":"bad-avoid","bonus":0.06000000000000076},{"rt":3926,"stimulus":"\n                    <p><b>Action: <em>avoid</em></b></p>\n                    <p>This is the bee that you just saw.</p>\n                    <img src=\"bees-with-color/bee-A2SF.svg\" width=\"200\">\n                    <p><span class=\"redText\">Bad choice,</span> the bee was friendly.<br>Your bonus pay is unchanged, and remains at $0.44.</p>\n            ","response":0,"trial_type":"html-button-response","trial_index":40,"time_elapsed":539058,"internal_node_id":"0.0-4.0-1.16","subject_id":"612aad990e951a20d5ba78a2","study_id":"60edd13110225f80f9f3709b","session_id":"6196c4a381972c7d99b43d24","condition":"full-information","relevant_dimensions":["antennae","legs"],"bee_group":{"antennae":"A","wings":"X","pattern":"X","legs":"M"},"bonus":0.06000000000000076},{"rt":2855,"stimulus":"bees-with-color/bee-A1DF.svg","response":0,"trial_type":"image-button-response","trial_index":41,"time_elapsed":541915,"internal_node_id":"0.0-4.0-0.17","subject_id":"612aad990e951a20d5ba78a2","study_id":"60edd13110225f80f9f3709b","session_id":"6196c4a381972c7d99b43d24","condition":"full-information","relevant_dimensions":["antennae","legs"],"bee_group":{"antennae":"A","wings":"X","pattern":"X","legs":"M"},"action":"harvest","summary":"good-harvest","bonus":0.06000000000000076},{"rt":2279,"stimulus":"\n                    <p><b>Action: <em>harvest</em></b></p>\n                    <p>This is the bee that you just saw.</p>\n                    <img src=\"bees-with-color/bee-A1DF.svg\" width=\"200\">\n                    <p><span class=\"greenText\"><b>Successful harvest!</b></span><br>Your pay has increased by $0.02. Your bonus pay is now $0.46.</p>\n            ","response":0,"trial_type":"html-button-response","trial_index":42,"time_elapsed":544194,"internal_node_id":"0.0-4.0-1.17","subject_id":"612aad990e951a20d5ba78a2","study_id":"60edd13110225f80f9f3709b","session_id":"6196c4a381972c7d99b43d24","condition":"full-information","relevant_dimensions":["antennae","legs"],"bee_group":{"antennae":"A","wings":"X","pattern":"X","legs":"M"},"bonus":0.06000000000000076},{"rt":2724,"stimulus":"bees-with-color/bee-A1SF.svg","response":1,"trial_type":"image-button-response","trial_index":43,"time_elapsed":546921,"internal_node_id":"0.0-4.0-0.18","subject_id":"612aad990e951a20d5ba78a2","study_id":"60edd13110225f80f9f3709b","session_id":"6196c4a381972c7d99b43d24","condition":"full-information","relevant_dimensions":["antennae","legs"],"bee_group":{"antennae":"A","wings":"X","pattern":"X","legs":"M"},"action":"avoid","summary":"bad-avoid","bonus":0.06000000000000076},{"rt":13145,"stimulus":"\n                    <p><b>Action: <em>avoid</em></b></p>\n                    <p>This is the bee that you just saw.</p>\n                    <img src=\"bees-with-color/bee-A1SF.svg\" width=\"200\">\n                    <p><span class=\"redText\">Bad choice,</span> the bee was friendly.<br>Your bonus pay is unchanged, and remains at $0.46.</p>\n            ","response":0,"trial_type":"html-button-response","trial_index":44,"time_elapsed":560066,"internal_node_id":"0.0-4.0-1.18","subject_id":"612aad990e951a20d5ba78a2","study_id":"60edd13110225f80f9f3709b","session_id":"6196c4a381972c7d99b43d24","condition":"full-information","relevant_dimensions":["antennae","legs"],"bee_group":{"antennae":"A","wings":"X","pattern":"X","legs":"M"},"bonus":0.06000000000000076},{"rt":4531,"stimulus":"bees-with-color/bee-A1DM.svg","response":1,"trial_type":"image-button-response","trial_index":45,"time_elapsed":564598,"internal_node_id":"0.0-4.0-0.19","subject_id":"612aad990e951a20d5ba78a2","study_id":"60edd13110225f80f9f3709b","session_id":"6196c4a381972c7d99b43d24","condition":"full-information","relevant_dimensions":["antennae","legs"],"bee_group":{"antennae":"A","wings":"X","pattern":"X","legs":"M"},"action":"avoid","summary":"good-avoid","bonus":0.06000000000000076},{"rt":3852,"stimulus":"\n                    <p><b>Action: <em>avoid</em></b></p>\n                    <p>This is the bee that you just saw.</p>\n                    <img src=\"bees-with-color/bee-A1DM.svg\" width=\"200\">\n                    <p><span class=\"greenText\">Good choice!</span>  This bee would have stung you.<br>Your bonus pay is unchanged, and remains at $0.46.</p>\n            ","response":0,"trial_type":"html-button-response","trial_index":46,"time_elapsed":568452,"internal_node_id":"0.0-4.0-1.19","subject_id":"612aad990e951a20d5ba78a2","study_id":"60edd13110225f80f9f3709b","session_id":"6196c4a381972c7d99b43d24","condition":"full-information","relevant_dimensions":["antennae","legs"],"bee_group":{"antennae":"A","wings":"X","pattern":"X","legs":"M"},"bonus":0.06000000000000076},{"rt":2319,"stimulus":"bees-with-color/bee-B2SM.svg","response":0,"trial_type":"image-button-response","trial_index":47,"time_elapsed":570773,"internal_node_id":"0.0-4.0-0.20","subject_id":"612aad990e951a20d5ba78a2","study_id":"60edd13110225f80f9f3709b","session_id":"6196c4a381972c7d99b43d24","condition":"full-information","relevant_dimensions":["antennae","legs"],"bee_group":{"antennae":"A","wings":"X","pattern":"X","legs":"M"},"action":"harvest","summary":"good-harvest","bonus":0.06000000000000076},{"rt":1419,"stimulus":"\n                    <p><b>Action: <em>harvest</em></b></p>\n                    <p>This is the bee that you just saw.</p>\n                    <img src=\"bees-with-color/bee-B2SM.svg\" width=\"200\">\n                    <p><span class=\"greenText\"><b>Successful harvest!</b></span><br>Your pay has increased by $0.02. Your bonus pay is now $0.48.</p>\n            ","response":0,"trial_type":"html-button-response","trial_index":48,"time_elapsed":572193,"internal_node_id":"0.0-4.0-1.20","subject_id":"612aad990e951a20d5ba78a2","study_id":"60edd13110225f80f9f3709b","session_id":"6196c4a381972c7d99b43d24","condition":"full-information","relevant_dimensions":["antennae","legs"],"bee_group":{"antennae":"A","wings":"X","pattern":"X","legs":"M"},"bonus":0.06000000000000076},{"rt":2569,"stimulus":"bees-with-color/bee-B2SF.svg","response":1,"trial_type":"image-button-response","trial_index":49,"time_elapsed":574762,"internal_node_id":"0.0-4.0-0.21","subject_id":"612aad990e951a20d5ba78a2","study_id":"60edd13110225f80f9f3709b","session_id":"6196c4a381972c7d99b43d24","condition":"full-information","relevant_dimensions":["antennae","legs"],"bee_group":{"antennae":"A","wings":"X","pattern":"X","legs":"M"},"action":"avoid","summary":"bad-avoid","bonus":0.06000000000000076},{"rt":1381,"stimulus":"\n                    <p><b>Action: <em>avoid</em></b></p>\n                    <p>This is the bee that you just saw.</p>\n                    <img src=\"bees-with-color/bee-B2SF.svg\" width=\"200\">\n                    <p><span class=\"redText\">Bad choice,</span> the bee was friendly.<br>Your bonus pay is unchanged, and remains at $0.48.</p>\n            ","response":0,"trial_type":"html-button-response","trial_index":50,"time_elapsed":576144,"internal_node_id":"0.0-4.0-1.21","subject_id":"612aad990e951a20d5ba78a2","study_id":"60edd13110225f80f9f3709b","session_id":"6196c4a381972c7d99b43d24","condition":"full-information","relevant_dimensions":["antennae","legs"],"bee_group":{"antennae":"A","wings":"X","pattern":"X","legs":"M"},"bonus":0.06000000000000076},{"rt":3173,"stimulus":"bees-with-color/bee-A1SM.svg","response":1,"trial_type":"image-button-response","trial_index":51,"time_elapsed":579319,"internal_node_id":"0.0-4.0-0.22","subject_id":"612aad990e951a20d5ba78a2","study_id":"60edd13110225f80f9f3709b","session_id":"6196c4a381972c7d99b43d24","condition":"full-information","relevant_dimensions":["antennae","legs"],"bee_group":{"antennae":"A","wings":"X","pattern":"X","legs":"M"},"action":"avoid","summary":"good-avoid","bonus":0.06000000000000076},{"rt":1983,"stimulus":"\n                    <p><b>Action: <em>avoid</em></b></p>\n                    <p>This is the bee that you just saw.</p>\n                    <img src=\"bees-with-color/bee-A1SM.svg\" width=\"200\">\n                    <p><span class=\"greenText\">Good choice!</span>  This bee would have stung you.<br>Your bonus pay is unchanged, and remains at $0.48.</p>\n            ","response":0,"trial_type":"html-button-response","trial_index":52,"time_elapsed":581302,"internal_node_id":"0.0-4.0-1.22","subject_id":"612aad990e951a20d5ba78a2","study_id":"60edd13110225f80f9f3709b","session_id":"6196c4a381972c7d99b43d24","condition":"full-information","relevant_dimensions":["antennae","legs"],"bee_group":{"antennae":"A","wings":"X","pattern":"X","legs":"M"},"bonus":0.06000000000000076},{"rt":3093,"stimulus":"bees-with-color/bee-A2DF.svg","response":0,"trial_type":"image-button-response","trial_index":53,"time_elapsed":584397,"internal_node_id":"0.0-4.0-0.23","subject_id":"612aad990e951a20d5ba78a2","study_id":"60edd13110225f80f9f3709b","session_id":"6196c4a381972c7d99b43d24","condition":"full-information","relevant_dimensions":["antennae","legs"],"bee_group":{"antennae":"A","wings":"X","pattern":"X","legs":"M"},"action":"harvest","summary":"good-harvest","bonus":0.06000000000000076},{"rt":1427,"stimulus":"\n                    <p><b>Action: <em>harvest</em></b></p>\n                    <p>This is the bee that you just saw.</p>\n                    <img src=\"bees-with-color/bee-A2DF.svg\" width=\"200\">\n                    <p><span class=\"greenText\"><b>Successful harvest!</b></span><br>Your pay has increased by $0.02. Your bonus pay is now $0.50.</p>\n            ","response":0,"trial_type":"html-button-response","trial_index":54,"time_elapsed":585824,"internal_node_id":"0.0-4.0-1.23","subject_id":"612aad990e951a20d5ba78a2","study_id":"60edd13110225f80f9f3709b","session_id":"6196c4a381972c7d99b43d24","condition":"full-information","relevant_dimensions":["antennae","legs"],"bee_group":{"antennae":"A","wings":"X","pattern":"X","legs":"M"},"bonus":0.06000000000000076},{"rt":3239,"stimulus":"bees-with-color/bee-A2SM.svg","response":0,"trial_type":"image-button-response","trial_index":55,"time_elapsed":589064,"internal_node_id":"0.0-4.0-0.24","subject_id":"612aad990e951a20d5ba78a2","study_id":"60edd13110225f80f9f3709b","session_id":"6196c4a381972c7d99b43d24","condition":"full-information","relevant_dimensions":["antennae","legs"],"bee_group":{"antennae":"A","wings":"X","pattern":"X","legs":"M"},"action":"harvest","summary":"bad-harvest","bonus":0.06000000000000076},{"rt":3052,"stimulus":"\n                    <p><b>Action: <em>harvest</em></b></p>\n                    <p>This is the bee that you just saw.</p>\n                    <img src=\"bees-with-color/bee-A2SM.svg\" width=\"200\">\n                    <p><span class=\"redText\">Bad choice, the bee was angry.</span><br><b>You have been stung!</b><br>Your pay has been decreased by $0.10. Your bonus pay is now $0.40.</p>\n            ","response":0,"trial_type":"html-button-response","trial_index":56,"time_elapsed":592116,"internal_node_id":"0.0-4.0-1.24","subject_id":"612aad990e951a20d5ba78a2","study_id":"60edd13110225f80f9f3709b","session_id":"6196c4a381972c7d99b43d24","condition":"full-information","relevant_dimensions":["antennae","legs"],"bee_group":{"antennae":"A","wings":"X","pattern":"X","legs":"M"},"bonus":0.06000000000000076},{"rt":1917,"stimulus":"bees-with-color/bee-B2DM.svg","response":0,"trial_type":"image-button-response","trial_index":57,"time_elapsed":594034,"internal_node_id":"0.0-4.0-0.25","subject_id":"612aad990e951a20d5ba78a2","study_id":"60edd13110225f80f9f3709b","session_id":"6196c4a381972c7d99b43d24","condition":"full-information","relevant_dimensions":["antennae","legs"],"bee_group":{"antennae":"A","wings":"X","pattern":"X","legs":"M"},"action":"harvest","summary":"good-harvest","bonus":0.06000000000000076},{"rt":1036,"stimulus":"\n                    <p><b>Action: <em>harvest</em></b></p>\n                    <p>This is the bee that you just saw.</p>\n                    <img src=\"bees-with-color/bee-B2DM.svg\" width=\"200\">\n                    <p><span class=\"greenText\"><b>Successful harvest!</b></span><br>Your pay has increased by $0.02. Your bonus pay is now $0.42.</p>\n            ","response":0,"trial_type":"html-button-response","trial_index":58,"time_elapsed":595072,"internal_node_id":"0.0-4.0-1.25","subject_id":"612aad990e951a20d5ba78a2","study_id":"60edd13110225f80f9f3709b","session_id":"6196c4a381972c7d99b43d24","condition":"full-information","relevant_dimensions":["antennae","legs"],"bee_group":{"antennae":"A","wings":"X","pattern":"X","legs":"M"},"bonus":0.06000000000000076},{"rt":1320,"stimulus":"bees-with-color/bee-A2DM.svg","response":0,"trial_type":"image-button-response","trial_index":59,"time_elapsed":596392,"internal_node_id":"0.0-4.0-0.26","subject_id":"612aad990e951a20d5ba78a2","study_id":"60edd13110225f80f9f3709b","session_id":"6196c4a381972c7d99b43d24","condition":"full-information","relevant_dimensions":["antennae","legs"],"bee_group":{"antennae":"A","wings":"X","pattern":"X","legs":"M"},"action":"harvest","summary":"bad-harvest","bonus":0.06000000000000076},{"rt":2740,"stimulus":"\n                    <p><b>Action: <em>harvest</em></b></p>\n                    <p>This is the bee that you just saw.</p>\n                    <img src=\"bees-with-color/bee-A2DM.svg\" width=\"200\">\n                    <p><span class=\"redText\">Bad choice, the bee was angry.</span><br><b>You have been stung!</b><br>Your pay has been decreased by $0.10. Your bonus pay is now $0.32.</p>\n            ","response":0,"trial_type":"html-button-response","trial_index":60,"time_elapsed":599134,"internal_node_id":"0.0-4.0-1.26","subject_id":"612aad990e951a20d5ba78a2","study_id":"60edd13110225f80f9f3709b","session_id":"6196c4a381972c7d99b43d24","condition":"full-information","relevant_dimensions":["antennae","legs"],"bee_group":{"antennae":"A","wings":"X","pattern":"X","legs":"M"},"bonus":0.06000000000000076},{"rt":1781,"stimulus":"bees-with-color/bee-B1DM.svg","response":0,"trial_type":"image-button-response","trial_index":61,"time_elapsed":600917,"internal_node_id":"0.0-4.0-0.27","subject_id":"612aad990e951a20d5ba78a2","study_id":"60edd13110225f80f9f3709b","session_id":"6196c4a381972c7d99b43d24","condition":"full-information","relevant_dimensions":["antennae","legs"],"bee_group":{"antennae":"A","wings":"X","pattern":"X","legs":"M"},"action":"harvest","summary":"good-harvest","bonus":0.06000000000000076},{"rt":1387,"stimulus":"\n                    <p><b>Action: <em>harvest</em></b></p>\n                    <p>This is the bee that you just saw.</p>\n                    <img src=\"bees-with-color/bee-B1DM.svg\" width=\"200\">\n                    <p><span class=\"greenText\"><b>Successful harvest!</b></span><br>Your pay has increased by $0.02. Your bonus pay is now $0.34.</p>\n            ","response":0,"trial_type":"html-button-response","trial_index":62,"time_elapsed":602305,"internal_node_id":"0.0-4.0-1.27","subject_id":"612aad990e951a20d5ba78a2","study_id":"60edd13110225f80f9f3709b","session_id":"6196c4a381972c7d99b43d24","condition":"full-information","relevant_dimensions":["antennae","legs"],"bee_group":{"antennae":"A","wings":"X","pattern":"X","legs":"M"},"bonus":0.06000000000000076},{"rt":2343,"stimulus":"bees-with-color/bee-B1SF.svg","response":1,"trial_type":"image-button-response","trial_index":63,"time_elapsed":604648,"internal_node_id":"0.0-4.0-0.28","subject_id":"612aad990e951a20d5ba78a2","study_id":"60edd13110225f80f9f3709b","session_id":"6196c4a381972c7d99b43d24","condition":"full-information","relevant_dimensions":["antennae","legs"],"bee_group":{"antennae":"A","wings":"X","pattern":"X","legs":"M"},"action":"avoid","summary":"bad-avoid","bonus":0.06000000000000076},{"rt":1099,"stimulus":"\n                    <p><b>Action: <em>avoid</em></b></p>\n                    <p>This is the bee that you just saw.</p>\n                    <img src=\"bees-with-color/bee-B1SF.svg\" width=\"200\">\n                    <p><span class=\"redText\">Bad choice,</span> the bee was friendly.<br>Your bonus pay is unchanged, and remains at $0.34.</p>\n            ","response":0,"trial_type":"html-button-response","trial_index":64,"time_elapsed":605748,"internal_node_id":"0.0-4.0-1.28","subject_id":"612aad990e951a20d5ba78a2","study_id":"60edd13110225f80f9f3709b","session_id":"6196c4a381972c7d99b43d24","condition":"full-information","relevant_dimensions":["antennae","legs"],"bee_group":{"antennae":"A","wings":"X","pattern":"X","legs":"M"},"bonus":0.06000000000000076},{"rt":1987,"stimulus":"bees-with-color/bee-B1DF.svg","response":0,"trial_type":"image-button-response","trial_index":65,"time_elapsed":607737,"internal_node_id":"0.0-4.0-0.29","subject_id":"612aad990e951a20d5ba78a2","study_id":"60edd13110225f80f9f3709b","session_id":"6196c4a381972c7d99b43d24","condition":"full-information","relevant_dimensions":["antennae","legs"],"bee_group":{"antennae":"A","wings":"X","pattern":"X","legs":"M"},"action":"harvest","summary":"good-harvest","bonus":0.06000000000000076},{"rt":1357,"stimulus":"\n                    <p><b>Action: <em>harvest</em></b></p>\n                    <p>This is the bee that you just saw.</p>\n                    <img src=\"bees-with-color/bee-B1DF.svg\" width=\"200\">\n                    <p><span class=\"greenText\"><b>Successful harvest!</b></span><br>Your pay has increased by $0.02. Your bonus pay is now $0.36.</p>\n            ","response":0,"trial_type":"html-button-response","trial_index":66,"time_elapsed":609094,"internal_node_id":"0.0-4.0-1.29","subject_id":"612aad990e951a20d5ba78a2","study_id":"60edd13110225f80f9f3709b","session_id":"6196c4a381972c7d99b43d24","condition":"full-information","relevant_dimensions":["antennae","legs"],"bee_group":{"antennae":"A","wings":"X","pattern":"X","legs":"M"},"bonus":0.06000000000000076},{"rt":1735,"stimulus":"bees-with-color/bee-B2DF.svg","response":0,"trial_type":"image-button-response","trial_index":67,"time_elapsed":610830,"internal_node_id":"0.0-4.0-0.30","subject_id":"612aad990e951a20d5ba78a2","study_id":"60edd13110225f80f9f3709b","session_id":"6196c4a381972c7d99b43d24","condition":"full-information","relevant_dimensions":["antennae","legs"],"bee_group":{"antennae":"A","wings":"X","pattern":"X","legs":"M"},"action":"harvest","summary":"good-harvest","bonus":0.06000000000000076},{"rt":1287,"stimulus":"\n                    <p><b>Action: <em>harvest</em></b></p>\n                    <p>This is the bee that you just saw.</p>\n                    <img src=\"bees-with-color/bee-B2DF.svg\" width=\"200\">\n                    <p><span class=\"greenText\"><b>Successful harvest!</b></span><br>Your pay has increased by $0.02. Your bonus pay is now $0.38.</p>\n            ","response":0,"trial_type":"html-button-response","trial_index":68,"time_elapsed":612118,"internal_node_id":"0.0-4.0-1.30","subject_id":"612aad990e951a20d5ba78a2","study_id":"60edd13110225f80f9f3709b","session_id":"6196c4a381972c7d99b43d24","condition":"full-information","relevant_dimensions":["antennae","legs"],"bee_group":{"antennae":"A","wings":"X","pattern":"X","legs":"M"},"bonus":0.06000000000000076},{"rt":2707,"stimulus":"bees-with-color/bee-B1SM.svg","response":1,"trial_type":"image-button-response","trial_index":69,"time_elapsed":614826,"internal_node_id":"0.0-4.0-0.31","subject_id":"612aad990e951a20d5ba78a2","study_id":"60edd13110225f80f9f3709b","session_id":"6196c4a381972c7d99b43d24","condition":"full-information","relevant_dimensions":["antennae","legs"],"bee_group":{"antennae":"A","wings":"X","pattern":"X","legs":"M"},"action":"avoid","summary":"bad-avoid","bonus":0.06000000000000076},{"rt":1325,"stimulus":"\n                    <p><b>Action: <em>avoid</em></b></p>\n                    <p>This is the bee that you just saw.</p>\n                    <img src=\"bees-with-color/bee-B1SM.svg\" width=\"200\">\n                    <p><span class=\"redText\">Bad choice,</span> the bee was friendly.<br>Your bonus pay is unchanged, and remains at $0.38.</p>\n            ","response":0,"trial_type":"html-button-response","trial_index":70,"time_elapsed":616152,"internal_node_id":"0.0-4.0-1.31","subject_id":"612aad990e951a20d5ba78a2","study_id":"60edd13110225f80f9f3709b","session_id":"6196c4a381972c7d99b43d24","condition":"full-information","relevant_dimensions":["antennae","legs"],"bee_group":{"antennae":"A","wings":"X","pattern":"X","legs":"M"},"bonus":0.06000000000000076},{"rt":1181,"stimulus":"bees-with-color/bee-B2DM.svg","response":0,"trial_type":"image-button-response","trial_index":71,"time_elapsed":617334,"internal_node_id":"0.0-4.0-0.32","subject_id":"612aad990e951a20d5ba78a2","study_id":"60edd13110225f80f9f3709b","session_id":"6196c4a381972c7d99b43d24","condition":"full-information","relevant_dimensions":["antennae","legs"],"bee_group":{"antennae":"A","wings":"X","pattern":"X","legs":"M"},"action":"harvest","summary":"good-harvest","bonus":0.06000000000000076},{"rt":879,"stimulus":"\n                    <p><b>Action: <em>harvest</em></b></p>\n                    <p>This is the bee that you just saw.</p>\n                    <img src=\"bees-with-color/bee-B2DM.svg\" width=\"200\">\n                    <p><span class=\"greenText\"><b>Successful harvest!</b></span><br>Your pay has increased by $0.02. Your bonus pay is now $0.40.</p>\n            ","response":0,"trial_type":"html-button-response","trial_index":72,"time_elapsed":618214,"internal_node_id":"0.0-4.0-1.32","subject_id":"612aad990e951a20d5ba78a2","study_id":"60edd13110225f80f9f3709b","session_id":"6196c4a381972c7d99b43d24","condition":"full-information","relevant_dimensions":["antennae","legs"],"bee_group":{"antennae":"A","wings":"X","pattern":"X","legs":"M"},"bonus":0.06000000000000076},{"rt":1733,"stimulus":"bees-with-color/bee-A2DM.svg","response":1,"trial_type":"image-button-response","trial_index":73,"time_elapsed":619948,"internal_node_id":"0.0-4.0-0.33","subject_id":"612aad990e951a20d5ba78a2","study_id":"60edd13110225f80f9f3709b","session_id":"6196c4a381972c7d99b43d24","condition":"full-information","relevant_dimensions":["antennae","legs"],"bee_group":{"antennae":"A","wings":"X","pattern":"X","legs":"M"},"action":"avoid","summary":"good-avoid","bonus":0.06000000000000076},{"rt":1160,"stimulus":"\n                    <p><b>Action: <em>avoid</em></b></p>\n                    <p>This is the bee that you just saw.</p>\n                    <img src=\"bees-with-color/bee-A2DM.svg\" width=\"200\">\n                    <p><span class=\"greenText\">Good choice!</span>  This bee would have stung you.<br>Your bonus pay is unchanged, and remains at $0.40.</p>\n            ","response":0,"trial_type":"html-button-response","trial_index":74,"time_elapsed":621109,"internal_node_id":"0.0-4.0-1.33","subject_id":"612aad990e951a20d5ba78a2","study_id":"60edd13110225f80f9f3709b","session_id":"6196c4a381972c7d99b43d24","condition":"full-information","relevant_dimensions":["antennae","legs"],"bee_group":{"antennae":"A","wings":"X","pattern":"X","legs":"M"},"bonus":0.06000000000000076},{"rt":2238,"stimulus":"bees-with-color/bee-A2SM.svg","response":0,"trial_type":"image-button-response","trial_index":75,"time_elapsed":623346,"internal_node_id":"0.0-4.0-0.34","subject_id":"612aad990e951a20d5ba78a2","study_id":"60edd13110225f80f9f3709b","session_id":"6196c4a381972c7d99b43d24","condition":"full-information","relevant_dimensions":["antennae","legs"],"bee_group":{"antennae":"A","wings":"X","pattern":"X","legs":"M"},"action":"harvest","summary":"bad-harvest","bonus":0.06000000000000076},{"rt":1210,"stimulus":"\n                    <p><b>Action: <em>harvest</em></b></p>\n                    <p>This is the bee that you just saw.</p>\n                    <img src=\"bees-with-color/bee-A2SM.svg\" width=\"200\">\n                    <p><span class=\"redText\">Bad choice, the bee was angry.</span><br><b>You have been stung!</b><br>Your pay has been decreased by $0.10. Your bonus pay is now $0.30.</p>\n            ","response":0,"trial_type":"html-button-response","trial_index":76,"time_elapsed":624558,"internal_node_id":"0.0-4.0-1.34","subject_id":"612aad990e951a20d5ba78a2","study_id":"60edd13110225f80f9f3709b","session_id":"6196c4a381972c7d99b43d24","condition":"full-information","relevant_dimensions":["antennae","legs"],"bee_group":{"antennae":"A","wings":"X","pattern":"X","legs":"M"},"bonus":0.06000000000000076},{"rt":1365,"stimulus":"bees-with-color/bee-B2SF.svg","response":0,"trial_type":"image-button-response","trial_index":77,"time_elapsed":625924,"internal_node_id":"0.0-4.0-0.35","subject_id":"612aad990e951a20d5ba78a2","study_id":"60edd13110225f80f9f3709b","session_id":"6196c4a381972c7d99b43d24","condition":"full-information","relevant_dimensions":["antennae","legs"],"bee_group":{"antennae":"A","wings":"X","pattern":"X","legs":"M"},"action":"harvest","summary":"good-harvest","bonus":0.06000000000000076},{"rt":1205,"stimulus":"\n                    <p><b>Action: <em>harvest</em></b></p>\n                    <p>This is the bee that you just saw.</p>\n                    <img src=\"bees-with-color/bee-B2SF.svg\" width=\"200\">\n                    <p><span class=\"greenText\"><b>Successful harvest!</b></span><br>Your pay has increased by $0.02. Your bonus pay is now $0.32.</p>\n            ","response":0,"trial_type":"html-button-response","trial_index":78,"time_elapsed":627130,"internal_node_id":"0.0-4.0-1.35","subject_id":"612aad990e951a20d5ba78a2","study_id":"60edd13110225f80f9f3709b","session_id":"6196c4a381972c7d99b43d24","condition":"full-information","relevant_dimensions":["antennae","legs"],"bee_group":{"antennae":"A","wings":"X","pattern":"X","legs":"M"},"bonus":0.06000000000000076},{"rt":1225,"stimulus":"bees-with-color/bee-A2SF.svg","response":1,"trial_type":"image-button-response","trial_index":79,"time_elapsed":628356,"internal_node_id":"0.0-4.0-0.36","subject_id":"612aad990e951a20d5ba78a2","study_id":"60edd13110225f80f9f3709b","session_id":"6196c4a381972c7d99b43d24","condition":"full-information","relevant_dimensions":["antennae","legs"],"bee_group":{"antennae":"A","wings":"X","pattern":"X","legs":"M"},"action":"avoid","summary":"bad-avoid","bonus":0.06000000000000076},{"rt":5889,"stimulus":"\n                    <p><b>Action: <em>avoid</em></b></p>\n                    <p>This is the bee that you just saw.</p>\n                    <img src=\"bees-with-color/bee-A2SF.svg\" width=\"200\">\n                    <p><span class=\"redText\">Bad choice,</span> the bee was friendly.<br>Your bonus pay is unchanged, and remains at $0.32.</p>\n            ","response":0,"trial_type":"html-button-response","trial_index":80,"time_elapsed":634247,"internal_node_id":"0.0-4.0-1.36","subject_id":"612aad990e951a20d5ba78a2","study_id":"60edd13110225f80f9f3709b","session_id":"6196c4a381972c7d99b43d24","condition":"full-information","relevant_dimensions":["antennae","legs"],"bee_group":{"antennae":"A","wings":"X","pattern":"X","legs":"M"},"bonus":0.06000000000000076},{"rt":1577,"stimulus":"bees-with-color/bee-B2DF.svg","response":0,"trial_type":"image-button-response","trial_index":81,"time_elapsed":635824,"internal_node_id":"0.0-4.0-0.37","subject_id":"612aad990e951a20d5ba78a2","study_id":"60edd13110225f80f9f3709b","session_id":"6196c4a381972c7d99b43d24","condition":"full-information","relevant_dimensions":["antennae","legs"],"bee_group":{"antennae":"A","wings":"X","pattern":"X","legs":"M"},"action":"harvest","summary":"good-harvest","bonus":0.06000000000000076},{"rt":1261,"stimulus":"\n                    <p><b>Action: <em>harvest</em></b></p>\n                    <p>This is the bee that you just saw.</p>\n                    <img src=\"bees-with-color/bee-B2DF.svg\" width=\"200\">\n                    <p><span class=\"greenText\"><b>Successful harvest!</b></span><br>Your pay has increased by $0.02. Your bonus pay is now $0.34.</p>\n            ","response":0,"trial_type":"html-button-response","trial_index":82,"time_elapsed":637087,"internal_node_id":"0.0-4.0-1.37","subject_id":"612aad990e951a20d5ba78a2","study_id":"60edd13110225f80f9f3709b","session_id":"6196c4a381972c7d99b43d24","condition":"full-information","relevant_dimensions":["antennae","legs"],"bee_group":{"antennae":"A","wings":"X","pattern":"X","legs":"M"},"bonus":0.06000000000000076},{"rt":1503,"stimulus":"bees-with-color/bee-B1DM.svg","response":0,"trial_type":"image-button-response","trial_index":83,"time_elapsed":638590,"internal_node_id":"0.0-4.0-0.38","subject_id":"612aad990e951a20d5ba78a2","study_id":"60edd13110225f80f9f3709b","session_id":"6196c4a381972c7d99b43d24","condition":"full-information","relevant_dimensions":["antennae","legs"],"bee_group":{"antennae":"A","wings":"X","pattern":"X","legs":"M"},"action":"harvest","summary":"good-harvest","bonus":0.06000000000000076},{"rt":1040,"stimulus":"\n                    <p><b>Action: <em>harvest</em></b></p>\n                    <p>This is the bee that you just saw.</p>\n                    <img src=\"bees-with-color/bee-B1DM.svg\" width=\"200\">\n                    <p><span class=\"greenText\"><b>Successful harvest!</b></span><br>Your pay has increased by $0.02. Your bonus pay is now $0.36.</p>\n            ","response":0,"trial_type":"html-button-response","trial_index":84,"time_elapsed":639630,"internal_node_id":"0.0-4.0-1.38","subject_id":"612aad990e951a20d5ba78a2","study_id":"60edd13110225f80f9f3709b","session_id":"6196c4a381972c7d99b43d24","condition":"full-information","relevant_dimensions":["antennae","legs"],"bee_group":{"antennae":"A","wings":"X","pattern":"X","legs":"M"},"bonus":0.06000000000000076},{"rt":1433,"stimulus":"bees-with-color/bee-A1DF.svg","response":0,"trial_type":"image-button-response","trial_index":85,"time_elapsed":641066,"internal_node_id":"0.0-4.0-0.39","subject_id":"612aad990e951a20d5ba78a2","study_id":"60edd13110225f80f9f3709b","session_id":"6196c4a381972c7d99b43d24","condition":"full-information","relevant_dimensions":["antennae","legs"],"bee_group":{"antennae":"A","wings":"X","pattern":"X","legs":"M"},"action":"harvest","summary":"good-harvest","bonus":0.06000000000000076},{"rt":1104,"stimulus":"\n                    <p><b>Action: <em>harvest</em></b></p>\n                    <p>This is the bee that you just saw.</p>\n                    <img src=\"bees-with-color/bee-A1DF.svg\" width=\"200\">\n                    <p><span class=\"greenText\"><b>Successful harvest!</b></span><br>Your pay has increased by $0.02. Your bonus pay is now $0.38.</p>\n            ","response":0,"trial_type":"html-button-response","trial_index":86,"time_elapsed":642170,"internal_node_id":"0.0-4.0-1.39","subject_id":"612aad990e951a20d5ba78a2","study_id":"60edd13110225f80f9f3709b","session_id":"6196c4a381972c7d99b43d24","condition":"full-information","relevant_dimensions":["antennae","legs"],"bee_group":{"antennae":"A","wings":"X","pattern":"X","legs":"M"},"bonus":0.06000000000000076},{"rt":3132,"stimulus":"bees-with-color/bee-A1SM.svg","response":1,"trial_type":"image-button-response","trial_index":87,"time_elapsed":645302,"internal_node_id":"0.0-4.0-0.40","subject_id":"612aad990e951a20d5ba78a2","study_id":"60edd13110225f80f9f3709b","session_id":"6196c4a381972c7d99b43d24","condition":"full-information","relevant_dimensions":["antennae","legs"],"bee_group":{"antennae":"A","wings":"X","pattern":"X","legs":"M"},"action":"avoid","summary":"good-avoid","bonus":0.06000000000000076},{"rt":1464,"stimulus":"\n                    <p><b>Action: <em>avoid</em></b></p>\n                    <p>This is the bee that you just saw.</p>\n                    <img src=\"bees-with-color/bee-A1SM.svg\" width=\"200\">\n                    <p><span class=\"greenText\">Good choice!</span>  This bee would have stung you.<br>Your bonus pay is unchanged, and remains at $0.38.</p>\n            ","response":0,"trial_type":"html-button-response","trial_index":88,"time_elapsed":646768,"internal_node_id":"0.0-4.0-1.40","subject_id":"612aad990e951a20d5ba78a2","study_id":"60edd13110225f80f9f3709b","session_id":"6196c4a381972c7d99b43d24","condition":"full-information","relevant_dimensions":["antennae","legs"],"bee_group":{"antennae":"A","wings":"X","pattern":"X","legs":"M"},"bonus":0.06000000000000076},{"rt":1349,"stimulus":"bees-with-color/bee-B1SF.svg","response":0,"trial_type":"image-button-response","trial_index":89,"time_elapsed":648119,"internal_node_id":"0.0-4.0-0.41","subject_id":"612aad990e951a20d5ba78a2","study_id":"60edd13110225f80f9f3709b","session_id":"6196c4a381972c7d99b43d24","condition":"full-information","relevant_dimensions":["antennae","legs"],"bee_group":{"antennae":"A","wings":"X","pattern":"X","legs":"M"},"action":"harvest","summary":"good-harvest","bonus":0.06000000000000076},{"rt":1182,"stimulus":"\n                    <p><b>Action: <em>harvest</em></b></p>\n                    <p>This is the bee that you just saw.</p>\n                    <img src=\"bees-with-color/bee-B1SF.svg\" width=\"200\">\n                    <p><span class=\"greenText\"><b>Successful harvest!</b></span><br>Your pay has increased by $0.02. Your bonus pay is now $0.40.</p>\n            ","response":0,"trial_type":"html-button-response","trial_index":90,"time_elapsed":649300,"internal_node_id":"0.0-4.0-1.41","subject_id":"612aad990e951a20d5ba78a2","study_id":"60edd13110225f80f9f3709b","session_id":"6196c4a381972c7d99b43d24","condition":"full-information","relevant_dimensions":["antennae","legs"],"bee_group":{"antennae":"A","wings":"X","pattern":"X","legs":"M"},"bonus":0.06000000000000076},{"rt":1150,"stimulus":"bees-with-color/bee-B2SM.svg","response":0,"trial_type":"image-button-response","trial_index":91,"time_elapsed":650452,"internal_node_id":"0.0-4.0-0.42","subject_id":"612aad990e951a20d5ba78a2","study_id":"60edd13110225f80f9f3709b","session_id":"6196c4a381972c7d99b43d24","condition":"full-information","relevant_dimensions":["antennae","legs"],"bee_group":{"antennae":"A","wings":"X","pattern":"X","legs":"M"},"action":"harvest","summary":"good-harvest","bonus":0.06000000000000076},{"rt":963,"stimulus":"\n                    <p><b>Action: <em>harvest</em></b></p>\n                    <p>This is the bee that you just saw.</p>\n                    <img src=\"bees-with-color/bee-B2SM.svg\" width=\"200\">\n                    <p><span class=\"greenText\"><b>Successful harvest!</b></span><br>Your pay has increased by $0.02. Your bonus pay is now $0.42.</p>\n            ","response":0,"trial_type":"html-button-response","trial_index":92,"time_elapsed":651416,"internal_node_id":"0.0-4.0-1.42","subject_id":"612aad990e951a20d5ba78a2","study_id":"60edd13110225f80f9f3709b","session_id":"6196c4a381972c7d99b43d24","condition":"full-information","relevant_dimensions":["antennae","legs"],"bee_group":{"antennae":"A","wings":"X","pattern":"X","legs":"M"},"bonus":0.06000000000000076},{"rt":3149,"stimulus":"bees-with-color/bee-A1SF.svg","response":1,"trial_type":"image-button-response","trial_index":93,"time_elapsed":654567,"internal_node_id":"0.0-4.0-0.43","subject_id":"612aad990e951a20d5ba78a2","study_id":"60edd13110225f80f9f3709b","session_id":"6196c4a381972c7d99b43d24","condition":"full-information","relevant_dimensions":["antennae","legs"],"bee_group":{"antennae":"A","wings":"X","pattern":"X","legs":"M"},"action":"avoid","summary":"bad-avoid","bonus":0.06000000000000076},{"rt":1131,"stimulus":"\n                    <p><b>Action: <em>avoid</em></b></p>\n                    <p>This is the bee that you just saw.</p>\n                    <img src=\"bees-with-color/bee-A1SF.svg\" width=\"200\">\n                    <p><span class=\"redText\">Bad choice,</span> the bee was friendly.<br>Your bonus pay is unchanged, and remains at $0.42.</p>\n            ","response":0,"trial_type":"html-button-response","trial_index":94,"time_elapsed":655698,"internal_node_id":"0.0-4.0-1.43","subject_id":"612aad990e951a20d5ba78a2","study_id":"60edd13110225f80f9f3709b","session_id":"6196c4a381972c7d99b43d24","condition":"full-information","relevant_dimensions":["antennae","legs"],"bee_group":{"antennae":"A","wings":"X","pattern":"X","legs":"M"},"bonus":0.06000000000000076},{"rt":2003,"stimulus":"bees-with-color/bee-B1SM.svg","response":0,"trial_type":"image-button-response","trial_index":95,"time_elapsed":657702,"internal_node_id":"0.0-4.0-0.44","subject_id":"612aad990e951a20d5ba78a2","study_id":"60edd13110225f80f9f3709b","session_id":"6196c4a381972c7d99b43d24","condition":"full-information","relevant_dimensions":["antennae","legs"],"bee_group":{"antennae":"A","wings":"X","pattern":"X","legs":"M"},"action":"harvest","summary":"good-harvest","bonus":0.06000000000000076},{"rt":968,"stimulus":"\n                    <p><b>Action: <em>harvest</em></b></p>\n                    <p>This is the bee that you just saw.</p>\n                    <img src=\"bees-with-color/bee-B1SM.svg\" width=\"200\">\n                    <p><span class=\"greenText\"><b>Successful harvest!</b></span><br>Your pay has increased by $0.02. Your bonus pay is now $0.44.</p>\n            ","response":0,"trial_type":"html-button-response","trial_index":96,"time_elapsed":658670,"internal_node_id":"0.0-4.0-1.44","subject_id":"612aad990e951a20d5ba78a2","study_id":"60edd13110225f80f9f3709b","session_id":"6196c4a381972c7d99b43d24","condition":"full-information","relevant_dimensions":["antennae","legs"],"bee_group":{"antennae":"A","wings":"X","pattern":"X","legs":"M"},"bonus":0.06000000000000076},{"rt":1459,"stimulus":"bees-with-color/bee-A1DM.svg","response":0,"trial_type":"image-button-response","trial_index":97,"time_elapsed":660130,"internal_node_id":"0.0-4.0-0.45","subject_id":"612aad990e951a20d5ba78a2","study_id":"60edd13110225f80f9f3709b","session_id":"6196c4a381972c7d99b43d24","condition":"full-information","relevant_dimensions":["antennae","legs"],"bee_group":{"antennae":"A","wings":"X","pattern":"X","legs":"M"},"action":"harvest","summary":"bad-harvest","bonus":0.06000000000000076},{"rt":4830,"stimulus":"\n                    <p><b>Action: <em>harvest</em></b></p>\n                    <p>This is the bee that you just saw.</p>\n                    <img src=\"bees-with-color/bee-A1DM.svg\" width=\"200\">\n                    <p><span class=\"redText\">Bad choice, the bee was angry.</span><br><b>You have been stung!</b><br>Your pay has been decreased by $0.10. Your bonus pay is now $0.34.</p>\n            ","response":0,"trial_type":"html-button-response","trial_index":98,"time_elapsed":664960,"internal_node_id":"0.0-4.0-1.45","subject_id":"612aad990e951a20d5ba78a2","study_id":"60edd13110225f80f9f3709b","session_id":"6196c4a381972c7d99b43d24","condition":"full-information","relevant_dimensions":["antennae","legs"],"bee_group":{"antennae":"A","wings":"X","pattern":"X","legs":"M"},"bonus":0.06000000000000076},{"rt":1833,"stimulus":"bees-with-color/bee-B1DF.svg","response":0,"trial_type":"image-button-response","trial_index":99,"time_elapsed":666796,"internal_node_id":"0.0-4.0-0.46","subject_id":"612aad990e951a20d5ba78a2","study_id":"60edd13110225f80f9f3709b","session_id":"6196c4a381972c7d99b43d24","condition":"full-information","relevant_dimensions":["antennae","legs"],"bee_group":{"antennae":"A","wings":"X","pattern":"X","legs":"M"},"action":"harvest","summary":"good-harvest","bonus":0.06000000000000076},{"rt":957,"stimulus":"\n                    <p><b>Action: <em>harvest</em></b></p>\n                    <p>This is the bee that you just saw.</p>\n                    <img src=\"bees-with-color/bee-B1DF.svg\" width=\"200\">\n                    <p><span class=\"greenText\"><b>Successful harvest!</b></span><br>Your pay has increased by $0.02. Your bonus pay is now $0.36.</p>\n            ","response":0,"trial_type":"html-button-response","trial_index":100,"time_elapsed":667754,"internal_node_id":"0.0-4.0-1.46","subject_id":"612aad990e951a20d5ba78a2","study_id":"60edd13110225f80f9f3709b","session_id":"6196c4a381972c7d99b43d24","condition":"full-information","relevant_dimensions":["antennae","legs"],"bee_group":{"antennae":"A","wings":"X","pattern":"X","legs":"M"},"bonus":0.06000000000000076},{"rt":3042,"stimulus":"bees-with-color/bee-A2DF.svg","response":1,"trial_type":"image-button-response","trial_index":101,"time_elapsed":670796,"internal_node_id":"0.0-4.0-0.47","subject_id":"612aad990e951a20d5ba78a2","study_id":"60edd13110225f80f9f3709b","session_id":"6196c4a381972c7d99b43d24","condition":"full-information","relevant_dimensions":["antennae","legs"],"bee_group":{"antennae":"A","wings":"X","pattern":"X","legs":"M"},"action":"avoid","summary":"bad-avoid","bonus":0.06000000000000076},{"rt":2647,"stimulus":"\n                    <p><b>Action: <em>avoid</em></b></p>\n                    <p>This is the bee that you just saw.</p>\n                    <img src=\"bees-with-color/bee-A2DF.svg\" width=\"200\">\n                    <p><span class=\"redText\">Bad choice,</span> the bee was friendly.<br>Your bonus pay is unchanged, and remains at $0.36.</p>\n            ","response":0,"trial_type":"html-button-response","trial_index":102,"time_elapsed":673444,"internal_node_id":"0.0-4.0-1.47","subject_id":"612aad990e951a20d5ba78a2","study_id":"60edd13110225f80f9f3709b","session_id":"6196c4a381972c7d99b43d24","condition":"full-information","relevant_dimensions":["antennae","legs"],"bee_group":{"antennae":"A","wings":"X","pattern":"X","legs":"M"},"bonus":0.06000000000000076},{"rt":1468,"stimulus":"bees-with-color/bee-B2SM.svg","response":0,"trial_type":"image-button-response","trial_index":103,"time_elapsed":674912,"internal_node_id":"0.0-4.0-0.48","subject_id":"612aad990e951a20d5ba78a2","study_id":"60edd13110225f80f9f3709b","session_id":"6196c4a381972c7d99b43d24","condition":"full-information","relevant_dimensions":["antennae","legs"],"bee_group":{"antennae":"A","wings":"X","pattern":"X","legs":"M"},"action":"harvest","summary":"good-harvest","bonus":0.06000000000000076},{"rt":1029,"stimulus":"\n                    <p><b>Action: <em>harvest</em></b></p>\n                    <p>This is the bee that you just saw.</p>\n                    <img src=\"bees-with-color/bee-B2SM.svg\" width=\"200\">\n                    <p><span class=\"greenText\"><b>Successful harvest!</b></span><br>Your pay has increased by $0.02. Your bonus pay is now $0.38.</p>\n            ","response":0,"trial_type":"html-button-response","trial_index":104,"time_elapsed":675942,"internal_node_id":"0.0-4.0-1.48","subject_id":"612aad990e951a20d5ba78a2","study_id":"60edd13110225f80f9f3709b","session_id":"6196c4a381972c7d99b43d24","condition":"full-information","relevant_dimensions":["antennae","legs"],"bee_group":{"antennae":"A","wings":"X","pattern":"X","legs":"M"},"bonus":0.06000000000000076},{"rt":3581,"stimulus":"bees-with-color/bee-A1DM.svg","response":0,"trial_type":"image-button-response","trial_index":105,"time_elapsed":679524,"internal_node_id":"0.0-4.0-0.49","subject_id":"612aad990e951a20d5ba78a2","study_id":"60edd13110225f80f9f3709b","session_id":"6196c4a381972c7d99b43d24","condition":"full-information","relevant_dimensions":["antennae","legs"],"bee_group":{"antennae":"A","wings":"X","pattern":"X","legs":"M"},"action":"harvest","summary":"bad-harvest","bonus":0.06000000000000076},{"rt":1299,"stimulus":"\n                    <p><b>Action: <em>harvest</em></b></p>\n                    <p>This is the bee that you just saw.</p>\n                    <img src=\"bees-with-color/bee-A1DM.svg\" width=\"200\">\n                    <p><span class=\"redText\">Bad choice, the bee was angry.</span><br><b>You have been stung!</b><br>Your pay has been decreased by $0.10. Your bonus pay is now $0.28.</p>\n            ","response":0,"trial_type":"html-button-response","trial_index":106,"time_elapsed":680824,"internal_node_id":"0.0-4.0-1.49","subject_id":"612aad990e951a20d5ba78a2","study_id":"60edd13110225f80f9f3709b","session_id":"6196c4a381972c7d99b43d24","condition":"full-information","relevant_dimensions":["antennae","legs"],"bee_group":{"antennae":"A","wings":"X","pattern":"X","legs":"M"},"bonus":0.06000000000000076},{"rt":2272,"stimulus":"bees-with-color/bee-A2DF.svg","response":1,"trial_type":"image-button-response","trial_index":107,"time_elapsed":683097,"internal_node_id":"0.0-4.0-0.50","subject_id":"612aad990e951a20d5ba78a2","study_id":"60edd13110225f80f9f3709b","session_id":"6196c4a381972c7d99b43d24","condition":"full-information","relevant_dimensions":["antennae","legs"],"bee_group":{"antennae":"A","wings":"X","pattern":"X","legs":"M"},"action":"avoid","summary":"bad-avoid","bonus":0.06000000000000076},{"rt":2279,"stimulus":"\n                    <p><b>Action: <em>avoid</em></b></p>\n                    <p>This is the bee that you just saw.</p>\n                    <img src=\"bees-with-color/bee-A2DF.svg\" width=\"200\">\n                    <p><span class=\"redText\">Bad choice,</span> the bee was friendly.<br>Your bonus pay is unchanged, and remains at $0.28.</p>\n            ","response":0,"trial_type":"html-button-response","trial_index":108,"time_elapsed":685376,"internal_node_id":"0.0-4.0-1.50","subject_id":"612aad990e951a20d5ba78a2","study_id":"60edd13110225f80f9f3709b","session_id":"6196c4a381972c7d99b43d24","condition":"full-information","relevant_dimensions":["antennae","legs"],"bee_group":{"antennae":"A","wings":"X","pattern":"X","legs":"M"},"bonus":0.06000000000000076},{"rt":6311,"stimulus":"bees-with-color/bee-B1SM.svg","response":0,"trial_type":"image-button-response","trial_index":109,"time_elapsed":691688,"internal_node_id":"0.0-4.0-0.51","subject_id":"612aad990e951a20d5ba78a2","study_id":"60edd13110225f80f9f3709b","session_id":"6196c4a381972c7d99b43d24","condition":"full-information","relevant_dimensions":["antennae","legs"],"bee_group":{"antennae":"A","wings":"X","pattern":"X","legs":"M"},"action":"harvest","summary":"good-harvest","bonus":0.06000000000000076},{"rt":1329,"stimulus":"\n                    <p><b>Action: <em>harvest</em></b></p>\n                    <p>This is the bee that you just saw.</p>\n                    <img src=\"bees-with-color/bee-B1SM.svg\" width=\"200\">\n                    <p><span class=\"greenText\"><b>Successful harvest!</b></span><br>Your pay has increased by $0.02. Your bonus pay is now $0.30.</p>\n            ","response":0,"trial_type":"html-button-response","trial_index":110,"time_elapsed":693018,"internal_node_id":"0.0-4.0-1.51","subject_id":"612aad990e951a20d5ba78a2","study_id":"60edd13110225f80f9f3709b","session_id":"6196c4a381972c7d99b43d24","condition":"full-information","relevant_dimensions":["antennae","legs"],"bee_group":{"antennae":"A","wings":"X","pattern":"X","legs":"M"},"bonus":0.06000000000000076},{"rt":2497,"stimulus":"bees-with-color/bee-A1SM.svg","response":1,"trial_type":"image-button-response","trial_index":111,"time_elapsed":695516,"internal_node_id":"0.0-4.0-0.52","subject_id":"612aad990e951a20d5ba78a2","study_id":"60edd13110225f80f9f3709b","session_id":"6196c4a381972c7d99b43d24","condition":"full-information","relevant_dimensions":["antennae","legs"],"bee_group":{"antennae":"A","wings":"X","pattern":"X","legs":"M"},"action":"avoid","summary":"good-avoid","bonus":0.06000000000000076},{"rt":1087,"stimulus":"\n                    <p><b>Action: <em>avoid</em></b></p>\n                    <p>This is the bee that you just saw.</p>\n                    <img src=\"bees-with-color/bee-A1SM.svg\" width=\"200\">\n                    <p><span class=\"greenText\">Good choice!</span>  This bee would have stung you.<br>Your bonus pay is unchanged, and remains at $0.30.</p>\n            ","response":0,"trial_type":"html-button-response","trial_index":112,"time_elapsed":696603,"internal_node_id":"0.0-4.0-1.52","subject_id":"612aad990e951a20d5ba78a2","study_id":"60edd13110225f80f9f3709b","session_id":"6196c4a381972c7d99b43d24","condition":"full-information","relevant_dimensions":["antennae","legs"],"bee_group":{"antennae":"A","wings":"X","pattern":"X","legs":"M"},"bonus":0.06000000000000076},{"rt":1175,"stimulus":"bees-with-color/bee-B1DF.svg","response":0,"trial_type":"image-button-response","trial_index":113,"time_elapsed":697780,"internal_node_id":"0.0-4.0-0.53","subject_id":"612aad990e951a20d5ba78a2","study_id":"60edd13110225f80f9f3709b","session_id":"6196c4a381972c7d99b43d24","condition":"full-information","relevant_dimensions":["antennae","legs"],"bee_group":{"antennae":"A","wings":"X","pattern":"X","legs":"M"},"action":"harvest","summary":"good-harvest","bonus":0.06000000000000076},{"rt":1153,"stimulus":"\n                    <p><b>Action: <em>harvest</em></b></p>\n                    <p>This is the bee that you just saw.</p>\n                    <img src=\"bees-with-color/bee-B1DF.svg\" width=\"200\">\n                    <p><span class=\"greenText\"><b>Successful harvest!</b></span><br>Your pay has increased by $0.02. Your bonus pay is now $0.32.</p>\n            ","response":0,"trial_type":"html-button-response","trial_index":114,"time_elapsed":698934,"internal_node_id":"0.0-4.0-1.53","subject_id":"612aad990e951a20d5ba78a2","study_id":"60edd13110225f80f9f3709b","session_id":"6196c4a381972c7d99b43d24","condition":"full-information","relevant_dimensions":["antennae","legs"],"bee_group":{"antennae":"A","wings":"X","pattern":"X","legs":"M"},"bonus":0.06000000000000076},{"rt":1123,"stimulus":"bees-with-color/bee-B2SF.svg","response":0,"trial_type":"image-button-response","trial_index":115,"time_elapsed":700058,"internal_node_id":"0.0-4.0-0.54","subject_id":"612aad990e951a20d5ba78a2","study_id":"60edd13110225f80f9f3709b","session_id":"6196c4a381972c7d99b43d24","condition":"full-information","relevant_dimensions":["antennae","legs"],"bee_group":{"antennae":"A","wings":"X","pattern":"X","legs":"M"},"action":"harvest","summary":"good-harvest","bonus":0.06000000000000076},{"rt":1085,"stimulus":"\n                    <p><b>Action: <em>harvest</em></b></p>\n                    <p>This is the bee that you just saw.</p>\n                    <img src=\"bees-with-color/bee-B2SF.svg\" width=\"200\">\n                    <p><span class=\"greenText\"><b>Successful harvest!</b></span><br>Your pay has increased by $0.02. Your bonus pay is now $0.34.</p>\n            ","response":0,"trial_type":"html-button-response","trial_index":116,"time_elapsed":701144,"internal_node_id":"0.0-4.0-1.54","subject_id":"612aad990e951a20d5ba78a2","study_id":"60edd13110225f80f9f3709b","session_id":"6196c4a381972c7d99b43d24","condition":"full-information","relevant_dimensions":["antennae","legs"],"bee_group":{"antennae":"A","wings":"X","pattern":"X","legs":"M"},"bonus":0.06000000000000076},{"rt":1357,"stimulus":"bees-with-color/bee-B2DM.svg","response":0,"trial_type":"image-button-response","trial_index":117,"time_elapsed":702502,"internal_node_id":"0.0-4.0-0.55","subject_id":"612aad990e951a20d5ba78a2","study_id":"60edd13110225f80f9f3709b","session_id":"6196c4a381972c7d99b43d24","condition":"full-information","relevant_dimensions":["antennae","legs"],"bee_group":{"antennae":"A","wings":"X","pattern":"X","legs":"M"},"action":"harvest","summary":"good-harvest","bonus":0.06000000000000076},{"rt":1139,"stimulus":"\n                    <p><b>Action: <em>harvest</em></b></p>\n                    <p>This is the bee that you just saw.</p>\n                    <img src=\"bees-with-color/bee-B2DM.svg\" width=\"200\">\n                    <p><span class=\"greenText\"><b>Successful harvest!</b></span><br>Your pay has increased by $0.02. Your bonus pay is now $0.36.</p>\n            ","response":0,"trial_type":"html-button-response","trial_index":118,"time_elapsed":703642,"internal_node_id":"0.0-4.0-1.55","subject_id":"612aad990e951a20d5ba78a2","study_id":"60edd13110225f80f9f3709b","session_id":"6196c4a381972c7d99b43d24","condition":"full-information","relevant_dimensions":["antennae","legs"],"bee_group":{"antennae":"A","wings":"X","pattern":"X","legs":"M"},"bonus":0.06000000000000076},{"rt":1823,"stimulus":"bees-with-color/bee-A2SF.svg","response":0,"trial_type":"image-button-response","trial_index":119,"time_elapsed":705466,"internal_node_id":"0.0-4.0-0.56","subject_id":"612aad990e951a20d5ba78a2","study_id":"60edd13110225f80f9f3709b","session_id":"6196c4a381972c7d99b43d24","condition":"full-information","relevant_dimensions":["antennae","legs"],"bee_group":{"antennae":"A","wings":"X","pattern":"X","legs":"M"},"action":"harvest","summary":"good-harvest","bonus":0.06000000000000076},{"rt":1325,"stimulus":"\n                    <p><b>Action: <em>harvest</em></b></p>\n                    <p>This is the bee that you just saw.</p>\n                    <img src=\"bees-with-color/bee-A2SF.svg\" width=\"200\">\n                    <p><span class=\"greenText\"><b>Successful harvest!</b></span><br>Your pay has increased by $0.02. Your bonus pay is now $0.38.</p>\n            ","response":0,"trial_type":"html-button-response","trial_index":120,"time_elapsed":706793,"internal_node_id":"0.0-4.0-1.56","subject_id":"612aad990e951a20d5ba78a2","study_id":"60edd13110225f80f9f3709b","session_id":"6196c4a381972c7d99b43d24","condition":"full-information","relevant_dimensions":["antennae","legs"],"bee_group":{"antennae":"A","wings":"X","pattern":"X","legs":"M"},"bonus":0.06000000000000076},{"rt":1471,"stimulus":"bees-with-color/bee-B1DM.svg","response":0,"trial_type":"image-button-response","trial_index":121,"time_elapsed":708266,"internal_node_id":"0.0-4.0-0.57","subject_id":"612aad990e951a20d5ba78a2","study_id":"60edd13110225f80f9f3709b","session_id":"6196c4a381972c7d99b43d24","condition":"full-information","relevant_dimensions":["antennae","legs"],"bee_group":{"antennae":"A","wings":"X","pattern":"X","legs":"M"},"action":"harvest","summary":"good-harvest","bonus":0.06000000000000076},{"rt":1941,"stimulus":"\n                    <p><b>Action: <em>harvest</em></b></p>\n                    <p>This is the bee that you just saw.</p>\n                    <img src=\"bees-with-color/bee-B1DM.svg\" width=\"200\">\n                    <p><span class=\"greenText\"><b>Successful harvest!</b></span><br>Your pay has increased by $0.02. Your bonus pay is now $0.40.</p>\n            ","response":0,"trial_type":"html-button-response","trial_index":122,"time_elapsed":710208,"internal_node_id":"0.0-4.0-1.57","subject_id":"612aad990e951a20d5ba78a2","study_id":"60edd13110225f80f9f3709b","session_id":"6196c4a381972c7d99b43d24","condition":"full-information","relevant_dimensions":["antennae","legs"],"bee_group":{"antennae":"A","wings":"X","pattern":"X","legs":"M"},"bonus":0.06000000000000076},{"rt":2597,"stimulus":"bees-with-color/bee-A1SF.svg","response":1,"trial_type":"image-button-response","trial_index":123,"time_elapsed":712806,"internal_node_id":"0.0-4.0-0.58","subject_id":"612aad990e951a20d5ba78a2","study_id":"60edd13110225f80f9f3709b","session_id":"6196c4a381972c7d99b43d24","condition":"full-information","relevant_dimensions":["antennae","legs"],"bee_group":{"antennae":"A","wings":"X","pattern":"X","legs":"M"},"action":"avoid","summary":"bad-avoid","bonus":0.06000000000000076},{"rt":1546,"stimulus":"\n                    <p><b>Action: <em>avoid</em></b></p>\n                    <p>This is the bee that you just saw.</p>\n                    <img src=\"bees-with-color/bee-A1SF.svg\" width=\"200\">\n                    <p><span class=\"redText\">Bad choice,</span> the bee was friendly.<br>Your bonus pay is unchanged, and remains at $0.40.</p>\n            ","response":0,"trial_type":"html-button-response","trial_index":124,"time_elapsed":714354,"internal_node_id":"0.0-4.0-1.58","subject_id":"612aad990e951a20d5ba78a2","study_id":"60edd13110225f80f9f3709b","session_id":"6196c4a381972c7d99b43d24","condition":"full-information","relevant_dimensions":["antennae","legs"],"bee_group":{"antennae":"A","wings":"X","pattern":"X","legs":"M"},"bonus":0.06000000000000076},{"rt":1155,"stimulus":"bees-with-color/bee-B2DF.svg","response":0,"trial_type":"image-button-response","trial_index":125,"time_elapsed":715510,"internal_node_id":"0.0-4.0-0.59","subject_id":"612aad990e951a20d5ba78a2","study_id":"60edd13110225f80f9f3709b","session_id":"6196c4a381972c7d99b43d24","condition":"full-information","relevant_dimensions":["antennae","legs"],"bee_group":{"antennae":"A","wings":"X","pattern":"X","legs":"M"},"action":"harvest","summary":"good-harvest","bonus":0.06000000000000076},{"rt":1854,"stimulus":"\n                    <p><b>Action: <em>harvest</em></b></p>\n                    <p>This is the bee that you just saw.</p>\n                    <img src=\"bees-with-color/bee-B2DF.svg\" width=\"200\">\n                    <p><span class=\"greenText\"><b>Successful harvest!</b></span><br>Your pay has increased by $0.02. Your bonus pay is now $0.42.</p>\n            ","response":0,"trial_type":"html-button-response","trial_index":126,"time_elapsed":717366,"internal_node_id":"0.0-4.0-1.59","subject_id":"612aad990e951a20d5ba78a2","study_id":"60edd13110225f80f9f3709b","session_id":"6196c4a381972c7d99b43d24","condition":"full-information","relevant_dimensions":["antennae","legs"],"bee_group":{"antennae":"A","wings":"X","pattern":"X","legs":"M"},"bonus":0.06000000000000076},{"rt":2173,"stimulus":"bees-with-color/bee-A1DF.svg","response":0,"trial_type":"image-button-response","trial_index":127,"time_elapsed":719540,"internal_node_id":"0.0-4.0-0.60","subject_id":"612aad990e951a20d5ba78a2","study_id":"60edd13110225f80f9f3709b","session_id":"6196c4a381972c7d99b43d24","condition":"full-information","relevant_dimensions":["antennae","legs"],"bee_group":{"antennae":"A","wings":"X","pattern":"X","legs":"M"},"action":"harvest","summary":"good-harvest","bonus":0.06000000000000076},{"rt":1295,"stimulus":"\n                    <p><b>Action: <em>harvest</em></b></p>\n                    <p>This is the bee that you just saw.</p>\n                    <img src=\"bees-with-color/bee-A1DF.svg\" width=\"200\">\n                    <p><span class=\"greenText\"><b>Successful harvest!</b></span><br>Your pay has increased by $0.02. Your bonus pay is now $0.44.</p>\n            ","response":0,"trial_type":"html-button-response","trial_index":128,"time_elapsed":720836,"internal_node_id":"0.0-4.0-1.60","subject_id":"612aad990e951a20d5ba78a2","study_id":"60edd13110225f80f9f3709b","session_id":"6196c4a381972c7d99b43d24","condition":"full-information","relevant_dimensions":["antennae","legs"],"bee_group":{"antennae":"A","wings":"X","pattern":"X","legs":"M"},"bonus":0.06000000000000076},{"rt":1971,"stimulus":"bees-with-color/bee-A2DM.svg","response":0,"trial_type":"image-button-response","trial_index":129,"time_elapsed":722808,"internal_node_id":"0.0-4.0-0.61","subject_id":"612aad990e951a20d5ba78a2","study_id":"60edd13110225f80f9f3709b","session_id":"6196c4a381972c7d99b43d24","condition":"full-information","relevant_dimensions":["antennae","legs"],"bee_group":{"antennae":"A","wings":"X","pattern":"X","legs":"M"},"action":"harvest","summary":"bad-harvest","bonus":0.06000000000000076},{"rt":2893,"stimulus":"\n                    <p><b>Action: <em>harvest</em></b></p>\n                    <p>This is the bee that you just saw.</p>\n                    <img src=\"bees-with-color/bee-A2DM.svg\" width=\"200\">\n                    <p><span class=\"redText\">Bad choice, the bee was angry.</span><br><b>You have been stung!</b><br>Your pay has been decreased by $0.10. Your bonus pay is now $0.34.</p>\n            ","response":0,"trial_type":"html-button-response","trial_index":130,"time_elapsed":725702,"internal_node_id":"0.0-4.0-1.61","subject_id":"612aad990e951a20d5ba78a2","study_id":"60edd13110225f80f9f3709b","session_id":"6196c4a381972c7d99b43d24","condition":"full-information","relevant_dimensions":["antennae","legs"],"bee_group":{"antennae":"A","wings":"X","pattern":"X","legs":"M"},"bonus":0.06000000000000076},{"rt":2779,"stimulus":"bees-with-color/bee-A2SM.svg","response":0,"trial_type":"image-button-response","trial_index":131,"time_elapsed":728482,"internal_node_id":"0.0-4.0-0.62","subject_id":"612aad990e951a20d5ba78a2","study_id":"60edd13110225f80f9f3709b","session_id":"6196c4a381972c7d99b43d24","condition":"full-information","relevant_dimensions":["antennae","legs"],"bee_group":{"antennae":"A","wings":"X","pattern":"X","legs":"M"},"action":"harvest","summary":"bad-harvest","bonus":0.06000000000000076},{"rt":1349,"stimulus":"\n                    <p><b>Action: <em>harvest</em></b></p>\n                    <p>This is the bee that you just saw.</p>\n                    <img src=\"bees-with-color/bee-A2SM.svg\" width=\"200\">\n                    <p><span class=\"redText\">Bad choice, the bee was angry.</span><br><b>You have been stung!</b><br>Your pay has been decreased by $0.10. Your bonus pay is now $0.24.</p>\n            ","response":0,"trial_type":"html-button-response","trial_index":132,"time_elapsed":729832,"internal_node_id":"0.0-4.0-1.62","subject_id":"612aad990e951a20d5ba78a2","study_id":"60edd13110225f80f9f3709b","session_id":"6196c4a381972c7d99b43d24","condition":"full-information","relevant_dimensions":["antennae","legs"],"bee_group":{"antennae":"A","wings":"X","pattern":"X","legs":"M"},"bonus":0.06000000000000076},{"rt":2623,"stimulus":"bees-with-color/bee-B1SF.svg","response":0,"trial_type":"image-button-response","trial_index":133,"time_elapsed":732456,"internal_node_id":"0.0-4.0-0.63","subject_id":"612aad990e951a20d5ba78a2","study_id":"60edd13110225f80f9f3709b","session_id":"6196c4a381972c7d99b43d24","condition":"full-information","relevant_dimensions":["antennae","legs"],"bee_group":{"antennae":"A","wings":"X","pattern":"X","legs":"M"},"action":"harvest","summary":"good-harvest","bonus":0.06000000000000076},{"rt":2073,"stimulus":"\n                    <p><b>Action: <em>harvest</em></b></p>\n                    <p>This is the bee that you just saw.</p>\n                    <img src=\"bees-with-color/bee-B1SF.svg\" width=\"200\">\n                    <p><span class=\"greenText\"><b>Successful harvest!</b></span><br>Your pay has increased by $0.02. Your bonus pay is now $0.26.</p>\n            ","response":0,"trial_type":"html-button-response","trial_index":134,"time_elapsed":734530,"internal_node_id":"0.0-4.0-1.63","subject_id":"612aad990e951a20d5ba78a2","study_id":"60edd13110225f80f9f3709b","session_id":"6196c4a381972c7d99b43d24","condition":"full-information","relevant_dimensions":["antennae","legs"],"bee_group":{"antennae":"A","wings":"X","pattern":"X","legs":"M"},"bonus":0.06000000000000076},{"rt":10880,"stimulus":"You have completed the first part of this experiment.<br><br>You will now begin a shorter second part, in which you will receive no feedback.<br>The same rules regarding bonus pay apply.<br><br>Press any key to begin.","response":" ","trial_type":"html-keyboard-response","trial_index":135,"time_elapsed":745411,"internal_node_id":"0.0-5.0","subject_id":"612aad990e951a20d5ba78a2","study_id":"60edd13110225f80f9f3709b","session_id":"6196c4a381972c7d99b43d24","condition":"full-information","relevant_dimensions":["antennae","legs"],"bee_group":{"antennae":"A","wings":"X","pattern":"X","legs":"M"},"bonus":0.06000000000000076},{"rt":9438,"stimulus":"bees-with-color/bee-B2DM.svg","response":0,"trial_type":"image-button-response","trial_index":136,"time_elapsed":754850,"internal_node_id":"0.0-6.0-0.0","subject_id":"612aad990e951a20d5ba78a2","study_id":"60edd13110225f80f9f3709b","session_id":"6196c4a381972c7d99b43d24","condition":"full-information","relevant_dimensions":["antennae","legs"],"bee_group":{"antennae":"A","wings":"X","pattern":"X","legs":"M"},"bonus":0.06000000000000076},{"rt":7545,"stimulus":"bees-with-color/bee-A1SF.svg","response":0,"trial_type":"image-button-response","trial_index":137,"time_elapsed":762396,"internal_node_id":"0.0-6.0-0.1","subject_id":"612aad990e951a20d5ba78a2","study_id":"60edd13110225f80f9f3709b","session_id":"6196c4a381972c7d99b43d24","condition":"full-information","relevant_dimensions":["antennae","legs"],"bee_group":{"antennae":"A","wings":"X","pattern":"X","legs":"M"},"bonus":0.06000000000000076},{"rt":2295,"stimulus":"bees-with-color/bee-B2DF.svg","response":1,"trial_type":"image-button-response","trial_index":138,"time_elapsed":764692,"internal_node_id":"0.0-6.0-0.2","subject_id":"612aad990e951a20d5ba78a2","study_id":"60edd13110225f80f9f3709b","session_id":"6196c4a381972c7d99b43d24","condition":"full-information","relevant_dimensions":["antennae","legs"],"bee_group":{"antennae":"A","wings":"X","pattern":"X","legs":"M"},"bonus":0.06000000000000076},{"rt":1585,"stimulus":"bees-with-color/bee-A2SM.svg","response":0,"trial_type":"image-button-response","trial_index":139,"time_elapsed":766278,"internal_node_id":"0.0-6.0-0.3","subject_id":"612aad990e951a20d5ba78a2","study_id":"60edd13110225f80f9f3709b","session_id":"6196c4a381972c7d99b43d24","condition":"full-information","relevant_dimensions":["antennae","legs"],"bee_group":{"antennae":"A","wings":"X","pattern":"X","legs":"M"},"bonus":0.06000000000000076},{"rt":425,"stimulus":"bees-with-color/bee-A2SF.svg","response":0,"trial_type":"image-button-response","trial_index":140,"time_elapsed":766704,"internal_node_id":"0.0-6.0-0.4","subject_id":"612aad990e951a20d5ba78a2","study_id":"60edd13110225f80f9f3709b","session_id":"6196c4a381972c7d99b43d24","condition":"full-information","relevant_dimensions":["antennae","legs"],"bee_group":{"antennae":"A","wings":"X","pattern":"X","legs":"M"},"bonus":0.06000000000000076},{"rt":489,"stimulus":"bees-with-color/bee-B1SF.svg","response":0,"trial_type":"image-button-response","trial_index":141,"time_elapsed":767193,"internal_node_id":"0.0-6.0-0.5","subject_id":"612aad990e951a20d5ba78a2","study_id":"60edd13110225f80f9f3709b","session_id":"6196c4a381972c7d99b43d24","condition":"full-information","relevant_dimensions":["antennae","legs"],"bee_group":{"antennae":"A","wings":"X","pattern":"X","legs":"M"},"bonus":0.06000000000000076},{"rt":927,"stimulus":"bees-with-color/bee-A1SM.svg","response":1,"trial_type":"image-button-response","trial_index":142,"time_elapsed":768122,"internal_node_id":"0.0-6.0-0.6","subject_id":"612aad990e951a20d5ba78a2","study_id":"60edd13110225f80f9f3709b","session_id":"6196c4a381972c7d99b43d24","condition":"full-information","relevant_dimensions":["antennae","legs"],"bee_group":{"antennae":"A","wings":"X","pattern":"X","legs":"M"},"bonus":0.06000000000000076},{"rt":727,"stimulus":"bees-with-color/bee-B2SF.svg","response":0,"trial_type":"image-button-response","trial_index":143,"time_elapsed":768850,"internal_node_id":"0.0-6.0-0.7","subject_id":"612aad990e951a20d5ba78a2","study_id":"60edd13110225f80f9f3709b","session_id":"6196c4a381972c7d99b43d24","condition":"full-information","relevant_dimensions":["antennae","legs"],"bee_group":{"antennae":"A","wings":"X","pattern":"X","legs":"M"},"bonus":0.06000000000000076},{"rt":481,"stimulus":"bees-with-color/bee-B1DF.svg","response":0,"trial_type":"image-button-response","trial_index":144,"time_elapsed":769332,"internal_node_id":"0.0-6.0-0.8","subject_id":"612aad990e951a20d5ba78a2","study_id":"60edd13110225f80f9f3709b","session_id":"6196c4a381972c7d99b43d24","condition":"full-information","relevant_dimensions":["antennae","legs"],"bee_group":{"antennae":"A","wings":"X","pattern":"X","legs":"M"},"bonus":0.06000000000000076},{"rt":2379,"stimulus":"bees-with-color/bee-B2SM.svg","response":0,"trial_type":"image-button-response","trial_index":145,"time_elapsed":771714,"internal_node_id":"0.0-6.0-0.9","subject_id":"612aad990e951a20d5ba78a2","study_id":"60edd13110225f80f9f3709b","session_id":"6196c4a381972c7d99b43d24","condition":"full-information","relevant_dimensions":["antennae","legs"],"bee_group":{"antennae":"A","wings":"X","pattern":"X","legs":"M"},"bonus":0.06000000000000076},{"rt":428,"stimulus":"bees-with-color/bee-A1DF.svg","response":0,"trial_type":"image-button-response","trial_index":146,"time_elapsed":772142,"internal_node_id":"0.0-6.0-0.10","subject_id":"612aad990e951a20d5ba78a2","study_id":"60edd13110225f80f9f3709b","session_id":"6196c4a381972c7d99b43d24","condition":"full-information","relevant_dimensions":["antennae","legs"],"bee_group":{"antennae":"A","wings":"X","pattern":"X","legs":"M"},"bonus":0.06000000000000076},{"rt":796,"stimulus":"bees-with-color/bee-B1SM.svg","response":1,"trial_type":"image-button-response","trial_index":147,"time_elapsed":772940,"internal_node_id":"0.0-6.0-0.11","subject_id":"612aad990e951a20d5ba78a2","study_id":"60edd13110225f80f9f3709b","session_id":"6196c4a381972c7d99b43d24","condition":"full-information","relevant_dimensions":["antennae","legs"],"bee_group":{"antennae":"A","wings":"X","pattern":"X","legs":"M"},"bonus":0.06000000000000076},{"rt":641,"stimulus":"bees-with-color/bee-A2DF.svg","response":0,"trial_type":"image-button-response","trial_index":148,"time_elapsed":773581,"internal_node_id":"0.0-6.0-0.12","subject_id":"612aad990e951a20d5ba78a2","study_id":"60edd13110225f80f9f3709b","session_id":"6196c4a381972c7d99b43d24","condition":"full-information","relevant_dimensions":["antennae","legs"],"bee_group":{"antennae":"A","wings":"X","pattern":"X","legs":"M"},"bonus":0.06000000000000076},{"rt":647,"stimulus":"bees-with-color/bee-A2DM.svg","response":0,"trial_type":"image-button-response","trial_index":149,"time_elapsed":774230,"internal_node_id":"0.0-6.0-0.13","subject_id":"612aad990e951a20d5ba78a2","study_id":"60edd13110225f80f9f3709b","session_id":"6196c4a381972c7d99b43d24","condition":"full-information","relevant_dimensions":["antennae","legs"],"bee_group":{"antennae":"A","wings":"X","pattern":"X","legs":"M"},"bonus":0.06000000000000076},{"rt":1214,"stimulus":"bees-with-color/bee-B1DM.svg","response":1,"trial_type":"image-button-response","trial_index":150,"time_elapsed":775444,"internal_node_id":"0.0-6.0-0.14","subject_id":"612aad990e951a20d5ba78a2","study_id":"60edd13110225f80f9f3709b","session_id":"6196c4a381972c7d99b43d24","condition":"full-information","relevant_dimensions":["antennae","legs"],"bee_group":{"antennae":"A","wings":"X","pattern":"X","legs":"M"},"bonus":0.06000000000000076},{"rt":734,"stimulus":"bees-with-color/bee-A1DM.svg","response":0,"trial_type":"image-button-response","trial_index":151,"time_elapsed":776180,"internal_node_id":"0.0-6.0-0.15","subject_id":"612aad990e951a20d5ba78a2","study_id":"60edd13110225f80f9f3709b","session_id":"6196c4a381972c7d99b43d24","condition":"full-information","relevant_dimensions":["antennae","legs"],"bee_group":{"antennae":"A","wings":"X","pattern":"X","legs":"M"},"bonus":0.06000000000000076},{"rt":255,"stimulus":"bees-with-color/bee-B1SF.svg","response":0,"trial_type":"image-button-response","trial_index":152,"time_elapsed":776436,"internal_node_id":"0.0-6.0-0.16","subject_id":"612aad990e951a20d5ba78a2","study_id":"60edd13110225f80f9f3709b","session_id":"6196c4a381972c7d99b43d24","condition":"full-information","relevant_dimensions":["antennae","legs"],"bee_group":{"antennae":"A","wings":"X","pattern":"X","legs":"M"},"bonus":0.06000000000000076},{"rt":253,"stimulus":"bees-with-color/bee-B2DF.svg","response":0,"trial_type":"image-button-response","trial_index":153,"time_elapsed":776689,"internal_node_id":"0.0-6.0-0.17","subject_id":"612aad990e951a20d5ba78a2","study_id":"60edd13110225f80f9f3709b","session_id":"6196c4a381972c7d99b43d24","condition":"full-information","relevant_dimensions":["antennae","legs"],"bee_group":{"antennae":"A","wings":"X","pattern":"X","legs":"M"},"bonus":0.06000000000000076},{"rt":233,"stimulus":"bees-with-color/bee-B2SF.svg","response":0,"trial_type":"image-button-response","trial_index":154,"time_elapsed":776922,"internal_node_id":"0.0-6.0-0.18","subject_id":"612aad990e951a20d5ba78a2","study_id":"60edd13110225f80f9f3709b","session_id":"6196c4a381972c7d99b43d24","condition":"full-information","relevant_dimensions":["antennae","legs"],"bee_group":{"antennae":"A","wings":"X","pattern":"X","legs":"M"},"bonus":0.06000000000000076},{"rt":215,"stimulus":"bees-with-color/bee-B1DF.svg","response":0,"trial_type":"image-button-response","trial_index":155,"time_elapsed":777138,"internal_node_id":"0.0-6.0-0.19","subject_id":"612aad990e951a20d5ba78a2","study_id":"60edd13110225f80f9f3709b","session_id":"6196c4a381972c7d99b43d24","condition":"full-information","relevant_dimensions":["antennae","legs"],"bee_group":{"antennae":"A","wings":"X","pattern":"X","legs":"M"},"bonus":0.06000000000000076},{"rt":553,"stimulus":"bees-with-color/bee-B2SM.svg","response":1,"trial_type":"image-button-response","trial_index":156,"time_elapsed":777694,"internal_node_id":"0.0-6.0-0.20","subject_id":"612aad990e951a20d5ba78a2","study_id":"60edd13110225f80f9f3709b","session_id":"6196c4a381972c7d99b43d24","condition":"full-information","relevant_dimensions":["antennae","legs"],"bee_group":{"antennae":"A","wings":"X","pattern":"X","legs":"M"},"bonus":0.06000000000000076},{"rt":673,"stimulus":"bees-with-color/bee-A1SM.svg","response":0,"trial_type":"image-button-response","trial_index":157,"time_elapsed":778368,"internal_node_id":"0.0-6.0-0.21","subject_id":"612aad990e951a20d5ba78a2","study_id":"60edd13110225f80f9f3709b","session_id":"6196c4a381972c7d99b43d24","condition":"full-information","relevant_dimensions":["antennae","legs"],"bee_group":{"antennae":"A","wings":"X","pattern":"X","legs":"M"},"bonus":0.06000000000000076},{"rt":227,"stimulus":"bees-with-color/bee-A2DM.svg","response":0,"trial_type":"image-button-response","trial_index":158,"time_elapsed":778595,"internal_node_id":"0.0-6.0-0.22","subject_id":"612aad990e951a20d5ba78a2","study_id":"60edd13110225f80f9f3709b","session_id":"6196c4a381972c7d99b43d24","condition":"full-information","relevant_dimensions":["antennae","legs"],"bee_group":{"antennae":"A","wings":"X","pattern":"X","legs":"M"},"bonus":0.06000000000000076},{"rt":258,"stimulus":"bees-with-color/bee-A1DF.svg","response":0,"trial_type":"image-button-response","trial_index":159,"time_elapsed":778853,"internal_node_id":"0.0-6.0-0.23","subject_id":"612aad990e951a20d5ba78a2","study_id":"60edd13110225f80f9f3709b","session_id":"6196c4a381972c7d99b43d24","condition":"full-information","relevant_dimensions":["antennae","legs"],"bee_group":{"antennae":"A","wings":"X","pattern":"X","legs":"M"},"bonus":0.06000000000000076},{"rt":291,"stimulus":"bees-with-color/bee-A2DF.svg","response":0,"trial_type":"image-button-response","trial_index":160,"time_elapsed":779145,"internal_node_id":"0.0-6.0-0.24","subject_id":"612aad990e951a20d5ba78a2","study_id":"60edd13110225f80f9f3709b","session_id":"6196c4a381972c7d99b43d24","condition":"full-information","relevant_dimensions":["antennae","legs"],"bee_group":{"antennae":"A","wings":"X","