[{"success":true,"trial_type":"fullscreen","trial_index":0,"time_elapsed":19137,"internal_node_id":"0.0-0.0","subject_id":"5eb2907c8aa2320009f2d5c2","study_id":"60edd13110225f80f9f3709b","session_id":"6196c70903c21a59248185a3","condition":"contingent","relevant_dimensions":["antennae","wings"],"bee_group":{"antennae":"A","wings":"2","pattern":"X","legs":"X"},"bonus":1.5000000000000009},{"success":true,"timeout":false,"failed_images":[],"failed_audio":[],"failed_video":[],"trial_type":"preload","trial_index":1,"time_elapsed":21207,"internal_node_id":"0.0-1.0","subject_id":"5eb2907c8aa2320009f2d5c2","study_id":"60edd13110225f80f9f3709b","session_id":"6196c70903c21a59248185a3","condition":"contingent","relevant_dimensions":["antennae","wings"],"bee_group":{"antennae":"A","wings":"2","pattern":"X","legs":"X"},"bonus":1.5000000000000009},{"rt":2725.4000000059605,"stimulus":"Welcome! Press any key to begin.","response":" ","trial_type":"html-keyboard-response","trial_index":2,"time_elapsed":23933,"internal_node_id":"0.0-2.0","subject_id":"5eb2907c8aa2320009f2d5c2","study_id":"60edd13110225f80f9f3709b","session_id":"6196c70903c21a59248185a3","condition":"contingent","relevant_dimensions":["antennae","wings"],"bee_group":{"antennae":"A","wings":"2","pattern":"X","legs":"X"},"bonus":1.5000000000000009},{"view_history":[{"page_index":0,"viewing_time":3945.5},{"page_index":1,"viewing_time":9064},{"page_index":2,"viewing_time":6460.200000017881},{"page_index":3,"viewing_time":12089.699999988079},{"page_index":4,"viewing_time":4350.199999988079},{"page_index":5,"viewing_time":8313.90000000596},{"page_index":6,"viewing_time":13794.09999999404},{"page_index":7,"viewing_time":6095.800000011921},{"page_index":8,"viewing_time":5276},{"page_index":9,"viewing_time":4938},{"page_index":10,"viewing_time":10672},{"page_index":11,"viewing_time":9730},{"page_index":12,"viewing_time":6762},{"page_index":13,"viewing_time":1356},{"page_index":14,"viewing_time":2410.0999999940395}],"rt":105257.80000001192,"trial_type":"instructions","trial_index":3,"time_elapsed":129192,"internal_node_id":"0.0-3.0-0.0","subject_id":"5eb2907c8aa2320009f2d5c2","study_id":"60edd13110225f80f9f3709b","session_id":"6196c70903c21a59248185a3","condition":"contingent","relevant_dimensions":["antennae","wings"],"bee_group":{"antennae":"A","wings":"2","pattern":"X","legs":"X"},"bonus":1.5000000000000009},{"rt":12754.800000011921,"response":{"Q0":["Two or six legs","Stripes or spots on body","Single or double wings","Antennae or no antennae"]},"question_order":[0],"trial_type":"survey-multi-select","trial_index":4,"time_elapsed":141953,"internal_node_id":"0.0-3.0-1.0","subject_id":"5eb2907c8aa2320009f2d5c2","study_id":"60edd13110225f80f9f3709b","session_id":"6196c70903c21a59248185a3","condition":"contingent","relevant_dimensions":["antennae","wings"],"bee_group":{"antennae":"A","wings":"2","pattern":"X","legs":"X"},"correct":true,"bonus":1.5000000000000009},{"rt":19429.09999999404,"response":{"Q1":"No.","Q2":"Based on the four features of the bee.","Q3":"You do not learn if it was friendly or dangerous, and do not alter your bonus."},"question_order":[0,1,2],"trial_type":"survey-multi-choice","trial_index":5,"time_elapsed":161388,"internal_node_id":"0.0-3.0-2.0","subject_id":"5eb2907c8aa2320009f2d5c2","study_id":"60edd13110225f80f9f3709b","session_id":"6196c70903c21a59248185a3","condition":"contingent","relevant_dimensions":["antennae","wings"],"bee_group":{"antennae":"A","wings":"2","pattern":"X","legs":"X"},"correct":true,"bonus":1.5000000000000009},{"rt":2964,"stimulus":"<p>Congrats, you got everything right<br>When you're ready, click the button below to continue to the experiment.</p>","response":0,"trial_type":"html-button-response","trial_index":6,"time_elapsed":164358,"internal_node_id":"0.0-3.0-3.0","subject_id":"5eb2907c8aa2320009f2d5c2","study_id":"60edd13110225f80f9f3709b","session_id":"6196c70903c21a59248185a3","condition":"contingent","relevant_dimensions":["antennae","wings"],"bee_group":{"antennae":"A","wings":"2","pattern":"X","legs":"X"},"bonus":1.5000000000000009},{"rt":3197.199999988079,"stimulus":"bees-with-color/bee-B1DF.svg","response":0,"trial_type":"image-button-response","trial_index":7,"time_elapsed":167558,"internal_node_id":"0.0-4.0-0.0","subject_id":"5eb2907c8aa2320009f2d5c2","study_id":"60edd13110225f80f9f3709b","session_id":"6196c70903c21a59248185a3","condition":"contingent","relevant_dimensions":["antennae","wings"],"bee_group":{"antennae":"A","wings":"2","pattern":"X","legs":"X"},"action":"harvest","summary":"good-harvest","bonus":1.5000000000000009},{"rt":52323,"stimulus":"\n                    <p><b>Action: <em>harvest</em></b></p>\n                    <p>This is the bee that you just saw.</p>\n                    <img src=\"bees-with-color/bee-B1DF.svg\" width=\"200\">\n                    <p><span class=\"greenText\"><b>Successful harvest!</b></span><br>Your pay has increased by $0.02. Your bonus pay is now $0.56.</p>\n            ","response":0,"trial_type":"html-button-response","trial_index":8,"time_elapsed":219884,"internal_node_id":"0.0-4.0-1.0","subject_id":"5eb2907c8aa2320009f2d5c2","study_id":"60edd13110225f80f9f3709b","session_id":"6196c70903c21a59248185a3","condition":"contingent","relevant_dimensions":["antennae","wings"],"bee_group":{"antennae":"A","wings":"2","pattern":"X","legs":"X"},"bonus":1.5000000000000009},{"rt":5703.699999988079,"stimulus":"bees-with-color/bee-A1DM.svg","response":0,"trial_type":"image-button-response","trial_index":9,"time_elapsed":225590,"internal_node_id":"0.0-4.0-0.1","subject_id":"5eb2907c8aa2320009f2d5c2","study_id":"60edd13110225f80f9f3709b","session_id":"6196c70903c21a59248185a3","condition":"contingent","relevant_dimensions":["antennae","wings"],"bee_group":{"antennae":"A","wings":"2","pattern":"X","legs":"X"},"action":"harvest","summary":"good-harvest","bonus":1.5000000000000009},{"rt":40845.89999997616,"stimulus":"\n                    <p><b>Action: <em>harvest</em></b></p>\n                    <p>This is the bee that you just saw.</p>\n                    <img src=\"bees-with-color/bee-A1DM.svg\" width=\"200\">\n                    <p><span class=\"greenText\"><b>Successful harvest!</b></span><br>Your pay has increased by $0.02. Your bonus pay is now $0.58.</p>\n            ","response":0,"trial_type":"html-button-response","trial_index":10,"time_elapsed":266438,"internal_node_id":"0.0-4.0-1.1","subject_id":"5eb2907c8aa2320009f2d5c2","study_id":"60edd13110225f80f9f3709b","session_id":"6196c70903c21a59248185a3","condition":"contingent","relevant_dimensions":["antennae","wings"],"bee_group":{"antennae":"A","wings":"2","pattern":"X","legs":"X"},"bonus":1.5000000000000009},{"rt":1779.4000000059605,"stimulus":"bees-with-color/bee-A2SF.svg","response":1,"trial_type":"image-button-response","trial_index":11,"time_elapsed":268220,"internal_node_id":"0.0-4.0-0.2","subject_id":"5eb2907c8aa2320009f2d5c2","study_id":"60edd13110225f80f9f3709b","session_id":"6196c70903c21a59248185a3","condition":"contingent","relevant_dimensions":["antennae","wings"],"bee_group":{"antennae":"A","wings":"2","pattern":"X","legs":"X"},"action":"avoid","summary":"good-avoid","bonus":1.5000000000000009},{"rt":2162.199999988079,"stimulus":"\n                    <p><b>Action: <em>avoid</em></b></p>\n                    <p>This is the bee that you just saw.</p>\n                    <img src=\"bees-with-color/bee-A2SF.svg\" width=\"200\">\n                    <p><br>Your bonus pay is unchanged, and remains at $0.58.</p>\n            ","response":0,"trial_type":"html-button-response","trial_index":12,"time_elapsed":270384,"internal_node_id":"0.0-4.0-1.2","subject_id":"5eb2907c8aa2320009f2d5c2","study_id":"60edd13110225f80f9f3709b","session_id":"6196c70903c21a59248185a3","condition":"contingent","relevant_dimensions":["antennae","wings"],"bee_group":{"antennae":"A","wings":"2","pattern":"X","legs":"X"},"bonus":1.5000000000000009},{"rt":1364.699999988079,"stimulus":"bees-with-color/bee-A2SM.svg","response":1,"trial_type":"image-button-response","trial_index":13,"time_elapsed":271750,"internal_node_id":"0.0-4.0-0.3","subject_id":"5eb2907c8aa2320009f2d5c2","study_id":"60edd13110225f80f9f3709b","session_id":"6196c70903c21a59248185a3","condition":"contingent","relevant_dimensions":["antennae","wings"],"bee_group":{"antennae":"A","wings":"2","pattern":"X","legs":"X"},"action":"avoid","summary":"good-avoid","bonus":1.5000000000000009},{"rt":844.5999999940395,"stimulus":"\n                    <p><b>Action: <em>avoid</em></b></p>\n                    <p>This is the bee that you just saw.</p>\n                    <img src=\"bees-with-color/bee-A2SM.svg\" width=\"200\">\n                    <p><br>Your bonus pay is unchanged, and remains at $0.58.</p>\n            ","response":0,"trial_type":"html-button-response","trial_index":14,"time_elapsed":272596,"internal_node_id":"0.0-4.0-1.3","subject_id":"5eb2907c8aa2320009f2d5c2","study_id":"60edd13110225f80f9f3709b","session_id":"6196c70903c21a59248185a3","condition":"contingent","relevant_dimensions":["antennae","wings"],"bee_group":{"antennae":"A","wings":"2","pattern":"X","legs":"X"},"bonus":1.5000000000000009},{"rt":1070.300000011921,"stimulus":"bees-with-color/bee-B1SF.svg","response":0,"trial_type":"image-button-response","trial_index":15,"time_elapsed":273667,"internal_node_id":"0.0-4.0-0.4","subject_id":"5eb2907c8aa2320009f2d5c2","study_id":"60edd13110225f80f9f3709b","session_id":"6196c70903c21a59248185a3","condition":"contingent","relevant_dimensions":["antennae","wings"],"bee_group":{"antennae":"A","wings":"2","pattern":"X","legs":"X"},"action":"harvest","summary":"good-harvest","bonus":1.5000000000000009},{"rt":28102.69999998808,"stimulus":"\n                    <p><b>Action: <em>harvest</em></b></p>\n                    <p>This is the bee that you just saw.</p>\n                    <img src=\"bees-with-color/bee-B1SF.svg\" width=\"200\">\n                    <p><span class=\"greenText\"><b>Successful harvest!</b></span><br>Your pay has increased by $0.02. Your bonus pay is now $0.60.</p>\n            ","response":0,"trial_type":"html-button-response","trial_index":16,"time_elapsed":301772,"internal_node_id":"0.0-4.0-1.4","subject_id":"5eb2907c8aa2320009f2d5c2","study_id":"60edd13110225f80f9f3709b","session_id":"6196c70903c21a59248185a3","condition":"contingent","relevant_dimensions":["antennae","wings"],"bee_group":{"antennae":"A","wings":"2","pattern":"X","legs":"X"},"bonus":1.5000000000000009},{"rt":1162.300000011921,"stimulus":"bees-with-color/bee-B1DM.svg","response":0,"trial_type":"image-button-response","trial_index":17,"time_elapsed":302936,"internal_node_id":"0.0-4.0-0.5","subject_id":"5eb2907c8aa2320009f2d5c2","study_id":"60edd13110225f80f9f3709b","session_id":"6196c70903c21a59248185a3","condition":"contingent","relevant_dimensions":["antennae","wings"],"bee_group":{"antennae":"A","wings":"2","pattern":"X","legs":"X"},"action":"harvest","summary":"good-harvest","bonus":1.5000000000000009},{"rt":27550.79999998212,"stimulus":"\n                    <p><b>Action: <em>harvest</em></b></p>\n                    <p>This is the bee that you just saw.</p>\n                    <img src=\"bees-with-color/bee-B1DM.svg\" width=\"200\">\n                    <p><span class=\"greenText\"><b>Successful harvest!</b></span><br>Your pay has increased by $0.02. Your bonus pay is now $0.62.</p>\n            ","response":0,"trial_type":"html-button-response","trial_index":18,"time_elapsed":330488,"internal_node_id":"0.0-4.0-1.5","subject_id":"5eb2907c8aa2320009f2d5c2","study_id":"60edd13110225f80f9f3709b","session_id":"6196c70903c21a59248185a3","condition":"contingent","relevant_dimensions":["antennae","wings"],"bee_group":{"antennae":"A","wings":"2","pattern":"X","legs":"X"},"bonus":1.5000000000000009},{"rt":1166,"stimulus":"bees-with-color/bee-B2SM.svg","response":1,"trial_type":"image-button-response","trial_index":19,"time_elapsed":331656,"internal_node_id":"0.0-4.0-0.6","subject_id":"5eb2907c8aa2320009f2d5c2","study_id":"60edd13110225f80f9f3709b","session_id":"6196c70903c21a59248185a3","condition":"contingent","relevant_dimensions":["antennae","wings"],"bee_group":{"antennae":"A","wings":"2","pattern":"X","legs":"X"},"action":"avoid","summary":"bad-avoid","bonus":1.5000000000000009},{"rt":936.5,"stimulus":"\n                    <p><b>Action: <em>avoid</em></b></p>\n                    <p>This is the bee that you just saw.</p>\n                    <img src=\"bees-with-color/bee-B2SM.svg\" width=\"200\">\n                    <p><br>Your bonus pay is unchanged, and remains at $0.62.</p>\n            ","response":0,"trial_type":"html-button-response","trial_index":20,"time_elapsed":332594,"internal_node_id":"0.0-4.0-1.6","subject_id":"5eb2907c8aa2320009f2d5c2","study_id":"60edd13110225f80f9f3709b","session_id":"6196c70903c21a59248185a3","condition":"contingent","relevant_dimensions":["antennae","wings"],"bee_group":{"antennae":"A","wings":"2","pattern":"X","legs":"X"},"bonus":1.5000000000000009},{"rt":1066.699999988079,"stimulus":"bees-with-color/bee-A1SF.svg","response":0,"trial_type":"image-button-response","trial_index":21,"time_elapsed":333662,"internal_node_id":"0.0-4.0-0.7","subject_id":"5eb2907c8aa2320009f2d5c2","study_id":"60edd13110225f80f9f3709b","session_id":"6196c70903c21a59248185a3","condition":"contingent","relevant_dimensions":["antennae","wings"],"bee_group":{"antennae":"A","wings":"2","pattern":"X","legs":"X"},"action":"harvest","summary":"good-harvest","bonus":1.5000000000000009},{"rt":37228.40000000596,"stimulus":"\n                    <p><b>Action: <em>harvest</em></b></p>\n                    <p>This is the bee that you just saw.</p>\n                    <img src=\"bees-with-color/bee-A1SF.svg\" width=\"200\">\n                    <p><span class=\"greenText\"><b>Successful harvest!</b></span><br>Your pay has increased by $0.02. Your bonus pay is now $0.64.</p>\n            ","response":0,"trial_type":"html-button-response","trial_index":22,"time_elapsed":370893,"internal_node_id":"0.0-4.0-1.7","subject_id":"5eb2907c8aa2320009f2d5c2","study_id":"60edd13110225f80f9f3709b","session_id":"6196c70903c21a59248185a3","condition":"contingent","relevant_dimensions":["antennae","wings"],"bee_group":{"antennae":"A","wings":"2","pattern":"X","legs":"X"},"bonus":1.5000000000000009},{"rt":1853.5,"stimulus":"bees-with-color/bee-A2DF.svg","response":1,"trial_type":"image-button-response","trial_index":23,"time_elapsed":372748,"internal_node_id":"0.0-4.0-0.8","subject_id":"5eb2907c8aa2320009f2d5c2","study_id":"60edd13110225f80f9f3709b","session_id":"6196c70903c21a59248185a3","condition":"contingent","relevant_dimensions":["antennae","wings"],"bee_group":{"antennae":"A","wings":"2","pattern":"X","legs":"X"},"action":"avoid","summary":"good-avoid","bonus":1.5000000000000009},{"rt":1016.5,"stimulus":"\n                    <p><b>Action: <em>avoid</em></b></p>\n                    <p>This is the bee that you just saw.</p>\n                    <img src=\"bees-with-color/bee-A2DF.svg\" width=\"200\">\n                    <p><br>Your bonus pay is unchanged, and remains at $0.64.</p>\n            ","response":0,"trial_type":"html-button-response","trial_index":24,"time_elapsed":373767,"internal_node_id":"0.0-4.0-1.8","subject_id":"5eb2907c8aa2320009f2d5c2","study_id":"60edd13110225f80f9f3709b","session_id":"6196c70903c21a59248185a3","condition":"contingent","relevant_dimensions":["antennae","wings"],"bee_group":{"antennae":"A","wings":"2","pattern":"X","legs":"X"},"bonus":1.5000000000000009},{"rt":686.6999999880791,"stimulus":"bees-with-color/bee-B2SF.svg","response":1,"trial_type":"image-button-response","trial_index":25,"time_elapsed":374455,"internal_node_id":"0.0-4.0-0.9","subject_id":"5eb2907c8aa2320009f2d5c2","study_id":"60edd13110225f80f9f3709b","session_id":"6196c70903c21a59248185a3","condition":"contingent","relevant_dimensions":["antennae","wings"],"bee_group":{"antennae":"A","wings":"2","pattern":"X","legs":"X"},"action":"avoid","summary":"bad-avoid","bonus":1.5000000000000009},{"rt":640.3999999761581,"stimulus":"\n                    <p><b>Action: <em>avoid</em></b></p>\n                    <p>This is the bee that you just saw.</p>\n                    <img src=\"bees-with-color/bee-B2SF.svg\" width=\"200\">\n                    <p><br>Your bonus pay is unchanged, and remains at $0.64.</p>\n            ","response":0,"trial_type":"html-button-response","trial_index":26,"time_elapsed":375097,"internal_node_id":"0.0-4.0-1.9","subject_id":"5eb2907c8aa2320009f2d5c2","study_id":"60edd13110225f80f9f3709b","session_id":"6196c70903c21a59248185a3","condition":"contingent","relevant_dimensions":["antennae","wings"],"bee_group":{"antennae":"A","wings":"2","pattern":"X","legs":"X"},"bonus":1.5000000000000009},{"rt":1436.199999988079,"stimulus":"bees-with-color/bee-B2DF.svg","response":1,"trial_type":"image-button-response","trial_index":27,"time_elapsed":376535,"internal_node_id":"0.0-4.0-0.10","subject_id":"5eb2907c8aa2320009f2d5c2","study_id":"60edd13110225f80f9f3709b","session_id":"6196c70903c21a59248185a3","condition":"contingent","relevant_dimensions":["antennae","wings"],"bee_group":{"antennae":"A","wings":"2","pattern":"X","legs":"X"},"action":"avoid","summary":"bad-avoid","bonus":1.5000000000000009},{"rt":588,"stimulus":"\n                    <p><b>Action: <em>avoid</em></b></p>\n                    <p>This is the bee that you just saw.</p>\n                    <img src=\"bees-with-color/bee-B2DF.svg\" width=\"200\">\n                    <p><br>Your bonus pay is unchanged, and remains at $0.64.</p>\n            ","response":0,"trial_type":"html-button-response","trial_index":28,"time_elapsed":377124,"internal_node_id":"0.0-4.0-1.10","subject_id":"5eb2907c8aa2320009f2d5c2","study_id":"60edd13110225f80f9f3709b","session_id":"6196c70903c21a59248185a3","condition":"contingent","relevant_dimensions":["antennae","wings"],"bee_group":{"antennae":"A","wings":"2","pattern":"X","legs":"X"},"bonus":1.5000000000000009},{"rt":824.9000000059605,"stimulus":"bees-with-color/bee-A1DF.svg","response":0,"trial_type":"image-button-response","trial_index":29,"time_elapsed":377950,"internal_node_id":"0.0-4.0-0.11","subject_id":"5eb2907c8aa2320009f2d5c2","study_id":"60edd13110225f80f9f3709b","session_id":"6196c70903c21a59248185a3","condition":"contingent","relevant_dimensions":["antennae","wings"],"bee_group":{"antennae":"A","wings":"2","pattern":"X","legs":"X"},"action":"harvest","summary":"good-harvest","bonus":1.5000000000000009},{"rt":28988.69999998808,"stimulus":"\n                    <p><b>Action: <em>harvest</em></b></p>\n                    <p>This is the bee that you just saw.</p>\n                    <img src=\"bees-with-color/bee-A1DF.svg\" width=\"200\">\n                    <p><span class=\"greenText\"><b>Successful harvest!</b></span><br>Your pay has increased by $0.02. Your bonus pay is now $0.66.</p>\n            ","response":0,"trial_type":"html-button-response","trial_index":30,"time_elapsed":406940,"internal_node_id":"0.0-4.0-1.11","subject_id":"5eb2907c8aa2320009f2d5c2","study_id":"60edd13110225f80f9f3709b","session_id":"6196c70903c21a59248185a3","condition":"contingent","relevant_dimensions":["antennae","wings"],"bee_group":{"antennae":"A","wings":"2","pattern":"X","legs":"X"},"bonus":1.5000000000000009},{"rt":1316.5,"stimulus":"bees-with-color/bee-A2DM.svg","response":1,"trial_type":"image-button-response","trial_index":31,"time_elapsed":408259,"internal_node_id":"0.0-4.0-0.12","subject_id":"5eb2907c8aa2320009f2d5c2","study_id":"60edd13110225f80f9f3709b","session_id":"6196c70903c21a59248185a3","condition":"contingent","relevant_dimensions":["antennae","wings"],"bee_group":{"antennae":"A","wings":"2","pattern":"X","legs":"X"},"action":"avoid","summary":"good-avoid","bonus":1.5000000000000009},{"rt":808.5999999940395,"stimulus":"\n                    <p><b>Action: <em>avoid</em></b></p>\n                    <p>This is the bee that you just saw.</p>\n                    <img src=\"bees-with-color/bee-A2DM.svg\" width=\"200\">\n                    <p><br>Your bonus pay is unchanged, and remains at $0.66.</p>\n            ","response":0,"trial_type":"html-button-response","trial_index":32,"time_elapsed":409069,"internal_node_id":"0.0-4.0-1.12","subject_id":"5eb2907c8aa2320009f2d5c2","study_id":"60edd13110225f80f9f3709b","session_id":"6196c70903c21a59248185a3","condition":"contingent","relevant_dimensions":["antennae","wings"],"bee_group":{"antennae":"A","wings":"2","pattern":"X","legs":"X"},"bonus":1.5000000000000009},{"rt":1458.4000000059605,"stimulus":"bees-with-color/bee-B2DM.svg","response":1,"trial_type":"image-button-response","trial_index":33,"time_elapsed":410528,"internal_node_id":"0.0-4.0-0.13","subject_id":"5eb2907c8aa2320009f2d5c2","study_id":"60edd13110225f80f9f3709b","session_id":"6196c70903c21a59248185a3","condition":"contingent","relevant_dimensions":["antennae","wings"],"bee_group":{"antennae":"A","wings":"2","pattern":"X","legs":"X"},"action":"avoid","summary":"bad-avoid","bonus":1.5000000000000009},{"rt":844.8000000119209,"stimulus":"\n                    <p><b>Action: <em>avoid</em></b></p>\n                    <p>This is the bee that you just saw.</p>\n                    <img src=\"bees-with-color/bee-B2DM.svg\" width=\"200\">\n                    <p><br>Your bonus pay is unchanged, and remains at $0.66.</p>\n            ","response":0,"trial_type":"html-button-response","trial_index":34,"time_elapsed":411375,"internal_node_id":"0.0-4.0-1.13","subject_id":"5eb2907c8aa2320009f2d5c2","study_id":"60edd13110225f80f9f3709b","session_id":"6196c70903c21a59248185a3","condition":"contingent","relevant_dimensions":["antennae","wings"],"bee_group":{"antennae":"A","wings":"2","pattern":"X","legs":"X"},"bonus":1.5000000000000009},{"rt":1700.699999988079,"stimulus":"bees-with-color/bee-A1SM.svg","response":0,"trial_type":"image-button-response","trial_index":35,"time_elapsed":413077,"internal_node_id":"0.0-4.0-0.14","subject_id":"5eb2907c8aa2320009f2d5c2","study_id":"60edd13110225f80f9f3709b","session_id":"6196c70903c21a59248185a3","condition":"contingent","relevant_dimensions":["antennae","wings"],"bee_group":{"antennae":"A","wings":"2","pattern":"X","legs":"X"},"action":"harvest","summary":"good-harvest","bonus":1.5000000000000009},{"rt":42430.30000001192,"stimulus":"\n                    <p><b>Action: <em>harvest</em></b></p>\n                    <p>This is the bee that you just saw.</p>\n                    <img src=\"bees-with-color/bee-A1SM.svg\" width=\"200\">\n                    <p><span class=\"greenText\"><b>Successful harvest!</b></span><br>Your pay has increased by $0.02. Your bonus pay is now $0.68.</p>\n            ","response":0,"trial_type":"html-button-response","trial_index":36,"time_elapsed":455508,"internal_node_id":"0.0-4.0-1.14","subject_id":"5eb2907c8aa2320009f2d5c2","study_id":"60edd13110225f80f9f3709b","session_id":"6196c70903c21a59248185a3","condition":"contingent","relevant_dimensions":["antennae","wings"],"bee_group":{"antennae":"A","wings":"2","pattern":"X","legs":"X"},"bonus":1.5000000000000009},{"rt":1604.199999988079,"stimulus":"bees-with-color/bee-B1SM.svg","response":0,"trial_type":"image-button-response","trial_index":37,"time_elapsed":457114,"internal_node_id":"0.0-4.0-0.15","subject_id":"5eb2907c8aa2320009f2d5c2","study_id":"60edd13110225f80f9f3709b","session_id":"6196c70903c21a59248185a3","condition":"contingent","relevant_dimensions":["antennae","wings"],"bee_group":{"antennae":"A","wings":"2","pattern":"X","legs":"X"},"action":"harvest","summary":"good-harvest","bonus":1.5000000000000009},{"rt":1326.8999999761581,"stimulus":"\n                    <p><b>Action: <em>harvest</em></b></p>\n                    <p>This is the bee that you just saw.</p>\n                    <img src=\"bees-with-color/bee-B1SM.svg\" width=\"200\">\n                    <p><span class=\"greenText\"><b>Successful harvest!</b></span><br>Your pay has increased by $0.02. Your bonus pay is now $0.70.</p>\n            ","response":0,"trial_type":"html-button-response","trial_index":38,"time_elapsed":458442,"internal_node_id":"0.0-4.0-1.15","subject_id":"5eb2907c8aa2320009f2d5c2","study_id":"60edd13110225f80f9f3709b","session_id":"6196c70903c21a59248185a3","condition":"contingent","relevant_dimensions":["antennae","wings"],"bee_group":{"antennae":"A","wings":"2","pattern":"X","legs":"X"},"bonus":1.5000000000000009},{"rt":618.5,"stimulus":"bees-with-color/bee-A2SM.svg","response":1,"trial_type":"image-button-response","trial_index":39,"time_elapsed":459062,"internal_node_id":"0.0-4.0-0.16","subject_id":"5eb2907c8aa2320009f2d5c2","study_id":"60edd13110225f80f9f3709b","session_id":"6196c70903c21a59248185a3","condition":"contingent","relevant_dimensions":["antennae","wings"],"bee_group":{"antennae":"A","wings":"2","pattern":"X","legs":"X"},"action":"avoid","summary":"good-avoid","bonus":1.5000000000000009},{"rt":679.1999999880791,"stimulus":"\n                    <p><b>Action: <em>avoid</em></b></p>\n                    <p>This is the bee that you just saw.</p>\n                    <img src=\"bees-with-color/bee-A2SM.svg\" width=\"200\">\n                    <p><br>Your bonus pay is unchanged, and remains at $0.70.</p>\n            ","response":0,"trial_type":"html-button-response","trial_index":40,"time_elapsed":459743,"internal_node_id":"0.0-4.0-1.16","subject_id":"5eb2907c8aa2320009f2d5c2","study_id":"60edd13110225f80f9f3709b","session_id":"6196c70903c21a59248185a3","condition":"contingent","relevant_dimensions":["antennae","wings"],"bee_group":{"antennae":"A","wings":"2","pattern":"X","legs":"X"},"bonus":1.5000000000000009},{"rt":796.1999999880791,"stimulus":"bees-with-color/bee-B1SF.svg","response":0,"trial_type":"image-button-response","trial_index":41,"time_elapsed":460542,"internal_node_id":"0.0-4.0-0.17","subject_id":"5eb2907c8aa2320009f2d5c2","study_id":"60edd13110225f80f9f3709b","session_id":"6196c70903c21a59248185a3","condition":"contingent","relevant_dimensions":["antennae","wings"],"bee_group":{"antennae":"A","wings":"2","pattern":"X","legs":"X"},"action":"harvest","summary":"good-harvest","bonus":1.5000000000000009},{"rt":742.5,"stimulus":"\n                    <p><b>Action: <em>harvest</em></b></p>\n                    <p>This is the bee that you just saw.</p>\n                    <img src=\"bees-with-color/bee-B1SF.svg\" width=\"200\">\n                    <p><span class=\"greenText\"><b>Successful harvest!</b></span><br>Your pay has increased by $0.02. Your bonus pay is now $0.72.</p>\n            ","response":0,"trial_type":"html-button-response","trial_index":42,"time_elapsed":461286,"internal_node_id":"0.0-4.0-1.17","subject_id":"5eb2907c8aa2320009f2d5c2","study_id":"60edd13110225f80f9f3709b","session_id":"6196c70903c21a59248185a3","condition":"contingent","relevant_dimensions":["antennae","wings"],"bee_group":{"antennae":"A","wings":"2","pattern":"X","legs":"X"},"bonus":1.5000000000000009},{"rt":602.5999999940395,"stimulus":"bees-with-color/bee-B2DF.svg","response":1,"trial_type":"image-button-response","trial_index":43,"time_elapsed":461890,"internal_node_id":"0.0-4.0-0.18","subject_id":"5eb2907c8aa2320009f2d5c2","study_id":"60edd13110225f80f9f3709b","session_id":"6196c70903c21a59248185a3","condition":"contingent","relevant_dimensions":["antennae","wings"],"bee_group":{"antennae":"A","wings":"2","pattern":"X","legs":"X"},"action":"avoid","summary":"bad-avoid","bonus":1.5000000000000009},{"rt":648.5999999940395,"stimulus":"\n                    <p><b>Action: <em>avoid</em></b></p>\n                    <p>This is the bee that you just saw.</p>\n                    <img src=\"bees-with-color/bee-B2DF.svg\" width=\"200\">\n                    <p><br>Your bonus pay is unchanged, and remains at $0.72.</p>\n            ","response":0,"trial_type":"html-button-response","trial_index":44,"time_elapsed":462540,"internal_node_id":"0.0-4.0-1.18","subject_id":"5eb2907c8aa2320009f2d5c2","study_id":"60edd13110225f80f9f3709b","session_id":"6196c70903c21a59248185a3","condition":"contingent","relevant_dimensions":["antennae","wings"],"bee_group":{"antennae":"A","wings":"2","pattern":"X","legs":"X"},"bonus":1.5000000000000009},{"rt":1026.800000011921,"stimulus":"bees-with-color/bee-A1DF.svg","response":0,"trial_type":"image-button-response","trial_index":45,"time_elapsed":463568,"internal_node_id":"0.0-4.0-0.19","subject_id":"5eb2907c8aa2320009f2d5c2","study_id":"60edd13110225f80f9f3709b","session_id":"6196c70903c21a59248185a3","condition":"contingent","relevant_dimensions":["antennae","wings"],"bee_group":{"antennae":"A","wings":"2","pattern":"X","legs":"X"},"action":"harvest","summary":"good-harvest","bonus":1.5000000000000009},{"rt":594.5,"stimulus":"\n                    <p><b>Action: <em>harvest</em></b></p>\n                    <p>This is the bee that you just saw.</p>\n                    <img src=\"bees-with-color/bee-A1DF.svg\" width=\"200\">\n                    <p><span class=\"greenText\"><b>Successful harvest!</b></span><br>Your pay has increased by $0.02. Your bonus pay is now $0.74.</p>\n            ","response":0,"trial_type":"html-button-response","trial_index":46,"time_elapsed":464164,"internal_node_id":"0.0-4.0-1.19","subject_id":"5eb2907c8aa2320009f2d5c2","study_id":"60edd13110225f80f9f3709b","session_id":"6196c70903c21a59248185a3","condition":"contingent","relevant_dimensions":["antennae","wings"],"bee_group":{"antennae":"A","wings":"2","pattern":"X","legs":"X"},"bonus":1.5000000000000009},{"rt":540.6999999880791,"stimulus":"bees-with-color/bee-A2DM.svg","response":1,"trial_type":"image-button-response","trial_index":47,"time_elapsed":464706,"internal_node_id":"0.0-4.0-0.20","subject_id":"5eb2907c8aa2320009f2d5c2","study_id":"60edd13110225f80f9f3709b","session_id":"6196c70903c21a59248185a3","condition":"contingent","relevant_dimensions":["antennae","wings"],"bee_group":{"antennae":"A","wings":"2","pattern":"X","legs":"X"},"action":"avoid","summary":"good-avoid","bonus":1.5000000000000009},{"rt":818.5,"stimulus":"\n                    <p><b>Action: <em>avoid</em></b></p>\n                    <p>This is the bee that you just saw.</p>\n                    <img src=\"bees-with-color/bee-A2DM.svg\" width=\"200\">\n                    <p><br>Your bonus pay is unchanged, and remains at $0.74.</p>\n            ","response":0,"trial_type":"html-button-response","trial_index":48,"time_elapsed":465526,"internal_node_id":"0.0-4.0-1.20","subject_id":"5eb2907c8aa2320009f2d5c2","study_id":"60edd13110225f80f9f3709b","session_id":"6196c70903c21a59248185a3","condition":"contingent","relevant_dimensions":["antennae","wings"],"bee_group":{"antennae":"A","wings":"2","pattern":"X","legs":"X"},"bonus":1.5000000000000009},{"rt":844.5999999940395,"stimulus":"bees-with-color/bee-A1DM.svg","response":0,"trial_type":"image-button-response","trial_index":49,"time_elapsed":466372,"internal_node_id":"0.0-4.0-0.21","subject_id":"5eb2907c8aa2320009f2d5c2","study_id":"60edd13110225f80f9f3709b","session_id":"6196c70903c21a59248185a3","condition":"contingent","relevant_dimensions":["antennae","wings"],"bee_group":{"antennae":"A","wings":"2","pattern":"X","legs":"X"},"action":"harvest","summary":"good-harvest","bonus":1.5000000000000009},{"rt":778.5,"stimulus":"\n                    <p><b>Action: <em>harvest</em></b></p>\n                    <p>This is the bee that you just saw.</p>\n                    <img src=\"bees-with-color/bee-A1DM.svg\" width=\"200\">\n                    <p><span class=\"greenText\"><b>Successful harvest!</b></span><br>Your pay has increased by $0.02. Your bonus pay is now $0.76.</p>\n            ","response":0,"trial_type":"html-button-response","trial_index":50,"time_elapsed":467152,"internal_node_id":"0.0-4.0-1.21","subject_id":"5eb2907c8aa2320009f2d5c2","study_id":"60edd13110225f80f9f3709b","session_id":"6196c70903c21a59248185a3","condition":"contingent","relevant_dimensions":["antennae","wings"],"bee_group":{"antennae":"A","wings":"2","pattern":"X","legs":"X"},"bonus":1.5000000000000009},{"rt":828.7999999821186,"stimulus":"bees-with-color/bee-B2SF.svg","response":1,"trial_type":"image-button-response","trial_index":51,"time_elapsed":467982,"internal_node_id":"0.0-4.0-0.22","subject_id":"5eb2907c8aa2320009f2d5c2","study_id":"60edd13110225f80f9f3709b","session_id":"6196c70903c21a59248185a3","condition":"contingent","relevant_dimensions":["antennae","wings"],"bee_group":{"antennae":"A","wings":"2","pattern":"X","legs":"X"},"action":"avoid","summary":"bad-avoid","bonus":1.5000000000000009},{"rt":596,"stimulus":"\n                    <p><b>Action: <em>avoid</em></b></p>\n                    <p>This is the bee that you just saw.</p>\n                    <img src=\"bees-with-color/bee-B2SF.svg\" width=\"200\">\n                    <p><br>Your bonus pay is unchanged, and remains at $0.76.</p>\n            ","response":0,"trial_type":"html-button-response","trial_index":52,"time_elapsed":468579,"internal_node_id":"0.0-4.0-1.22","subject_id":"5eb2907c8aa2320009f2d5c2","study_id":"60edd13110225f80f9f3709b","session_id":"6196c70903c21a59248185a3","condition":"contingent","relevant_dimensions":["antennae","wings"],"bee_group":{"antennae":"A","wings":"2","pattern":"X","legs":"X"},"bonus":1.5000000000000009},{"rt":638.9000000059605,"stimulus":"bees-with-color/bee-A1SM.svg","response":0,"trial_type":"image-button-response","trial_index":53,"time_elapsed":469219,"internal_node_id":"0.0-4.0-0.23","subject_id":"5eb2907c8aa2320009f2d5c2","study_id":"60edd13110225f80f9f3709b","session_id":"6196c70903c21a59248185a3","condition":"contingent","relevant_dimensions":["antennae","wings"],"bee_group":{"antennae":"A","wings":"2","pattern":"X","legs":"X"},"action":"harvest","summary":"good-harvest","bonus":1.5000000000000009},{"rt":682.7000000178814,"stimulus":"\n                    <p><b>Action: <em>harvest</em></b></p>\n                    <p>This is the bee that you just saw.</p>\n                    <img src=\"bees-with-color/bee-A1SM.svg\" width=\"200\">\n                    <p><span class=\"greenText\"><b>Successful harvest!</b></span><br>Your pay has increased by $0.02. Your bonus pay is now $0.78.</p>\n            ","response":0,"trial_type":"html-button-response","trial_index":54,"time_elapsed":469903,"internal_node_id":"0.0-4.0-1.23","subject_id":"5eb2907c8aa2320009f2d5c2","study_id":"60edd13110225f80f9f3709b","session_id":"6196c70903c21a59248185a3","condition":"contingent","relevant_dimensions":["antennae","wings"],"bee_group":{"antennae":"A","wings":"2","pattern":"X","legs":"X"},"bonus":1.5000000000000009},{"rt":1143,"stimulus":"bees-with-color/bee-A1SF.svg","response":0,"trial_type":"image-button-response","trial_index":55,"time_elapsed":471048,"internal_node_id":"0.0-4.0-0.24","subject_id":"5eb2907c8aa2320009f2d5c2","study_id":"60edd13110225f80f9f3709b","session_id":"6196c70903c21a59248185a3","condition":"contingent","relevant_dimensions":["antennae","wings"],"bee_group":{"antennae":"A","wings":"2","pattern":"X","legs":"X"},"action":"harvest","summary":"good-harvest","bonus":1.5000000000000009},{"rt":568.8000000119209,"stimulus":"\n                    <p><b>Action: <em>harvest</em></b></p>\n                    <p>This is the bee that you just saw.</p>\n                    <img src=\"bees-with-color/bee-A1SF.svg\" width=\"200\">\n                    <p><span class=\"greenText\"><b>Successful harvest!</b></span><br>Your pay has increased by $0.02. Your bonus pay is now $0.80.</p>\n            ","response":0,"trial_type":"html-button-response","trial_index":56,"time_elapsed":471618,"internal_node_id":"0.0-4.0-1.24","subject_id":"5eb2907c8aa2320009f2d5c2","study_id":"60edd13110225f80f9f3709b","session_id":"6196c70903c21a59248185a3","condition":"contingent","relevant_dimensions":["antennae","wings"],"bee_group":{"antennae":"A","wings":"2","pattern":"X","legs":"X"},"bonus":1.5000000000000009},{"rt":611,"stimulus":"bees-with-color/bee-A2SF.svg","response":1,"trial_type":"image-button-response","trial_index":57,"time_elapsed":472230,"internal_node_id":"0.0-4.0-0.25","subject_id":"5eb2907c8aa2320009f2d5c2","study_id":"60edd13110225f80f9f3709b","session_id":"6196c70903c21a59248185a3","condition":"contingent","relevant_dimensions":["antennae","wings"],"bee_group":{"antennae":"A","wings":"2","pattern":"X","legs":"X"},"action":"avoid","summary":"good-avoid","bonus":1.5000000000000009},{"rt":988.6999999880791,"stimulus":"\n                    <p><b>Action: <em>avoid</em></b></p>\n                    <p>This is the bee that you just saw.</p>\n                    <img src=\"bees-with-color/bee-A2SF.svg\" width=\"200\">\n                    <p><br>Your bonus pay is unchanged, and remains at $0.80.</p>\n            ","response":0,"trial_type":"html-button-response","trial_index":58,"time_elapsed":473220,"internal_node_id":"0.0-4.0-1.25","subject_id":"5eb2907c8aa2320009f2d5c2","study_id":"60edd13110225f80f9f3709b","session_id":"6196c70903c21a59248185a3","condition":"contingent","relevant_dimensions":["antennae","wings"],"bee_group":{"antennae":"A","wings":"2","pattern":"X","legs":"X"},"bonus":1.5000000000000009},{"rt":1012.9000000059605,"stimulus":"bees-with-color/bee-B1DF.svg","response":0,"trial_type":"image-button-response","trial_index":59,"time_elapsed":474234,"internal_node_id":"0.0-4.0-0.26","subject_id":"5eb2907c8aa2320009f2d5c2","study_id":"60edd13110225f80f9f3709b","session_id":"6196c70903c21a59248185a3","condition":"contingent","relevant_dimensions":["antennae","wings"],"bee_group":{"antennae":"A","wings":"2","pattern":"X","legs":"X"},"action":"harvest","summary":"good-harvest","bonus":1.5000000000000009},{"rt":686.0999999940395,"stimulus":"\n                    <p><b>Action: <em>harvest</em></b></p>\n                    <p>This is the bee that you just saw.</p>\n                    <img src=\"bees-with-color/bee-B1DF.svg\" width=\"200\">\n                    <p><span class=\"greenText\"><b>Successful harvest!</b></span><br>Your pay has increased by $0.02. Your bonus pay is now $0.82.</p>\n            ","response":0,"trial_type":"html-button-response","trial_index":60,"time_elapsed":474922,"internal_node_id":"0.0-4.0-1.26","subject_id":"5eb2907c8aa2320009f2d5c2","study_id":"60edd13110225f80f9f3709b","session_id":"6196c70903c21a59248185a3","condition":"contingent","relevant_dimensions":["antennae","wings"],"bee_group":{"antennae":"A","wings":"2","pattern":"X","legs":"X"},"bonus":1.5000000000000009},{"rt":746.7000000178814,"stimulus":"bees-with-color/bee-B2SM.svg","response":1,"trial_type":"image-button-response","trial_index":61,"time_elapsed":475670,"internal_node_id":"0.0-4.0-0.27","subject_id":"5eb2907c8aa2320009f2d5c2","study_id":"60edd13110225f80f9f3709b","session_id":"6196c70903c21a59248185a3","condition":"contingent","relevant_dimensions":["antennae","wings"],"bee_group":{"antennae":"A","wings":"2","pattern":"X","legs":"X"},"action":"avoid","summary":"bad-avoid","bonus":1.5000000000000009},{"rt":584.6999999880791,"stimulus":"\n                    <p><b>Action: <em>avoid</em></b></p>\n                    <p>This is the bee that you just saw.</p>\n                    <img src=\"bees-with-color/bee-B2SM.svg\" width=\"200\">\n                    <p><br>Your bonus pay is unchanged, and remains at $0.82.</p>\n            ","response":0,"trial_type":"html-button-response","trial_index":62,"time_elapsed":476256,"internal_node_id":"0.0-4.0-1.27","subject_id":"5eb2907c8aa2320009f2d5c2","study_id":"60edd13110225f80f9f3709b","session_id":"6196c70903c21a59248185a3","condition":"contingent","relevant_dimensions":["antennae","wings"],"bee_group":{"antennae":"A","wings":"2","pattern":"X","legs":"X"},"bonus":1.5000000000000009},{"rt":893,"stimulus":"bees-with-color/bee-B1SM.svg","response":0,"trial_type":"image-button-response","trial_index":63,"time_elapsed":477150,"internal_node_id":"0.0-4.0-0.28","subject_id":"5eb2907c8aa2320009f2d5c2","study_id":"60edd13110225f80f9f3709b","session_id":"6196c70903c21a59248185a3","condition":"contingent","relevant_dimensions":["antennae","wings"],"bee_group":{"antennae":"A","wings":"2","pattern":"X","legs":"X"},"action":"harvest","summary":"good-harvest","bonus":1.5000000000000009},{"rt":742.5,"stimulus":"\n                    <p><b>Action: <em>harvest</em></b></p>\n                    <p>This is the bee that you just saw.</p>\n                    <img src=\"bees-with-color/bee-B1SM.svg\" width=\"200\">\n                    <p><span class=\"greenText\"><b>Successful harvest!</b></span><br>Your pay has increased by $0.02. Your bonus pay is now $0.84.</p>\n            ","response":0,"trial_type":"html-button-response","trial_index":64,"time_elapsed":477894,"internal_node_id":"0.0-4.0-1.28","subject_id":"5eb2907c8aa2320009f2d5c2","study_id":"60edd13110225f80f9f3709b","session_id":"6196c70903c21a59248185a3","condition":"contingent","relevant_dimensions":["antennae","wings"],"bee_group":{"antennae":"A","wings":"2","pattern":"X","legs":"X"},"bonus":1.5000000000000009},{"rt":942.9000000059605,"stimulus":"bees-with-color/bee-B2DM.svg","response":1,"trial_type":"image-button-response","trial_index":65,"time_elapsed":478838,"internal_node_id":"0.0-4.0-0.29","subject_id":"5eb2907c8aa2320009f2d5c2","study_id":"60edd13110225f80f9f3709b","session_id":"6196c70903c21a59248185a3","condition":"contingent","relevant_dimensions":["antennae","wings"],"bee_group":{"antennae":"A","wings":"2","pattern":"X","legs":"X"},"action":"avoid","summary":"bad-avoid","bonus":1.5000000000000009},{"rt":550.5,"stimulus":"\n                    <p><b>Action: <em>avoid</em></b></p>\n                    <p>This is the bee that you just saw.</p>\n                    <img src=\"bees-with-color/bee-B2DM.svg\" width=\"200\">\n                    <p><br>Your bonus pay is unchanged, and remains at $0.84.</p>\n            ","response":0,"trial_type":"html-button-response","trial_index":66,"time_elapsed":479390,"internal_node_id":"0.0-4.0-1.29","subject_id":"5eb2907c8aa2320009f2d5c2","study_id":"60edd13110225f80f9f3709b","session_id":"6196c70903c21a59248185a3","condition":"contingent","relevant_dimensions":["antennae","wings"],"bee_group":{"antennae":"A","wings":"2","pattern":"X","legs":"X"},"bonus":1.5000000000000009},{"rt":868.5,"stimulus":"bees-with-color/bee-A2DF.svg","response":1,"trial_type":"image-button-response","trial_index":67,"time_elapsed":480260,"internal_node_id":"0.0-4.0-0.30","subject_id":"5eb2907c8aa2320009f2d5c2","study_id":"60edd13110225f80f9f3709b","session_id":"6196c70903c21a59248185a3","condition":"contingent","relevant_dimensions":["antennae","wings"],"bee_group":{"antennae":"A","wings":"2","pattern":"X","legs":"X"},"action":"avoid","summary":"good-avoid","bonus":1.5000000000000009},{"rt":512.5999999940395,"stimulus":"\n                    <p><b>Action: <em>avoid</em></b></p>\n                    <p>This is the bee that you just saw.</p>\n                    <img src=\"bees-with-color/bee-A2DF.svg\" width=\"200\">\n                    <p><br>Your bonus pay is unchanged, and remains at $0.84.</p>\n            ","response":0,"trial_type":"html-button-response","trial_index":68,"time_elapsed":480774,"internal_node_id":"0.0-4.0-1.30","subject_id":"5eb2907c8aa2320009f2d5c2","study_id":"60edd13110225f80f9f3709b","session_id":"6196c70903c21a59248185a3","condition":"contingent","relevant_dimensions":["antennae","wings"],"bee_group":{"antennae":"A","wings":"2","pattern":"X","legs":"X"},"bonus":1.5000000000000009},{"rt":978.6999999880791,"stimulus":"bees-with-color/bee-B1DM.svg","response":0,"trial_type":"image-button-response","trial_index":69,"time_elapsed":481754,"internal_node_id":"0.0-4.0-0.31","subject_id":"5eb2907c8aa2320009f2d5c2","study_id":"60edd13110225f80f9f3709b","session_id":"6196c70903c21a59248185a3","condition":"contingent","relevant_dimensions":["antennae","wings"],"bee_group":{"antennae":"A","wings":"2","pattern":"X","legs":"X"},"action":"harvest","summary":"good-harvest","bonus":1.5000000000000009},{"rt":596.4000000059605,"stimulus":"\n                    <p><b>Action: <em>harvest</em></b></p>\n                    <p>This is the bee that you just saw.</p>\n                    <img src=\"bees-with-color/bee-B1DM.svg\" width=\"200\">\n                    <p><span class=\"greenText\"><b>Successful harvest!</b></span><br>Your pay has increased by $0.02. Your bonus pay is now $0.86.</p>\n            ","response":0,"trial_type":"html-button-response","trial_index":70,"time_elapsed":482352,"internal_node_id":"0.0-4.0-1.31","subject_id":"5eb2907c8aa2320009f2d5c2","study_id":"60edd13110225f80f9f3709b","session_id":"6196c70903c21a59248185a3","condition":"contingent","relevant_dimensions":["antennae","wings"],"bee_group":{"antennae":"A","wings":"2","pattern":"X","legs":"X"},"bonus":1.5000000000000009},{"rt":820.5999999940395,"stimulus":"bees-with-color/bee-B2SF.svg","response":1,"trial_type":"image-button-response","trial_index":71,"time_elapsed":483174,"internal_node_id":"0.0-4.0-0.32","subject_id":"5eb2907c8aa2320009f2d5c2","study_id":"60edd13110225f80f9f3709b","session_id":"6196c70903c21a59248185a3","condition":"contingent","relevant_dimensions":["antennae","wings"],"bee_group":{"antennae":"A","wings":"2","pattern":"X","legs":"X"},"action":"avoid","summary":"bad-avoid","bonus":1.5000000000000009},{"rt":500.19999998807907,"stimulus":"\n                    <p><b>Action: <em>avoid</em></b></p>\n                    <p>This is the bee that you just saw.</p>\n                    <img src=\"bees-with-color/bee-B2SF.svg\" width=\"200\">\n                    <p><br>Your bonus pay is unchanged, and remains at $0.86.</p>\n            ","response":0,"trial_type":"html-button-response","trial_index":72,"time_elapsed":483676,"internal_node_id":"0.0-4.0-1.32","subject_id":"5eb2907c8aa2320009f2d5c2","study_id":"60edd13110225f80f9f3709b","session_id":"6196c70903c21a59248185a3","condition":"contingent","relevant_dimensions":["antennae","wings"],"bee_group":{"antennae":"A","wings":"2","pattern":"X","legs":"X"},"bonus":1.5000000000000009},{"rt":904.5999999940395,"stimulus":"bees-with-color/bee-A2DF.svg","response":1,"trial_type":"image-button-response","trial_index":73,"time_elapsed":484582,"internal_node_id":"0.0-4.0-0.33","subject_id":"5eb2907c8aa2320009f2d5c2","study_id":"60edd13110225f80f9f3709b","session_id":"6196c70903c21a59248185a3","condition":"contingent","relevant_dimensions":["antennae","wings"],"bee_group":{"antennae":"A","wings":"2","pattern":"X","legs":"X"},"action":"avoid","summary":"good-avoid","bonus":1.5000000000000009},{"rt":460.19999998807907,"stimulus":"\n                    <p><b>Action: <em>avoid</em></b></p>\n                    <p>This is the bee that you just saw.</p>\n                    <img src=\"bees-with-color/bee-A2DF.svg\" width=\"200\">\n                    <p><br>Your bonus pay is unchanged, and remains at $0.86.</p>\n            ","response":0,"trial_type":"html-button-response","trial_index":74,"time_elapsed":485044,"internal_node_id":"0.0-4.0-1.33","subject_id":"5eb2907c8aa2320009f2d5c2","study_id":"60edd13110225f80f9f3709b","session_id":"6196c70903c21a59248185a3","condition":"contingent","relevant_dimensions":["antennae","wings"],"bee_group":{"antennae":"A","wings":"2","pattern":"X","legs":"X"},"bonus":1.5000000000000009},{"rt":798.6999999880791,"stimulus":"bees-with-color/bee-A1DM.svg","response":0,"trial_type":"image-button-response","trial_index":75,"time_elapsed":485844,"internal_node_id":"0.0-4.0-0.34","subject_id":"5eb2907c8aa2320009f2d5c2","study_id":"60edd13110225f80f9f3709b","session_id":"6196c70903c21a59248185a3","condition":"contingent","relevant_dimensions":["antennae","wings"],"bee_group":{"antennae":"A","wings":"2","pattern":"X","legs":"X"},"action":"harvest","summary":"good-harvest","bonus":1.5000000000000009},{"rt":708.1999999880791,"stimulus":"\n                    <p><b>Action: <em>harvest</em></b></p>\n                    <p>This is the bee that you just saw.</p>\n                    <img src=\"bees-with-color/bee-A1DM.svg\" width=\"200\">\n                    <p><span class=\"greenText\"><b>Successful harvest!</b></span><br>Your pay has increased by $0.02. Your bonus pay is now $0.88.</p>\n            ","response":0,"trial_type":"html-button-response","trial_index":76,"time_elapsed":486554,"internal_node_id":"0.0-4.0-1.34","subject_id":"5eb2907c8aa2320009f2d5c2","study_id":"60edd13110225f80f9f3709b","session_id":"6196c70903c21a59248185a3","condition":"contingent","relevant_dimensions":["antennae","wings"],"bee_group":{"antennae":"A","wings":"2","pattern":"X","legs":"X"},"bonus":1.5000000000000009},{"rt":1178.5,"stimulus":"bees-with-color/bee-A1SM.svg","response":0,"trial_type":"image-button-response","trial_index":77,"time_elapsed":487734,"internal_node_id":"0.0-4.0-0.35","subject_id":"5eb2907c8aa2320009f2d5c2","study_id":"60edd13110225f80f9f3709b","session_id":"6196c70903c21a59248185a3","condition":"contingent","relevant_dimensions":["antennae","wings"],"bee_group":{"antennae":"A","wings":"2","pattern":"X","legs":"X"},"action":"harvest","summary":"good-harvest","bonus":1.5000000000000009},{"rt":488.5,"stimulus":"\n                    <p><b>Action: <em>harvest</em></b></p>\n                    <p>This is the bee that you just saw.</p>\n                    <img src=\"bees-with-color/bee-A1SM.svg\" width=\"200\">\n                    <p><span class=\"greenText\"><b>Successful harvest!</b></span><br>Your pay has increased by $0.02. Your bonus pay is now $0.90.</p>\n            ","response":0,"trial_type":"html-button-response","trial_index":78,"time_elapsed":488224,"internal_node_id":"0.0-4.0-1.35","subject_id":"5eb2907c8aa2320009f2d5c2","study_id":"60edd13110225f80f9f3709b","session_id":"6196c70903c21a59248185a3","condition":"contingent","relevant_dimensions":["antennae","wings"],"bee_group":{"antennae":"A","wings":"2","pattern":"X","legs":"X"},"bonus":1.5000000000000009},{"rt":916.3000000119209,"stimulus":"bees-with-color/bee-A1SF.svg","response":0,"trial_type":"image-button-response","trial_index":79,"time_elapsed":489142,"internal_node_id":"0.0-4.0-0.36","subject_id":"5eb2907c8aa2320009f2d5c2","study_id":"60edd13110225f80f9f3709b","session_id":"6196c70903c21a59248185a3","condition":"contingent","relevant_dimensions":["antennae","wings"],"bee_group":{"antennae":"A","wings":"2","pattern":"X","legs":"X"},"action":"harvest","summary":"good-harvest","bonus":1.5000000000000009},{"rt":2220.9000000059605,"stimulus":"\n                    <p><b>Action: <em>harvest</em></b></p>\n                    <p>This is the bee that you just saw.</p>\n                    <img src=\"bees-with-color/bee-A1SF.svg\" width=\"200\">\n                    <p><span class=\"greenText\"><b>Successful harvest!</b></span><br>Your pay has increased by $0.02. Your bonus pay is now $0.92.</p>\n            ","response":0,"trial_type":"html-button-response","trial_index":80,"time_elapsed":491364,"internal_node_id":"0.0-4.0-1.36","subject_id":"5eb2907c8aa2320009f2d5c2","study_id":"60edd13110225f80f9f3709b","session_id":"6196c70903c21a59248185a3","condition":"contingent","relevant_dimensions":["antennae","wings"],"bee_group":{"antennae":"A","wings":"2","pattern":"X","legs":"X"},"bonus":1.5000000000000009},{"rt":1066.8999999761581,"stimulus":"bees-with-color/bee-B2DM.svg","response":1,"trial_type":"image-button-response","trial_index":81,"time_elapsed":492432,"internal_node_id":"0.0-4.0-0.37","subject_id":"5eb2907c8aa2320009f2d5c2","study_id":"60edd13110225f80f9f3709b","session_id":"6196c70903c21a59248185a3","condition":"contingent","relevant_dimensions":["antennae","wings"],"bee_group":{"antennae":"A","wings":"2","pattern":"X","legs":"X"},"action":"avoid","summary":"bad-avoid","bonus":1.5000000000000009},{"rt":832.5,"stimulus":"\n                    <p><b>Action: <em>avoid</em></b></p>\n                    <p>This is the bee that you just saw.</p>\n                    <img src=\"bees-with-color/bee-B2DM.svg\" width=\"200\">\n                    <p><br>Your bonus pay is unchanged, and remains at $0.92.</p>\n            ","response":0,"trial_type":"html-button-response","trial_index":82,"time_elapsed":493266,"internal_node_id":"0.0-4.0-1.37","subject_id":"5eb2907c8aa2320009f2d5c2","study_id":"60edd13110225f80f9f3709b","session_id":"6196c70903c21a59248185a3","condition":"contingent","relevant_dimensions":["antennae","wings"],"bee_group":{"antennae":"A","wings":"2","pattern":"X","legs":"X"},"bonus":1.5000000000000009},{"rt":928.6999999880791,"stimulus":"bees-with-color/bee-B2SM.svg","response":1,"trial_type":"image-button-response","trial_index":83,"time_elapsed":494196,"internal_node_id":"0.0-4.0-0.38","subject_id":"5eb2907c8aa2320009f2d5c2","study_id":"60edd13110225f80f9f3709b","session_id":"6196c70903c21a59248185a3","condition":"contingent","relevant_dimensions":["antennae","wings"],"bee_group":{"antennae":"A","wings":"2","pattern":"X","legs":"X"},"action":"avoid","summary":"bad-avoid","bonus":1.5000000000000009},{"rt":576.6999999880791,"stimulus":"\n                    <p><b>Action: <em>avoid</em></b></p>\n                    <p>This is the bee that you just saw.</p>\n                    <img src=\"bees-with-color/bee-B2SM.svg\" width=\"200\">\n                    <p><br>Your bonus pay is unchanged, and remains at $0.92.</p>\n            ","response":0,"trial_type":"html-button-response","trial_index":84,"time_elapsed":494774,"internal_node_id":"0.0-4.0-1.38","subject_id":"5eb2907c8aa2320009f2d5c2","study_id":"60edd13110225f80f9f3709b","session_id":"6196c70903c21a59248185a3","condition":"contingent","relevant_dimensions":["antennae","wings"],"bee_group":{"antennae":"A","wings":"2","pattern":"X","legs":"X"},"bonus":1.5000000000000009},{"rt":894.5,"stimulus":"bees-with-color/bee-A2SF.svg","response":1,"trial_type":"image-button-response","trial_index":85,"time_elapsed":495670,"internal_node_id":"0.0-4.0-0.39","subject_id":"5eb2907c8aa2320009f2d5c2","study_id":"60edd13110225f80f9f3709b","session_id":"6196c70903c21a59248185a3","condition":"contingent","relevant_dimensions":["antennae","wings"],"bee_group":{"antennae":"A","wings":"2","pattern":"X","legs":"X"},"action":"avoid","summary":"good-avoid","bonus":1.5000000000000009},{"rt":638.6999999880791,"stimulus":"\n                    <p><b>Action: <em>avoid</em></b></p>\n                    <p>This is the bee that you just saw.</p>\n                    <img src=\"bees-with-color/bee-A2SF.svg\" width=\"200\">\n                    <p><br>Your bonus pay is unchanged, and remains at $0.92.</p>\n            ","response":0,"trial_type":"html-button-response","trial_index":86,"time_elapsed":496310,"internal_node_id":"0.0-4.0-1.39","subject_id":"5eb2907c8aa2320009f2d5c2","study_id":"60edd13110225f80f9f3709b","session_id":"6196c70903c21a59248185a3","condition":"contingent","relevant_dimensions":["antennae","wings"],"bee_group":{"antennae":"A","wings":"2","pattern":"X","legs":"X"},"bonus":1.5000000000000009},{"rt":1134.9000000059605,"stimulus":"bees-with-color/bee-B2DF.svg","response":1,"trial_type":"image-button-response","trial_index":87,"time_elapsed":497446,"internal_node_id":"0.0-4.0-0.40","subject_id":"5eb2907c8aa2320009f2d5c2","study_id":"60edd13110225f80f9f3709b","session_id":"6196c70903c21a59248185a3","condition":"contingent","relevant_dimensions":["antennae","wings"],"bee_group":{"antennae":"A","wings":"2","pattern":"X","legs":"X"},"action":"avoid","summary":"bad-avoid","bonus":1.5000000000000009},{"rt":434.59999999403954,"stimulus":"\n                    <p><b>Action: <em>avoid</em></b></p>\n                    <p>This is the bee that you just saw.</p>\n                    <img src=\"bees-with-color/bee-B2DF.svg\" width=\"200\">\n                    <p><br>Your bonus pay is unchanged, and remains at $0.92.</p>\n            ","response":0,"trial_type":"html-button-response","trial_index":88,"time_elapsed":497882,"internal_node_id":"0.0-4.0-1.40","subject_id":"5eb2907c8aa2320009f2d5c2","study_id":"60edd13110225f80f9f3709b","session_id":"6196c70903c21a59248185a3","condition":"contingent","relevant_dimensions":["antennae","wings"],"bee_group":{"antennae":"A","wings":"2","pattern":"X","legs":"X"},"bonus":1.5000000000000009},{"rt":694.5,"stimulus":"bees-with-color/bee-A2SM.svg","response":1,"trial_type":"image-button-response","trial_index":89,"time_elapsed":498578,"internal_node_id":"0.0-4.0-0.41","subject_id":"5eb2907c8aa2320009f2d5c2","study_id":"60edd13110225f80f9f3709b","session_id":"6196c70903c21a59248185a3","condition":"contingent","relevant_dimensions":["antennae","wings"],"bee_group":{"antennae":"A","wings":"2","pattern":"X","legs":"X"},"action":"avoid","summary":"good-avoid","bonus":1.5000000000000009},{"rt":570.6999999880791,"stimulus":"\n                    <p><b>Action: <em>avoid</em></b></p>\n                    <p>This is the bee that you just saw.</p>\n                    <img src=\"bees-with-color/bee-A2SM.svg\" width=\"200\">\n                    <p><br>Your bonus pay is unchanged, and remains at $0.92.</p>\n            ","response":0,"trial_type":"html-button-response","trial_index":90,"time_elapsed":499150,"internal_node_id":"0.0-4.0-1.41","subject_id":"5eb2907c8aa2320009f2d5c2","study_id":"60edd13110225f80f9f3709b","session_id":"6196c70903c21a59248185a3","condition":"contingent","relevant_dimensions":["antennae","wings"],"bee_group":{"antennae":"A","wings":"2","pattern":"X","legs":"X"},"bonus":1.5000000000000009},{"rt":660.8000000119209,"stimulus":"bees-with-color/bee-A2DM.svg","response":1,"trial_type":"image-button-response","trial_index":91,"time_elapsed":499812,"internal_node_id":"0.0-4.0-0.42","subject_id":"5eb2907c8aa2320009f2d5c2","study_id":"60edd13110225f80f9f3709b","session_id":"6196c70903c21a59248185a3","condition":"contingent","relevant_dimensions":["antennae","wings"],"bee_group":{"antennae":"A","wings":"2","pattern":"X","legs":"X"},"action":"avoid","summary":"good-avoid","bonus":1.5000000000000009},{"rt":448.69999998807907,"stimulus":"\n                    <p><b>Action: <em>avoid</em></b></p>\n                    <p>This is the bee that you just saw.</p>\n                    <img src=\"bees-with-color/bee-A2DM.svg\" width=\"200\">\n                    <p><br>Your bonus pay is unchanged, and remains at $0.92.</p>\n            ","response":0,"trial_type":"html-button-response","trial_index":92,"time_elapsed":500262,"internal_node_id":"0.0-4.0-1.42","subject_id":"5eb2907c8aa2320009f2d5c2","study_id":"60edd13110225f80f9f3709b","session_id":"6196c70903c21a59248185a3","condition":"contingent","relevant_dimensions":["antennae","wings"],"bee_group":{"antennae":"A","wings":"2","pattern":"X","legs":"X"},"bonus":1.5000000000000009},{"rt":1042.699999988079,"stimulus":"bees-with-color/bee-B1SM.svg","response":0,"trial_type":"image-button-response","trial_index":93,"time_elapsed":501306,"internal_node_id":"0.0-4.0-0.43","subject_id":"5eb2907c8aa2320009f2d5c2","study_id":"60edd13110225f80f9f3709b","session_id":"6196c70903c21a59248185a3","condition":"contingent","relevant_dimensions":["antennae","wings"],"bee_group":{"antennae":"A","wings":"2","pattern":"X","legs":"X"},"action":"harvest","summary":"good-harvest","bonus":1.5000000000000009},{"rt":450.5,"stimulus":"\n                    <p><b>Action: <em>harvest</em></b></p>\n                    <p>This is the bee that you just saw.</p>\n                    <img src=\"bees-with-color/bee-B1SM.svg\" width=\"200\">\n                    <p><span class=\"greenText\"><b>Successful harvest!</b></span><br>Your pay has increased by $0.02. Your bonus pay is now $0.94.</p>\n            ","response":0,"trial_type":"html-button-response","trial_index":94,"time_elapsed":501758,"internal_node_id":"0.0-4.0-1.43","subject_id":"5eb2907c8aa2320009f2d5c2","study_id":"60edd13110225f80f9f3709b","session_id":"6196c70903c21a59248185a3","condition":"contingent","relevant_dimensions":["antennae","wings"],"bee_group":{"antennae":"A","wings":"2","pattern":"X","legs":"X"},"bonus":1.5000000000000009},{"rt":626.7999999821186,"stimulus":"bees-with-color/bee-B1SF.svg","response":0,"trial_type":"image-button-response","trial_index":95,"time_elapsed":502386,"internal_node_id":"0.0-4.0-0.44","subject_id":"5eb2907c8aa2320009f2d5c2","study_id":"60edd13110225f80f9f3709b","session_id":"6196c70903c21a59248185a3","condition":"contingent","relevant_dimensions":["antennae","wings"],"bee_group":{"antennae":"A","wings":"2","pattern":"X","legs":"X"},"action":"harvest","summary":"good-harvest","bonus":1.5000000000000009},{"rt":572.4000000059605,"stimulus":"\n                    <p><b>Action: <em>harvest</em></b></p>\n                    <p>This is the bee that you just saw.</p>\n                    <img src=\"bees-with-color/bee-B1SF.svg\" width=\"200\">\n                    <p><span class=\"greenText\"><b>Successful harvest!</b></span><br>Your pay has increased by $0.02. Your bonus pay is now $0.96.</p>\n            ","response":0,"trial_type":"html-button-response","trial_index":96,"time_elapsed":502959,"internal_node_id":"0.0-4.0-1.44","subject_id":"5eb2907c8aa2320009f2d5c2","study_id":"60edd13110225f80f9f3709b","session_id":"6196c70903c21a59248185a3","condition":"contingent","relevant_dimensions":["antennae","wings"],"bee_group":{"antennae":"A","wings":"2","pattern":"X","legs":"X"},"bonus":1.5000000000000009},{"rt":761.0999999940395,"stimulus":"bees-with-color/bee-B1DF.svg","response":0,"trial_type":"image-button-response","trial_index":97,"time_elapsed":503722,"internal_node_id":"0.0-4.0-0.45","subject_id":"5eb2907c8aa2320009f2d5c2","study_id":"60edd13110225f80f9f3709b","session_id":"6196c70903c21a59248185a3","condition":"contingent","relevant_dimensions":["antennae","wings"],"bee_group":{"antennae":"A","wings":"2","pattern":"X","legs":"X"},"action":"harvest","summary":"good-harvest","bonus":1.5000000000000009},{"rt":728.5999999940395,"stimulus":"\n                    <p><b>Action: <em>harvest</em></b></p>\n                    <p>This is the bee that you just saw.</p>\n                    <img src=\"bees-with-color/bee-B1DF.svg\" width=\"200\">\n                    <p><span class=\"greenText\"><b>Successful harvest!</b></span><br>Your pay has increased by $0.02. Your bonus pay is now $0.98.</p>\n            ","response":0,"trial_type":"html-button-response","trial_index":98,"time_elapsed":504452,"internal_node_id":"0.0-4.0-1.45","subject_id":"5eb2907c8aa2320009f2d5c2","study_id":"60edd13110225f80f9f3709b","session_id":"6196c70903c21a59248185a3","condition":"contingent","relevant_dimensions":["antennae","wings"],"bee_group":{"antennae":"A","wings":"2","pattern":"X","legs":"X"},"bonus":1.5000000000000009},{"rt":699.5,"stimulus":"bees-with-color/bee-B1DM.svg","response":0,"trial_type":"image-button-response","trial_index":99,"time_elapsed":505154,"internal_node_id":"0.0-4.0-0.46","subject_id":"5eb2907c8aa2320009f2d5c2","study_id":"60edd13110225f80f9f3709b","session_id":"6196c70903c21a59248185a3","condition":"contingent","relevant_dimensions":["antennae","wings"],"bee_group":{"antennae":"A","wings":"2","pattern":"X","legs":"X"},"action":"harvest","summary":"good-harvest","bonus":1.5000000000000009},{"rt":554.6999999880791,"stimulus":"\n                    <p><b>Action: <em>harvest</em></b></p>\n                    <p>This is the bee that you just saw.</p>\n                    <img src=\"bees-with-color/bee-B1DM.svg\" width=\"200\">\n                    <p><span class=\"greenText\"><b>Successful harvest!</b></span><br>Your pay has increased by $0.02. Your bonus pay is now $1.00.</p>\n            ","response":0,"trial_type":"html-button-response","trial_index":100,"time_elapsed":505710,"internal_node_id":"0.0-4.0-1.46","subject_id":"5eb2907c8aa2320009f2d5c2","study_id":"60edd13110225f80f9f3709b","session_id":"6196c70903c21a59248185a3","condition":"contingent","relevant_dimensions":["antennae","wings"],"bee_group":{"antennae":"A","wings":"2","pattern":"X","legs":"X"},"bonus":1.5000000000000009},{"rt":794.6999999880791,"stimulus":"bees-with-color/bee-A1DF.svg","response":0,"trial_type":"image-button-response","trial_index":101,"time_elapsed":506506,"internal_node_id":"0.0-4.0-0.47","subject_id":"5eb2907c8aa2320009f2d5c2","study_id":"60edd13110225f80f9f3709b","session_id":"6196c70903c21a59248185a3","condition":"contingent","relevant_dimensions":["antennae","wings"],"bee_group":{"antennae":"A","wings":"2","pattern":"X","legs":"X"},"action":"harvest","summary":"good-harvest","bonus":1.5000000000000009},{"rt":564.2999999821186,"stimulus":"\n                    <p><b>Action: <em>harvest</em></b></p>\n                    <p>This is the bee that you just saw.</p>\n                    <img src=\"bees-with-color/bee-A1DF.svg\" width=\"200\">\n                    <p><span class=\"greenText\"><b>Successful harvest!</b></span><br>Your pay has increased by $0.02. Your bonus pay is now $1.02.</p>\n            ","response":0,"trial_type":"html-button-response","trial_index":102,"time_elapsed":507072,"internal_node_id":"0.0-4.0-1.47","subject_id":"5eb2907c8aa2320009f2d5c2","study_id":"60edd13110225f80f9f3709b","session_id":"6196c70903c21a59248185a3","condition":"contingent","relevant_dimensions":["antennae","wings"],"bee_group":{"antennae":"A","wings":"2","pattern":"X","legs":"X"},"bonus":1.5000000000000009},{"rt":812.6999999880791,"stimulus":"bees-with-color/bee-B1SF.svg","response":0,"trial_type":"image-button-response","trial_index":103,"time_elapsed":507886,"internal_node_id":"0.0-4.0-0.48","subject_id":"5eb2907c8aa2320009f2d5c2","study_id":"60edd13110225f80f9f3709b","session_id":"6196c70903c21a59248185a3","condition":"contingent","relevant_dimensions":["antennae","wings"],"bee_group":{"antennae":"A","wings":"2","pattern":"X","legs":"X"},"action":"harvest","summary":"good-harvest","bonus":1.5000000000000009},{"rt":592.4000000059605,"stimulus":"\n                    <p><b>Action: <em>harvest</em></b></p>\n                    <p>This is the bee that you just saw.</p>\n                    <img src=\"bees-with-color/bee-B1SF.svg\" width=\"200\">\n                    <p><span class=\"greenText\"><b>Successful harvest!</b></span><br>Your pay has increased by $0.02. Your bonus pay is now $1.04.</p>\n            ","response":0,"trial_type":"html-button-response","trial_index":104,"time_elapsed":508480,"internal_node_id":"0.0-4.0-1.48","subject_id":"5eb2907c8aa2320009f2d5c2","study_id":"60edd13110225f80f9f3709b","session_id":"6196c70903c21a59248185a3","condition":"contingent","relevant_dimensions":["antennae","wings"],"bee_group":{"antennae":"A","wings":"2","pattern":"X","legs":"X"},"bonus":1.5000000000000009},{"rt":920.6999999880791,"stimulus":"bees-with-color/bee-B2SM.svg","response":1,"trial_type":"image-button-response","trial_index":105,"time_elapsed":509402,"internal_node_id":"0.0-4.0-0.49","subject_id":"5eb2907c8aa2320009f2d5c2","study_id":"60edd13110225f80f9f3709b","session_id":"6196c70903c21a59248185a3","condition":"contingent","relevant_dimensions":["antennae","wings"],"bee_group":{"antennae":"A","wings":"2","pattern":"X","legs":"X"},"action":"avoid","summary":"bad-avoid","bonus":1.5000000000000009},{"rt":528.5999999940395,"stimulus":"\n                    <p><b>Action: <em>avoid</em></b></p>\n                    <p>This is the bee that you just saw.</p>\n                    <img src=\"bees-with-color/bee-B2SM.svg\" width=\"200\">\n                    <p><br>Your bonus pay is unchanged, and remains at $1.04.</p>\n            ","response":0,"trial_type":"html-button-response","trial_index":106,"time_elapsed":509932,"internal_node_id":"0.0-4.0-1.49","subject_id":"5eb2907c8aa2320009f2d5c2","study_id":"60edd13110225f80f9f3709b","session_id":"6196c70903c21a59248185a3","condition":"contingent","relevant_dimensions":["antennae","wings"],"bee_group":{"antennae":"A","wings":"2","pattern":"X","legs":"X"},"bonus":1.5000000000000009},{"rt":1204.5999999940395,"stimulus":"bees-with-color/bee-B1DF.svg","response":0,"trial_type":"image-button-response","trial_index":107,"time_elapsed":511138,"internal_node_id":"0.0-4.0-0.50","subject_id":"5eb2907c8aa2320009f2d5c2","study_id":"60edd13110225f80f9f3709b","session_id":"6196c70903c21a59248185a3","condition":"contingent","relevant_dimensions":["antennae","wings"],"bee_group":{"antennae":"A","wings":"2","pattern":"X","legs":"X"},"action":"harvest","summary":"good-harvest","bonus":1.5000000000000009},{"rt":1236.699999988079,"stimulus":"\n                    <p><b>Action: <em>harvest</em></b></p>\n                    <p>This is the bee that you just saw.</p>\n                    <img src=\"bees-with-color/bee-B1DF.svg\" width=\"200\">\n                    <p><span class=\"greenText\"><b>Successful harvest!</b></span><br>Your pay has increased by $0.02. Your bonus pay is now $1.06.</p>\n            ","response":0,"trial_type":"html-button-response","trial_index":108,"time_elapsed":512376,"internal_node_id":"0.0-4.0-1.50","subject_id":"5eb2907c8aa2320009f2d5c2","study_id":"60edd13110225f80f9f3709b","session_id":"6196c70903c21a59248185a3","condition":"contingent","relevant_dimensions":["antennae","wings"],"bee_group":{"antennae":"A","wings":"2","pattern":"X","legs":"X"},"bonus":1.5000000000000009},{"rt":876.8000000119209,"stimulus":"bees-with-color/bee-A1DF.svg","response":0,"trial_type":"image-button-response","trial_index":109,"time_elapsed":513254,"internal_node_id":"0.0-4.0-0.51","subject_id":"5eb2907c8aa2320009f2d5c2","study_id":"60edd13110225f80f9f3709b","session_id":"6196c70903c21a59248185a3","condition":"contingent","relevant_dimensions":["antennae","wings"],"bee_group":{"antennae":"A","wings":"2","pattern":"X","legs":"X"},"action":"harvest","summary":"good-harvest","bonus":1.5000000000000009},{"rt":504.80000001192093,"stimulus":"\n                    <p><b>Action: <em>harvest</em></b></p>\n                    <p>This is the bee that you just saw.</p>\n                    <img src=\"bees-with-color/bee-A1DF.svg\" width=\"200\">\n                    <p><span class=\"greenText\"><b>Successful harvest!</b></span><br>Your pay has increased by $0.02. Your bonus pay is now $1.08.</p>\n            ","response":0,"trial_type":"html-button-response","trial_index":110,"time_elapsed":513759,"internal_node_id":"0.0-4.0-1.51","subject_id":"5eb2907c8aa2320009f2d5c2","study_id":"60edd13110225f80f9f3709b","session_id":"6196c70903c21a59248185a3","condition":"contingent","relevant_dimensions":["antennae","wings"],"bee_group":{"antennae":"A","wings":"2","pattern":"X","legs":"X"},"bonus":1.5000000000000009},{"rt":738.8000000119209,"stimulus":"bees-with-color/bee-A1SF.svg","response":0,"trial_type":"image-button-response","trial_index":111,"time_elapsed":514499,"internal_node_id":"0.0-4.0-0.52","subject_id":"5eb2907c8aa2320009f2d5c2","study_id":"60edd13110225f80f9f3709b","session_id":"6196c70903c21a59248185a3","condition":"contingent","relevant_dimensions":["antennae","wings"],"bee_group":{"antennae":"A","wings":"2","pattern":"X","legs":"X"},"action":"harvest","summary":"good-harvest","bonus":1.5000000000000009},{"rt":617,"stimulus":"\n                    <p><b>Action: <em>harvest</em></b></p>\n                    <p>This is the bee that you just saw.</p>\n                    <img src=\"bees-with-color/bee-A1SF.svg\" width=\"200\">\n                    <p><span class=\"greenText\"><b>Successful harvest!</b></span><br>Your pay has increased by $0.02. Your bonus pay is now $1.10.</p>\n            ","response":0,"trial_type":"html-button-response","trial_index":112,"time_elapsed":515118,"internal_node_id":"0.0-4.0-1.52","subject_id":"5eb2907c8aa2320009f2d5c2","study_id":"60edd13110225f80f9f3709b","session_id":"6196c70903c21a59248185a3","condition":"contingent","relevant_dimensions":["antennae","wings"],"bee_group":{"antennae":"A","wings":"2","pattern":"X","legs":"X"},"bonus":1.5000000000000009},{"rt":607,"stimulus":"bees-with-color/bee-B1SM.svg","response":0,"trial_type":"image-button-response","trial_index":113,"time_elapsed":515726,"internal_node_id":"0.0-4.0-0.53","subject_id":"5eb2907c8aa2320009f2d5c2","study_id":"60edd13110225f80f9f3709b","session_id":"6196c70903c21a59248185a3","condition":"contingent","relevant_dimensions":["antennae","wings"],"bee_group":{"antennae":"A","wings":"2","pattern":"X","legs":"X"},"action":"harvest","summary":"good-harvest","bonus":1.5000000000000009},{"rt":608.7999999821186,"stimulus":"\n                    <p><b>Action: <em>harvest</em></b></p>\n                    <p>This is the bee that you just saw.</p>\n                    <img src=\"bees-with-color/bee-B1SM.svg\" width=\"200\">\n                    <p><span class=\"greenText\"><b>Successful harvest!</b></span><br>Your pay has increased by $0.02. Your bonus pay is now $1.12.</p>\n            ","response":0,"trial_type":"html-button-response","trial_index":114,"time_elapsed":516336,"internal_node_id":"0.0-4.0-1.53","subject_id":"5eb2907c8aa2320009f2d5c2","study_id":"60edd13110225f80f9f3709b","session_id":"6196c70903c21a59248185a3","condition":"contingent","relevant_dimensions":["antennae","wings"],"bee_group":{"antennae":"A","wings":"2","pattern":"X","legs":"X"},"bonus":1.5000000000000009},{"rt":754.6999999880791,"stimulus":"bees-with-color/bee-A2SF.svg","response":1,"trial_type":"image-button-response","trial_index":115,"time_elapsed":517092,"internal_node_id":"0.0-4.0-0.54","subject_id":"5eb2907c8aa2320009f2d5c2","study_id":"60edd13110225f80f9f3709b","session_id":"6196c70903c21a59248185a3","condition":"contingent","relevant_dimensions":["antennae","wings"],"bee_group":{"antennae":"A","wings":"2","pattern":"X","legs":"X"},"action":"avoid","summary":"good-avoid","bonus":1.5000000000000009},{"rt":412.80000001192093,"stimulus":"\n                    <p><b>Action: <em>avoid</em></b></p>\n                    <p>This is the bee that you just saw.</p>\n                    <img src=\"bees-with-color/bee-A2SF.svg\" width=\"200\">\n                    <p><br>Your bonus pay is unchanged, and remains at $1.12.</p>\n            ","response":0,"trial_type":"html-button-response","trial_index":116,"time_elapsed":517506,"internal_node_id":"0.0-4.0-1.54","subject_id":"5eb2907c8aa2320009f2d5c2","study_id":"60edd13110225f80f9f3709b","session_id":"6196c70903c21a59248185a3","condition":"contingent","relevant_dimensions":["antennae","wings"],"bee_group":{"antennae":"A","wings":"2","pattern":"X","legs":"X"},"bonus":1.5000000000000009},{"rt":806.5999999940395,"stimulus":"bees-with-color/bee-A2SM.svg","response":1,"trial_type":"image-button-response","trial_index":117,"time_elapsed":518314,"internal_node_id":"0.0-4.0-0.55","subject_id":"5eb2907c8aa2320009f2d5c2","study_id":"60edd13110225f80f9f3709b","session_id":"6196c70903c21a59248185a3","condition":"contingent","relevant_dimensions":["antennae","wings"],"bee_group":{"antennae":"A","wings":"2","pattern":"X","legs":"X"},"action":"avoid","summary":"good-avoid","bonus":1.5000000000000009},{"rt":354.59999999403954,"stimulus":"\n                    <p><b>Action: <em>avoid</em></b></p>\n                    <p>This is the bee that you just saw.</p>\n                    <img src=\"bees-with-color/bee-A2SM.svg\" width=\"200\">\n                    <p><br>Your bonus pay is unchanged, and remains at $1.12.</p>\n            ","response":0,"trial_type":"html-button-response","trial_index":118,"time_elapsed":518670,"internal_node_id":"0.0-4.0-1.55","subject_id":"5eb2907c8aa2320009f2d5c2","study_id":"60edd13110225f80f9f3709b","session_id":"6196c70903c21a59248185a3","condition":"contingent","relevant_dimensions":["antennae","wings"],"bee_group":{"antennae":"A","wings":"2","pattern":"X","legs":"X"},"bonus":1.5000000000000009},{"rt":768.9000000059605,"stimulus":"bees-with-color/bee-A1SM.svg","response":0,"trial_type":"image-button-response","trial_index":119,"time_elapsed":519440,"internal_node_id":"0.0-4.0-0.56","subject_id":"5eb2907c8aa2320009f2d5c2","study_id":"60edd13110225f80f9f3709b","session_id":"6196c70903c21a59248185a3","condition":"contingent","relevant_dimensions":["antennae","wings"],"bee_group":{"antennae":"A","wings":"2","pattern":"X","legs":"X"},"action":"harvest","summary":"good-harvest","bonus":1.5000000000000009},{"rt":508.5,"stimulus":"\n                    <p><b>Action: <em>harvest</em></b></p>\n                    <p>This is the bee that you just saw.</p>\n                    <img src=\"bees-with-color/bee-A1SM.svg\" width=\"200\">\n                    <p><span class=\"greenText\"><b>Successful harvest!</b></span><br>Your pay has increased by $0.02. Your bonus pay is now $1.14.</p>\n            ","response":0,"trial_type":"html-button-response","trial_index":120,"time_elapsed":519950,"internal_node_id":"0.0-4.0-1.56","subject_id":"5eb2907c8aa2320009f2d5c2","study_id":"60edd13110225f80f9f3709b","session_id":"6196c70903c21a59248185a3","condition":"contingent","relevant_dimensions":["antennae","wings"],"bee_group":{"antennae":"A","wings":"2","pattern":"X","legs":"X"},"bonus":1.5000000000000009},{"rt":758.8000000119209,"stimulus":"bees-with-color/bee-B2DM.svg","response":1,"trial_type":"image-button-response","trial_index":121,"time_elapsed":520710,"internal_node_id":"0.0-4.0-0.57","subject_id":"5eb2907c8aa2320009f2d5c2","study_id":"60edd13110225f80f9f3709b","session_id":"6196c70903c21a59248185a3","condition":"contingent","relevant_dimensions":["antennae","wings"],"bee_group":{"antennae":"A","wings":"2","pattern":"X","legs":"X"},"action":"avoid","summary":"bad-avoid","bonus":1.5000000000000009},{"rt":742.8000000119209,"stimulus":"\n                    <p><b>Action: <em>avoid</em></b></p>\n                    <p>This is the bee that you just saw.</p>\n                    <img src=\"bees-with-color/bee-B2DM.svg\" width=\"200\">\n                    <p><br>Your bonus pay is unchanged, and remains at $1.14.</p>\n            ","response":0,"trial_type":"html-button-response","trial_index":122,"time_elapsed":521454,"internal_node_id":"0.0-4.0-1.57","subject_id":"5eb2907c8aa2320009f2d5c2","study_id":"60edd13110225f80f9f3709b","session_id":"6196c70903c21a59248185a3","condition":"contingent","relevant_dimensions":["antennae","wings"],"bee_group":{"antennae":"A","wings":"2","pattern":"X","legs":"X"},"bonus":1.5000000000000009},{"rt":782.8000000119209,"stimulus":"bees-with-color/bee-A1DM.svg","response":0,"trial_type":"image-button-response","trial_index":123,"time_elapsed":522238,"internal_node_id":"0.0-4.0-0.58","subject_id":"5eb2907c8aa2320009f2d5c2","study_id":"60edd13110225f80f9f3709b","session_id":"6196c70903c21a59248185a3","condition":"contingent","relevant_dimensions":["antennae","wings"],"bee_group":{"antennae":"A","wings":"2","pattern":"X","legs":"X"},"action":"harvest","summary":"good-harvest","bonus":1.5000000000000009},{"rt":452.59999999403954,"stimulus":"\n                    <p><b>Action: <em>harvest</em></b></p>\n                    <p>This is the bee that you just saw.</p>\n                    <img src=\"bees-with-color/bee-A1DM.svg\" width=\"200\">\n                    <p><span class=\"greenText\"><b>Successful harvest!</b></span><br>Your pay has increased by $0.02. Your bonus pay is now $1.16.</p>\n            ","response":0,"trial_type":"html-button-response","trial_index":124,"time_elapsed":522692,"internal_node_id":"0.0-4.0-1.58","subject_id":"5eb2907c8aa2320009f2d5c2","study_id":"60edd13110225f80f9f3709b","session_id":"6196c70903c21a59248185a3","condition":"contingent","relevant_dimensions":["antennae","wings"],"bee_group":{"antennae":"A","wings":"2","pattern":"X","legs":"X"},"bonus":1.5000000000000009},{"rt":742.9000000059605,"stimulus":"bees-with-color/bee-A2DM.svg","response":1,"trial_type":"image-button-response","trial_index":125,"time_elapsed":523436,"internal_node_id":"0.0-4.0-0.59","subject_id":"5eb2907c8aa2320009f2d5c2","study_id":"60edd13110225f80f9f3709b","session_id":"6196c70903c21a59248185a3","condition":"contingent","relevant_dimensions":["antennae","wings"],"bee_group":{"antennae":"A","wings":"2","pattern":"X","legs":"X"},"action":"avoid","summary":"good-avoid","bonus":1.5000000000000009},{"rt":638.6999999880791,"stimulus":"\n                    <p><b>Action: <em>avoid</em></b></p>\n                    <p>This is the bee that you just saw.</p>\n                    <img src=\"bees-with-color/bee-A2DM.svg\" width=\"200\">\n                    <p><br>Your bonus pay is unchanged, and remains at $1.16.</p>\n            ","response":0,"trial_type":"html-button-response","trial_index":126,"time_elapsed":524076,"internal_node_id":"0.0-4.0-1.59","subject_id":"5eb2907c8aa2320009f2d5c2","study_id":"60edd13110225f80f9f3709b","session_id":"6196c70903c21a59248185a3","condition":"contingent","relevant_dimensions":["antennae","wings"],"bee_group":{"antennae":"A","wings":"2","pattern":"X","legs":"X"},"bonus":1.5000000000000009},{"rt":810.7999999821186,"stimulus":"bees-with-color/bee-A2DF.svg","response":1,"trial_type":"image-button-response","trial_index":127,"time_elapsed":524888,"internal_node_id":"0.0-4.0-0.60","subject_id":"5eb2907c8aa2320009f2d5c2","study_id":"60edd13110225f80f9f3709b","session_id":"6196c70903c21a59248185a3","condition":"contingent","relevant_dimensions":["antennae","wings"],"bee_group":{"antennae":"A","wings":"2","pattern":"X","legs":"X"},"action":"avoid","summary":"good-avoid","bonus":1.5000000000000009},{"rt":354.69999998807907,"stimulus":"\n                    <p><b>Action: <em>avoid</em></b></p>\n                    <p>This is the bee that you just saw.</p>\n                    <img src=\"bees-with-color/bee-A2DF.svg\" width=\"200\">\n                    <p><br>Your bonus pay is unchanged, and remains at $1.16.</p>\n            ","response":0,"trial_type":"html-button-response","trial_index":128,"time_elapsed":525244,"internal_node_id":"0.0-4.0-1.60","subject_id":"5eb2907c8aa2320009f2d5c2","study_id":"60edd13110225f80f9f3709b","session_id":"6196c70903c21a59248185a3","condition":"contingent","relevant_dimensions":["antennae","wings"],"bee_group":{"antennae":"A","wings":"2","pattern":"X","legs":"X"},"bonus":1.5000000000000009},{"rt":764.4000000059605,"stimulus":"bees-with-color/bee-B2SF.svg","response":1,"trial_type":"image-button-response","trial_index":129,"time_elapsed":526010,"internal_node_id":"0.0-4.0-0.61","subject_id":"5eb2907c8aa2320009f2d5c2","study_id":"60edd13110225f80f9f3709b","session_id":"6196c70903c21a59248185a3","condition":"contingent","relevant_dimensions":["antennae","wings"],"bee_group":{"antennae":"A","wings":"2","pattern":"X","legs":"X"},"action":"avoid","summary":"bad-avoid","bonus":1.5000000000000009},{"rt":572.5999999940395,"stimulus":"\n                    <p><b>Action: <em>avoid</em></b></p>\n                    <p>This is the bee that you just saw.</p>\n                    <img src=\"bees-with-color/bee-B2SF.svg\" width=\"200\">\n                    <p><br>Your bonus pay is unchanged, and remains at $1.16.</p>\n            ","response":0,"trial_type":"html-button-response","trial_index":130,"time_elapsed":526584,"internal_node_id":"0.0-4.0-1.61","subject_id":"5eb2907c8aa2320009f2d5c2","study_id":"60edd13110225f80f9f3709b","session_id":"6196c70903c21a59248185a3","condition":"contingent","relevant_dimensions":["antennae","wings"],"bee_group":{"antennae":"A","wings":"2","pattern":"X","legs":"X"},"bonus":1.5000000000000009},{"rt":670.6999999880791,"stimulus":"bees-with-color/bee-B2DF.svg","response":1,"trial_type":"image-button-response","trial_index":131,"time_elapsed":527256,"internal_node_id":"0.0-4.0-0.62","subject_id":"5eb2907c8aa2320009f2d5c2","study_id":"60edd13110225f80f9f3709b","session_id":"6196c70903c21a59248185a3","condition":"contingent","relevant_dimensions":["antennae","wings"],"bee_group":{"antennae":"A","wings":"2","pattern":"X","legs":"X"},"action":"avoid","summary":"bad-avoid","bonus":1.5000000000000009},{"rt":548.4000000059605,"stimulus":"\n                    <p><b>Action: <em>avoid</em></b></p>\n                    <p>This is the bee that you just saw.</p>\n                    <img src=\"bees-with-color/bee-B2DF.svg\" width=\"200\">\n                    <p><br>Your bonus pay is unchanged, and remains at $1.16.</p>\n            ","response":0,"trial_type":"html-button-response","trial_index":132,"time_elapsed":527806,"internal_node_id":"0.0-4.0-1.62","subject_id":"5eb2907c8aa2320009f2d5c2","study_id":"60edd13110225f80f9f3709b","session_id":"6196c70903c21a59248185a3","condition":"contingent","relevant_dimensions":["antennae","wings"],"bee_group":{"antennae":"A","wings":"2","pattern":"X","legs":"X"},"bonus":1.5000000000000009},{"rt":778.0999999940395,"stimulus":"bees-with-color/bee-B1DM.svg","response":0,"trial_type":"image-button-response","trial_index":133,"time_elapsed":528586,"internal_node_id":"0.0-4.0-0.63","subject_id":"5eb2907c8aa2320009f2d5c2","study_id":"60edd13110225f80f9f3709b","session_id":"6196c70903c21a59248185a3","condition":"contingent","relevant_dimensions":["antennae","wings"],"bee_group":{"antennae":"A","wings":"2","pattern":"X","legs":"X"},"action":"harvest","summary":"good-harvest","bonus":1.5000000000000009},{"rt":634.5,"stimulus":"\n                    <p><b>Action: <em>harvest</em></b></p>\n                    <p>This is the bee that you just saw.</p>\n                    <img src=\"bees-with-color/bee-B1DM.svg\" width=\"200\">\n                    <p><span class=\"greenText\"><b>Successful harvest!</b></span><br>Your pay has increased by $0.02. Your bonus pay is now $1.18.</p>\n            ","response":0,"trial_type":"html-button-response","trial_index":134,"time_elapsed":529222,"internal_node_id":"0.0-4.0-1.63","subject_id":"5eb2907c8aa2320009f2d5c2","study_id":"60edd13110225f80f9f3709b","session_id":"6196c70903c21a59248185a3","condition":"contingent","relevant_dimensions":["antennae","wings"],"bee_group":{"antennae":"A","wings":"2","pattern":"X","legs":"X"},"bonus":1.5000000000000009},{"rt":9544.200000017881,"stimulus":"You have completed the first part of this experiment.<br><br>You will now begin a shorter second part, in which you will receive no feedback.<br>The same rules regarding bonus pay apply.<br><br>Press any key to begin.","response":" ","trial_type":"html-keyboard-response","trial_index":135,"time_elapsed":538767,"internal_node_id":"0.0-5.0","subject_id":"5eb2907c8aa2320009f2d5c2","study_id":"60edd13110225f80f9f3709b","session_id":"6196c70903c21a59248185a3","condition":"contingent","relevant_dimensions":["antennae","wings"],"bee_group":{"antennae":"A","wings":"2","pattern":"X","legs":"X"},"bonus":1.5000000000000009},{"rt":1011.8000000119209,"stimulus":"bees-with-color/bee-A1DF.svg","response":0,"trial_type":"image-button-response","trial_index":136,"time_elapsed":539786,"internal_node_id":"0.0-6.0-0.0","subject_id":"5eb2907c8aa2320009f2d5c2","study_id":"60edd13110225f80f9f3709b","session_id":"6196c70903c21a59248185a3","condition":"contingent","relevant_dimensions":["antennae","wings"],"bee_group":{"antennae":"A","wings":"2","pattern":"X","legs":"X"},"bonus":1.5000000000000009},{"rt":1414.0999999940395,"stimulus":"bees-with-color/bee-A2DM.svg","response":1,"trial_type":"image-button-response","trial_index":137,"time_elapsed":541202,"internal_node_id":"0.0-6.0-0.1","subject_id":"5eb2907c8aa2320009f2d5c2","study_id":"60edd13110225f80f9f3709b","session_id":"6196c70903c21a59248185a3","condition":"contingent","relevant_dimensions":["antennae","wings"],"bee_group":{"antennae":"A","wings":"2","pattern":"X","legs":"X"},"bonus":1.5000000000000009},{"rt":676.3000000119209,"stimulus":"bees-with-color/bee-B1SF.svg","response":0,"trial_type":"image-button-response","trial_index":138,"time_elapsed":541880,"internal_node_id":"0.0-6.0-0.2","subject_id":"5eb2907c8aa2320009f2d5c2","study_id":"60edd13110225f80f9f3709b","session_id":"6196c70903c21a59248185a3","condition":"contingent","relevant_dimensions":["antennae","wings"],"bee_group":{"antennae":"A","wings":"2","pattern":"X","legs":"X"},"bonus":1.5000000000000009},{"rt":762.0999999940395,"stimulus":"bees-with-color/bee-B1SM.svg","response":0,"trial_type":"image-button-response","trial_index":139,"time_elapsed":542644,"internal_node_id":"0.0-6.0-0.3","subject_id":"5eb2907c8aa2320009f2d5c2","study_id":"60edd13110225f80f9f3709b","session_id":"6196c70903c21a59248185a3","condition":"contingent","relevant_dimensions":["antennae","wings"],"bee_group":{"antennae":"A","wings":"2","pattern":"X","legs":"X"},"bonus":1.5000000000000009},{"rt":740.0999999940395,"stimulus":"bees-with-color/bee-A2SF.svg","response":1,"trial_type":"image-button-response","trial_index":140,"time_elapsed":543386,"internal_node_id":"0.0-6.0-0.4","subject_id":"5eb2907c8aa2320009f2d5c2","study_id":"60edd13110225f80f9f3709b","session_id":"6196c70903c21a59248185a3","condition":"contingent","relevant_dimensions":["antennae","wings"],"bee_group":{"antennae":"A","wings":"2","pattern":"X","legs":"X"},"bonus":1.5000000000000009},{"rt":766.2999999821186,"stimulus":"bees-with-color/bee-B2SF.svg","response":1,"trial_type":"image-button-response","trial_index":141,"time_elapsed":544154,"internal_node_id":"0.0-6.0-0.5","subject_id":"5eb2907c8aa2320009f2d5c2","study_id":"60edd13110225f80f9f3709b","session_id":"6196c70903c21a59248185a3","condition":"contingent","relevant_dimensions":["antennae","wings"],"bee_group":{"antennae":"A","wings":"2","pattern":"X","legs":"X"},"bonus":1.5000000000000009},{"rt":580.0999999940395,"stimulus":"bees-with-color/bee-A1SF.svg","response":0,"trial_type":"image-button-response","trial_index":142,"time_elapsed":544736,"internal_node_id":"0.0-6.0-0.6","subject_id":"5eb2907c8aa2320009f2d5c2","study_id":"60edd13110225f80f9f3709b","session_id":"6196c70903c21a59248185a3","condition":"contingent","relevant_dimensions":["antennae","wings"],"bee_group":{"antennae":"A","wings":"2","pattern":"X","legs":"X"},"bonus":1.5000000000000009},{"rt":608,"stimulus":"bees-with-color/bee-B2SM.svg","response":1,"trial_type":"image-button-response","trial_index":143,"time_elapsed":545346,"internal_node_id":"0.0-6.0-0.7","subject_id":"5eb2907c8aa2320009f2d5c2","study_id":"60edd13110225f80f9f3709b","session_id":"6196c70903c21a59248185a3","condition":"contingent","relevant_dimensions":["antennae","wings"],"bee_group":{"antennae":"A","wings":"2","pattern":"X","legs":"X"},"bonus":1.5000000000000009},{"rt":763.8000000119209,"stimulus":"bees-with-color/bee-B2DF.svg","response":1,"trial_type":"image-button-response","trial_index":144,"time_elapsed":546112,"internal_node_id":"0.0-6.0-0.8","subject_id":"5eb2907c8aa2320009f2d5c2","study_id":"60edd13110225f80f9f3709b","session_id":"6196c70903c21a59248185a3","condition":"contingent","relevant_dimensions":["antennae","wings"],"bee_group":{"antennae":"A","wings":"2","pattern":"X","legs":"X"},"bonus":1.5000000000000009},{"rt":643.9000000059605,"stimulus":"bees-with-color/bee-A2SM.svg","response":1,"trial_type":"image-button-response","trial_index":145,"time_elapsed":546758,"internal_node_id":"0.0-6.0-0.9","subject_id":"5eb2907c8aa2320009f2d5c2","study_id":"60edd13110225f80f9f3709b","session_id":"6196c70903c21a59248185a3","condition":"contingent","relevant_dimensions":["antennae","wings"],"bee_group":{"antennae":"A","wings":"2","pattern":"X","legs":"X"},"bonus":1.5000000000000009},{"rt":642.0999999940395,"stimulus":"bees-with-color/bee-A1DM.svg","response":0,"trial_type":"image-button-response","trial_index":146,"time_elapsed":547401,"internal_node_id":"0.0-6.0-0.10","subject_id":"5eb2907c8aa2320009f2d5c2","study_id":"60edd13110225f80f9f3709b","session_id":"6196c70903c21a59248185a3","condition":"contingent","relevant_dimensions":["antennae","wings"],"bee_group":{"antennae":"A","wings":"2","pattern":"X","legs":"X"},"bonus":1.5000000000000009},{"rt":714.5999999940395,"stimulus":"bees-with-color/bee-A1SM.svg","response":0,"trial_type":"image-button-response","trial_index":147,"time_elapsed":548118,"internal_node_id":"0.0-6.0-0.11","subject_id":"5eb2907c8aa2320009f2d5c2","study_id":"60edd13110225f80f9f3709b","session_id":"6196c70903c21a59248185a3","condition":"contingent","relevant_dimensions":["antennae","wings"],"bee_group":{"antennae":"A","wings":"2","pattern":"X","legs":"X"},"bonus":1.5000000000000009},{"rt":844.2999999821186,"stimulus":"bees-with-color/bee-B1DF.svg","response":0,"trial_type":"image-button-response","trial_index":148,"time_elapsed":548964,"internal_node_id":"0.0-6.0-0.12","subject_id":"5eb2907c8aa2320009f2d5c2","study_id":"60edd13110225f80f9f3709b","session_id":"6196c70903c21a59248185a3","condition":"contingent","relevant_dimensions":["antennae","wings"],"bee_group":{"antennae":"A","wings":"2","pattern":"X","legs":"X"},"bonus":1.5000000000000009},{"rt":673.5999999940395,"stimulus":"bees-with-color/bee-B2DM.svg","response":1,"trial_type":"image-button-response","trial_index":149,"time_elapsed":549640,"internal_node_id":"0.0-6.0-0.13","subject_id":"5eb2907c8aa2320009f2d5c2","study_id":"60edd13110225f80f9f3709b","session_id":"6196c70903c21a59248185a3","condition":"contingent","relevant_dimensions":["antennae","wings"],"bee_group":{"antennae":"A","wings":"2","pattern":"X","legs":"X"},"bonus":1.5000000000000009},{"rt":776,"stimulus":"bees-with-color/bee-A2DF.svg","response":1,"trial_type":"image-button-response","trial_index":150,"time_elapsed":550418,"internal_node_id":"0.0-6.0-0.14","subject_id":"5eb2907c8aa2320009f2d5c2","study_id":"60edd13110225f80f9f3709b","session_id":"6196c70903c21a59248185a3","condition":"contingent","relevant_dimensions":["antennae","wings"],"bee_group":{"antennae":"A","wings":"2","pattern":"X","legs":"X"},"bonus":1.5000000000000009},{"rt":650.1999999880791,"stimulus":"bees-with-color/bee-B1DM.svg","response":0,"trial_type":"image-button-response","trial_index":151,"time_elapsed":551070,"internal_node_id":"0.0-6.0-0.15","subject_id":"5eb2907c8aa2320009f2d5c2","study_id":"60edd13110225f80f9f3709b","session_id":"6196c70903c21a59248185a3","condition":"contingent","relevant_dimensions":["antennae","wings"],"bee_group":{"antennae":"A","wings":"2","pattern":"X","legs":"X"},"bonus":1.5000000000000009},{"rt":604.5,"stimulus":"bees-with-color/bee-B2SF.svg","response":1,"trial_type":"image-button-response","trial_index":152,"time_elapsed":551676,"internal_node_id":"0.0-6.0-0.16","subject_id":"5eb2907c8aa2320009f2d5c2","study_id":"60edd13110225f80f9f3709b","session_id":"6196c70903c21a59248185a3","condition":"contingent","relevant_dimensions":["antennae","wings"],"bee_group":{"antennae":"A","wings":"2","pattern":"X","legs":"X"},"bonus":1.5000000000000009},{"rt":710.3000000119209,"stimulus":"bees-with-color/bee-B2SM.svg","response":1,"trial_type":"image-button-response","trial_index":153,"time_elapsed":552388,"internal_node_id":"0.0-6.0-0.17","subject_id":"5eb2907c8aa2320009f2d5c2","study_id":"60edd13110225f80f9f3709b","session_id":"6196c70903c21a59248185a3","condition":"contingent","relevant_dimensions":["antennae","wings"],"bee_group":{"antennae":"A","wings":"2","pattern":"X","legs":"X"},"bonus":1.5000000000000009},{"rt":606.2999999821186,"stimulus":"bees-with-color/bee-A1DM.svg","response":0,"trial_type":"image-button-response","trial_index":154,"time_elapsed":552996,"internal_node_id":"0.0-6.0-0.18","subject_id":"5eb2907c8aa2320009f2d5c2","study_id":"60edd13110225f80f9f3709b","session_id":"6196c70903c21a59248185a3","condition":"contingent","relevant_dimensions":["antennae","wings"],"bee_group":{"antennae":"A","wings":"2","pattern":"X","legs":"X"},"bonus":1.5000000000000009},{"rt":754.4000000059605,"stimulus":"bees-with-color/bee-A1SM.svg","response":0,"trial_type":"image-button-response","trial_index":155,"time_elapsed":553752,"internal_node_id":"0.0-6.0-0.19","subject_id":"5eb2907c8aa2320009f2d5c2","study_id":"60edd13110225f80f9f3709b","session_id":"6196c70903c21a59248185a3","condition":"contingent","relevant_dimensions":["antennae","wings"],"bee_group":{"antennae":"A","wings":"2","pattern":"X","legs":"X"},"bonus":1.5000000000000009},{"rt":616.5,"stimulus":"bees-with-color/bee-B1SM.svg","response":0,"trial_type":"image-button-response","trial_index":156,"time_elapsed":554370,"internal_node_id":"0.0-6.0-0.20","subject_id":"5eb2907c8aa2320009f2d5c2","study_id":"60edd13110225f80f9f3709b","session_id":"6196c70903c21a59248185a3","condition":"contingent","relevant_dimensions":["antennae","wings"],"bee_group":{"antennae":"A","wings":"2","pattern":"X","legs":"X"},"bonus":1.5000000000000009},{"rt":642.5999999940395,"stimulus":"bees-with-color/bee-A2DM.svg","response":1,"trial_type":"image-button-response","trial_index":157,"time_elapsed":555014,"internal_node_id":"0.0-6.0-0.21","subject_id":"5eb2907c8aa2320009f2d5c2","study_id":"60edd13110225f80f9f3709b","session_id":"6196c70903c21a59248185a3","condition":"contingent","relevant_dimensions":["antennae","wings"],"bee_group":{"antennae":"A","wings":"2","pattern":"X","legs":"X"},"bonus":1.5000000000000009},{"rt":674.0999999940395,"stimulus":"bees-with-color/bee-B2DM.svg","response":1,"trial_type":"image-button-response","trial_index":158,"time_elapsed":555690,"internal_node_id":"0.0-6.0-0.22","subject_id":"5eb2907c8aa2320009f2d5c2","study_id":"60edd13110225f80f9f3709b","session_id":"6196c70903c21a59248185a3","condition":"contingent","relevant_dimensions":["antennae","wings"],"bee_group":{"antennae":"A","wings":"2","pattern":"X","legs":"X"},"bonus":1.5000000000000009},{"rt":638.4000000059605,"stimulus":"bees-with-color/bee-A2DF.svg","response":1,"trial_type":"image-button-response","trial_index":159,"time_elapsed":556330,"internal_node_id":"0.0-6.0-0.23","subject_id":"5eb2907c8aa2320009f2d5c2","study_id":"60edd13110225f80f9f3709b","session_id":"6196c70903c21a59248185a3","condition":"contingent","relevant_dimensions":["antennae","wings"],"bee_group":{"antennae":"A","wings":"2","pattern":"X","legs":"X"},"bonus":1.5000000000000009},{"rt":506.40000000596046,"stimulus":"bees-with-color/bee-B1DF.svg","response":0,"trial_type":"image-button-response","trial_index":160,"time_elapsed":556838,"internal_node_id":"0.0-6.0-0.24","subject_id":"5eb2907c8aa2320009f2d5c2","study_id":"60edd13110225f80f9f3709b","session_id":"6196c70903c21a59248185a3","condition":"contingent","relevant_dimensions":["antennae","wings"],"bee_group":{"antennae":"A","wings":"2","pattern":"X","legs":"X"},"bonus":1.5000000000000009},{"rt":884.4000000059605,"stimulus":"bees-with-color/bee-A2SF.svg","response":1,"trial_type":"image-button-response","trial_index":161,"time_elapsed":557724,"internal_node_id":"0.0-6.0-0.25","subject_id":"5eb2907c8aa2320009f2d5c2","study_id":"60edd13110225f80f9f3709b","session_id":"6196c70903c21a59248185a3","condition":"contingent","relevant_dimensions":["antennae","wings"],"bee_group":{"antennae":"A","wings":"2","pattern":"X","legs":"X"},"bonus":1.5000000000000009},{"rt":626.1999999880791,"stimulus":"bees-with-color/bee-B2DF.svg","response":1,"trial_type":"image-button-response","trial_index":162,"time_elapsed":558352,"internal_node_id":"0.0-6.0-0.26","subject_id":"5eb2907c8aa2320009f2d5c2","study_id":"60edd13110225f80f9f3709b","session_id":"6196c70903c21a59248185a3","condition":"contingent","relevant_dimensions":["antennae","wings"],"bee_group":{"antennae":"A","wings":"2","pattern":"X","legs":"X"},"bonus":1.5000000000000009},{"rt":568.5,"stimulus":"bees-with-color/bee-A2SM.svg","response":1,"trial_type":"image-button-response","trial_index":163,"time_elapsed":558922,"internal_node_id":"0.0-6.0-0.27","subject_id":"5eb2907c8aa2320009f2d5c2","study_id":"60edd13110225f80f9f3709b","session_id":"6196c70903c21a59248185a3","condition":"contingent","relevant_dimensions":["antennae","wings"],"bee_group":{"antennae":"A","wings":"2","pattern":"X","legs":"X"},"bonus":1.5000000000000009},{"rt":726.1999999880791,"stimulus":"bees-with-color/bee-B1SF.svg","response":0,"trial_type":"image-button-response","trial_index":164,"time_elapsed":559650,"internal_node_id":"0.0-6.0-0.28","subject_id":"5eb2907c8aa2320009f2d5c2","study_id":"60edd13110225f80f9f3709b","session_id":"6196c70903c21a59248185a3","condition":"contingent","relevant_dimensions":["antennae","wings"],"bee_group":{"antenna