[{"success":true,"trial_type":"fullscreen","trial_index":0,"time_elapsed":9411,"internal_node_id":"0.0-0.0","subject_id":"616c8806b3ea3ca532286835","study_id":"60edd13110225f80f9f3709b","session_id":"6196bf60d3360c2394772986","condition":"contingent","relevant_dimensions":["wings","legs"],"bee_group":{"antennae":"X","wings":"2","pattern":"X","legs":"F"},"bonus":1.3600000000000008},{"success":true,"timeout":false,"failed_images":[],"failed_audio":[],"failed_video":[],"trial_type":"preload","trial_index":1,"time_elapsed":14238,"internal_node_id":"0.0-1.0","subject_id":"616c8806b3ea3ca532286835","study_id":"60edd13110225f80f9f3709b","session_id":"6196bf60d3360c2394772986","condition":"contingent","relevant_dimensions":["wings","legs"],"bee_group":{"antennae":"X","wings":"2","pattern":"X","legs":"F"},"bonus":1.3600000000000008},{"rt":5934,"stimulus":"Welcome! Press any key to begin.","response":"j","trial_type":"html-keyboard-response","trial_index":2,"time_elapsed":20176,"internal_node_id":"0.0-2.0","subject_id":"616c8806b3ea3ca532286835","study_id":"60edd13110225f80f9f3709b","session_id":"6196bf60d3360c2394772986","condition":"contingent","relevant_dimensions":["wings","legs"],"bee_group":{"antennae":"X","wings":"2","pattern":"X","legs":"F"},"bonus":1.3600000000000008},{"view_history":[{"page_index":0,"viewing_time":7398.5},{"page_index":1,"viewing_time":31911.10000000149},{"page_index":2,"viewing_time":22791.89999999851},{"page_index":3,"viewing_time":22463.70000000298},{"page_index":4,"viewing_time":15328.29999999702},{"page_index":5,"viewing_time":10007.70000000298},{"page_index":6,"viewing_time":66231.89999999851},{"page_index":7,"viewing_time":8344},{"page_index":8,"viewing_time":3208},{"page_index":7,"viewing_time":6440.199999999255},{"page_index":8,"viewing_time":8823.699999999255},{"page_index":9,"viewing_time":6800},{"page_index":10,"viewing_time":5920},{"page_index":11,"viewing_time":164567.90000000224},{"page_index":12,"viewing_time":25015.5},{"page_index":13,"viewing_time":2064.099999997765},{"page_index":14,"viewing_time":3640}],"rt":410957.80000000075,"trial_type":"instructions","trial_index":3,"time_elapsed":431136,"internal_node_id":"0.0-3.0-0.0","subject_id":"616c8806b3ea3ca532286835","study_id":"60edd13110225f80f9f3709b","session_id":"6196bf60d3360c2394772986","condition":"contingent","relevant_dimensions":["wings","legs"],"bee_group":{"antennae":"X","wings":"2","pattern":"X","legs":"F"},"bonus":1.3600000000000008},{"rt":16786.79999999702,"response":{"Q0":["Two or six legs","Stripes or spots on body","Single or double wings","Antennae or no antennae"]},"question_order":[0],"trial_type":"survey-multi-select","trial_index":4,"time_elapsed":447948,"internal_node_id":"0.0-3.0-1.0","subject_id":"616c8806b3ea3ca532286835","study_id":"60edd13110225f80f9f3709b","session_id":"6196bf60d3360c2394772986","condition":"contingent","relevant_dimensions":["wings","legs"],"bee_group":{"antennae":"X","wings":"2","pattern":"X","legs":"F"},"correct":true,"bonus":1.3600000000000008},{"rt":71955.60000000149,"response":{"Q1":"No.","Q2":"Based on the four features of the bee.","Q3":"You do not learn if it was friendly or dangerous, and do not alter your bonus."},"question_order":[0,1,2],"trial_type":"survey-multi-choice","trial_index":5,"time_elapsed":519913,"internal_node_id":"0.0-3.0-2.0","subject_id":"616c8806b3ea3ca532286835","study_id":"60edd13110225f80f9f3709b","session_id":"6196bf60d3360c2394772986","condition":"contingent","relevant_dimensions":["wings","legs"],"bee_group":{"antennae":"X","wings":"2","pattern":"X","legs":"F"},"correct":true,"bonus":1.3600000000000008},{"rt":4254.10000000149,"stimulus":"<p>Congrats, you got everything right<br>When you're ready, click the button below to continue to the experiment.</p>","response":0,"trial_type":"html-button-response","trial_index":6,"time_elapsed":524176,"internal_node_id":"0.0-3.0-3.0","subject_id":"616c8806b3ea3ca532286835","study_id":"60edd13110225f80f9f3709b","session_id":"6196bf60d3360c2394772986","condition":"contingent","relevant_dimensions":["wings","legs"],"bee_group":{"antennae":"X","wings":"2","pattern":"X","legs":"F"},"bonus":1.3600000000000008},{"rt":6717.900000002235,"stimulus":"bees-with-color/bee-A2DM.svg","response":1,"trial_type":"image-button-response","trial_index":7,"time_elapsed":530904,"internal_node_id":"0.0-4.0-0.0","subject_id":"616c8806b3ea3ca532286835","study_id":"60edd13110225f80f9f3709b","session_id":"6196bf60d3360c2394772986","condition":"contingent","relevant_dimensions":["wings","legs"],"bee_group":{"antennae":"X","wings":"2","pattern":"X","legs":"F"},"action":"avoid","summary":"bad-avoid","bonus":1.3600000000000008},{"rt":18373,"stimulus":"\n                    <p><b>Action: <em>avoid</em></b></p>\n                    <p>This is the bee that you just saw.</p>\n                    <img src=\"bees-with-color/bee-A2DM.svg\" width=\"200\">\n                    <p><br>Your bonus pay is unchanged, and remains at $0.54.</p>\n            ","response":0,"trial_type":"html-button-response","trial_index":8,"time_elapsed":549287,"internal_node_id":"0.0-4.0-1.0","subject_id":"616c8806b3ea3ca532286835","study_id":"60edd13110225f80f9f3709b","session_id":"6196bf60d3360c2394772986","condition":"contingent","relevant_dimensions":["wings","legs"],"bee_group":{"antennae":"X","wings":"2","pattern":"X","legs":"F"},"bonus":1.3600000000000008},{"rt":82959.19999999925,"stimulus":"bees-with-color/bee-A1DF.svg","response":1,"trial_type":"image-button-response","trial_index":9,"time_elapsed":632256,"internal_node_id":"0.0-4.0-0.1","subject_id":"616c8806b3ea3ca532286835","study_id":"60edd13110225f80f9f3709b","session_id":"6196bf60d3360c2394772986","condition":"contingent","relevant_dimensions":["wings","legs"],"bee_group":{"antennae":"X","wings":"2","pattern":"X","legs":"F"},"action":"avoid","summary":"bad-avoid","bonus":1.3600000000000008},{"rt":3312.199999999255,"stimulus":"\n                    <p><b>Action: <em>avoid</em></b></p>\n                    <p>This is the bee that you just saw.</p>\n                    <img src=\"bees-with-color/bee-A1DF.svg\" width=\"200\">\n                    <p><br>Your bonus pay is unchanged, and remains at $0.54.</p>\n            ","response":0,"trial_type":"html-button-response","trial_index":10,"time_elapsed":635576,"internal_node_id":"0.0-4.0-1.1","subject_id":"616c8806b3ea3ca532286835","study_id":"60edd13110225f80f9f3709b","session_id":"6196bf60d3360c2394772986","condition":"contingent","relevant_dimensions":["wings","legs"],"bee_group":{"antennae":"X","wings":"2","pattern":"X","legs":"F"},"bonus":1.3600000000000008},{"rt":2048.2999999970198,"stimulus":"bees-with-color/bee-A1SM.svg","response":0,"trial_type":"image-button-response","trial_index":11,"time_elapsed":637631,"internal_node_id":"0.0-4.0-0.2","subject_id":"616c8806b3ea3ca532286835","study_id":"60edd13110225f80f9f3709b","session_id":"6196bf60d3360c2394772986","condition":"contingent","relevant_dimensions":["wings","legs"],"bee_group":{"antennae":"X","wings":"2","pattern":"X","legs":"F"},"action":"harvest","summary":"good-harvest","bonus":1.3600000000000008},{"rt":8083.10000000149,"stimulus":"\n                    <p><b>Action: <em>harvest</em></b></p>\n                    <p>This is the bee that you just saw.</p>\n                    <img src=\"bees-with-color/bee-A1SM.svg\" width=\"200\">\n                    <p><span class=\"greenText\"><b>Successful harvest!</b></span><br>Your pay has increased by $0.02. Your bonus pay is now $0.56.</p>\n            ","response":0,"trial_type":"html-button-response","trial_index":12,"time_elapsed":645719,"internal_node_id":"0.0-4.0-1.2","subject_id":"616c8806b3ea3ca532286835","study_id":"60edd13110225f80f9f3709b","session_id":"6196bf60d3360c2394772986","condition":"contingent","relevant_dimensions":["wings","legs"],"bee_group":{"antennae":"X","wings":"2","pattern":"X","legs":"F"},"bonus":1.3600000000000008},{"rt":2281.60000000149,"stimulus":"bees-with-color/bee-B1SF.svg","response":0,"trial_type":"image-button-response","trial_index":13,"time_elapsed":648008,"internal_node_id":"0.0-4.0-0.3","subject_id":"616c8806b3ea3ca532286835","study_id":"60edd13110225f80f9f3709b","session_id":"6196bf60d3360c2394772986","condition":"contingent","relevant_dimensions":["wings","legs"],"bee_group":{"antennae":"X","wings":"2","pattern":"X","legs":"F"},"action":"harvest","summary":"good-harvest","bonus":1.3600000000000008},{"rt":3945.199999999255,"stimulus":"\n                    <p><b>Action: <em>harvest</em></b></p>\n                    <p>This is the bee that you just saw.</p>\n                    <img src=\"bees-with-color/bee-B1SF.svg\" width=\"200\">\n                    <p><span class=\"greenText\"><b>Successful harvest!</b></span><br>Your pay has increased by $0.02. Your bonus pay is now $0.58.</p>\n            ","response":0,"trial_type":"html-button-response","trial_index":14,"time_elapsed":651960,"internal_node_id":"0.0-4.0-1.3","subject_id":"616c8806b3ea3ca532286835","study_id":"60edd13110225f80f9f3709b","session_id":"6196bf60d3360c2394772986","condition":"contingent","relevant_dimensions":["wings","legs"],"bee_group":{"antennae":"X","wings":"2","pattern":"X","legs":"F"},"bonus":1.3600000000000008},{"rt":2825.699999999255,"stimulus":"bees-with-color/bee-A2SF.svg","response":0,"trial_type":"image-button-response","trial_index":15,"time_elapsed":654791,"internal_node_id":"0.0-4.0-0.4","subject_id":"616c8806b3ea3ca532286835","study_id":"60edd13110225f80f9f3709b","session_id":"6196bf60d3360c2394772986","condition":"contingent","relevant_dimensions":["wings","legs"],"bee_group":{"antennae":"X","wings":"2","pattern":"X","legs":"F"},"action":"harvest","summary":"bad-harvest","bonus":1.3600000000000008},{"rt":5378.5,"stimulus":"\n                    <p><b>Action: <em>harvest</em></b></p>\n                    <p>This is the bee that you just saw.</p>\n                    <img src=\"bees-with-color/bee-A2SF.svg\" width=\"200\">\n                    <p><span class=\"redText\">Bad choice, the bee was angry.</span><br><b>You have been stung!</b><br>Your pay has been decreased by $0.10. Your bonus pay is now $0.48.</p>\n            ","response":0,"trial_type":"html-button-response","trial_index":16,"time_elapsed":660175,"internal_node_id":"0.0-4.0-1.4","subject_id":"616c8806b3ea3ca532286835","study_id":"60edd13110225f80f9f3709b","session_id":"6196bf60d3360c2394772986","condition":"contingent","relevant_dimensions":["wings","legs"],"bee_group":{"antennae":"X","wings":"2","pattern":"X","legs":"F"},"bonus":1.3600000000000008},{"rt":2634,"stimulus":"bees-with-color/bee-A1DM.svg","response":1,"trial_type":"image-button-response","trial_index":17,"time_elapsed":662816,"internal_node_id":"0.0-4.0-0.5","subject_id":"616c8806b3ea3ca532286835","study_id":"60edd13110225f80f9f3709b","session_id":"6196bf60d3360c2394772986","condition":"contingent","relevant_dimensions":["wings","legs"],"bee_group":{"antennae":"X","wings":"2","pattern":"X","legs":"F"},"action":"avoid","summary":"bad-avoid","bonus":1.3600000000000008},{"rt":3112.900000002235,"stimulus":"\n                    <p><b>Action: <em>avoid</em></b></p>\n                    <p>This is the bee that you just saw.</p>\n                    <img src=\"bees-with-color/bee-A1DM.svg\" width=\"200\">\n                    <p><br>Your bonus pay is unchanged, and remains at $0.48.</p>\n            ","response":0,"trial_type":"html-button-response","trial_index":18,"time_elapsed":665935,"internal_node_id":"0.0-4.0-1.5","subject_id":"616c8806b3ea3ca532286835","study_id":"60edd13110225f80f9f3709b","session_id":"6196bf60d3360c2394772986","condition":"contingent","relevant_dimensions":["wings","legs"],"bee_group":{"antennae":"X","wings":"2","pattern":"X","legs":"F"},"bonus":1.3600000000000008},{"rt":1855.699999999255,"stimulus":"bees-with-color/bee-B2SM.svg","response":1,"trial_type":"image-button-response","trial_index":19,"time_elapsed":667800,"internal_node_id":"0.0-4.0-0.6","subject_id":"616c8806b3ea3ca532286835","study_id":"60edd13110225f80f9f3709b","session_id":"6196bf60d3360c2394772986","condition":"contingent","relevant_dimensions":["wings","legs"],"bee_group":{"antennae":"X","wings":"2","pattern":"X","legs":"F"},"action":"avoid","summary":"bad-avoid","bonus":1.3600000000000008},{"rt":2007.5,"stimulus":"\n                    <p><b>Action: <em>avoid</em></b></p>\n                    <p>This is the bee that you just saw.</p>\n                    <img src=\"bees-with-color/bee-B2SM.svg\" width=\"200\">\n                    <p><br>Your bonus pay is unchanged, and remains at $0.48.</p>\n            ","response":0,"trial_type":"html-button-response","trial_index":20,"time_elapsed":669814,"internal_node_id":"0.0-4.0-1.6","subject_id":"616c8806b3ea3ca532286835","study_id":"60edd13110225f80f9f3709b","session_id":"6196bf60d3360c2394772986","condition":"contingent","relevant_dimensions":["wings","legs"],"bee_group":{"antennae":"X","wings":"2","pattern":"X","legs":"F"},"bonus":1.3600000000000008},{"rt":1612.800000000745,"stimulus":"bees-with-color/bee-B2DF.svg","response":1,"trial_type":"image-button-response","trial_index":21,"time_elapsed":671432,"internal_node_id":"0.0-4.0-0.7","subject_id":"616c8806b3ea3ca532286835","study_id":"60edd13110225f80f9f3709b","session_id":"6196bf60d3360c2394772986","condition":"contingent","relevant_dimensions":["wings","legs"],"bee_group":{"antennae":"X","wings":"2","pattern":"X","legs":"F"},"action":"avoid","summary":"good-avoid","bonus":1.3600000000000008},{"rt":1768.4000000022352,"stimulus":"\n                    <p><b>Action: <em>avoid</em></b></p>\n                    <p>This is the bee that you just saw.</p>\n                    <img src=\"bees-with-color/bee-B2DF.svg\" width=\"200\">\n                    <p><br>Your bonus pay is unchanged, and remains at $0.48.</p>\n            ","response":0,"trial_type":"html-button-response","trial_index":22,"time_elapsed":673207,"internal_node_id":"0.0-4.0-1.7","subject_id":"616c8806b3ea3ca532286835","study_id":"60edd13110225f80f9f3709b","session_id":"6196bf60d3360c2394772986","condition":"contingent","relevant_dimensions":["wings","legs"],"bee_group":{"antennae":"X","wings":"2","pattern":"X","legs":"F"},"bonus":1.3600000000000008},{"rt":1737.6000000014901,"stimulus":"bees-with-color/bee-A2SM.svg","response":1,"trial_type":"image-button-response","trial_index":23,"time_elapsed":674953,"internal_node_id":"0.0-4.0-0.8","subject_id":"616c8806b3ea3ca532286835","study_id":"60edd13110225f80f9f3709b","session_id":"6196bf60d3360c2394772986","condition":"contingent","relevant_dimensions":["wings","legs"],"bee_group":{"antennae":"X","wings":"2","pattern":"X","legs":"F"},"action":"avoid","summary":"bad-avoid","bonus":1.3600000000000008},{"rt":1873.199999999255,"stimulus":"\n                    <p><b>Action: <em>avoid</em></b></p>\n                    <p>This is the bee that you just saw.</p>\n                    <img src=\"bees-with-color/bee-A2SM.svg\" width=\"200\">\n                    <p><br>Your bonus pay is unchanged, and remains at $0.48.</p>\n            ","response":0,"trial_type":"html-button-response","trial_index":24,"time_elapsed":676831,"internal_node_id":"0.0-4.0-1.8","subject_id":"616c8806b3ea3ca532286835","study_id":"60edd13110225f80f9f3709b","session_id":"6196bf60d3360c2394772986","condition":"contingent","relevant_dimensions":["wings","legs"],"bee_group":{"antennae":"X","wings":"2","pattern":"X","legs":"F"},"bonus":1.3600000000000008},{"rt":2064.5,"stimulus":"bees-with-color/bee-B2SF.svg","response":1,"trial_type":"image-button-response","trial_index":25,"time_elapsed":678904,"internal_node_id":"0.0-4.0-0.9","subject_id":"616c8806b3ea3ca532286835","study_id":"60edd13110225f80f9f3709b","session_id":"6196bf60d3360c2394772986","condition":"contingent","relevant_dimensions":["wings","legs"],"bee_group":{"antennae":"X","wings":"2","pattern":"X","legs":"F"},"action":"avoid","summary":"good-avoid","bonus":1.3600000000000008},{"rt":2057.199999999255,"stimulus":"\n                    <p><b>Action: <em>avoid</em></b></p>\n                    <p>This is the bee that you just saw.</p>\n                    <img src=\"bees-with-color/bee-B2SF.svg\" width=\"200\">\n                    <p><br>Your bonus pay is unchanged, and remains at $0.48.</p>\n            ","response":0,"trial_type":"html-button-response","trial_index":26,"time_elapsed":680968,"internal_node_id":"0.0-4.0-1.9","subject_id":"616c8806b3ea3ca532286835","study_id":"60edd13110225f80f9f3709b","session_id":"6196bf60d3360c2394772986","condition":"contingent","relevant_dimensions":["wings","legs"],"bee_group":{"antennae":"X","wings":"2","pattern":"X","legs":"F"},"bonus":1.3600000000000008},{"rt":1529.699999999255,"stimulus":"bees-with-color/bee-B2DM.svg","response":1,"trial_type":"image-button-response","trial_index":27,"time_elapsed":682504,"internal_node_id":"0.0-4.0-0.10","subject_id":"616c8806b3ea3ca532286835","study_id":"60edd13110225f80f9f3709b","session_id":"6196bf60d3360c2394772986","condition":"contingent","relevant_dimensions":["wings","legs"],"bee_group":{"antennae":"X","wings":"2","pattern":"X","legs":"F"},"action":"avoid","summary":"bad-avoid","bonus":1.3600000000000008},{"rt":1513.199999999255,"stimulus":"\n                    <p><b>Action: <em>avoid</em></b></p>\n                    <p>This is the bee that you just saw.</p>\n                    <img src=\"bees-with-color/bee-B2DM.svg\" width=\"200\">\n                    <p><br>Your bonus pay is unchanged, and remains at $0.48.</p>\n            ","response":0,"trial_type":"html-button-response","trial_index":28,"time_elapsed":684023,"internal_node_id":"0.0-4.0-1.10","subject_id":"616c8806b3ea3ca532286835","study_id":"60edd13110225f80f9f3709b","session_id":"6196bf60d3360c2394772986","condition":"contingent","relevant_dimensions":["wings","legs"],"bee_group":{"antennae":"X","wings":"2","pattern":"X","legs":"F"},"bonus":1.3600000000000008},{"rt":3033.699999999255,"stimulus":"bees-with-color/bee-B1DF.svg","response":0,"trial_type":"image-button-response","trial_index":29,"time_elapsed":687063,"internal_node_id":"0.0-4.0-0.11","subject_id":"616c8806b3ea3ca532286835","study_id":"60edd13110225f80f9f3709b","session_id":"6196bf60d3360c2394772986","condition":"contingent","relevant_dimensions":["wings","legs"],"bee_group":{"antennae":"X","wings":"2","pattern":"X","legs":"F"},"action":"harvest","summary":"good-harvest","bonus":1.3600000000000008},{"rt":3032.699999999255,"stimulus":"\n                    <p><b>Action: <em>harvest</em></b></p>\n                    <p>This is the bee that you just saw.</p>\n                    <img src=\"bees-with-color/bee-B1DF.svg\" width=\"200\">\n                    <p><span class=\"greenText\"><b>Successful harvest!</b></span><br>Your pay has increased by $0.02. Your bonus pay is now $0.50.</p>\n            ","response":0,"trial_type":"html-button-response","trial_index":30,"time_elapsed":690103,"internal_node_id":"0.0-4.0-1.11","subject_id":"616c8806b3ea3ca532286835","study_id":"60edd13110225f80f9f3709b","session_id":"6196bf60d3360c2394772986","condition":"contingent","relevant_dimensions":["wings","legs"],"bee_group":{"antennae":"X","wings":"2","pattern":"X","legs":"F"},"bonus":1.3600000000000008},{"rt":2044.800000000745,"stimulus":"bees-with-color/bee-B1DM.svg","response":0,"trial_type":"image-button-response","trial_index":31,"time_elapsed":692151,"internal_node_id":"0.0-4.0-0.12","subject_id":"616c8806b3ea3ca532286835","study_id":"60edd13110225f80f9f3709b","session_id":"6196bf60d3360c2394772986","condition":"contingent","relevant_dimensions":["wings","legs"],"bee_group":{"antennae":"X","wings":"2","pattern":"X","legs":"F"},"action":"harvest","summary":"good-harvest","bonus":1.3600000000000008},{"rt":1843.1000000014901,"stimulus":"\n                    <p><b>Action: <em>harvest</em></b></p>\n                    <p>This is the bee that you just saw.</p>\n                    <img src=\"bees-with-color/bee-B1DM.svg\" width=\"200\">\n                    <p><span class=\"greenText\"><b>Successful harvest!</b></span><br>Your pay has increased by $0.02. Your bonus pay is now $0.52.</p>\n            ","response":0,"trial_type":"html-button-response","trial_index":32,"time_elapsed":694000,"internal_node_id":"0.0-4.0-1.12","subject_id":"616c8806b3ea3ca532286835","study_id":"60edd13110225f80f9f3709b","session_id":"6196bf60d3360c2394772986","condition":"contingent","relevant_dimensions":["wings","legs"],"bee_group":{"antennae":"X","wings":"2","pattern":"X","legs":"F"},"bonus":1.3600000000000008},{"rt":1426.199999999255,"stimulus":"bees-with-color/bee-A1SF.svg","response":0,"trial_type":"image-button-response","trial_index":33,"time_elapsed":695432,"internal_node_id":"0.0-4.0-0.13","subject_id":"616c8806b3ea3ca532286835","study_id":"60edd13110225f80f9f3709b","session_id":"6196bf60d3360c2394772986","condition":"contingent","relevant_dimensions":["wings","legs"],"bee_group":{"antennae":"X","wings":"2","pattern":"X","legs":"F"},"action":"harvest","summary":"good-harvest","bonus":1.3600000000000008},{"rt":1458.699999999255,"stimulus":"\n                    <p><b>Action: <em>harvest</em></b></p>\n                    <p>This is the bee that you just saw.</p>\n                    <img src=\"bees-with-color/bee-A1SF.svg\" width=\"200\">\n                    <p><span class=\"greenText\"><b>Successful harvest!</b></span><br>Your pay has increased by $0.02. Your bonus pay is now $0.54.</p>\n            ","response":0,"trial_type":"html-button-response","trial_index":34,"time_elapsed":696895,"internal_node_id":"0.0-4.0-1.13","subject_id":"616c8806b3ea3ca532286835","study_id":"60edd13110225f80f9f3709b","session_id":"6196bf60d3360c2394772986","condition":"contingent","relevant_dimensions":["wings","legs"],"bee_group":{"antennae":"X","wings":"2","pattern":"X","legs":"F"},"bonus":1.3600000000000008},{"rt":1354.0999999977648,"stimulus":"bees-with-color/bee-A2DF.svg","response":1,"trial_type":"image-button-response","trial_index":35,"time_elapsed":698255,"internal_node_id":"0.0-4.0-0.14","subject_id":"616c8806b3ea3ca532286835","study_id":"60edd13110225f80f9f3709b","session_id":"6196bf60d3360c2394772986","condition":"contingent","relevant_dimensions":["wings","legs"],"bee_group":{"antennae":"X","wings":"2","pattern":"X","legs":"F"},"action":"avoid","summary":"good-avoid","bonus":1.3600000000000008},{"rt":1283.4000000022352,"stimulus":"\n                    <p><b>Action: <em>avoid</em></b></p>\n                    <p>This is the bee that you just saw.</p>\n                    <img src=\"bees-with-color/bee-A2DF.svg\" width=\"200\">\n                    <p><br>Your bonus pay is unchanged, and remains at $0.54.</p>\n            ","response":0,"trial_type":"html-button-response","trial_index":36,"time_elapsed":699543,"internal_node_id":"0.0-4.0-1.14","subject_id":"616c8806b3ea3ca532286835","study_id":"60edd13110225f80f9f3709b","session_id":"6196bf60d3360c2394772986","condition":"contingent","relevant_dimensions":["wings","legs"],"bee_group":{"antennae":"X","wings":"2","pattern":"X","legs":"F"},"bonus":1.3600000000000008},{"rt":1474.9000000022352,"stimulus":"bees-with-color/bee-B1SM.svg","response":0,"trial_type":"image-button-response","trial_index":37,"time_elapsed":701023,"internal_node_id":"0.0-4.0-0.15","subject_id":"616c8806b3ea3ca532286835","study_id":"60edd13110225f80f9f3709b","session_id":"6196bf60d3360c2394772986","condition":"contingent","relevant_dimensions":["wings","legs"],"bee_group":{"antennae":"X","wings":"2","pattern":"X","legs":"F"},"action":"harvest","summary":"good-harvest","bonus":1.3600000000000008},{"rt":1491.199999999255,"stimulus":"\n                    <p><b>Action: <em>harvest</em></b></p>\n                    <p>This is the bee that you just saw.</p>\n                    <img src=\"bees-with-color/bee-B1SM.svg\" width=\"200\">\n                    <p><span class=\"greenText\"><b>Successful harvest!</b></span><br>Your pay has increased by $0.02. Your bonus pay is now $0.56.</p>\n            ","response":0,"trial_type":"html-button-response","trial_index":38,"time_elapsed":702519,"internal_node_id":"0.0-4.0-1.15","subject_id":"616c8806b3ea3ca532286835","study_id":"60edd13110225f80f9f3709b","session_id":"6196bf60d3360c2394772986","condition":"contingent","relevant_dimensions":["wings","legs"],"bee_group":{"antennae":"X","wings":"2","pattern":"X","legs":"F"},"bonus":1.3600000000000008},{"rt":1466.5999999977648,"stimulus":"bees-with-color/bee-A1SF.svg","response":0,"trial_type":"image-button-response","trial_index":39,"time_elapsed":703991,"internal_node_id":"0.0-4.0-0.16","subject_id":"616c8806b3ea3ca532286835","study_id":"60edd13110225f80f9f3709b","session_id":"6196bf60d3360c2394772986","condition":"contingent","relevant_dimensions":["wings","legs"],"bee_group":{"antennae":"X","wings":"2","pattern":"X","legs":"F"},"action":"harvest","summary":"good-harvest","bonus":1.3600000000000008},{"rt":1355.4000000022352,"stimulus":"\n                    <p><b>Action: <em>harvest</em></b></p>\n                    <p>This is the bee that you just saw.</p>\n                    <img src=\"bees-with-color/bee-A1SF.svg\" width=\"200\">\n                    <p><span class=\"greenText\"><b>Successful harvest!</b></span><br>Your pay has increased by $0.02. Your bonus pay is now $0.58.</p>\n            ","response":0,"trial_type":"html-button-response","trial_index":40,"time_elapsed":705351,"internal_node_id":"0.0-4.0-1.16","subject_id":"616c8806b3ea3ca532286835","study_id":"60edd13110225f80f9f3709b","session_id":"6196bf60d3360c2394772986","condition":"contingent","relevant_dimensions":["wings","legs"],"bee_group":{"antennae":"X","wings":"2","pattern":"X","legs":"F"},"bonus":1.3600000000000008},{"rt":1476.199999999255,"stimulus":"bees-with-color/bee-A1DM.svg","response":0,"trial_type":"image-button-response","trial_index":41,"time_elapsed":706831,"internal_node_id":"0.0-4.0-0.17","subject_id":"616c8806b3ea3ca532286835","study_id":"60edd13110225f80f9f3709b","session_id":"6196bf60d3360c2394772986","condition":"contingent","relevant_dimensions":["wings","legs"],"bee_group":{"antennae":"X","wings":"2","pattern":"X","legs":"F"},"action":"harvest","summary":"good-harvest","bonus":1.3600000000000008},{"rt":1451.199999999255,"stimulus":"\n                    <p><b>Action: <em>harvest</em></b></p>\n                    <p>This is the bee that you just saw.</p>\n                    <img src=\"bees-with-color/bee-A1DM.svg\" width=\"200\">\n                    <p><span class=\"greenText\"><b>Successful harvest!</b></span><br>Your pay has increased by $0.02. Your bonus pay is now $0.60.</p>\n            ","response":0,"trial_type":"html-button-response","trial_index":42,"time_elapsed":708287,"internal_node_id":"0.0-4.0-1.17","subject_id":"616c8806b3ea3ca532286835","study_id":"60edd13110225f80f9f3709b","session_id":"6196bf60d3360c2394772986","condition":"contingent","relevant_dimensions":["wings","legs"],"bee_group":{"antennae":"X","wings":"2","pattern":"X","legs":"F"},"bonus":1.3600000000000008},{"rt":1474.9000000022352,"stimulus":"bees-with-color/bee-B2DM.svg","response":1,"trial_type":"image-button-response","trial_index":43,"time_elapsed":709767,"internal_node_id":"0.0-4.0-0.18","subject_id":"616c8806b3ea3ca532286835","study_id":"60edd13110225f80f9f3709b","session_id":"6196bf60d3360c2394772986","condition":"contingent","relevant_dimensions":["wings","legs"],"bee_group":{"antennae":"X","wings":"2","pattern":"X","legs":"F"},"action":"avoid","summary":"bad-avoid","bonus":1.3600000000000008},{"rt":1403.0999999977648,"stimulus":"\n                    <p><b>Action: <em>avoid</em></b></p>\n                    <p>This is the bee that you just saw.</p>\n                    <img src=\"bees-with-color/bee-B2DM.svg\" width=\"200\">\n                    <p><br>Your bonus pay is unchanged, and remains at $0.60.</p>\n            ","response":0,"trial_type":"html-button-response","trial_index":44,"time_elapsed":711175,"internal_node_id":"0.0-4.0-1.18","subject_id":"616c8806b3ea3ca532286835","study_id":"60edd13110225f80f9f3709b","session_id":"6196bf60d3360c2394772986","condition":"contingent","relevant_dimensions":["wings","legs"],"bee_group":{"antennae":"X","wings":"2","pattern":"X","legs":"F"},"bonus":1.3600000000000008},{"rt":1489.800000000745,"stimulus":"bees-with-color/bee-B2SM.svg","response":1,"trial_type":"image-button-response","trial_index":45,"time_elapsed":712671,"internal_node_id":"0.0-4.0-0.19","subject_id":"616c8806b3ea3ca532286835","study_id":"60edd13110225f80f9f3709b","session_id":"6196bf60d3360c2394772986","condition":"contingent","relevant_dimensions":["wings","legs"],"bee_group":{"antennae":"X","wings":"2","pattern":"X","legs":"F"},"action":"avoid","summary":"bad-avoid","bonus":1.3600000000000008},{"rt":1282.9000000022352,"stimulus":"\n                    <p><b>Action: <em>avoid</em></b></p>\n                    <p>This is the bee that you just saw.</p>\n                    <img src=\"bees-with-color/bee-B2SM.svg\" width=\"200\">\n                    <p><br>Your bonus pay is unchanged, and remains at $0.60.</p>\n            ","response":0,"trial_type":"html-button-response","trial_index":46,"time_elapsed":713959,"internal_node_id":"0.0-4.0-1.19","subject_id":"616c8806b3ea3ca532286835","study_id":"60edd13110225f80f9f3709b","session_id":"6196bf60d3360c2394772986","condition":"contingent","relevant_dimensions":["wings","legs"],"bee_group":{"antennae":"X","wings":"2","pattern":"X","legs":"F"},"bonus":1.3600000000000008},{"rt":1393.5999999977648,"stimulus":"bees-with-color/bee-B1SF.svg","response":0,"trial_type":"image-button-response","trial_index":47,"time_elapsed":715359,"internal_node_id":"0.0-4.0-0.20","subject_id":"616c8806b3ea3ca532286835","study_id":"60edd13110225f80f9f3709b","session_id":"6196bf60d3360c2394772986","condition":"contingent","relevant_dimensions":["wings","legs"],"bee_group":{"antennae":"X","wings":"2","pattern":"X","legs":"F"},"action":"harvest","summary":"good-harvest","bonus":1.3600000000000008},{"rt":1433.699999999255,"stimulus":"\n                    <p><b>Action: <em>harvest</em></b></p>\n                    <p>This is the bee that you just saw.</p>\n                    <img src=\"bees-with-color/bee-B1SF.svg\" width=\"200\">\n                    <p><span class=\"greenText\"><b>Successful harvest!</b></span><br>Your pay has increased by $0.02. Your bonus pay is now $0.62.</p>\n            ","response":0,"trial_type":"html-button-response","trial_index":48,"time_elapsed":716799,"internal_node_id":"0.0-4.0-1.20","subject_id":"616c8806b3ea3ca532286835","study_id":"60edd13110225f80f9f3709b","session_id":"6196bf60d3360c2394772986","condition":"contingent","relevant_dimensions":["wings","legs"],"bee_group":{"antennae":"X","wings":"2","pattern":"X","legs":"F"},"bonus":1.3600000000000008},{"rt":1451.300000000745,"stimulus":"bees-with-color/bee-B2SF.svg","response":1,"trial_type":"image-button-response","trial_index":49,"time_elapsed":718255,"internal_node_id":"0.0-4.0-0.21","subject_id":"616c8806b3ea3ca532286835","study_id":"60edd13110225f80f9f3709b","session_id":"6196bf60d3360c2394772986","condition":"contingent","relevant_dimensions":["wings","legs"],"bee_group":{"antennae":"X","wings":"2","pattern":"X","legs":"F"},"action":"avoid","summary":"good-avoid","bonus":1.3600000000000008},{"rt":1394,"stimulus":"\n                    <p><b>Action: <em>avoid</em></b></p>\n                    <p>This is the bee that you just saw.</p>\n                    <img src=\"bees-with-color/bee-B2SF.svg\" width=\"200\">\n                    <p><br>Your bonus pay is unchanged, and remains at $0.62.</p>\n            ","response":0,"trial_type":"html-button-response","trial_index":50,"time_elapsed":719655,"internal_node_id":"0.0-4.0-1.21","subject_id":"616c8806b3ea3ca532286835","study_id":"60edd13110225f80f9f3709b","session_id":"6196bf60d3360c2394772986","condition":"contingent","relevant_dimensions":["wings","legs"],"bee_group":{"antennae":"X","wings":"2","pattern":"X","legs":"F"},"bonus":1.3600000000000008},{"rt":1451.3999999985099,"stimulus":"bees-with-color/bee-B1SM.svg","response":0,"trial_type":"image-button-response","trial_index":51,"time_elapsed":721111,"internal_node_id":"0.0-4.0-0.22","subject_id":"616c8806b3ea3ca532286835","study_id":"60edd13110225f80f9f3709b","session_id":"6196bf60d3360c2394772986","condition":"contingent","relevant_dimensions":["wings","legs"],"bee_group":{"antennae":"X","wings":"2","pattern":"X","legs":"F"},"action":"harvest","summary":"good-harvest","bonus":1.3600000000000008},{"rt":1434.8999999985099,"stimulus":"\n                    <p><b>Action: <em>harvest</em></b></p>\n                    <p>This is the bee that you just saw.</p>\n                    <img src=\"bees-with-color/bee-B1SM.svg\" width=\"200\">\n                    <p><span class=\"greenText\"><b>Successful harvest!</b></span><br>Your pay has increased by $0.02. Your bonus pay is now $0.64.</p>\n            ","response":0,"trial_type":"html-button-response","trial_index":52,"time_elapsed":722551,"internal_node_id":"0.0-4.0-1.22","subject_id":"616c8806b3ea3ca532286835","study_id":"60edd13110225f80f9f3709b","session_id":"6196bf60d3360c2394772986","condition":"contingent","relevant_dimensions":["wings","legs"],"bee_group":{"antennae":"X","wings":"2","pattern":"X","legs":"F"},"bonus":1.3600000000000008},{"rt":4042.199999999255,"stimulus":"bees-with-color/bee-A2SF.svg","response":1,"trial_type":"image-button-response","trial_index":53,"time_elapsed":726599,"internal_node_id":"0.0-4.0-0.23","subject_id":"616c8806b3ea3ca532286835","study_id":"60edd13110225f80f9f3709b","session_id":"6196bf60d3360c2394772986","condition":"contingent","relevant_dimensions":["wings","legs"],"bee_group":{"antennae":"X","wings":"2","pattern":"X","legs":"F"},"action":"avoid","summary":"good-avoid","bonus":1.3600000000000008},{"rt":1458.800000000745,"stimulus":"\n                    <p><b>Action: <em>avoid</em></b></p>\n                    <p>This is the bee that you just saw.</p>\n                    <img src=\"bees-with-color/bee-A2SF.svg\" width=\"200\">\n                    <p><br>Your bonus pay is unchanged, and remains at $0.64.</p>\n            ","response":0,"trial_type":"html-button-response","trial_index":54,"time_elapsed":728063,"internal_node_id":"0.0-4.0-1.23","subject_id":"616c8806b3ea3ca532286835","study_id":"60edd13110225f80f9f3709b","session_id":"6196bf60d3360c2394772986","condition":"contingent","relevant_dimensions":["wings","legs"],"bee_group":{"antennae":"X","wings":"2","pattern":"X","legs":"F"},"bonus":1.3600000000000008},{"rt":1370.300000000745,"stimulus":"bees-with-color/bee-B2DF.svg","response":1,"trial_type":"image-button-response","trial_index":55,"time_elapsed":729440,"internal_node_id":"0.0-4.0-0.24","subject_id":"616c8806b3ea3ca532286835","study_id":"60edd13110225f80f9f3709b","session_id":"6196bf60d3360c2394772986","condition":"contingent","relevant_dimensions":["wings","legs"],"bee_group":{"antennae":"X","wings":"2","pattern":"X","legs":"F"},"action":"avoid","summary":"good-avoid","bonus":1.3600000000000008},{"rt":1161.199999999255,"stimulus":"\n                    <p><b>Action: <em>avoid</em></b></p>\n                    <p>This is the bee that you just saw.</p>\n                    <img src=\"bees-with-color/bee-B2DF.svg\" width=\"200\">\n                    <p><br>Your bonus pay is unchanged, and remains at $0.64.</p>\n            ","response":0,"trial_type":"html-button-response","trial_index":56,"time_elapsed":730609,"internal_node_id":"0.0-4.0-1.24","subject_id":"616c8806b3ea3ca532286835","study_id":"60edd13110225f80f9f3709b","session_id":"6196bf60d3360c2394772986","condition":"contingent","relevant_dimensions":["wings","legs"],"bee_group":{"antennae":"X","wings":"2","pattern":"X","legs":"F"},"bonus":1.3600000000000008},{"rt":1401.8999999985099,"stimulus":"bees-with-color/bee-A2DF.svg","response":1,"trial_type":"image-button-response","trial_index":57,"time_elapsed":732015,"internal_node_id":"0.0-4.0-0.25","subject_id":"616c8806b3ea3ca532286835","study_id":"60edd13110225f80f9f3709b","session_id":"6196bf60d3360c2394772986","condition":"contingent","relevant_dimensions":["wings","legs"],"bee_group":{"antennae":"X","wings":"2","pattern":"X","legs":"F"},"action":"avoid","summary":"good-avoid","bonus":1.3600000000000008},{"rt":1138.800000000745,"stimulus":"\n                    <p><b>Action: <em>avoid</em></b></p>\n                    <p>This is the bee that you just saw.</p>\n                    <img src=\"bees-with-color/bee-A2DF.svg\" width=\"200\">\n                    <p><br>Your bonus pay is unchanged, and remains at $0.64.</p>\n            ","response":0,"trial_type":"html-button-response","trial_index":58,"time_elapsed":733160,"internal_node_id":"0.0-4.0-1.25","subject_id":"616c8806b3ea3ca532286835","study_id":"60edd13110225f80f9f3709b","session_id":"6196bf60d3360c2394772986","condition":"contingent","relevant_dimensions":["wings","legs"],"bee_group":{"antennae":"X","wings":"2","pattern":"X","legs":"F"},"bonus":1.3600000000000008},{"rt":1245,"stimulus":"bees-with-color/bee-B1DF.svg","response":0,"trial_type":"image-button-response","trial_index":59,"time_elapsed":734410,"internal_node_id":"0.0-4.0-0.26","subject_id":"616c8806b3ea3ca532286835","study_id":"60edd13110225f80f9f3709b","session_id":"6196bf60d3360c2394772986","condition":"contingent","relevant_dimensions":["wings","legs"],"bee_group":{"antennae":"X","wings":"2","pattern":"X","legs":"F"},"action":"harvest","summary":"good-harvest","bonus":1.3600000000000008},{"rt":1278.699999999255,"stimulus":"\n                    <p><b>Action: <em>harvest</em></b></p>\n                    <p>This is the bee that you just saw.</p>\n                    <img src=\"bees-with-color/bee-B1DF.svg\" width=\"200\">\n                    <p><span class=\"greenText\"><b>Successful harvest!</b></span><br>Your pay has increased by $0.02. Your bonus pay is now $0.66.</p>\n            ","response":0,"trial_type":"html-button-response","trial_index":60,"time_elapsed":735695,"internal_node_id":"0.0-4.0-1.26","subject_id":"616c8806b3ea3ca532286835","study_id":"60edd13110225f80f9f3709b","session_id":"6196bf60d3360c2394772986","condition":"contingent","relevant_dimensions":["wings","legs"],"bee_group":{"antennae":"X","wings":"2","pattern":"X","legs":"F"},"bonus":1.3600000000000008},{"rt":1202.800000000745,"stimulus":"bees-with-color/bee-A2SM.svg","response":1,"trial_type":"image-button-response","trial_index":61,"time_elapsed":736904,"internal_node_id":"0.0-4.0-0.27","subject_id":"616c8806b3ea3ca532286835","study_id":"60edd13110225f80f9f3709b","session_id":"6196bf60d3360c2394772986","condition":"contingent","relevant_dimensions":["wings","legs"],"bee_group":{"antennae":"X","wings":"2","pattern":"X","legs":"F"},"action":"avoid","summary":"bad-avoid","bonus":1.3600000000000008},{"rt":1449.199999999255,"stimulus":"\n                    <p><b>Action: <em>avoid</em></b></p>\n                    <p>This is the bee that you just saw.</p>\n                    <img src=\"bees-with-color/bee-A2SM.svg\" width=\"200\">\n                    <p><br>Your bonus pay is unchanged, and remains at $0.66.</p>\n            ","response":0,"trial_type":"html-button-response","trial_index":62,"time_elapsed":738360,"internal_node_id":"0.0-4.0-1.27","subject_id":"616c8806b3ea3ca532286835","study_id":"60edd13110225f80f9f3709b","session_id":"6196bf60d3360c2394772986","condition":"contingent","relevant_dimensions":["wings","legs"],"bee_group":{"antennae":"X","wings":"2","pattern":"X","legs":"F"},"bonus":1.3600000000000008},{"rt":1345.199999999255,"stimulus":"bees-with-color/bee-A2DM.svg","response":1,"trial_type":"image-button-response","trial_index":63,"time_elapsed":739711,"internal_node_id":"0.0-4.0-0.28","subject_id":"616c8806b3ea3ca532286835","study_id":"60edd13110225f80f9f3709b","session_id":"6196bf60d3360c2394772986","condition":"contingent","relevant_dimensions":["wings","legs"],"bee_group":{"antennae":"X","wings":"2","pattern":"X","legs":"F"},"action":"avoid","summary":"bad-avoid","bonus":1.3600000000000008},{"rt":1178.199999999255,"stimulus":"\n                    <p><b>Action: <em>avoid</em></b></p>\n                    <p>This is the bee that you just saw.</p>\n                    <img src=\"bees-with-color/bee-A2DM.svg\" width=\"200\">\n                    <p><br>Your bonus pay is unchanged, and remains at $0.66.</p>\n            ","response":0,"trial_type":"html-button-response","trial_index":64,"time_elapsed":740895,"internal_node_id":"0.0-4.0-1.28","subject_id":"616c8806b3ea3ca532286835","study_id":"60edd13110225f80f9f3709b","session_id":"6196bf60d3360c2394772986","condition":"contingent","relevant_dimensions":["wings","legs"],"bee_group":{"antennae":"X","wings":"2","pattern":"X","legs":"F"},"bonus":1.3600000000000008},{"rt":1370.699999999255,"stimulus":"bees-with-color/bee-A1SM.svg","response":0,"trial_type":"image-button-response","trial_index":65,"time_elapsed":742272,"internal_node_id":"0.0-4.0-0.29","subject_id":"616c8806b3ea3ca532286835","study_id":"60edd13110225f80f9f3709b","session_id":"6196bf60d3360c2394772986","condition":"contingent","relevant_dimensions":["wings","legs"],"bee_group":{"antennae":"X","wings":"2","pattern":"X","legs":"F"},"action":"harvest","summary":"good-harvest","bonus":1.3600000000000008},{"rt":1322,"stimulus":"\n                    <p><b>Action: <em>harvest</em></b></p>\n                    <p>This is the bee that you just saw.</p>\n                    <img src=\"bees-with-color/bee-A1SM.svg\" width=\"200\">\n                    <p><span class=\"greenText\"><b>Successful harvest!</b></span><br>Your pay has increased by $0.02. Your bonus pay is now $0.68.</p>\n            ","response":0,"trial_type":"html-button-response","trial_index":66,"time_elapsed":743599,"internal_node_id":"0.0-4.0-1.29","subject_id":"616c8806b3ea3ca532286835","study_id":"60edd13110225f80f9f3709b","session_id":"6196bf60d3360c2394772986","condition":"contingent","relevant_dimensions":["wings","legs"],"bee_group":{"antennae":"X","wings":"2","pattern":"X","legs":"F"},"bonus":1.3600000000000008},{"rt":1460.1000000014901,"stimulus":"bees-with-color/bee-B1DM.svg","response":0,"trial_type":"image-button-response","trial_index":67,"time_elapsed":745063,"internal_node_id":"0.0-4.0-0.30","subject_id":"616c8806b3ea3ca532286835","study_id":"60edd13110225f80f9f3709b","session_id":"6196bf60d3360c2394772986","condition":"contingent","relevant_dimensions":["wings","legs"],"bee_group":{"antennae":"X","wings":"2","pattern":"X","legs":"F"},"action":"harvest","summary":"good-harvest","bonus":1.3600000000000008},{"rt":1340,"stimulus":"\n                    <p><b>Action: <em>harvest</em></b></p>\n                    <p>This is the bee that you just saw.</p>\n                    <img src=\"bees-with-color/bee-B1DM.svg\" width=\"200\">\n                    <p><span class=\"greenText\"><b>Successful harvest!</b></span><br>Your pay has increased by $0.02. Your bonus pay is now $0.70.</p>\n            ","response":0,"trial_type":"html-button-response","trial_index":68,"time_elapsed":746408,"internal_node_id":"0.0-4.0-1.30","subject_id":"616c8806b3ea3ca532286835","study_id":"60edd13110225f80f9f3709b","session_id":"6196bf60d3360c2394772986","condition":"contingent","relevant_dimensions":["wings","legs"],"bee_group":{"antennae":"X","wings":"2","pattern":"X","legs":"F"},"bonus":1.3600000000000008},{"rt":1322.5,"stimulus":"bees-with-color/bee-A1DF.svg","response":0,"trial_type":"image-button-response","trial_index":69,"time_elapsed":747735,"internal_node_id":"0.0-4.0-0.31","subject_id":"616c8806b3ea3ca532286835","study_id":"60edd13110225f80f9f3709b","session_id":"6196bf60d3360c2394772986","condition":"contingent","relevant_dimensions":["wings","legs"],"bee_group":{"antennae":"X","wings":"2","pattern":"X","legs":"F"},"action":"harvest","summary":"good-harvest","bonus":1.3600000000000008},{"rt":1282.3999999985099,"stimulus":"\n                    <p><b>Action: <em>harvest</em></b></p>\n                    <p>This is the bee that you just saw.</p>\n                    <img src=\"bees-with-color/bee-A1DF.svg\" width=\"200\">\n                    <p><span class=\"greenText\"><b>Successful harvest!</b></span><br>Your pay has increased by $0.02. Your bonus pay is now $0.72.</p>\n            ","response":0,"trial_type":"html-button-response","trial_index":70,"time_elapsed":749024,"internal_node_id":"0.0-4.0-1.31","subject_id":"616c8806b3ea3ca532286835","study_id":"60edd13110225f80f9f3709b","session_id":"6196bf60d3360c2394772986","condition":"contingent","relevant_dimensions":["wings","legs"],"bee_group":{"antennae":"X","wings":"2","pattern":"X","legs":"F"},"bonus":1.3600000000000008},{"rt":1203.4000000022352,"stimulus":"bees-with-color/bee-B1DF.svg","response":0,"trial_type":"image-button-response","trial_index":71,"time_elapsed":750231,"internal_node_id":"0.0-4.0-0.32","subject_id":"616c8806b3ea3ca532286835","study_id":"60edd13110225f80f9f3709b","session_id":"6196bf60d3360c2394772986","condition":"contingent","relevant_dimensions":["wings","legs"],"bee_group":{"antennae":"X","wings":"2","pattern":"X","legs":"F"},"action":"harvest","summary":"good-harvest","bonus":1.3600000000000008},{"rt":1428.5,"stimulus":"\n                    <p><b>Action: <em>harvest</em></b></p>\n                    <p>This is the bee that you just saw.</p>\n                    <img src=\"bees-with-color/bee-B1DF.svg\" width=\"200\">\n                    <p><span class=\"greenText\"><b>Successful harvest!</b></span><br>Your pay has increased by $0.02. Your bonus pay is now $0.74.</p>\n            ","response":0,"trial_type":"html-button-response","trial_index":72,"time_elapsed":751663,"internal_node_id":"0.0-4.0-1.32","subject_id":"616c8806b3ea3ca532286835","study_id":"60edd13110225f80f9f3709b","session_id":"6196bf60d3360c2394772986","condition":"contingent","relevant_dimensions":["wings","legs"],"bee_group":{"antennae":"X","wings":"2","pattern":"X","legs":"F"},"bonus":1.3600000000000008},{"rt":1596.0999999977648,"stimulus":"bees-with-color/bee-B2DM.svg","response":1,"trial_type":"image-button-response","trial_index":73,"time_elapsed":753264,"internal_node_id":"0.0-4.0-0.33","subject_id":"616c8806b3ea3ca532286835","study_id":"60edd13110225f80f9f3709b","session_id":"6196bf60d3360c2394772986","condition":"contingent","relevant_dimensions":["wings","legs"],"bee_group":{"antennae":"X","wings":"2","pattern":"X","legs":"F"},"action":"avoid","summary":"bad-avoid","bonus":1.3600000000000008},{"rt":1299.300000000745,"stimulus":"\n                    <p><b>Action: <em>avoid</em></b></p>\n                    <p>This is the bee that you just saw.</p>\n                    <img src=\"bees-with-color/bee-B2DM.svg\" width=\"200\">\n                    <p><br>Your bonus pay is unchanged, and remains at $0.74.</p>\n            ","response":0,"trial_type":"html-button-response","trial_index":74,"time_elapsed":754567,"internal_node_id":"0.0-4.0-1.33","subject_id":"616c8806b3ea3ca532286835","study_id":"60edd13110225f80f9f3709b","session_id":"6196bf60d3360c2394772986","condition":"contingent","relevant_dimensions":["wings","legs"],"bee_group":{"antennae":"X","wings":"2","pattern":"X","legs":"F"},"bonus":1.3600000000000008},{"rt":1266.3999999985099,"stimulus":"bees-with-color/bee-A2SM.svg","response":1,"trial_type":"image-button-response","trial_index":75,"time_elapsed":755840,"internal_node_id":"0.0-4.0-0.34","subject_id":"616c8806b3ea3ca532286835","study_id":"60edd13110225f80f9f3709b","session_id":"6196bf60d3360c2394772986","condition":"contingent","relevant_dimensions":["wings","legs"],"bee_group":{"antennae":"X","wings":"2","pattern":"X","legs":"F"},"action":"avoid","summary":"bad-avoid","bonus":1.3600000000000008},{"rt":1402.699999999255,"stimulus":"\n                    <p><b>Action: <em>avoid</em></b></p>\n                    <p>This is the bee that you just saw.</p>\n                    <img src=\"bees-with-color/bee-A2SM.svg\" width=\"200\">\n                    <p><br>Your bonus pay is unchanged, and remains at $0.74.</p>\n            ","response":0,"trial_type":"html-button-response","trial_index":76,"time_elapsed":757248,"internal_node_id":"0.0-4.0-1.34","subject_id":"616c8806b3ea3ca532286835","study_id":"60edd13110225f80f9f3709b","session_id":"6196bf60d3360c2394772986","condition":"contingent","relevant_dimensions":["wings","legs"],"bee_group":{"antennae":"X","wings":"2","pattern":"X","legs":"F"},"bonus":1.3600000000000008},{"rt":1355.300000000745,"stimulus":"bees-with-color/bee-A2SF.svg","response":1,"trial_type":"image-button-response","trial_index":77,"time_elapsed":758608,"internal_node_id":"0.0-4.0-0.35","subject_id":"616c8806b3ea3ca532286835","study_id":"60edd13110225f80f9f3709b","session_id":"6196bf60d3360c2394772986","condition":"contingent","relevant_dimensions":["wings","legs"],"bee_group":{"antennae":"X","wings":"2","pattern":"X","legs":"F"},"action":"avoid","summary":"good-avoid","bonus":1.3600000000000008},{"rt":1651.300000000745,"stimulus":"\n                    <p><b>Action: <em>avoid</em></b></p>\n                    <p>This is the bee that you just saw.</p>\n                    <img src=\"bees-with-color/bee-A2SF.svg\" width=\"200\">\n                    <p><br>Your bonus pay is unchanged, and remains at $0.74.</p>\n            ","response":0,"trial_type":"html-button-response","trial_index":78,"time_elapsed":760264,"internal_node_id":"0.0-4.0-1.35","subject_id":"616c8806b3ea3ca532286835","study_id":"60edd13110225f80f9f3709b","session_id":"6196bf60d3360c2394772986","condition":"contingent","relevant_dimensions":["wings","legs"],"bee_group":{"antennae":"X","wings":"2","pattern":"X","legs":"F"},"bonus":1.3600000000000008},{"rt":1554.6000000014901,"stimulus":"bees-with-color/bee-B2SM.svg","response":1,"trial_type":"image-button-response","trial_index":79,"time_elapsed":761824,"internal_node_id":"0.0-4.0-0.36","subject_id":"616c8806b3ea3ca532286835","study_id":"60edd13110225f80f9f3709b","session_id":"6196bf60d3360c2394772986","condition":"contingent","relevant_dimensions":["wings","legs"],"bee_group":{"antennae":"X","wings":"2","pattern":"X","legs":"F"},"action":"avoid","summary":"bad-avoid","bonus":1.3600000000000008},{"rt":1459.300000000745,"stimulus":"\n                    <p><b>Action: <em>avoid</em></b></p>\n                    <p>This is the bee that you just saw.</p>\n                    <img src=\"bees-with-color/bee-B2SM.svg\" width=\"200\">\n                    <p><br>Your bonus pay is unchanged, and remains at $0.74.</p>\n            ","response":0,"trial_type":"html-button-response","trial_index":80,"time_elapsed":763288,"internal_node_id":"0.0-4.0-1.36","subject_id":"616c8806b3ea3ca532286835","study_id":"60edd13110225f80f9f3709b","session_id":"6196bf60d3360c2394772986","condition":"contingent","relevant_dimensions":["wings","legs"],"bee_group":{"antennae":"X","wings":"2","pattern":"X","legs":"F"},"bonus":1.3600000000000008},{"rt":1371.5,"stimulus":"bees-with-color/bee-A1SF.svg","response":0,"trial_type":"image-button-response","trial_index":81,"time_elapsed":764664,"internal_node_id":"0.0-4.0-0.37","subject_id":"616c8806b3ea3ca532286835","study_id":"60edd13110225f80f9f3709b","session_id":"6196bf60d3360c2394772986","condition":"contingent","relevant_dimensions":["wings","legs"],"bee_group":{"antennae":"X","wings":"2","pattern":"X","legs":"F"},"action":"harvest","summary":"good-harvest","bonus":1.3600000000000008},{"rt":1546,"stimulus":"\n                    <p><b>Action: <em>harvest</em></b></p>\n                    <p>This is the bee that you just saw.</p>\n                    <img src=\"bees-with-color/bee-A1SF.svg\" width=\"200\">\n                    <p><span class=\"greenText\"><b>Successful harvest!</b></span><br>Your pay has increased by $0.02. Your bonus pay is now $0.76.</p>\n            ","response":0,"trial_type":"html-button-response","trial_index":82,"time_elapsed":766216,"internal_node_id":"0.0-4.0-1.37","subject_id":"616c8806b3ea3ca532286835","study_id":"60edd13110225f80f9f3709b","session_id":"6196bf60d3360c2394772986","condition":"contingent","relevant_dimensions":["wings","legs"],"bee_group":{"antennae":"X","wings":"2","pattern":"X","legs":"F"},"bonus":1.3600000000000008},{"rt":1625.300000000745,"stimulus":"bees-with-color/bee-B2SF.svg","response":1,"trial_type":"image-button-response","trial_index":83,"time_elapsed":767848,"internal_node_id":"0.0-4.0-0.38","subject_id":"616c8806b3ea3ca532286835","study_id":"60edd13110225f80f9f3709b","session_id":"6196bf60d3360c2394772986","condition":"contingent","relevant_dimensions":["wings","legs"],"bee_group":{"antennae":"X","wings":"2","pattern":"X","legs":"F"},"action":"avoid","summary":"good-avoid","bonus":1.3600000000000008},{"rt":1377.6000000014901,"stimulus":"\n                    <p><b>Action: <em>avoid</em></b></p>\n                    <p>This is the bee that you just saw.</p>\n                    <img src=\"bees-with-color/bee-B2SF.svg\" width=\"200\">\n                    <p><br>Your bonus pay is unchanged, and remains at $0.76.</p>\n            ","response":0,"trial_type":"html-button-response","trial_index":84,"time_elapsed":769232,"internal_node_id":"0.0-4.0-1.38","subject_id":"616c8806b3ea3ca532286835","study_id":"60edd13110225f80f9f3709b","session_id":"6196bf60d3360c2394772986","condition":"contingent","relevant_dimensions":["wings","legs"],"bee_group":{"antennae":"X","wings":"2","pattern":"X","legs":"F"},"bonus":1.3600000000000008},{"rt":1385.6000000014901,"stimulus":"bees-with-color/bee-A1SM.svg","response":0,"trial_type":"image-button-response","trial_index":85,"time_elapsed":770623,"internal_node_id":"0.0-4.0-0.39","subject_id":"616c8806b3ea3ca532286835","study_id":"60edd13110225f80f9f3709b","session_id":"6196bf60d3360c2394772986","condition":"contingent","relevant_dimensions":["wings","legs"],"bee_group":{"antennae":"X","wings":"2","pattern":"X","legs":"F"},"action":"harvest","summary":"good-harvest","bonus":1.3600000000000008},{"rt":1411,"stimulus":"\n                    <p><b>Action: <em>harvest</em></b></p>\n                    <p>This is the bee that you just saw.</p>\n                    <img src=\"bees-with-color/bee-A1SM.svg\" width=\"200\">\n                    <p><span class=\"greenText\"><b>Successful harvest!</b></span><br>Your pay has increased by $0.02. Your bonus pay is now $0.78.</p>\n            ","response":0,"trial_type":"html-button-response","trial_index":86,"time_elapsed":772039,"internal_node_id":"0.0-4.0-1.39","subject_id":"616c8806b3ea3ca532286835","study_id":"60edd13110225f80f9f3709b","session_id":"6196bf60d3360c2394772986","condition":"contingent","relevant_dimensions":["wings","legs"],"bee_group":{"antennae":"X","wings":"2","pattern":"X","legs":"F"},"bonus":1.3600000000000008},{"rt":1658.199999999255,"stimulus":"bees-with-color/bee-A1DF.svg","response":0,"trial_type":"image-button-response","trial_index":87,"time_elapsed":773703,"internal_node_id":"0.0-4.0-0.40","subject_id":"616c8806b3ea3ca532286835","study_id":"60edd13110225f80f9f3709b","session_id":"6196bf60d3360c2394772986","condition":"contingent","relevant_dimensions":["wings","legs"],"bee_group":{"antennae":"X","wings":"2","pattern":"X","legs":"F"},"action":"harvest","summary":"good-harvest","bonus":1.3600000000000008},{"rt":1554.9000000022352,"stimulus":"\n                    <p><b>Action: <em>harvest</em></b></p>\n                    <p>This is the bee that you just saw.</p>\n                    <img src=\"bees-with-color/bee-A1DF.svg\" width=\"200\">\n                    <p><span class=\"greenText\"><b>Successful harvest!</b></span><br>Your pay has increased by $0.02. Your bonus pay is now $0.80.</p>\n            ","response":0,"trial_type":"html-button-response","trial_index":88,"time_elapsed":775263,"internal_node_id":"0.0-4.0-1.40","subject_id":"616c8806b3ea3ca532286835","study_id":"60edd13110225f80f9f3709b","session_id":"6196bf60d3360c2394772986","condition":"contingent","relevant_dimensions":["wings","legs"],"bee_group":{"antennae":"X","wings":"2","pattern":"X","legs":"F"},"bonus":1.3600000000000008},{"rt":1353.4000000022352,"stimulus":"bees-with-color/bee-B1SM.svg","response":0,"trial_type":"image-button-response","trial_index":89,"time_elapsed":776623,"internal_node_id":"0.0-4.0-0.41","subject_id":"616c8806b3ea3ca532286835","study_id":"60edd13110225f80f9f3709b","session_id":"6196bf60d3360c2394772986","condition":"contingent","relevant_dimensions":["wings","legs"],"bee_group":{"antennae":"X","wings":"2","pattern":"X","legs":"F"},"action":"harvest","summary":"good-harvest","bonus":1.3600000000000008},{"rt":1346.3999999985099,"stimulus":"\n                    <p><b>Action: <em>harvest</em></b></p>\n                    <p>This is the bee that you just saw.</p>\n                    <img src=\"bees-with-color/bee-B1SM.svg\" width=\"200\">\n                    <p><span class=\"greenText\"><b>Successful harvest!</b></span><br>Your pay has increased by $0.02. Your bonus pay is now $0.82.</p>\n            ","response":0,"trial_type":"html-button-response","trial_index":90,"time_elapsed":777976,"internal_node_id":"0.0-4.0-1.41","subject_id":"616c8806b3ea3ca532286835","study_id":"60edd13110225f80f9f3709b","session_id":"6196bf60d3360c2394772986","condition":"contingent","relevant_dimensions":["wings","legs"],"bee_group":{"antennae":"X","wings":"2","pattern":"X","legs":"F"},"bonus":1.3600000000000008},{"rt":2026.6000000014901,"stimulus":"bees-with-color/bee-A2DF.svg","response":1,"trial_type":"image-button-response","trial_index":91,"time_elapsed":780008,"internal_node_id":"0.0-4.0-0.42","subject_id":"616c8806b3ea3ca532286835","study_id":"60edd13110225f80f9f3709b","session_id":"6196bf60d3360c2394772986","condition":"contingent","relevant_dimensions":["wings","legs"],"bee_group":{"antennae":"X","wings":"2","pattern":"X","legs":"F"},"action":"avoid","summary":"good-avoid","bonus":1.3600000000000008},{"rt":1082.300000000745,"stimulus":"\n                    <p><b>Action: <em>avoid</em></b></p>\n                    <p>This is the bee that you just saw.</p>\n                    <img src=\"bees-with-color/bee-A2DF.svg\" width=\"200\">\n                    <p><br>Your bonus pay is unchanged, and remains at $0.82.</p>\n            ","response":0,"trial_type":"html-button-response","trial_index":92,"time_elapsed":781096,"internal_node_id":"0.0-4.0-1.42","subject_id":"616c8806b3ea3ca532286835","study_id":"60edd13110225f80f9f3709b","session_id":"6196bf60d3360c2394772986","condition":"contingent","relevant_dimensions":["wings","legs"],"bee_group":{"antennae":"X","wings":"2","pattern":"X","legs":"F"},"bonus":1.3600000000000008},{"rt":3113.900000002235,"stimulus":"bees-with-color/bee-A1DM.svg","response":0,"trial_type":"image-button-response","trial_index":93,"time_elapsed":784217,"internal_node_id":"0.0-4.0-0.43","subject_id":"616c8806b3ea3ca532286835","study_id":"60edd13110225f80f9f3709b","session_id":"6196bf60d3360c2394772986","condition":"contingent","relevant_dimensions":["wings","legs"],"bee_group":{"antennae":"X","wings":"2","pattern":"X","legs":"F"},"action":"harvest","summary":"good-harvest","bonus":1.3600000000000008},{"rt":1497,"stimulus":"\n                    <p><b>Action: <em>harvest</em></b></p>\n                    <p>This is the bee that you just saw.</p>\n                    <img src=\"bees-with-color/bee-A1DM.svg\" width=\"200\">\n                    <p><span class=\"greenText\"><b>Successful harvest!</b></span><br>Your pay has increased by $0.02. Your bonus pay is now $0.84.</p>\n            ","response":0,"trial_type":"html-button-response","trial_index":94,"time_elapsed":785720,"internal_node_id":"0.0-4.0-1.43","subject_id":"616c8806b3ea3ca532286835","study_id":"60edd13110225f80f9f3709b","session_id":"6196bf60d3360c2394772986","condition":"contingent","relevant_dimensions":["wings","legs"],"bee_group":{"antennae":"X","wings":"2","pattern":"X","legs":"F"},"bonus":1.3600000000000008},{"rt":1289.8999999985099,"stimulus":"bees-with-color/bee-B2DF.svg","response":1,"trial_type":"image-button-response","trial_index":95,"time_elapsed":787016,"internal_node_id":"0.0-4.0-0.44","subject_id":"616c8806b3ea3ca532286835","study_id":"60edd13110225f80f9f3709b","session_id":"6196bf60d3360c2394772986","condition":"contingent","relevant_dimensions":["wings","legs"],"bee_group":{"antennae":"X","wings":"2","pattern":"X","legs":"F"},"action":"avoid","summary":"good-avoid","bonus":1.3600000000000008},{"rt":1249.9000000022352,"stimulus":"\n                    <p><b>Action: <em>avoid</em></b></p>\n                    <p>This is the bee that you just saw.</p>\n                    <img src=\"bees-with-color/bee-B2DF.svg\" width=\"200\">\n                    <p><br>Your bonus pay is unchanged, and remains at $0.84.</p>\n            ","response":0,"trial_type":"html-button-response","trial_index":96,"time_elapsed":788272,"internal_node_id":"0.0-4.0-1.44","subject_id":"616c8806b3ea3ca532286835","study_id":"60edd13110225f80f9f3709b","session_id":"6196bf60d3360c2394772986","condition":"contingent","relevant_dimensions":["wings","legs"],"bee_group":{"antennae":"X","wings":"2","pattern":"X","legs":"F"},"bonus":1.3600000000000008},{"rt":1378,"stimulus":"bees-with-color/bee-B1SF.svg","response":0,"trial_type":"image-button-response","trial_index":97,"time_elapsed":789656,"internal_node_id":"0.0-4.0-0.45","subject_id":"616c8806b3ea3ca532286835","study_id":"60edd13110225f80f9f3709b","session_id":"6196bf60d3360c2394772986","condition":"contingent","relevant_dimensions":["wings","legs"],"bee_group":{"antennae":"X","wings":"2","pattern":"X","legs":"F"},"action":"harvest","summary":"good-harvest","bonus":1.3600000000000008},{"rt":1378.1000000014901,"stimulus":"\n                    <p><b>Action: <em>harvest</em></b></p>\n                    <p>This is the bee that you just saw.</p>\n                    <img src=\"bees-with-color/bee-B1SF.svg\" width=\"200\">\n                    <p><span class=\"greenText\"><b>Successful harvest!</b></span><br>Your pay has increased by $0.02. Your bonus pay is now $0.86.</p>\n            ","response":0,"trial_type":"html-button-response","trial_index":98,"time_elapsed":791040,"internal_node_id":"0.0-4.0-1.45","subject_id":"616c8806b3ea3ca532286835","study_id":"60edd13110225f80f9f3709b","session_id":"6196bf60d3360c2394772986","condition":"contingent","relevant_dimensions":["wings","legs"],"bee_group":{"antennae":"X","wings":"2","pattern":"X","legs":"F"},"bonus":1.3600000000000008},{"rt":1066.800000000745,"stimulus":"bees-with-color/bee-B1DM.svg","response":0,"trial_type":"image-button-response","trial_index":99,"time_elapsed":792112,"internal_node_id":"0.0-4.0-0.46","subject_id":"616c8806b3ea3ca532286835","study_id":"60edd13110225f80f9f3709b","session_id":"6196bf60d3360c2394772986","condition":"contingent","relevant_dimensions":["wings","legs"],"bee_group":{"antennae":"X","wings":"2","pattern":"X","legs":"F"},"action":"harvest","summary":"good-harvest","bonus":1.3600000000000008},{"rt":1225.1000000014901,"stimulus":"\n                    <p><b>Action: <em>harvest</em></b></p>\n                    <p>This is the bee that you just saw.</p>\n                    <img src=\"bees-with-color/bee-B1DM.svg\" width=\"200\">\n                    <p><span class=\"greenText\"><b>Successful harvest!</b></span><br>Your pay has increased by $0.02. Your bonus pay is now $0.88.</p>\n            ","response":0,"trial_type":"html-button-response","trial_index":100,"time_elapsed":793343,"internal_node_id":"0.0-4.0-1.46","subject_id":"616c8806b3ea3ca532286835","study_id":"60edd13110225f80f9f3709b","session_id":"6196bf60d3360c2394772986","condition":"contingent","relevant_dimensions":["wings","legs"],"bee_group":{"antennae":"X","wings":"2","pattern":"X","legs":"F"},"bonus":1.3600000000000008},{"rt":1274.6000000014901,"stimulus":"bees-with-color/bee-A2DM.svg","response":1,"trial_type":"image-button-response","trial_index":101,"time_elapsed":794623,"internal_node_id":"0.0-4.0-0.47","subject_id":"616c8806b3ea3ca532286835","study_id":"60edd13110225f80f9f3709b","session_id":"6196bf60d3360c2394772986","condition":"contingent","relevant_dimensions":["wings","legs"],"bee_group":{"antennae":"X","wings":"2","pattern":"X","legs":"F"},"action":"avoid","summary":"bad-avoid","bonus":1.3600000000000008},{"rt":1259.3999999985099,"stimulus":"\n                    <p><b>Action: <em>avoid</em></b></p>\n                    <p>This is the bee that you just saw.</p>\n                    <img src=\"bees-with-color/bee-A2DM.svg\" width=\"200\">\n                    <p><br>Your bonus pay is unchanged, and remains at $0.88.</p>\n            ","response":0,"trial_type":"html-button-response","trial_index":102,"time_elapsed":795887,"internal_node_id":"0.0-4.0-1.47","subject_id":"616c8806b3ea3ca532286835","study_id":"60edd13110225f80f9f3709b","session_id":"6196bf60d3360c2394772986","condition":"contingent","relevant_dimensions":["wings","legs"],"bee_group":{"antennae":"X","wings":"2","pattern":"X","legs":"F"},"bonus":1.3600000000000008},{"rt":1532.300000000745,"stimulus":"bees-with-color/bee-A2DM.svg","response":1,"trial_type":"image-button-response","trial_index":103,"time_elapsed":797424,"internal_node_id":"0.0-4.0-0.48","subject_id":"616c8806b3ea3ca532286835","study_id":"60edd13110225f80f9f3709b","session_id":"6196bf60d3360c2394772986","condition":"contingent","relevant_dimensions":["wings","legs"],"bee_group":{"antennae":"X","wings":"2","pattern":"X","legs":"F"},"action":"avoid","summary":"bad-avoid","bonus":1.3600000000000008},{"rt":1411.4000000022352,"stimulus":"\n                    <p><b>Action: <em>avoid</em></b></p>\n                    <p>This is the bee that you just saw.</p>\n                    <img src=\"bees-with-color/bee-A2DM.svg\" width=\"200\">\n                    <p><br>Your bonus pay is unchanged, and remains at $0.88.</p>\n            ","response":0,"trial_type":"html-button-response","trial_index":104,"time_elapsed":798840,"internal_node_id":"0.0-4.0-1.48","subject_id":"616c8806b3ea3ca532286835","study_id":"60edd13110225f80f9f3709b","session_id":"6196bf60d3360c2394772986","condition":"contingent","relevant_dimensions":["wings","legs"],"bee_group":{"antennae":"X","wings":"2","pattern":"X","legs":"F"},"bonus":1.3600000000000008},{"rt":1458.6000000014901,"stimulus":"bees-with-color/bee-B2SM.svg","response":1,"trial_type":"image-button-response","trial_index":105,"time_elapsed":800303,"internal_node_id":"0.0-4.0-0.49","subject_id":"616c8806b3ea3ca532286835","study_id":"60edd13110225f80f9f3709b","session_id":"6196bf60d3360c2394772986","condition":"contingent","relevant_dimensions":["wings","legs"],"bee_group":{"antennae":"X","wings":"2","pattern":"X","legs":"F"},"action":"avoid","summary":"bad-avoid","bonus":1.3600000000000008},{"rt":1283.5,"stimulus":"\n                    <p><b>Action: <em>avoid</em></b></p>\n                    <p>This is the bee that you just saw.</p>\n                    <img src=\"bees-with-color/bee-B2SM.svg\" width=\"200\">\n                    <p><br>Your bonus pay is unchanged, and remains at $0.88.</p>\n            ","response":0,"trial_type":"html-button-response","trial_index":106,"time_elapsed":801591,"internal_node_id":"0.0-4.0-1.49","subject_id":"616c8806b3ea3ca532286835","study_id":"60edd13110225f80f9f3709b","session_id":"6196bf60d3360c2394772986","condition":"contingent","relevant_dimensions":["wings","legs"],"bee_group":{"antennae":"X","wings":"2","pattern":"X","legs":"F"},"bonus":1.3600000000000008},{"rt":1578.699999999255,"stimulus":"bees-with-color/bee-A2SF.svg","response":1,"trial_type":"image-button-response","trial_index":107,"time_elapsed":803175,"internal_node_id":"0.0-4.0-0.50","subject_id":"616c8806b3ea3ca532286835","study_id":"60edd13110225f80f9f3709b","session_id":"6196bf60d3360c2394772986","condition":"contingent","relevant_dimensions":["wings","legs"],"bee_group":{"antennae":"X","wings":"2","pattern":"X","legs":"F"},"action":"avoid","summary":"good-avoid","bonus":1.3600000000000008},{"rt":1258.5,"stimulus":"\n                    <p><b>Action: <em>avoid</em></b></p>\n                    <p>This is the bee that you just saw.</p>\n                    <img src=\"bees-with-color/bee-A2SF.svg\" width=\"200\">\n                    <p><br>Your bonus pay is unchanged, and remains at $0.88.</p>\n            ","response":0,"trial_type":"html-button-response","trial_index":108,"time_elapsed":804439,"internal_node_id":"0.0-4.0-1.50","subject_id":"616c8806b3ea3ca532286835","study_id":"60edd13110225f80f9f3709b","session_id":"6196bf60d3360c2394772986","condition":"contingent","relevant_dimensions":["wings","legs"],"bee_group":{"antennae":"X","wings":"2","pattern":"X","legs":"F"},"bonus":1.3600000000000008},{"rt":2482.5,"stimulus":"bees-with-color/bee-A2DF.svg","response":1,"trial_type":"image-button-response","trial_index":109,"time_elapsed":806928,"internal_node_id":"0.0-4.0-0.51","subject_id":"616c8806b3ea3ca532286835","study_id":"60edd13110225f80f9f3709b","session_id":"6196bf60d3360c2394772986","condition":"contingent","relevant_dimensions":["wings","legs"],"bee_group":{"antennae":"X","wings":"2","pattern":"X","legs":"F"},"action":"avoid","summary":"good-avoid","bonus":1.3600000000000008},{"rt":1098.6000000014901,"stimulus":"\n                    <p><b>Action: <em>avoid</em></b></p>\n                    <p>This is the bee that you just saw.</p>\n                    <img src=\"bees-with-color/bee-A2DF.svg\" width=\"200\">\n                    <p><br>Your bonus pay is unchanged, and remains at $0.88.</p>\n            ","response":0,"trial_type":"html-button-response","trial_index":110,"time_elapsed":808031,"internal_node_id":"0.0-4.0-1.51","subject_id":"616c8806b3ea3ca532286835","study_id":"60edd13110225f80f9f3709b","session_id":"6196bf60d3360c2394772986","condition":"contingent","relevant_dimensions":["wings","legs"],"bee_group":{"antennae":"X","wings":"2","pattern":"X","legs":"F"},"bonus":1.3600000000000008},{"rt":1308.699999999255,"stimulus":"bees-with-color/bee-B1SM.svg","response":0,"trial_type":"image-button-response","trial_index":111,"time_elapsed":809344,"internal_node_id":"0.0-4.0-0.52","subject_id":"616c8806b3ea3ca532286835","study_id":"60edd13110225f80f9f3709b","session_id":"6196bf60d3360c2394772986","condition":"contingent","relevant_dimensions":["wings","legs"],"bee_group":{"antennae":"X","wings":"2","pattern":"X","legs":"F"},"action":"harvest","summary":"good-harvest","bonus":1.3600000000000008},{"rt":1355,"stimulus":"\n                    <p><b>Action: <em>harvest</em></b></p>\n                    <p>This is the bee that you just saw.</p>\n                    <img src=\"bees-with-color/bee-B1SM.svg\" width=\"200\">\n                    <p><span class=\"greenText\"><b>Successful harvest!</b></span><br>Your pay has increased by $0.02. Your bonus pay is now $0.90.</p>\n            ","response":0,"trial_type":"html-button-response","trial_index":112,"time_elapsed":810703,"internal_node_id":"0.0-4.0-1.52","subject_id":"616c8806b3ea3ca532286835","study_id":"60edd13110225f80f9f3709b","session_id":"6196bf60d3360c2394772986","condition":"contingent","relevant_dimensions":["wings","legs"],"bee_group":{"antennae":"X","wings":"2","pattern":"X","legs":"F"},"bonus":1.3600000000000008},{"rt":1386.800000000745,"stimulus":"bees-with-color/bee-B1SF.svg","response":0,"trial_type":"image-button-response","trial_index":113,"time_elapsed":812095,"internal_node_id":"0.0-4.0-0.53","subject_id":"616c8806b3ea3ca532286835","study_id":"60edd13110225f80f9f3709b","session_id":"6196bf60d3360c2394772986","condition":"contingent","relevant_dimensions":["wings","legs"],"bee_group":{"antennae":"X","wings":"2","pattern":"X","legs":"F"},"action":"harvest","summary":"good-harvest","bonus":1.3600000000000008},{"rt":1354.699999999255,"stimulus":"\n                    <p><b>Action: <em>harvest</em></b></p>\n                    <p>This is the bee that you just saw.</p>\n                    <img src=\"bees-with-color/bee-B1SF.svg\" width=\"200\">\n                    <p><span class=\"greenText\"><b>Successful harvest!</b></span><br>Your pay has increased by $0.02. Your bonus pay is now $0.92.</p>\n            ","response":0,"trial_type":"html-button-response","trial_index":114,"time_elapsed":813455,"internal_node_id":"0.0-4.0-1.53","subject_id":"616c8806b3ea3ca532286835","study_id":"60edd13110225f80f9f3709b","session_id":"6196bf60d3360c2394772986","condition":"contingent","relevant_dimensions":["wings","legs"],"bee_group":{"antennae":"X","wings":"2","pattern":"X","legs":"F"},"bonus":1.3600000000000008},{"rt":1538.699999999255,"stimulus":"bees-with-color/bee-A1SF.svg","response":0,"trial_type":"image-button-response","trial_index":115,"time_elapsed":814999,"internal_node_id":"0.0-4.0-0.54","subject_id":"616c8806b3ea3ca532286835","study_id":"60edd13110225f80f9f3709b","session_id":"6196bf60d3360c2394772986","condition":"contingent","relevant_dimensions":["wings","legs"],"bee_group":{"antennae":"X","wings":"2","pattern":"X","legs":"F"},"action":"harvest","summary":"good-harvest","bonus":1.3600000000000008},{"rt":5188,"stimulus":"\n                    <p><b>Action: <em>harvest</em></b></p>\n                    <p>This is the bee that you just saw.</p>\n                    <img src=\"bees-with-color/bee-A1SF.svg\" width=\"200\">\n                    <p><span class=\"greenText\"><b>Successful harvest!</b></span><br>Your pay has increased by $0.02. Your bonus pay is now $0.94.</p>\n            ","response":0,"trial_type":"html-button-response","trial_index":116,"time_elapsed":820192,"internal_node_id":"0.0-4.0-1.54","subject_id":"616c8806b3ea3ca532286835","study_id":"60edd13110225f80f9f3709b","session_id":"6196bf60d3360c2394772986","condition":"contingent","relevant_dimensions":["wings","legs"],"bee_group":{"antennae":"X","wings":"2","pattern":"X","legs":"F"},"bonus":1.3600000000000008},{"rt":1291.3999999985099,"stimulus":"bees-with-color/bee-A2SM.svg","response":1,"trial_type":"image-button-response","trial_index":117,"time_elapsed":821489,"internal_node_id":"0.0-4.0-0.55","subject_id":"616c8806b3ea3ca532286835","study_id":"60edd13110225f80f9f3709b","session_id":"6196bf60d3360c2394772986","condition":"contingent","relevant_dimensions":["wings","legs"],"bee_group":{"antennae":"X","wings":"2","pattern":"X","legs":"F"},"action":"avoid","summary":"bad-avoid","bonus":1.3600000000000008},{"rt":1337.1000000014901,"stimulus":"\n                    <p><b>Action: <em>avoid</em></b></p>\n                    <p>This is the bee that you just saw.</p>\n                    <img src=\"bees-with-color/bee-A2SM.svg\" width=\"200\">\n                    <p><br>Your bonus pay is unchanged, and remains at $0.94.</p>\n            ","response":0,"trial_type":"html-button-response","trial_index":118,"time_elapsed":822831,"internal_node_id":"0.0-4.0-1.55","subject_id":"616c8806b3ea3ca532286835","study_id":"60edd13110225f80f9f3709b","session_id":"6196bf60d3360c2394772986","condition":"contingent","relevant_dimensions":["wings","legs"],"bee_group":{"antennae":"X","wings":"2","pattern":"X","legs":"F"},"bonus":1.3600000000000008},{"rt":1290.4000000022352,"stimulus":"bees-with-color/bee-B1DF.svg","response":0,"trial_type":"image-button-response","trial_index":119,"time_elapsed":824127,"internal_node_id":"0.0-4.0-0.56","subject_id":"616c8806b3ea3ca532286835","study_id":"60edd13110225f80f9f3709b","session_id":"6196bf60d3360c2394772986","condition":"contingent","relevant_dimensions":["wings","legs"],"bee_group":{"antennae":"X","wings":"2","pattern":"X","legs":"F"},"action":"harvest","summary":"good-harvest","bonus":1.3600000000000008},{"rt":1307,"stimulus":"\n                    <p><b>Action: <em>harvest</em></b></p>\n                    <p>This is the bee that you just saw.</p>\n                    <img src=\"bees-with-color/bee-B1DF.svg\" width=\"200\">\n                    <p><span class=\"greenText\"><b>Successful harvest!</b></span><br>Your pay has increased by $0.02. Your bonus pay is now $0.96.</p>\n            ","response":0,"trial_type":"html-button-response","trial_index":120,"time_elapsed":825439,"internal_node_id":"0.0-4.0-1.56","subject_id":"616c8806b3ea3ca532286835","study_id":"60edd13110225f80f9f3709b","session_id":"6196bf60d3360c2394772986","condition":"contingent","relevant_dimensions":["wings","legs"],"bee_group":{"antennae":"X","wings":"2","pattern":"X","legs":"F"},"bonus":1.3600000000000008},{"rt":1282.699999999255,"stimulus":"bees-with-color/bee-A1SM.svg","response":0,"trial_type":"image-button-response","trial_index":121,"time_elapsed":826727,"internal_node_id":"0.0-4.0-0.57","subject_id":"616c8806b3ea3ca532286835","study_id":"60edd13110225f80f9f3709b","session_id":"6196bf60d3360c2394772986","condition":"contingent","relevant_dimensions":["wings","legs"],"bee_group":{"antennae":"X","wings":"2","pattern":"X","legs":"F"},"action":"harvest","summary":"good-harvest","bonus":1.3600000000000008},{"rt":1203.199999999255,"stimulus":"\n                    <p><b>Action: <em>harvest</em></b></p>\n                    <p>This is the bee that you just saw.</p>\n                    <img src=\"bees-with-color/bee-A1SM.svg\" width=\"200\">\n                    <p><span class=\"greenText\"><b>Successful harvest!</b></span><br>Your pay has increased by $0.02. Your bonus pay is now $0.98.</p>\n            ","response":0,"trial_type":"html-button-response","trial_index":122,"time_elapsed":827935,"internal_node_id":"0.0-4.0-1.57","subject_id":"616c8806b3ea3ca532286835","study_id":"60edd13110225f80f9f3709b","session_id":"6196bf60d3360c2394772986","condition":"contingent","relevant_dimensions":["wings","legs"],"bee_group":{"antennae":"X","wings":"2","pattern":"X","legs":"F"},"bonus":1.3600000000000008},{"rt":1425.6000000014901,"stimulus":"bees-with-color/bee-B2DM.svg","response":1,"trial_type":"image-button-response","trial_index":123,"time_elapsed":829367,"internal_node_id":"0.0-4.0-0.58","subject_id":"616c8806b3ea3ca532286835","study_id":"60edd13110225f80f9f3709b","session_id":"6196bf60d3360c2394772986","condition":"contingent","relevant_dimensions":["wings","legs"],"bee_group":{"antennae":"X","wings":"2","pattern":"X","legs":"F"},"action":"avoid","summary":"bad-avoid","bonus":1.3600000000000008},{"rt":1184.800000000745,"stimulus":"\n                    <p><b>Action: <em>avoid</em></b></p>\n                    <p>This is the bee that you just saw.</p>\n                    <img src=\"bees-with-color/bee-B2DM.svg\" width=\"200\">\n                    <p><br>Your bonus pay is unchanged, and remains at $0.98.</p>\n            ","response":0,"trial_type":"html-button-response","trial_index":124,"time_elapsed":830559,"internal_node_id":"0.0-4.0-1.58","subject_id":"616c8806b3ea3ca532286835","study_id":"60edd13110225f80f9f3709b","session_id":"6196bf60d3360c2394772986","condition":"contingent","relevant_dimensions":["wings","legs"],"bee_group":{"antennae":"X","wings":"2","pattern":"X","legs":"F"},"bonus":1.3600000000000008},{"rt":1618.5999999977648,"stimulus":"bees-with-color/bee-B2DF.svg","response":1,"trial_type":"image-button-response","trial_index":125,"time_elapsed":832183,"internal_node_id":"0.0-4.0-0.59","subject_id":"616c8806b3ea3ca532286835","study_id":"60edd13110225f80f9f3709b","session_id":"6196bf60d3360c2394772986","condition":"contingent","relevant_dimensions":["wings","legs"],"bee_group":{"antennae":"X","wings":"2","pattern":"X","legs":"F"},"action":"avoid","summary":"good-avoid","bonus":1.3600000000000008},{"rt":2906,"stimulus":"\n                    <p><b>Action: <em>avoid</em></b></p>\n                    <p>This is the bee that you just saw.</p>\n                    <img src=\"bees-with-color/bee-B2DF.svg\" width=\"200\">\n                    <p><br>Your bonus pay is unchanged, and remains at $0.98.</p>\n            ","response":0,"trial_type":"html-button-response","trial_index":126,"time_elapsed":835096,"internal_node_id":"0.0-4.0-1.59","subject_id":"616c8806b3ea3ca532286835","study_id":"60edd13110225f80f9f3709b","session_id":"6196bf60d3360c2394772986","condition":"contingent","relevant_dimensions":["wings","legs"],"bee_group":{"antennae":"X","wings":"2","pattern":"X","legs":"F"},"bonus":1.3600000000000008},{"rt":1313,"stimulus":"bees-with-color/bee-B1DM.svg","response":0,"trial_type":"image-button-response","trial_index":127,"time_elapsed":836415,"internal_node_id":"0.0-4.0-0.60","subject_id":"616c8806b3ea3ca532286835","study_id":"60edd13110225f80f9f3709b","session_id":"6196bf60d3360c2394772986","condition":"contingent","relevant_dimensions":["wings","legs"],"bee_group":{"antennae":"X","wings":"2","pattern":"X","legs":"F"},"action":"harvest","summary":"good-harvest","bonus":1.3600000000000008},{"rt":1235.699999999255,"stimulus":"\n                    <p><b>Action: <em>harvest</em></b></p>\n                    <p>This is the bee that you just saw.</p>\n                    <img src=\"bees-with-color/bee-B1DM.svg\" width=\"200\">\n                    <p><span class=\"greenText\"><b>Successful harvest!</b></span><br>Your pay has increased by $0.02. Your bonus pay is now $1.00.</p>\n            ","response":0,"trial_type":"html-button-response","trial_index":128,"time_elapsed":837656,"internal_node_id":"0.0-4.0-1.60","subject_id":"616c8806b3ea3ca532286835","study_id":"60edd13110225f80f9f3709b","session_id":"6196bf60d3360c2394772986","condition":"contingent","relevant_dimensions":["wings","legs"],"bee_group":{"antennae":"X","wings":"2","pattern":"X","legs":"F"},"bonus":1.3600000000000008},{"rt":1362.800000000745,"stimulus":"bees-with-color/bee-B2SF.svg","response":1,"trial_type":"image-button-response","trial_index":129,"time_elapsed":839024,"internal_node_id":"0.0-4.0-0.61","subject_id":"616c8806b3ea3ca532286835","study_id":"60edd13110225f80f9f3709b","session_id":"6196bf60d3360c2394772986","condition":"contingent","relevant_dimensions":["wings","legs"],"bee_group":{"antennae":"X","wings":"2","pattern":"X","legs":"F"},"action":"avoid","summary":"good-avoid","bonus":1.3600000000000008},{"rt":1321.3999999985099,"stimulus":"\n                    <p><b>Action: <em>avoid</em></b></p>\n                    <p>This is the bee that you just saw.</p>\n                    <img src=\"bees-with-color/bee-B2SF.svg\" width=\"200\">\n                    <p><br>Your bonus pay is unchanged, and remains at $1.00.</p>\n            ","response":0,"trial_type":"html-button-response","trial_index":130,"time_elapsed":840350,"internal_node_id":"0.0-4.0-1.61","subject_id":"616c8806b3ea3ca532286835","study_id":"60edd13110225f80f9f3709b","session_id":"6196bf60d3360c2394772986","condition":"contingent","relevant_dimensions":["wings","legs"],"bee_group":{"antennae":"X","wings":"2","pattern":"X","legs":"F"},"bonus":1.3600000000000008},{"rt":1530.1000000014901,"stimulus":"bees-with-color/bee-A1DM.svg","response":0,"trial_type":"image-button-response","trial_index":131,"time_elapsed":841888,"internal_node_id":"0.0-4.0-0.62","subject_id":"616c8806b3ea3ca532286835","study_id":"60edd13110225f80f9f3709b","session_id":"6196bf60d3360c2394772986","condition":"contingent","relevant_dimensions":["wings","legs"],"bee_group":{"antennae":"X","wings":"2","pattern":"X","legs":"F"},"action":"harvest","summary":"good-harvest","bonus":1.3600000000000008},{"rt":1608.800000000745,"stimulus":"\n                    <p><b>Action: <em>harvest</em></b></p>\n                    <p>This is the bee that you just saw.</p>\n                    <img src=\"bees-with-color/bee-A1DM.svg\" width=\"200\">\n                    <p><span class=\"greenText\"><b>Successful harvest!</b></span><br>Your pay has increased by $0.02. Your bonus pay is now $1.02.</p>\n            ","response":0,"trial_type":"html-button-response","trial_index":132,"time_elapsed":843504,"internal_node_id":"0.0-4.0-1.62","subject_id":"616c8806b3ea3ca532286835","study_id":"60edd13110225f80f9f3709b","session_id":"6196bf60d3360c2394772986","condition":"contingent","relevant_dimensions":["wings","legs"],"bee_group":{"antennae":"X","wings":"2","pattern":"X","legs":"F"},"bonus":1.3600000000000008},{"rt":1818.5,"stimulus":"bees-with-color/bee-A1DF.svg","response":0,"trial_type":"image-button-response","trial_index":133,"time_elapsed":845327,"internal_node_id":"0.0-4.0-0.63","subject_id":"616c8806b3ea3ca532286835","study_id":"60edd13110225f80f9f3709b","session_id":"6196bf60d3360c2394772986","condition":"contingent","relevant_dimensions":["wings","legs"],"bee_group":{"antennae":"X","wings":"2","pattern":"X","legs":"F"},"action":"harvest","summary":"good-harvest","bonus":1.3600000000000008},{"rt":1178.3999999985099,"stimulus":"\n                    <p><b>Action: <em>harvest</em></b></p>\n                    <p>This is the bee that you just saw.</p>\n                    <img src=\"bees-with-color/bee-A1DF.svg\" width=\"200\">\n                    <p><span class=\"greenText\"><b>Successful harvest!</b></span><br>Your pay has increased by $0.02. Your bonus pay is now $1.04.</p>\n            ","response":0,"trial_type":"html-button-response","trial_index":134,"time_elapsed":846511,"internal_node_id":"0.0-4.0-1.63","subject_id":"616c8806b3ea3ca532286835","study_id":"60edd13110225f80f9f3709b","session_id":"6196bf60d3360c2394772986","condition":"contingent","relevant_dimensions":["wings","legs"],"bee_group":{"antennae":"X","wings":"2","pattern":"X","legs":"F"},"bonus":1.3600000000000008},{"rt":12837.39999999851,"stimulus":"You have completed the first part of this experiment.<br><br>You will now begin a shorter second part, in which you will receive no feedback.<br>The same rules regarding bonus pay apply.<br><br>Press any key to begin.","response":"h","trial_type":"html-keyboard-response","trial_index":135,"time_elapsed":859354,"internal_node_id":"0.0-5.0","subject_id":"616c8806b3ea3ca532286835","study_id":"60edd13110225f80f9f3709b","session_id":"6196bf60d3360c2394772986","condition":"contingent","relevant_dimensions":["wings","legs"],"bee_group":{"antennae":"X","wings":"2","pattern":"X","legs":"F"},"bonus":1.3600000000000008},{"rt":2386.60000000149,"stimulus":"bees-with-color/bee-A1DM.svg","response":0,"trial_type":"image-button-response","trial_index":136,"time_elapsed":861775,"internal_node_id":"0.0-6.0-0.0","subject_id":"616c8806b3ea3ca532286835","study_id":"60edd13110225f80f9f3709b","session_id":"6196bf60d3360c2394772986","condition":"contingent","relevant_dimensions":["wings","legs"],"bee_group":{"antennae":"X","wings":"2","pattern":"X","legs":"F"},"bonus":1.3600000000000008},{"rt":1221.8999999985099,"stimulus":"bees-with-color/bee-B2SM.svg","response":1,"trial_type":"image-button-response","trial_index":137,"time_elapsed":863007,"internal_node_id":"0.0-6.0-0.1","subject_id":"616c8806b3ea3ca532286835","study_id":"60edd13110225f80f9f3709b","session_id":"6196bf60d3360c2394772986","condition":"contingent","relevant_dimensions":["wings","legs"],"bee_group":{"antennae":"X","wings":"2","pattern":"X","legs":"F"},"bonus":1.3600000000000008},{"rt":1073.3999999985099,"stimulus":"bees-with-color/bee-A2DF.svg","response":1,"trial_type":"image-button-response","trial_index":138,"time_elapsed":864087,"internal_node_id":"0.0-6.0-0.2","subject_id":"616c8806b3ea3ca532286835","study_id":"60edd13110225f80f9f3709b","session_id":"6196bf60d3360c2394772986","condition":"contingent","relevant_dimensions":["wings","legs"],"bee_group":{"antennae":"X","wings":"2","pattern":"X","legs":"F"},"bonus":1.3600000000000008},{"rt":1192.300000000745,"stimulus":"bees-with-color/bee-B1SM.svg","response":0,"trial_type":"image-button-response","trial_index":139,"time_elapsed":865286,"internal_node_id":"0.0-6.0-0.3","subject_id":"616c8806b3ea3ca532286835","study_id":"60edd13110225f80f9f3709b","session_id":"6196bf60d3360c2394772986","condition":"contingent","relevant_dimensions":["wings","legs"],"bee_group":{"antennae":"X","wings":"2","pattern":"X","legs":"F"},"bonus":1.3600000000000008},{"rt":1075.1000000014901,"stimulus":"bees-with-color/bee-A1DF.svg","response":0,"trial_type":"image-button-response","trial_index":140,"time_elapsed":866365,"internal_node_id":"0.0-6.0-0.4","subject_id":"616c8806b3ea3ca532286835","study_id":"60edd13110225f80f9f3709b","session_id":"6196bf60d3360c2394772986","condition":"contingent","relevant_dimensions":["wings","legs"],"bee_group":{"antennae":"X","wings":"2","pattern":"X","legs":"F"},"bonus":1.3600000000000008},{"rt":1347.699999999255,"stimulus":"bees-with-color/bee-B2SF.svg","response":1,"trial_type":"image-button-response","trial_index":141,"time_elapsed":867718,"internal_node_id":"0.0-6.0-0.5","subject_id":"616c8806b3ea3ca532286835","study_id":"60edd13110225f80f9f3709b","session_id":"6196bf60d3360c2394772986","condition":"contingent","relevant_dimensions":["wings","legs"],"bee_group":{"antennae":"X","wings":"2","pattern":"X","legs":"F"},"bonus":1.3600000000000008},{"rt":1468.2999999970198,"stimulus":"bees-with-color/bee-A2DM.svg","response":1,"trial_type":"image-button-response","trial_index":142,"time_elapsed":869191,"internal_node_id":"0.0-6.0-0.6","subject_id":"616c8806b3ea3ca532286835","study_id":"60edd13110225f80f9f3709b","session_id":"6196bf60d3360c2394772986","condition":"contingent","relevant_dimensions":["wings","legs"],"bee_group":{"antennae":"X","wings":"2","pattern":"X","legs":"F"},"bonus":1.3600000000000008},{"rt":1155.199999999255,"stimulus":"bees-with-color/bee-B2DM.svg","response":1,"trial_type":"image-button-response","trial_index":143,"time_elapsed":870351,"internal_node_id":"0.0-6.0-0.7","subject_id":"616c8806b3ea3ca532286835","study_id":"60edd13110225f80f9f3709b","session_id":"6196bf60d3360c2394772986","condition":"contingent","relevant_dimensions":["wings","legs"],"bee_group":{"antennae":"X","wings":"2","pattern":"X","legs":"F"},"bonus":1.3600000000000008},{"rt":1081.5,"stimulus":"bees-with-color/bee-B2DF.svg","response":1,"trial_type":"image-button-response","trial_index":144,"time_elapsed":871439,"internal_node_id":"0.0-6.0-0.8","subject_id":"616c8806b3ea3ca532286835","study_id":"60edd13110225f80f9f3709b","session_id":"6196bf60d3360c2394772986","condition":"contingent","relevant_dimensions":["wings","legs"],"bee_group":{"antennae":"X","wings":"2","pattern":"X","legs":"F"},"bonus":1.3600000000000008},{"rt":1169.6000000014901,"stimulus":"bees-with-color/bee-B1DM.svg","response":0,"trial_type":"image-button-response","trial_index":145,"time_elapsed":872616,"internal_node_id":"0.0-6.0-0.9","subject_id":"616c8806b3ea3ca532286835","study_id":"60edd13110225f80f9f3709b","session_id":"6196bf60d3360c2394772986","condition":"contingent","relevant_dimensions":["wings","legs"],"bee_group":{"antennae":"X","wings":"2","pattern":"X","legs":"F"},"bonus":1.3600000000000008},{"rt":1615.199999999255,"stimulus":"bees-with-color/bee-A2SF.svg","response":1,"trial_type":"image-button-response","trial_index":146,"time_elapsed":874238,"internal_node_id":"0.0-6.0-0.10","subject_id":"616c8806b3ea3ca532286835","study_id":"60edd13110225f80f9f3709b","session_id":"6196bf60d3360c2394772986","condition":"contingent","relevant_dimensions":["wings","legs"],"bee_group":{"antennae":"X","wings":"2","pattern":"X","legs":"F"},"bonus":1.3600000000000008},{"rt":1138.5,"stimulus":"bees-with-color/bee-A1SF.svg","response":0,"trial_type":"image-button-response","trial_index":147,"time_elapsed":875384,"internal_node_id":"0.0-6.0-0.11","subject_id":"616c8806b3ea3ca532286835","study_id":"60edd13110225f80f9f3709b","session_id":"6196bf60d3360c2394772986","condition":"contingent","relevant_dimensions":["wings","legs"],"bee_group":{"antennae":"X","wings":"2","pattern":"X","legs":"F"},"bonus":1.3600000000000008},{"rt":1110.8999999985099,"stimulus":"bees-with-color/bee-A2SM.svg","response":1,"trial_type":"image-button-response","trial_index":148,"time_elapsed":876502,"internal_node_id":"0.0-6.0-0.12","subject_id":"616c8806b3ea3ca532286835","study_id":"60edd13110225f80f9f3709b","session_id":"6196bf60d3360c2394772986","condition":"contingent","relevant_dimensions":["wings","legs"],"bee_group":{"antennae":"X","wings":"2","pattern":"X","legs":"F"},"bonus":1.3600000000000008},{"rt":1066.4000000022352,"stimulus":"bees-with-color/bee-B1DF.svg","response":0,"trial_type":"image-button-response","trial_index":149,"time_elapsed":877575,"internal_node_id":"0.0-6.0-0.13","subject_id":"616c8806b3ea3ca532286835","study_id":"60edd13110225f80f9f3709b","session_id":"6196bf60d3360c2394772986","condition":"contingent","relevant_dimensions":["wings","legs"],"bee_group":{"antennae":"X","wings":"2","pattern":"X","legs":"F"},"bonus":1.3600000000000008},{"rt":1151.699999999255,"stimulus":"bees-with-color/bee-A1SM.svg","response":0,"trial_type":"image-button-response","trial_index":150,"time_elapsed":878735,"internal_node_id":"0.0-6.0-0.14","subject_id":"616c8806b3ea3ca532286835","study_id":"60edd13110225f80f9f3709b","session_id":"6196bf60d3360c2394772986","condition":"contingent","relevant_dimensions":["wings","legs"],"bee_group":{"antennae":"X","wings":"2","pattern":"X","legs":"F"},"bonus":1.3600000000000008},{"rt":1113.3999999985099,"stimulus":"bees-with-color/bee-B1SF.svg","response":0,"trial_type":"image-button-response","trial_index":151,"time_elapsed":879855,"internal_node_id":"0.0-6.0-0.15","subject_id":"616c8806b3ea3ca532286835","study_id":"60edd13110225f80f9f3709b","session_id":"6196bf60d3360c2394772986","condition":"contingent","relevant_dimensions":["wings","legs"],"bee_group":{"antennae":"X","wings":"2","pattern":"X","legs":"F"},"bonus":1.3600000000000008},{"rt":1003.6000000014901,"stimulus":"bees-with-color/bee-A1SM.svg","response":0,"trial_type":"image-button-response","trial_index":152,"time_elapsed":880864,"internal_node_id":"0.0-6.0-0.16","subject_id":"616c8806b3ea3ca532286835","study_id":"60edd13110225f80f9f3709b","session_id":"6196bf60d3360c2394772986","condition":"contingent","relevant_dimensions":["wings","legs"],"bee_group":{"antennae":"X","wings":"2","pattern":"X","legs":"F"},"bonus":1.3600000000000008},{"rt":1081.6000000014901,"stimulus":"bees-with-color/bee-A1DM.svg","response":0,"trial_type":"image-button-response","trial_index":153,"time_elapsed":881951,"internal_node_id":"0.0-6.0-0.17","subject_id":"616c8806b3ea3ca532286835","study_id":"60edd13110225f80f9f3709b","session_id":"6196bf60d3360c2394772986","condition":"contingent","relevant_dimensions":["wings","legs"],"bee_group":{"antennae":"X","wings":"2","pattern":"X","legs":"F"},"bonus":1.3600000000000008},{"rt":1170.3999999985099,"stimulus":"bees-with-color/bee-B1SF.svg","response":0,"trial_type":"image-button-response","trial_index":154,"time_elapsed":883126,"internal_node_id":"0.0-6.0-0.18","subject_id":"616c8806b3ea3ca532286835","study_id":"60edd13110225f80f9f3709b","session_id":"6196bf60d3360c2394772986","condition":"contingent","relevant_dimensions":["wings","legs"],"bee_group":{"antennae":"X","wings":"2","pattern":"X","legs":"F"},"bonus":1.3600000000000008},{"rt":1401.7999999970198,"stimulus":"bees-with-color/bee-B1DF.svg","response":0,"trial_type":"image-button-response","trial_index":155,"time_elapsed":884535,"internal_node_id":"0.0-6.0-0.19","subject_id":"616c8806b3ea3ca532286835","study_id":"60edd13110225f80f9f3709b","session_id":"6196bf60d3360c2394772986","condition":"contingent","relevant_dimensions":["wings","legs"],"bee_group":{"antennae":"X","wings":"2","pattern":"X","legs":"F"},"bonus":1.3600000000000008},{"rt":1234.7999999970198,"stimulus":"bees-with-color/bee-B2SM.svg","response":1,"trial_type":"image-button-response","trial_index":156,"time_elapsed":885775,"internal_node_id":"0.0-6.0-0.20","subject_id":"616c8806b3ea3ca532286835","study_id":"60edd13110225f80f9f3709b","session_id":"6196bf60d3360c2394772986","condition":"contingent","relevant_dimensions":["wings","legs"],"bee_group":{"antennae":"X","wings":"2","pattern":"X","legs":"F"},"bonus":1.3600000000000008},{"rt":1072.9000000022352,"stimulus":"bees-with-color/bee-A1SF.svg","response":0,"trial_type":"image-button-response","trial_index":157,"time_elapsed":886855,"internal_node_id":"0.0-6.0-0.21","subject_id":"616c8806b3ea3ca532286835","study_id":"60edd13110225f80f9f3709b","session_id":"6196bf60d3360c2394772986","condition":"contingent","relevant_dimensions":["wings","legs"],"bee_group":{"antennae":"X","wings":"2","pattern":"X","legs":"F"},"bonus":1.3600000000000008},{"rt":1130.5999999977648,"stimulus":"bees-with-color/bee-A2DF.svg","response":1,"trial_type":"image-button-response","trial_index":158,"time_elapsed":887991,"internal_node_id":"0.0-6.0-0.22","subject_id":"616c8806b3ea3ca532286835","study_id":"60edd13110225f80f9f3709b","session_id":"6196bf60d3360c2394772986","condition":"contingent","relevant_dimensions":["wings","legs"],"bee_group":{"antennae":"X","wings":"2","pattern":"X","legs":"F"},"bonus":1.3600000000000008},{"rt":1169.199999999255,"stimulus":"bees-with-color/bee-A2SF.svg","response":1,"trial_type":"image-button-response","trial_index":159,"time_elapsed":889167,"internal_node_id":"0.0-6.0-0.23","subject_id":"616c8806b3ea3ca532286835","study_id":"60edd13110225f80f9f3709b","session_id":"6196bf60d3360c2394772986","condition":"contingent","relevant_dimensions":["wings","legs"],"bee_group":{"antennae":"X","wings":"2","pattern":"X","legs":"F"},"bonus":1.3600000000000008},{"rt":1106.300000000745,"stimulus":"bees-with-color/bee-B2SF.svg","response":1,"trial_type":"image-button-response","trial_index":160,"time_elapsed":890279,"internal_node_id":"0.0-6.0-0.24","subject_id":"616c8806b3ea3ca532286835","study_id":"60edd13110225f80f9f3709b","session_id":"6196bf60d3360c2394772986","condition":"contingent","relevant_dimensions":["wings","legs"],"bee_group":{"antennae":"X","wings":"2","pattern":"X","legs":"F"},"bonus":1.3600000000000008},{"rt":1139,"stimulus":"bees-with-color/bee-B1SM.svg","response":0,"trial_type":"image-button-response","trial_index":161,"time_elapsed":891423,"internal_node_id":"0.0-6.0-0.25","subject_id":"616c8806b3ea3ca532286835","study_id":"60edd13110225f80f9f3709b","session_id":"6196bf60d3360c2394772986","condition":"contingent","relevant_dimensions":["wings","legs"],"bee_group":{"antennae":"X","wings":"2","pattern":"X","legs":"F"},"bonus":1.3600000000000008},{"rt":1089.5,"stimulus":"bees-with-color/bee-A2DM.svg","response":1,"trial_type":"image-button-response","trial_index":162,"time_elapsed":892519,"internal_node_id":"0.0-6.0-0.26","subject_id":"616c8806b3ea3ca532286835","study_id":"60edd13110225f80f9f3709b","session_id":"6196bf60d3360c2394772986","condition":"contingent","relevant_dimensions":["wings","legs"],"bee_group":{"antennae":"X","wings":"2","pattern":"X","legs":"F"},"bonus":1.3600000000000008},{"rt":1082.300000000745,"stimulus":"bees-with-color/bee-A2SM.svg","response":1,"trial_type":"image-button-response","trial_index":163,"time_elapsed":893607,"internal_node_id":"0.0-6.0-0.27","subject_id":"616c8806b3ea3ca532286835","study_id":"60edd13110225f80f9f3709b","session_id":"6196bf60d3360c2394772986","condition":"contingent","relevant_dimensions":["wings","legs"],"bee_group":{"antennae":"X","wings":"2","pattern":"X","legs":"F"},"bonus":1.3600000000000008},{"rt":1161.300000000745,"stimulus":"bees-with-color/bee-B2DF.svg","response":1,"trial_type":"image-button-response","trial_index":164,"time_elapsed":894775,"internal_node_id":"0.0-6.0-0.28","subject_id":"616c8806b3ea3ca532286835","study_id":"60edd13110225f80f9f3709b","session_id":"6196bf60d3360c2394772986","condition":"contingent","relevant_dimensions":["wings","legs"],"bee_group":{"antennae":"X","wings":"2","pattern":"X","legs":"F"},"bonus":1.3600000000000008},{"rt":1201.1000000014901,"stimulus":"bees-with-color/bee-B2DM.svg","response":1,"trial_type":"image-button-response","trial_index":165,"time_elapsed":895983,"internal_node_id":"0.0-6.0-0.29","subject_id":"616c8806b3ea3ca532286835","study_id":"60edd13110225f80f9f3709b","session_id":"6196bf60d3360c2394772986","condition":"contingent","relevant_dimensions":["wings","legs"],"bee_group":{"antennae"