[{"success":true,"trial_type":"fullscreen","trial_index":0,"time_elapsed":51478,"internal_node_id":"0.0-0.0","subject_id":"613aaf8a8dc36e94fa4f1ba7","study_id":"6197b3f67c2b5cd3b6d9596a","session_id":"619be31e66bf3d6f2e519ff2","condition":"contingent","relevant_dimensions":["antennae","pattern"],"bee_group":{"antennae":"A","wings":"X","pattern":"D","legs":"X"},"bonus":1.260000000000001},{"success":true,"timeout":false,"failed_images":[],"failed_audio":[],"failed_video":[],"trial_type":"preload","trial_index":1,"time_elapsed":52450,"internal_node_id":"0.0-1.0","subject_id":"613aaf8a8dc36e94fa4f1ba7","study_id":"6197b3f67c2b5cd3b6d9596a","session_id":"619be31e66bf3d6f2e519ff2","condition":"contingent","relevant_dimensions":["antennae","pattern"],"bee_group":{"antennae":"A","wings":"X","pattern":"D","legs":"X"},"bonus":1.260000000000001},{"rt":2185.800000000745,"stimulus":"Welcome! Press any key to begin.","response":"s","trial_type":"html-keyboard-response","trial_index":2,"time_elapsed":54637,"internal_node_id":"0.0-2.0","subject_id":"613aaf8a8dc36e94fa4f1ba7","study_id":"6197b3f67c2b5cd3b6d9596a","session_id":"619be31e66bf3d6f2e519ff2","condition":"contingent","relevant_dimensions":["antennae","pattern"],"bee_group":{"antennae":"A","wings":"X","pattern":"D","legs":"X"},"bonus":1.260000000000001},{"view_history":[{"page_index":0,"viewing_time":4076.7000000011176},{"page_index":1,"viewing_time":12062.5},{"page_index":2,"viewing_time":9495},{"page_index":3,"viewing_time":14520.599999999627},{"page_index":4,"viewing_time":42329.09999999963},{"page_index":5,"viewing_time":5793.700000001118},{"page_index":6,"viewing_time":8261.099999999627},{"page_index":7,"viewing_time":7455.799999998882},{"page_index":8,"viewing_time":7382},{"page_index":9,"viewing_time":2425.7000000011176},{"page_index":10,"viewing_time":2020},{"page_index":11,"viewing_time":8995.599999999627},{"page_index":12,"viewing_time":10304.900000000373},{"page_index":13,"viewing_time":2233.9000000003725},{"page_index":14,"viewing_time":2189.0999999996275}],"rt":139546,"trial_type":"instructions","trial_index":3,"time_elapsed":194184,"internal_node_id":"0.0-3.0-0.0","subject_id":"613aaf8a8dc36e94fa4f1ba7","study_id":"6197b3f67c2b5cd3b6d9596a","session_id":"619be31e66bf3d6f2e519ff2","condition":"contingent","relevant_dimensions":["antennae","pattern"],"bee_group":{"antennae":"A","wings":"X","pattern":"D","legs":"X"},"bonus":1.260000000000001},{"rt":12674,"response":{"Q0":["Two or six legs","Stripes or spots on body","Single or double wings","Antennae or no antennae"]},"question_order":[0],"trial_type":"survey-multi-select","trial_index":4,"time_elapsed":206860,"internal_node_id":"0.0-3.0-1.0","subject_id":"613aaf8a8dc36e94fa4f1ba7","study_id":"6197b3f67c2b5cd3b6d9596a","session_id":"619be31e66bf3d6f2e519ff2","condition":"contingent","relevant_dimensions":["antennae","pattern"],"bee_group":{"antennae":"A","wings":"X","pattern":"D","legs":"X"},"correct":true,"bonus":1.260000000000001},{"rt":21493.900000000373,"response":{"Q1":"No.","Q2":"Based on the four features of the bee.","Q3":"You do not learn if it was friendly or dangerous, and do not alter your bonus."},"question_order":[0,1,2],"trial_type":"survey-multi-choice","trial_index":5,"time_elapsed":228357,"internal_node_id":"0.0-3.0-2.0","subject_id":"613aaf8a8dc36e94fa4f1ba7","study_id":"6197b3f67c2b5cd3b6d9596a","session_id":"619be31e66bf3d6f2e519ff2","condition":"contingent","relevant_dimensions":["antennae","pattern"],"bee_group":{"antennae":"A","wings":"X","pattern":"D","legs":"X"},"correct":true,"bonus":1.260000000000001},{"rt":5045.800000000745,"stimulus":"<p>Congrats, you got everything right<br>When you're ready, click the button below to continue to the experiment.</p>","response":0,"trial_type":"html-button-response","trial_index":6,"time_elapsed":233406,"internal_node_id":"0.0-3.0-3.0","subject_id":"613aaf8a8dc36e94fa4f1ba7","study_id":"6197b3f67c2b5cd3b6d9596a","session_id":"619be31e66bf3d6f2e519ff2","condition":"contingent","relevant_dimensions":["antennae","pattern"],"bee_group":{"antennae":"A","wings":"X","pattern":"D","legs":"X"},"bonus":1.260000000000001},{"rt":5141.4000000003725,"stimulus":"bees-with-color/bee-B1DF.svg","response":0,"trial_type":"image-button-response","trial_index":7,"time_elapsed":238548,"internal_node_id":"0.0-4.0-0.0","subject_id":"613aaf8a8dc36e94fa4f1ba7","study_id":"6197b3f67c2b5cd3b6d9596a","session_id":"619be31e66bf3d6f2e519ff2","condition":"contingent","relevant_dimensions":["antennae","pattern"],"bee_group":{"antennae":"A","wings":"X","pattern":"D","legs":"X"},"action":"harvest","summary":"good-harvest","bonus":1.260000000000001},{"rt":7549,"stimulus":"\n                    <p><b>Action: <em>harvest</em></b></p>\n                    <p>This is the bee that you just saw.</p>\n                    <img src=\"bees-with-color/bee-B1DF.svg\" width=\"200\">\n                    <p><span class=\"greenText\"><b>Successful harvest!</b></span><br>Your pay has increased by $0.02. Your bonus pay is now $0.56.</p>\n            ","response":0,"trial_type":"html-button-response","trial_index":8,"time_elapsed":246099,"internal_node_id":"0.0-4.0-1.0","subject_id":"613aaf8a8dc36e94fa4f1ba7","study_id":"6197b3f67c2b5cd3b6d9596a","session_id":"619be31e66bf3d6f2e519ff2","condition":"contingent","relevant_dimensions":["antennae","pattern"],"bee_group":{"antennae":"A","wings":"X","pattern":"D","legs":"X"},"bonus":1.260000000000001},{"rt":3547.9000000003725,"stimulus":"bees-with-color/bee-A2DM.svg","response":0,"trial_type":"image-button-response","trial_index":9,"time_elapsed":249648,"internal_node_id":"0.0-4.0-0.1","subject_id":"613aaf8a8dc36e94fa4f1ba7","study_id":"6197b3f67c2b5cd3b6d9596a","session_id":"619be31e66bf3d6f2e519ff2","condition":"contingent","relevant_dimensions":["antennae","pattern"],"bee_group":{"antennae":"A","wings":"X","pattern":"D","legs":"X"},"action":"harvest","summary":"bad-harvest","bonus":1.260000000000001},{"rt":2867.7999999988824,"stimulus":"\n                    <p><b>Action: <em>harvest</em></b></p>\n                    <p>This is the bee that you just saw.</p>\n                    <img src=\"bees-with-color/bee-A2DM.svg\" width=\"200\">\n                    <p><span class=\"redText\">Bad choice, the bee was angry.</span><br><b>You have been stung!</b><br>Your pay has been decreased by $0.10. Your bonus pay is now $0.46.</p>\n            ","response":0,"trial_type":"html-button-response","trial_index":10,"time_elapsed":252517,"internal_node_id":"0.0-4.0-1.1","subject_id":"613aaf8a8dc36e94fa4f1ba7","study_id":"6197b3f67c2b5cd3b6d9596a","session_id":"619be31e66bf3d6f2e519ff2","condition":"contingent","relevant_dimensions":["antennae","pattern"],"bee_group":{"antennae":"A","wings":"X","pattern":"D","legs":"X"},"bonus":1.260000000000001},{"rt":3775.5,"stimulus":"bees-with-color/bee-B2SF.svg","response":0,"trial_type":"image-button-response","trial_index":11,"time_elapsed":256294,"internal_node_id":"0.0-4.0-0.2","subject_id":"613aaf8a8dc36e94fa4f1ba7","study_id":"6197b3f67c2b5cd3b6d9596a","session_id":"619be31e66bf3d6f2e519ff2","condition":"contingent","relevant_dimensions":["antennae","pattern"],"bee_group":{"antennae":"A","wings":"X","pattern":"D","legs":"X"},"action":"harvest","summary":"good-harvest","bonus":1.260000000000001},{"rt":4191.799999998882,"stimulus":"\n                    <p><b>Action: <em>harvest</em></b></p>\n                    <p>This is the bee that you just saw.</p>\n                    <img src=\"bees-with-color/bee-B2SF.svg\" width=\"200\">\n                    <p><span class=\"greenText\"><b>Successful harvest!</b></span><br>Your pay has increased by $0.02. Your bonus pay is now $0.48.</p>\n            ","response":0,"trial_type":"html-button-response","trial_index":12,"time_elapsed":260487,"internal_node_id":"0.0-4.0-1.2","subject_id":"613aaf8a8dc36e94fa4f1ba7","study_id":"6197b3f67c2b5cd3b6d9596a","session_id":"619be31e66bf3d6f2e519ff2","condition":"contingent","relevant_dimensions":["antennae","pattern"],"bee_group":{"antennae":"A","wings":"X","pattern":"D","legs":"X"},"bonus":1.260000000000001},{"rt":1659.5,"stimulus":"bees-with-color/bee-A1DF.svg","response":1,"trial_type":"image-button-response","trial_index":13,"time_elapsed":262148,"internal_node_id":"0.0-4.0-0.3","subject_id":"613aaf8a8dc36e94fa4f1ba7","study_id":"6197b3f67c2b5cd3b6d9596a","session_id":"619be31e66bf3d6f2e519ff2","condition":"contingent","relevant_dimensions":["antennae","pattern"],"bee_group":{"antennae":"A","wings":"X","pattern":"D","legs":"X"},"action":"avoid","summary":"good-avoid","bonus":1.260000000000001},{"rt":2300.699999999255,"stimulus":"\n                    <p><b>Action: <em>avoid</em></b></p>\n                    <p>This is the bee that you just saw.</p>\n                    <img src=\"bees-with-color/bee-A1DF.svg\" width=\"200\">\n                    <p><br>Your bonus pay is unchanged, and remains at $0.48.</p>\n            ","response":0,"trial_type":"html-button-response","trial_index":14,"time_elapsed":264450,"internal_node_id":"0.0-4.0-1.3","subject_id":"613aaf8a8dc36e94fa4f1ba7","study_id":"6197b3f67c2b5cd3b6d9596a","session_id":"619be31e66bf3d6f2e519ff2","condition":"contingent","relevant_dimensions":["antennae","pattern"],"bee_group":{"antennae":"A","wings":"X","pattern":"D","legs":"X"},"bonus":1.260000000000001},{"rt":3070,"stimulus":"bees-with-color/bee-A1SF.svg","response":0,"trial_type":"image-button-response","trial_index":15,"time_elapsed":267520,"internal_node_id":"0.0-4.0-0.4","subject_id":"613aaf8a8dc36e94fa4f1ba7","study_id":"6197b3f67c2b5cd3b6d9596a","session_id":"619be31e66bf3d6f2e519ff2","condition":"contingent","relevant_dimensions":["antennae","pattern"],"bee_group":{"antennae":"A","wings":"X","pattern":"D","legs":"X"},"action":"harvest","summary":"good-harvest","bonus":1.260000000000001},{"rt":4026,"stimulus":"\n                    <p><b>Action: <em>harvest</em></b></p>\n                    <p>This is the bee that you just saw.</p>\n                    <img src=\"bees-with-color/bee-A1SF.svg\" width=\"200\">\n                    <p><span class=\"greenText\"><b>Successful harvest!</b></span><br>Your pay has increased by $0.02. Your bonus pay is now $0.50.</p>\n            ","response":0,"trial_type":"html-button-response","trial_index":16,"time_elapsed":271547,"internal_node_id":"0.0-4.0-1.4","subject_id":"613aaf8a8dc36e94fa4f1ba7","study_id":"6197b3f67c2b5cd3b6d9596a","session_id":"619be31e66bf3d6f2e519ff2","condition":"contingent","relevant_dimensions":["antennae","pattern"],"bee_group":{"antennae":"A","wings":"X","pattern":"D","legs":"X"},"bonus":1.260000000000001},{"rt":3529.2999999988824,"stimulus":"bees-with-color/bee-B2DM.svg","response":1,"trial_type":"image-button-response","trial_index":17,"time_elapsed":275078,"internal_node_id":"0.0-4.0-0.5","subject_id":"613aaf8a8dc36e94fa4f1ba7","study_id":"6197b3f67c2b5cd3b6d9596a","session_id":"619be31e66bf3d6f2e519ff2","condition":"contingent","relevant_dimensions":["antennae","pattern"],"bee_group":{"antennae":"A","wings":"X","pattern":"D","legs":"X"},"action":"avoid","summary":"bad-avoid","bonus":1.260000000000001},{"rt":653.8000000007451,"stimulus":"\n                    <p><b>Action: <em>avoid</em></b></p>\n                    <p>This is the bee that you just saw.</p>\n                    <img src=\"bees-with-color/bee-B2DM.svg\" width=\"200\">\n                    <p><br>Your bonus pay is unchanged, and remains at $0.50.</p>\n            ","response":0,"trial_type":"html-button-response","trial_index":18,"time_elapsed":275732,"internal_node_id":"0.0-4.0-1.5","subject_id":"613aaf8a8dc36e94fa4f1ba7","study_id":"6197b3f67c2b5cd3b6d9596a","session_id":"619be31e66bf3d6f2e519ff2","condition":"contingent","relevant_dimensions":["antennae","pattern"],"bee_group":{"antennae":"A","wings":"X","pattern":"D","legs":"X"},"bonus":1.260000000000001},{"rt":2296.4000000003725,"stimulus":"bees-with-color/bee-A2SM.svg","response":1,"trial_type":"image-button-response","trial_index":19,"time_elapsed":278030,"internal_node_id":"0.0-4.0-0.6","subject_id":"613aaf8a8dc36e94fa4f1ba7","study_id":"6197b3f67c2b5cd3b6d9596a","session_id":"619be31e66bf3d6f2e519ff2","condition":"contingent","relevant_dimensions":["antennae","pattern"],"bee_group":{"antennae":"A","wings":"X","pattern":"D","legs":"X"},"action":"avoid","summary":"bad-avoid","bonus":1.260000000000001},{"rt":791.3000000007451,"stimulus":"\n                    <p><b>Action: <em>avoid</em></b></p>\n                    <p>This is the bee that you just saw.</p>\n                    <img src=\"bees-with-color/bee-A2SM.svg\" width=\"200\">\n                    <p><br>Your bonus pay is unchanged, and remains at $0.50.</p>\n            ","response":0,"trial_type":"html-button-response","trial_index":20,"time_elapsed":278822,"internal_node_id":"0.0-4.0-1.6","subject_id":"613aaf8a8dc36e94fa4f1ba7","study_id":"6197b3f67c2b5cd3b6d9596a","session_id":"619be31e66bf3d6f2e519ff2","condition":"contingent","relevant_dimensions":["antennae","pattern"],"bee_group":{"antennae":"A","wings":"X","pattern":"D","legs":"X"},"bonus":1.260000000000001},{"rt":3350.300000000745,"stimulus":"bees-with-color/bee-A1SM.svg","response":0,"trial_type":"image-button-response","trial_index":21,"time_elapsed":282173,"internal_node_id":"0.0-4.0-0.7","subject_id":"613aaf8a8dc36e94fa4f1ba7","study_id":"6197b3f67c2b5cd3b6d9596a","session_id":"619be31e66bf3d6f2e519ff2","condition":"contingent","relevant_dimensions":["antennae","pattern"],"bee_group":{"antennae":"A","wings":"X","pattern":"D","legs":"X"},"action":"harvest","summary":"good-harvest","bonus":1.260000000000001},{"rt":8603,"stimulus":"\n                    <p><b>Action: <em>harvest</em></b></p>\n                    <p>This is the bee that you just saw.</p>\n                    <img src=\"bees-with-color/bee-A1SM.svg\" width=\"200\">\n                    <p><span class=\"greenText\"><b>Successful harvest!</b></span><br>Your pay has increased by $0.02. Your bonus pay is now $0.52.</p>\n            ","response":0,"trial_type":"html-button-response","trial_index":22,"time_elapsed":290777,"internal_node_id":"0.0-4.0-1.7","subject_id":"613aaf8a8dc36e94fa4f1ba7","study_id":"6197b3f67c2b5cd3b6d9596a","session_id":"619be31e66bf3d6f2e519ff2","condition":"contingent","relevant_dimensions":["antennae","pattern"],"bee_group":{"antennae":"A","wings":"X","pattern":"D","legs":"X"},"bonus":1.260000000000001},{"rt":4697.5,"stimulus":"bees-with-color/bee-A2SF.svg","response":1,"trial_type":"image-button-response","trial_index":23,"time_elapsed":295476,"internal_node_id":"0.0-4.0-0.8","subject_id":"613aaf8a8dc36e94fa4f1ba7","study_id":"6197b3f67c2b5cd3b6d9596a","session_id":"619be31e66bf3d6f2e519ff2","condition":"contingent","relevant_dimensions":["antennae","pattern"],"bee_group":{"antennae":"A","wings":"X","pattern":"D","legs":"X"},"action":"avoid","summary":"bad-avoid","bonus":1.260000000000001},{"rt":1148.699999999255,"stimulus":"\n                    <p><b>Action: <em>avoid</em></b></p>\n                    <p>This is the bee that you just saw.</p>\n                    <img src=\"bees-with-color/bee-A2SF.svg\" width=\"200\">\n                    <p><br>Your bonus pay is unchanged, and remains at $0.52.</p>\n            ","response":0,"trial_type":"html-button-response","trial_index":24,"time_elapsed":296626,"internal_node_id":"0.0-4.0-1.8","subject_id":"613aaf8a8dc36e94fa4f1ba7","study_id":"6197b3f67c2b5cd3b6d9596a","session_id":"619be31e66bf3d6f2e519ff2","condition":"contingent","relevant_dimensions":["antennae","pattern"],"bee_group":{"antennae":"A","wings":"X","pattern":"D","legs":"X"},"bonus":1.260000000000001},{"rt":2065.9000000003725,"stimulus":"bees-with-color/bee-B2DF.svg","response":0,"trial_type":"image-button-response","trial_index":25,"time_elapsed":298693,"internal_node_id":"0.0-4.0-0.9","subject_id":"613aaf8a8dc36e94fa4f1ba7","study_id":"6197b3f67c2b5cd3b6d9596a","session_id":"619be31e66bf3d6f2e519ff2","condition":"contingent","relevant_dimensions":["antennae","pattern"],"bee_group":{"antennae":"A","wings":"X","pattern":"D","legs":"X"},"action":"harvest","summary":"good-harvest","bonus":1.260000000000001},{"rt":4222.0999999996275,"stimulus":"\n                    <p><b>Action: <em>harvest</em></b></p>\n                    <p>This is the bee that you just saw.</p>\n                    <img src=\"bees-with-color/bee-B2DF.svg\" width=\"200\">\n                    <p><span class=\"greenText\"><b>Successful harvest!</b></span><br>Your pay has increased by $0.02. Your bonus pay is now $0.54.</p>\n            ","response":0,"trial_type":"html-button-response","trial_index":26,"time_elapsed":302916,"internal_node_id":"0.0-4.0-1.9","subject_id":"613aaf8a8dc36e94fa4f1ba7","study_id":"6197b3f67c2b5cd3b6d9596a","session_id":"619be31e66bf3d6f2e519ff2","condition":"contingent","relevant_dimensions":["antennae","pattern"],"bee_group":{"antennae":"A","wings":"X","pattern":"D","legs":"X"},"bonus":1.260000000000001},{"rt":2300.5999999996275,"stimulus":"bees-with-color/bee-B1SF.svg","response":0,"trial_type":"image-button-response","trial_index":27,"time_elapsed":305218,"internal_node_id":"0.0-4.0-0.10","subject_id":"613aaf8a8dc36e94fa4f1ba7","study_id":"6197b3f67c2b5cd3b6d9596a","session_id":"619be31e66bf3d6f2e519ff2","condition":"contingent","relevant_dimensions":["antennae","pattern"],"bee_group":{"antennae":"A","wings":"X","pattern":"D","legs":"X"},"action":"harvest","summary":"good-harvest","bonus":1.260000000000001},{"rt":681.2000000011176,"stimulus":"\n                    <p><b>Action: <em>harvest</em></b></p>\n                    <p>This is the bee that you just saw.</p>\n                    <img src=\"bees-with-color/bee-B1SF.svg\" width=\"200\">\n                    <p><span class=\"greenText\"><b>Successful harvest!</b></span><br>Your pay has increased by $0.02. Your bonus pay is now $0.56.</p>\n            ","response":0,"trial_type":"html-button-response","trial_index":28,"time_elapsed":305900,"internal_node_id":"0.0-4.0-1.10","subject_id":"613aaf8a8dc36e94fa4f1ba7","study_id":"6197b3f67c2b5cd3b6d9596a","session_id":"619be31e66bf3d6f2e519ff2","condition":"contingent","relevant_dimensions":["antennae","pattern"],"bee_group":{"antennae":"A","wings":"X","pattern":"D","legs":"X"},"bonus":1.260000000000001},{"rt":5028.300000000745,"stimulus":"bees-with-color/bee-A2DF.svg","response":1,"trial_type":"image-button-response","trial_index":29,"time_elapsed":310929,"internal_node_id":"0.0-4.0-0.11","subject_id":"613aaf8a8dc36e94fa4f1ba7","study_id":"6197b3f67c2b5cd3b6d9596a","session_id":"619be31e66bf3d6f2e519ff2","condition":"contingent","relevant_dimensions":["antennae","pattern"],"bee_group":{"antennae":"A","wings":"X","pattern":"D","legs":"X"},"action":"avoid","summary":"good-avoid","bonus":1.260000000000001},{"rt":701.0999999996275,"stimulus":"\n                    <p><b>Action: <em>avoid</em></b></p>\n                    <p>This is the bee that you just saw.</p>\n                    <img src=\"bees-with-color/bee-A2DF.svg\" width=\"200\">\n                    <p><br>Your bonus pay is unchanged, and remains at $0.56.</p>\n            ","response":0,"trial_type":"html-button-response","trial_index":30,"time_elapsed":311630,"internal_node_id":"0.0-4.0-1.11","subject_id":"613aaf8a8dc36e94fa4f1ba7","study_id":"6197b3f67c2b5cd3b6d9596a","session_id":"619be31e66bf3d6f2e519ff2","condition":"contingent","relevant_dimensions":["antennae","pattern"],"bee_group":{"antennae":"A","wings":"X","pattern":"D","legs":"X"},"bonus":1.260000000000001},{"rt":2011.2000000011176,"stimulus":"bees-with-color/bee-B1SM.svg","response":0,"trial_type":"image-button-response","trial_index":31,"time_elapsed":313643,"internal_node_id":"0.0-4.0-0.12","subject_id":"613aaf8a8dc36e94fa4f1ba7","study_id":"6197b3f67c2b5cd3b6d9596a","session_id":"619be31e66bf3d6f2e519ff2","condition":"contingent","relevant_dimensions":["antennae","pattern"],"bee_group":{"antennae":"A","wings":"X","pattern":"D","legs":"X"},"action":"harvest","summary":"good-harvest","bonus":1.260000000000001},{"rt":669.1000000014901,"stimulus":"\n                    <p><b>Action: <em>harvest</em></b></p>\n                    <p>This is the bee that you just saw.</p>\n                    <img src=\"bees-with-color/bee-B1SM.svg\" width=\"200\">\n                    <p><span class=\"greenText\"><b>Successful harvest!</b></span><br>Your pay has increased by $0.02. Your bonus pay is now $0.58.</p>\n            ","response":0,"trial_type":"html-button-response","trial_index":32,"time_elapsed":314312,"internal_node_id":"0.0-4.0-1.12","subject_id":"613aaf8a8dc36e94fa4f1ba7","study_id":"6197b3f67c2b5cd3b6d9596a","session_id":"619be31e66bf3d6f2e519ff2","condition":"contingent","relevant_dimensions":["antennae","pattern"],"bee_group":{"antennae":"A","wings":"X","pattern":"D","legs":"X"},"bonus":1.260000000000001},{"rt":2252.199999999255,"stimulus":"bees-with-color/bee-A1DM.svg","response":0,"trial_type":"image-button-response","trial_index":33,"time_elapsed":316565,"internal_node_id":"0.0-4.0-0.13","subject_id":"613aaf8a8dc36e94fa4f1ba7","study_id":"6197b3f67c2b5cd3b6d9596a","session_id":"619be31e66bf3d6f2e519ff2","condition":"contingent","relevant_dimensions":["antennae","pattern"],"bee_group":{"antennae":"A","wings":"X","pattern":"D","legs":"X"},"action":"harvest","summary":"bad-harvest","bonus":1.260000000000001},{"rt":1786,"stimulus":"\n                    <p><b>Action: <em>harvest</em></b></p>\n                    <p>This is the bee that you just saw.</p>\n                    <img src=\"bees-with-color/bee-A1DM.svg\" width=\"200\">\n                    <p><span class=\"redText\">Bad choice, the bee was angry.</span><br><b>You have been stung!</b><br>Your pay has been decreased by $0.10. Your bonus pay is now $0.48.</p>\n            ","response":0,"trial_type":"html-button-response","trial_index":34,"time_elapsed":318352,"internal_node_id":"0.0-4.0-1.13","subject_id":"613aaf8a8dc36e94fa4f1ba7","study_id":"6197b3f67c2b5cd3b6d9596a","session_id":"619be31e66bf3d6f2e519ff2","condition":"contingent","relevant_dimensions":["antennae","pattern"],"bee_group":{"antennae":"A","wings":"X","pattern":"D","legs":"X"},"bonus":1.260000000000001},{"rt":1804.199999999255,"stimulus":"bees-with-color/bee-B1DM.svg","response":0,"trial_type":"image-button-response","trial_index":35,"time_elapsed":320157,"internal_node_id":"0.0-4.0-0.14","subject_id":"613aaf8a8dc36e94fa4f1ba7","study_id":"6197b3f67c2b5cd3b6d9596a","session_id":"619be31e66bf3d6f2e519ff2","condition":"contingent","relevant_dimensions":["antennae","pattern"],"bee_group":{"antennae":"A","wings":"X","pattern":"D","legs":"X"},"action":"harvest","summary":"good-harvest","bonus":1.260000000000001},{"rt":672.2000000011176,"stimulus":"\n                    <p><b>Action: <em>harvest</em></b></p>\n                    <p>This is the bee that you just saw.</p>\n                    <img src=\"bees-with-color/bee-B1DM.svg\" width=\"200\">\n                    <p><span class=\"greenText\"><b>Successful harvest!</b></span><br>Your pay has increased by $0.02. Your bonus pay is now $0.50.</p>\n            ","response":0,"trial_type":"html-button-response","trial_index":36,"time_elapsed":320830,"internal_node_id":"0.0-4.0-1.14","subject_id":"613aaf8a8dc36e94fa4f1ba7","study_id":"6197b3f67c2b5cd3b6d9596a","session_id":"619be31e66bf3d6f2e519ff2","condition":"contingent","relevant_dimensions":["antennae","pattern"],"bee_group":{"antennae":"A","wings":"X","pattern":"D","legs":"X"},"bonus":1.260000000000001},{"rt":1828.300000000745,"stimulus":"bees-with-color/bee-B2SM.svg","response":0,"trial_type":"image-button-response","trial_index":37,"time_elapsed":322659,"internal_node_id":"0.0-4.0-0.15","subject_id":"613aaf8a8dc36e94fa4f1ba7","study_id":"6197b3f67c2b5cd3b6d9596a","session_id":"619be31e66bf3d6f2e519ff2","condition":"contingent","relevant_dimensions":["antennae","pattern"],"bee_group":{"antennae":"A","wings":"X","pattern":"D","legs":"X"},"action":"harvest","summary":"good-harvest","bonus":1.260000000000001},{"rt":659.7000000011176,"stimulus":"\n                    <p><b>Action: <em>harvest</em></b></p>\n                    <p>This is the bee that you just saw.</p>\n                    <img src=\"bees-with-color/bee-B2SM.svg\" width=\"200\">\n                    <p><span class=\"greenText\"><b>Successful harvest!</b></span><br>Your pay has increased by $0.02. Your bonus pay is now $0.52.</p>\n            ","response":0,"trial_type":"html-button-response","trial_index":38,"time_elapsed":323320,"internal_node_id":"0.0-4.0-1.15","subject_id":"613aaf8a8dc36e94fa4f1ba7","study_id":"6197b3f67c2b5cd3b6d9596a","session_id":"619be31e66bf3d6f2e519ff2","condition":"contingent","relevant_dimensions":["antennae","pattern"],"bee_group":{"antennae":"A","wings":"X","pattern":"D","legs":"X"},"bonus":1.260000000000001},{"rt":2567.0999999996275,"stimulus":"bees-with-color/bee-A2SF.svg","response":1,"trial_type":"image-button-response","trial_index":39,"time_elapsed":325888,"internal_node_id":"0.0-4.0-0.16","subject_id":"613aaf8a8dc36e94fa4f1ba7","study_id":"6197b3f67c2b5cd3b6d9596a","session_id":"619be31e66bf3d6f2e519ff2","condition":"contingent","relevant_dimensions":["antennae","pattern"],"bee_group":{"antennae":"A","wings":"X","pattern":"D","legs":"X"},"action":"avoid","summary":"bad-avoid","bonus":1.260000000000001},{"rt":759,"stimulus":"\n                    <p><b>Action: <em>avoid</em></b></p>\n                    <p>This is the bee that you just saw.</p>\n                    <img src=\"bees-with-color/bee-A2SF.svg\" width=\"200\">\n                    <p><br>Your bonus pay is unchanged, and remains at $0.52.</p>\n            ","response":0,"trial_type":"html-button-response","trial_index":40,"time_elapsed":326648,"internal_node_id":"0.0-4.0-1.16","subject_id":"613aaf8a8dc36e94fa4f1ba7","study_id":"6197b3f67c2b5cd3b6d9596a","session_id":"619be31e66bf3d6f2e519ff2","condition":"contingent","relevant_dimensions":["antennae","pattern"],"bee_group":{"antennae":"A","wings":"X","pattern":"D","legs":"X"},"bonus":1.260000000000001},{"rt":1585.2000000011176,"stimulus":"bees-with-color/bee-B2SF.svg","response":0,"trial_type":"image-button-response","trial_index":41,"time_elapsed":328234,"internal_node_id":"0.0-4.0-0.17","subject_id":"613aaf8a8dc36e94fa4f1ba7","study_id":"6197b3f67c2b5cd3b6d9596a","session_id":"619be31e66bf3d6f2e519ff2","condition":"contingent","relevant_dimensions":["antennae","pattern"],"bee_group":{"antennae":"A","wings":"X","pattern":"D","legs":"X"},"action":"harvest","summary":"good-harvest","bonus":1.260000000000001},{"rt":652,"stimulus":"\n                    <p><b>Action: <em>harvest</em></b></p>\n                    <p>This is the bee that you just saw.</p>\n                    <img src=\"bees-with-color/bee-B2SF.svg\" width=\"200\">\n                    <p><span class=\"greenText\"><b>Successful harvest!</b></span><br>Your pay has increased by $0.02. Your bonus pay is now $0.54.</p>\n            ","response":0,"trial_type":"html-button-response","trial_index":42,"time_elapsed":328887,"internal_node_id":"0.0-4.0-1.17","subject_id":"613aaf8a8dc36e94fa4f1ba7","study_id":"6197b3f67c2b5cd3b6d9596a","session_id":"619be31e66bf3d6f2e519ff2","condition":"contingent","relevant_dimensions":["antennae","pattern"],"bee_group":{"antennae":"A","wings":"X","pattern":"D","legs":"X"},"bonus":1.260000000000001},{"rt":1248.2999999988824,"stimulus":"bees-with-color/bee-B2SM.svg","response":0,"trial_type":"image-button-response","trial_index":43,"time_elapsed":330136,"internal_node_id":"0.0-4.0-0.18","subject_id":"613aaf8a8dc36e94fa4f1ba7","study_id":"6197b3f67c2b5cd3b6d9596a","session_id":"619be31e66bf3d6f2e519ff2","condition":"contingent","relevant_dimensions":["antennae","pattern"],"bee_group":{"antennae":"A","wings":"X","pattern":"D","legs":"X"},"action":"harvest","summary":"good-harvest","bonus":1.260000000000001},{"rt":589.1999999992549,"stimulus":"\n                    <p><b>Action: <em>harvest</em></b></p>\n                    <p>This is the bee that you just saw.</p>\n                    <img src=\"bees-with-color/bee-B2SM.svg\" width=\"200\">\n                    <p><span class=\"greenText\"><b>Successful harvest!</b></span><br>Your pay has increased by $0.02. Your bonus pay is now $0.56.</p>\n            ","response":0,"trial_type":"html-button-response","trial_index":44,"time_elapsed":330726,"internal_node_id":"0.0-4.0-1.18","subject_id":"613aaf8a8dc36e94fa4f1ba7","study_id":"6197b3f67c2b5cd3b6d9596a","session_id":"619be31e66bf3d6f2e519ff2","condition":"contingent","relevant_dimensions":["antennae","pattern"],"bee_group":{"antennae":"A","wings":"X","pattern":"D","legs":"X"},"bonus":1.260000000000001},{"rt":1338.5,"stimulus":"bees-with-color/bee-A2DM.svg","response":1,"trial_type":"image-button-response","trial_index":45,"time_elapsed":332065,"internal_node_id":"0.0-4.0-0.19","subject_id":"613aaf8a8dc36e94fa4f1ba7","study_id":"6197b3f67c2b5cd3b6d9596a","session_id":"619be31e66bf3d6f2e519ff2","condition":"contingent","relevant_dimensions":["antennae","pattern"],"bee_group":{"antennae":"A","wings":"X","pattern":"D","legs":"X"},"action":"avoid","summary":"good-avoid","bonus":1.260000000000001},{"rt":438,"stimulus":"\n                    <p><b>Action: <em>avoid</em></b></p>\n                    <p>This is the bee that you just saw.</p>\n                    <img src=\"bees-with-color/bee-A2DM.svg\" width=\"200\">\n                    <p><br>Your bonus pay is unchanged, and remains at $0.56.</p>\n            ","response":0,"trial_type":"html-button-response","trial_index":46,"time_elapsed":332504,"internal_node_id":"0.0-4.0-1.19","subject_id":"613aaf8a8dc36e94fa4f1ba7","study_id":"6197b3f67c2b5cd3b6d9596a","session_id":"619be31e66bf3d6f2e519ff2","condition":"contingent","relevant_dimensions":["antennae","pattern"],"bee_group":{"antennae":"A","wings":"X","pattern":"D","legs":"X"},"bonus":1.260000000000001},{"rt":3090.2000000011176,"stimulus":"bees-with-color/bee-A1SM.svg","response":1,"trial_type":"image-button-response","trial_index":47,"time_elapsed":335595,"internal_node_id":"0.0-4.0-0.20","subject_id":"613aaf8a8dc36e94fa4f1ba7","study_id":"6197b3f67c2b5cd3b6d9596a","session_id":"619be31e66bf3d6f2e519ff2","condition":"contingent","relevant_dimensions":["antennae","pattern"],"bee_group":{"antennae":"A","wings":"X","pattern":"D","legs":"X"},"action":"avoid","summary":"bad-avoid","bonus":1.260000000000001},{"rt":505.09999999962747,"stimulus":"\n                    <p><b>Action: <em>avoid</em></b></p>\n                    <p>This is the bee that you just saw.</p>\n                    <img src=\"bees-with-color/bee-A1SM.svg\" width=\"200\">\n                    <p><br>Your bonus pay is unchanged, and remains at $0.56.</p>\n            ","response":0,"trial_type":"html-button-response","trial_index":48,"time_elapsed":336101,"internal_node_id":"0.0-4.0-1.20","subject_id":"613aaf8a8dc36e94fa4f1ba7","study_id":"6197b3f67c2b5cd3b6d9596a","session_id":"619be31e66bf3d6f2e519ff2","condition":"contingent","relevant_dimensions":["antennae","pattern"],"bee_group":{"antennae":"A","wings":"X","pattern":"D","legs":"X"},"bonus":1.260000000000001},{"rt":967.3000000007451,"stimulus":"bees-with-color/bee-B1SM.svg","response":0,"trial_type":"image-button-response","trial_index":49,"time_elapsed":337069,"internal_node_id":"0.0-4.0-0.21","subject_id":"613aaf8a8dc36e94fa4f1ba7","study_id":"6197b3f67c2b5cd3b6d9596a","session_id":"619be31e66bf3d6f2e519ff2","condition":"contingent","relevant_dimensions":["antennae","pattern"],"bee_group":{"antennae":"A","wings":"X","pattern":"D","legs":"X"},"action":"harvest","summary":"good-harvest","bonus":1.260000000000001},{"rt":529.0999999996275,"stimulus":"\n                    <p><b>Action: <em>harvest</em></b></p>\n                    <p>This is the bee that you just saw.</p>\n                    <img src=\"bees-with-color/bee-B1SM.svg\" width=\"200\">\n                    <p><span class=\"greenText\"><b>Successful harvest!</b></span><br>Your pay has increased by $0.02. Your bonus pay is now $0.58.</p>\n            ","response":0,"trial_type":"html-button-response","trial_index":50,"time_elapsed":337599,"internal_node_id":"0.0-4.0-1.21","subject_id":"613aaf8a8dc36e94fa4f1ba7","study_id":"6197b3f67c2b5cd3b6d9596a","session_id":"619be31e66bf3d6f2e519ff2","condition":"contingent","relevant_dimensions":["antennae","pattern"],"bee_group":{"antennae":"A","wings":"X","pattern":"D","legs":"X"},"bonus":1.260000000000001},{"rt":1043.199999999255,"stimulus":"bees-with-color/bee-B1SF.svg","response":0,"trial_type":"image-button-response","trial_index":51,"time_elapsed":338643,"internal_node_id":"0.0-4.0-0.22","subject_id":"613aaf8a8dc36e94fa4f1ba7","study_id":"6197b3f67c2b5cd3b6d9596a","session_id":"619be31e66bf3d6f2e519ff2","condition":"contingent","relevant_dimensions":["antennae","pattern"],"bee_group":{"antennae":"A","wings":"X","pattern":"D","legs":"X"},"action":"harvest","summary":"good-harvest","bonus":1.260000000000001},{"rt":501.09999999962747,"stimulus":"\n                    <p><b>Action: <em>harvest</em></b></p>\n                    <p>This is the bee that you just saw.</p>\n                    <img src=\"bees-with-color/bee-B1SF.svg\" width=\"200\">\n                    <p><span class=\"greenText\"><b>Successful harvest!</b></span><br>Your pay has increased by $0.02. Your bonus pay is now $0.60.</p>\n            ","response":0,"trial_type":"html-button-response","trial_index":52,"time_elapsed":339145,"internal_node_id":"0.0-4.0-1.22","subject_id":"613aaf8a8dc36e94fa4f1ba7","study_id":"6197b3f67c2b5cd3b6d9596a","session_id":"619be31e66bf3d6f2e519ff2","condition":"contingent","relevant_dimensions":["antennae","pattern"],"bee_group":{"antennae":"A","wings":"X","pattern":"D","legs":"X"},"bonus":1.260000000000001},{"rt":2059.5,"stimulus":"bees-with-color/bee-A1DM.svg","response":1,"trial_type":"image-button-response","trial_index":53,"time_elapsed":341205,"internal_node_id":"0.0-4.0-0.23","subject_id":"613aaf8a8dc36e94fa4f1ba7","study_id":"6197b3f67c2b5cd3b6d9596a","session_id":"619be31e66bf3d6f2e519ff2","condition":"contingent","relevant_dimensions":["antennae","pattern"],"bee_group":{"antennae":"A","wings":"X","pattern":"D","legs":"X"},"action":"avoid","summary":"good-avoid","bonus":1.260000000000001},{"rt":527.8000000007451,"stimulus":"\n                    <p><b>Action: <em>avoid</em></b></p>\n                    <p>This is the bee that you just saw.</p>\n                    <img src=\"bees-with-color/bee-A1DM.svg\" width=\"200\">\n                    <p><br>Your bonus pay is unchanged, and remains at $0.60.</p>\n            ","response":0,"trial_type":"html-button-response","trial_index":54,"time_elapsed":341734,"internal_node_id":"0.0-4.0-1.23","subject_id":"613aaf8a8dc36e94fa4f1ba7","study_id":"6197b3f67c2b5cd3b6d9596a","session_id":"619be31e66bf3d6f2e519ff2","condition":"contingent","relevant_dimensions":["antennae","pattern"],"bee_group":{"antennae":"A","wings":"X","pattern":"D","legs":"X"},"bonus":1.260000000000001},{"rt":2463.2000000011176,"stimulus":"bees-with-color/bee-A2SM.svg","response":1,"trial_type":"image-button-response","trial_index":55,"time_elapsed":344198,"internal_node_id":"0.0-4.0-0.24","subject_id":"613aaf8a8dc36e94fa4f1ba7","study_id":"6197b3f67c2b5cd3b6d9596a","session_id":"619be31e66bf3d6f2e519ff2","condition":"contingent","relevant_dimensions":["antennae","pattern"],"bee_group":{"antennae":"A","wings":"X","pattern":"D","legs":"X"},"action":"avoid","summary":"bad-avoid","bonus":1.260000000000001},{"rt":520.5999999996275,"stimulus":"\n                    <p><b>Action: <em>avoid</em></b></p>\n                    <p>This is the bee that you just saw.</p>\n                    <img src=\"bees-with-color/bee-A2SM.svg\" width=\"200\">\n                    <p><br>Your bonus pay is unchanged, and remains at $0.60.</p>\n            ","response":0,"trial_type":"html-button-response","trial_index":56,"time_elapsed":344719,"internal_node_id":"0.0-4.0-1.24","subject_id":"613aaf8a8dc36e94fa4f1ba7","study_id":"6197b3f67c2b5cd3b6d9596a","session_id":"619be31e66bf3d6f2e519ff2","condition":"contingent","relevant_dimensions":["antennae","pattern"],"bee_group":{"antennae":"A","wings":"X","pattern":"D","legs":"X"},"bonus":1.260000000000001},{"rt":1220.199999999255,"stimulus":"bees-with-color/bee-B1DF.svg","response":0,"trial_type":"image-button-response","trial_index":57,"time_elapsed":345940,"internal_node_id":"0.0-4.0-0.25","subject_id":"613aaf8a8dc36e94fa4f1ba7","study_id":"6197b3f67c2b5cd3b6d9596a","session_id":"619be31e66bf3d6f2e519ff2","condition":"contingent","relevant_dimensions":["antennae","pattern"],"bee_group":{"antennae":"A","wings":"X","pattern":"D","legs":"X"},"action":"harvest","summary":"good-harvest","bonus":1.260000000000001},{"rt":510.09999999962747,"stimulus":"\n                    <p><b>Action: <em>harvest</em></b></p>\n                    <p>This is the bee that you just saw.</p>\n                    <img src=\"bees-with-color/bee-B1DF.svg\" width=\"200\">\n                    <p><span class=\"greenText\"><b>Successful harvest!</b></span><br>Your pay has increased by $0.02. Your bonus pay is now $0.62.</p>\n            ","response":0,"trial_type":"html-button-response","trial_index":58,"time_elapsed":346451,"internal_node_id":"0.0-4.0-1.25","subject_id":"613aaf8a8dc36e94fa4f1ba7","study_id":"6197b3f67c2b5cd3b6d9596a","session_id":"619be31e66bf3d6f2e519ff2","condition":"contingent","relevant_dimensions":["antennae","pattern"],"bee_group":{"antennae":"A","wings":"X","pattern":"D","legs":"X"},"bonus":1.260000000000001},{"rt":1633.199999999255,"stimulus":"bees-with-color/bee-A2DF.svg","response":1,"trial_type":"image-button-response","trial_index":59,"time_elapsed":348085,"internal_node_id":"0.0-4.0-0.26","subject_id":"613aaf8a8dc36e94fa4f1ba7","study_id":"6197b3f67c2b5cd3b6d9596a","session_id":"619be31e66bf3d6f2e519ff2","condition":"contingent","relevant_dimensions":["antennae","pattern"],"bee_group":{"antennae":"A","wings":"X","pattern":"D","legs":"X"},"action":"avoid","summary":"good-avoid","bonus":1.260000000000001},{"rt":501.09999999962747,"stimulus":"\n                    <p><b>Action: <em>avoid</em></b></p>\n                    <p>This is the bee that you just saw.</p>\n                    <img src=\"bees-with-color/bee-A2DF.svg\" width=\"200\">\n                    <p><br>Your bonus pay is unchanged, and remains at $0.62.</p>\n            ","response":0,"trial_type":"html-button-response","trial_index":60,"time_elapsed":348587,"internal_node_id":"0.0-4.0-1.26","subject_id":"613aaf8a8dc36e94fa4f1ba7","study_id":"6197b3f67c2b5cd3b6d9596a","session_id":"619be31e66bf3d6f2e519ff2","condition":"contingent","relevant_dimensions":["antennae","pattern"],"bee_group":{"antennae":"A","wings":"X","pattern":"D","legs":"X"},"bonus":1.260000000000001},{"rt":1364.300000000745,"stimulus":"bees-with-color/bee-A1DF.svg","response":1,"trial_type":"image-button-response","trial_index":61,"time_elapsed":349952,"internal_node_id":"0.0-4.0-0.27","subject_id":"613aaf8a8dc36e94fa4f1ba7","study_id":"6197b3f67c2b5cd3b6d9596a","session_id":"619be31e66bf3d6f2e519ff2","condition":"contingent","relevant_dimensions":["antennae","pattern"],"bee_group":{"antennae":"A","wings":"X","pattern":"D","legs":"X"},"action":"avoid","summary":"good-avoid","bonus":1.260000000000001},{"rt":523.4000000003725,"stimulus":"\n                    <p><b>Action: <em>avoid</em></b></p>\n                    <p>This is the bee that you just saw.</p>\n                    <img src=\"bees-with-color/bee-A1DF.svg\" width=\"200\">\n                    <p><br>Your bonus pay is unchanged, and remains at $0.62.</p>\n            ","response":0,"trial_type":"html-button-response","trial_index":62,"time_elapsed":350476,"internal_node_id":"0.0-4.0-1.27","subject_id":"613aaf8a8dc36e94fa4f1ba7","study_id":"6197b3f67c2b5cd3b6d9596a","session_id":"619be31e66bf3d6f2e519ff2","condition":"contingent","relevant_dimensions":["antennae","pattern"],"bee_group":{"antennae":"A","wings":"X","pattern":"D","legs":"X"},"bonus":1.260000000000001},{"rt":1916.9000000003725,"stimulus":"bees-with-color/bee-A1SF.svg","response":0,"trial_type":"image-button-response","trial_index":63,"time_elapsed":352394,"internal_node_id":"0.0-4.0-0.28","subject_id":"613aaf8a8dc36e94fa4f1ba7","study_id":"6197b3f67c2b5cd3b6d9596a","session_id":"619be31e66bf3d6f2e519ff2","condition":"contingent","relevant_dimensions":["antennae","pattern"],"bee_group":{"antennae":"A","wings":"X","pattern":"D","legs":"X"},"action":"harvest","summary":"good-harvest","bonus":1.260000000000001},{"rt":3468,"stimulus":"\n                    <p><b>Action: <em>harvest</em></b></p>\n                    <p>This is the bee that you just saw.</p>\n                    <img src=\"bees-with-color/bee-A1SF.svg\" width=\"200\">\n                    <p><span class=\"greenText\"><b>Successful harvest!</b></span><br>Your pay has increased by $0.02. Your bonus pay is now $0.64.</p>\n            ","response":0,"trial_type":"html-button-response","trial_index":64,"time_elapsed":355862,"internal_node_id":"0.0-4.0-1.28","subject_id":"613aaf8a8dc36e94fa4f1ba7","study_id":"6197b3f67c2b5cd3b6d9596a","session_id":"619be31e66bf3d6f2e519ff2","condition":"contingent","relevant_dimensions":["antennae","pattern"],"bee_group":{"antennae":"A","wings":"X","pattern":"D","legs":"X"},"bonus":1.260000000000001},{"rt":3361.0999999996275,"stimulus":"bees-with-color/bee-B1DM.svg","response":0,"trial_type":"image-button-response","trial_index":65,"time_elapsed":359224,"internal_node_id":"0.0-4.0-0.29","subject_id":"613aaf8a8dc36e94fa4f1ba7","study_id":"6197b3f67c2b5cd3b6d9596a","session_id":"619be31e66bf3d6f2e519ff2","condition":"contingent","relevant_dimensions":["antennae","pattern"],"bee_group":{"antennae":"A","wings":"X","pattern":"D","legs":"X"},"action":"harvest","summary":"good-harvest","bonus":1.260000000000001},{"rt":1112.6000000014901,"stimulus":"\n                    <p><b>Action: <em>harvest</em></b></p>\n                    <p>This is the bee that you just saw.</p>\n                    <img src=\"bees-with-color/bee-B1DM.svg\" width=\"200\">\n                    <p><span class=\"greenText\"><b>Successful harvest!</b></span><br>Your pay has increased by $0.02. Your bonus pay is now $0.66.</p>\n            ","response":0,"trial_type":"html-button-response","trial_index":66,"time_elapsed":360337,"internal_node_id":"0.0-4.0-1.29","subject_id":"613aaf8a8dc36e94fa4f1ba7","study_id":"6197b3f67c2b5cd3b6d9596a","session_id":"619be31e66bf3d6f2e519ff2","condition":"contingent","relevant_dimensions":["antennae","pattern"],"bee_group":{"antennae":"A","wings":"X","pattern":"D","legs":"X"},"bonus":1.260000000000001},{"rt":1805.9000000003725,"stimulus":"bees-with-color/bee-B2DF.svg","response":0,"trial_type":"image-button-response","trial_index":67,"time_elapsed":362144,"internal_node_id":"0.0-4.0-0.30","subject_id":"613aaf8a8dc36e94fa4f1ba7","study_id":"6197b3f67c2b5cd3b6d9596a","session_id":"619be31e66bf3d6f2e519ff2","condition":"contingent","relevant_dimensions":["antennae","pattern"],"bee_group":{"antennae":"A","wings":"X","pattern":"D","legs":"X"},"action":"harvest","summary":"good-harvest","bonus":1.260000000000001},{"rt":677.1999999992549,"stimulus":"\n                    <p><b>Action: <em>harvest</em></b></p>\n                    <p>This is the bee that you just saw.</p>\n                    <img src=\"bees-with-color/bee-B2DF.svg\" width=\"200\">\n                    <p><span class=\"greenText\"><b>Successful harvest!</b></span><br>Your pay has increased by $0.02. Your bonus pay is now $0.68.</p>\n            ","response":0,"trial_type":"html-button-response","trial_index":68,"time_elapsed":362822,"internal_node_id":"0.0-4.0-1.30","subject_id":"613aaf8a8dc36e94fa4f1ba7","study_id":"6197b3f67c2b5cd3b6d9596a","session_id":"619be31e66bf3d6f2e519ff2","condition":"contingent","relevant_dimensions":["antennae","pattern"],"bee_group":{"antennae":"A","wings":"X","pattern":"D","legs":"X"},"bonus":1.260000000000001},{"rt":1410.5,"stimulus":"bees-with-color/bee-B2DM.svg","response":0,"trial_type":"image-button-response","trial_index":69,"time_elapsed":364234,"internal_node_id":"0.0-4.0-0.31","subject_id":"613aaf8a8dc36e94fa4f1ba7","study_id":"6197b3f67c2b5cd3b6d9596a","session_id":"619be31e66bf3d6f2e519ff2","condition":"contingent","relevant_dimensions":["antennae","pattern"],"bee_group":{"antennae":"A","wings":"X","pattern":"D","legs":"X"},"action":"harvest","summary":"good-harvest","bonus":1.260000000000001},{"rt":647.7999999988824,"stimulus":"\n                    <p><b>Action: <em>harvest</em></b></p>\n                    <p>This is the bee that you just saw.</p>\n                    <img src=\"bees-with-color/bee-B2DM.svg\" width=\"200\">\n                    <p><span class=\"greenText\"><b>Successful harvest!</b></span><br>Your pay has increased by $0.02. Your bonus pay is now $0.70.</p>\n            ","response":0,"trial_type":"html-button-response","trial_index":70,"time_elapsed":364882,"internal_node_id":"0.0-4.0-1.31","subject_id":"613aaf8a8dc36e94fa4f1ba7","study_id":"6197b3f67c2b5cd3b6d9596a","session_id":"619be31e66bf3d6f2e519ff2","condition":"contingent","relevant_dimensions":["antennae","pattern"],"bee_group":{"antennae":"A","wings":"X","pattern":"D","legs":"X"},"bonus":1.260000000000001},{"rt":1846.9000000003725,"stimulus":"bees-with-color/bee-B2DM.svg","response":0,"trial_type":"image-button-response","trial_index":71,"time_elapsed":366730,"internal_node_id":"0.0-4.0-0.32","subject_id":"613aaf8a8dc36e94fa4f1ba7","study_id":"6197b3f67c2b5cd3b6d9596a","session_id":"619be31e66bf3d6f2e519ff2","condition":"contingent","relevant_dimensions":["antennae","pattern"],"bee_group":{"antennae":"A","wings":"X","pattern":"D","legs":"X"},"action":"harvest","summary":"good-harvest","bonus":1.260000000000001},{"rt":663.2000000011176,"stimulus":"\n                    <p><b>Action: <em>harvest</em></b></p>\n                    <p>This is the bee that you just saw.</p>\n                    <img src=\"bees-with-color/bee-B2DM.svg\" width=\"200\">\n                    <p><span class=\"greenText\"><b>Successful harvest!</b></span><br>Your pay has increased by $0.02. Your bonus pay is now $0.72.</p>\n            ","response":0,"trial_type":"html-button-response","trial_index":72,"time_elapsed":367394,"internal_node_id":"0.0-4.0-1.32","subject_id":"613aaf8a8dc36e94fa4f1ba7","study_id":"6197b3f67c2b5cd3b6d9596a","session_id":"619be31e66bf3d6f2e519ff2","condition":"contingent","relevant_dimensions":["antennae","pattern"],"bee_group":{"antennae":"A","wings":"X","pattern":"D","legs":"X"},"bonus":1.260000000000001},{"rt":2143.0999999996275,"stimulus":"bees-with-color/bee-B2SM.svg","response":0,"trial_type":"image-button-response","trial_index":73,"time_elapsed":369538,"internal_node_id":"0.0-4.0-0.33","subject_id":"613aaf8a8dc36e94fa4f1ba7","study_id":"6197b3f67c2b5cd3b6d9596a","session_id":"619be31e66bf3d6f2e519ff2","condition":"contingent","relevant_dimensions":["antennae","pattern"],"bee_group":{"antennae":"A","wings":"X","pattern":"D","legs":"X"},"action":"harvest","summary":"good-harvest","bonus":1.260000000000001},{"rt":591.3000000007451,"stimulus":"\n                    <p><b>Action: <em>harvest</em></b></p>\n                    <p>This is the bee that you just saw.</p>\n                    <img src=\"bees-with-color/bee-B2SM.svg\" width=\"200\">\n                    <p><span class=\"greenText\"><b>Successful harvest!</b></span><br>Your pay has increased by $0.02. Your bonus pay is now $0.74.</p>\n            ","response":0,"trial_type":"html-button-response","trial_index":74,"time_elapsed":370131,"internal_node_id":"0.0-4.0-1.33","subject_id":"613aaf8a8dc36e94fa4f1ba7","study_id":"6197b3f67c2b5cd3b6d9596a","session_id":"619be31e66bf3d6f2e519ff2","condition":"contingent","relevant_dimensions":["antennae","pattern"],"bee_group":{"antennae":"A","wings":"X","pattern":"D","legs":"X"},"bonus":1.260000000000001},{"rt":1186,"stimulus":"bees-with-color/bee-A2SM.svg","response":1,"trial_type":"image-button-response","trial_index":75,"time_elapsed":371317,"internal_node_id":"0.0-4.0-0.34","subject_id":"613aaf8a8dc36e94fa4f1ba7","study_id":"6197b3f67c2b5cd3b6d9596a","session_id":"619be31e66bf3d6f2e519ff2","condition":"contingent","relevant_dimensions":["antennae","pattern"],"bee_group":{"antennae":"A","wings":"X","pattern":"D","legs":"X"},"action":"avoid","summary":"bad-avoid","bonus":1.260000000000001},{"rt":462.30000000074506,"stimulus":"\n                    <p><b>Action: <em>avoid</em></b></p>\n                    <p>This is the bee that you just saw.</p>\n                    <img src=\"bees-with-color/bee-A2SM.svg\" width=\"200\">\n                    <p><br>Your bonus pay is unchanged, and remains at $0.74.</p>\n            ","response":0,"trial_type":"html-button-response","trial_index":76,"time_elapsed":371781,"internal_node_id":"0.0-4.0-1.34","subject_id":"613aaf8a8dc36e94fa4f1ba7","study_id":"6197b3f67c2b5cd3b6d9596a","session_id":"619be31e66bf3d6f2e519ff2","condition":"contingent","relevant_dimensions":["antennae","pattern"],"bee_group":{"antennae":"A","wings":"X","pattern":"D","legs":"X"},"bonus":1.260000000000001},{"rt":15625.200000001118,"stimulus":"bees-with-color/bee-A2DM.svg","response":1,"trial_type":"image-button-response","trial_index":77,"time_elapsed":387406,"internal_node_id":"0.0-4.0-0.35","subject_id":"613aaf8a8dc36e94fa4f1ba7","study_id":"6197b3f67c2b5cd3b6d9596a","session_id":"619be31e66bf3d6f2e519ff2","condition":"contingent","relevant_dimensions":["antennae","pattern"],"bee_group":{"antennae":"A","wings":"X","pattern":"D","legs":"X"},"action":"avoid","summary":"good-avoid","bonus":1.260000000000001},{"rt":1123.0999999996275,"stimulus":"\n                    <p><b>Action: <em>avoid</em></b></p>\n                    <p>This is the bee that you just saw.</p>\n                    <img src=\"bees-with-color/bee-A2DM.svg\" width=\"200\">\n                    <p><br>Your bonus pay is unchanged, and remains at $0.74.</p>\n            ","response":0,"trial_type":"html-button-response","trial_index":78,"time_elapsed":388530,"internal_node_id":"0.0-4.0-1.35","subject_id":"613aaf8a8dc36e94fa4f1ba7","study_id":"6197b3f67c2b5cd3b6d9596a","session_id":"619be31e66bf3d6f2e519ff2","condition":"contingent","relevant_dimensions":["antennae","pattern"],"bee_group":{"antennae":"A","wings":"X","pattern":"D","legs":"X"},"bonus":1.260000000000001},{"rt":1796.0999999996275,"stimulus":"bees-with-color/bee-B2DF.svg","response":0,"trial_type":"image-button-response","trial_index":79,"time_elapsed":390327,"internal_node_id":"0.0-4.0-0.36","subject_id":"613aaf8a8dc36e94fa4f1ba7","study_id":"6197b3f67c2b5cd3b6d9596a","session_id":"619be31e66bf3d6f2e519ff2","condition":"contingent","relevant_dimensions":["antennae","pattern"],"bee_group":{"antennae":"A","wings":"X","pattern":"D","legs":"X"},"action":"harvest","summary":"good-harvest","bonus":1.260000000000001},{"rt":456.5,"stimulus":"\n                    <p><b>Action: <em>harvest</em></b></p>\n                    <p>This is the bee that you just saw.</p>\n                    <img src=\"bees-with-color/bee-B2DF.svg\" width=\"200\">\n                    <p><span class=\"greenText\"><b>Successful harvest!</b></span><br>Your pay has increased by $0.02. Your bonus pay is now $0.76.</p>\n            ","response":0,"trial_type":"html-button-response","trial_index":80,"time_elapsed":390784,"internal_node_id":"0.0-4.0-1.36","subject_id":"613aaf8a8dc36e94fa4f1ba7","study_id":"6197b3f67c2b5cd3b6d9596a","session_id":"619be31e66bf3d6f2e519ff2","condition":"contingent","relevant_dimensions":["antennae","pattern"],"bee_group":{"antennae":"A","wings":"X","pattern":"D","legs":"X"},"bonus":1.260000000000001},{"rt":1285.199999999255,"stimulus":"bees-with-color/bee-B1DM.svg","response":0,"trial_type":"image-button-response","trial_index":81,"time_elapsed":392070,"internal_node_id":"0.0-4.0-0.37","subject_id":"613aaf8a8dc36e94fa4f1ba7","study_id":"6197b3f67c2b5cd3b6d9596a","session_id":"619be31e66bf3d6f2e519ff2","condition":"contingent","relevant_dimensions":["antennae","pattern"],"bee_group":{"antennae":"A","wings":"X","pattern":"D","legs":"X"},"action":"harvest","summary":"good-harvest","bonus":1.260000000000001},{"rt":415.09999999962747,"stimulus":"\n                    <p><b>Action: <em>harvest</em></b></p>\n                    <p>This is the bee that you just saw.</p>\n                    <img src=\"bees-with-color/bee-B1DM.svg\" width=\"200\">\n                    <p><span class=\"greenText\"><b>Successful harvest!</b></span><br>Your pay has increased by $0.02. Your bonus pay is now $0.78.</p>\n            ","response":0,"trial_type":"html-button-response","trial_index":82,"time_elapsed":392486,"internal_node_id":"0.0-4.0-1.37","subject_id":"613aaf8a8dc36e94fa4f1ba7","study_id":"6197b3f67c2b5cd3b6d9596a","session_id":"619be31e66bf3d6f2e519ff2","condition":"contingent","relevant_dimensions":["antennae","pattern"],"bee_group":{"antennae":"A","wings":"X","pattern":"D","legs":"X"},"bonus":1.260000000000001},{"rt":3364.10000000149,"stimulus":"bees-with-color/bee-A1SF.svg","response":0,"trial_type":"image-button-response","trial_index":83,"time_elapsed":395851,"internal_node_id":"0.0-4.0-0.38","subject_id":"613aaf8a8dc36e94fa4f1ba7","study_id":"6197b3f67c2b5cd3b6d9596a","session_id":"619be31e66bf3d6f2e519ff2","condition":"contingent","relevant_dimensions":["antennae","pattern"],"bee_group":{"antennae":"A","wings":"X","pattern":"D","legs":"X"},"action":"harvest","summary":"good-harvest","bonus":1.260000000000001},{"rt":557.3000000007451,"stimulus":"\n                    <p><b>Action: <em>harvest</em></b></p>\n                    <p>This is the bee that you just saw.</p>\n                    <img src=\"bees-with-color/bee-A1SF.svg\" width=\"200\">\n                    <p><span class=\"greenText\"><b>Successful harvest!</b></span><br>Your pay has increased by $0.02. Your bonus pay is now $0.80.</p>\n            ","response":0,"trial_type":"html-button-response","trial_index":84,"time_elapsed":396409,"internal_node_id":"0.0-4.0-1.38","subject_id":"613aaf8a8dc36e94fa4f1ba7","study_id":"6197b3f67c2b5cd3b6d9596a","session_id":"619be31e66bf3d6f2e519ff2","condition":"contingent","relevant_dimensions":["antennae","pattern"],"bee_group":{"antennae":"A","wings":"X","pattern":"D","legs":"X"},"bonus":1.260000000000001},{"rt":1811.0999999996275,"stimulus":"bees-with-color/bee-A1DM.svg","response":1,"trial_type":"image-button-response","trial_index":85,"time_elapsed":398221,"internal_node_id":"0.0-4.0-0.39","subject_id":"613aaf8a8dc36e94fa4f1ba7","study_id":"6197b3f67c2b5cd3b6d9596a","session_id":"619be31e66bf3d6f2e519ff2","condition":"contingent","relevant_dimensions":["antennae","pattern"],"bee_group":{"antennae":"A","wings":"X","pattern":"D","legs":"X"},"action":"avoid","summary":"good-avoid","bonus":1.260000000000001},{"rt":455.90000000037253,"stimulus":"\n                    <p><b>Action: <em>avoid</em></b></p>\n                    <p>This is the bee that you just saw.</p>\n                    <img src=\"bees-with-color/bee-A1DM.svg\" width=\"200\">\n                    <p><br>Your bonus pay is unchanged, and remains at $0.80.</p>\n            ","response":0,"trial_type":"html-button-response","trial_index":86,"time_elapsed":398678,"internal_node_id":"0.0-4.0-1.39","subject_id":"613aaf8a8dc36e94fa4f1ba7","study_id":"6197b3f67c2b5cd3b6d9596a","session_id":"619be31e66bf3d6f2e519ff2","condition":"contingent","relevant_dimensions":["antennae","pattern"],"bee_group":{"antennae":"A","wings":"X","pattern":"D","legs":"X"},"bonus":1.260000000000001},{"rt":1346,"stimulus":"bees-with-color/bee-B2SF.svg","response":0,"trial_type":"image-button-response","trial_index":87,"time_elapsed":400025,"internal_node_id":"0.0-4.0-0.40","subject_id":"613aaf8a8dc36e94fa4f1ba7","study_id":"6197b3f67c2b5cd3b6d9596a","session_id":"619be31e66bf3d6f2e519ff2","condition":"contingent","relevant_dimensions":["antennae","pattern"],"bee_group":{"antennae":"A","wings":"X","pattern":"D","legs":"X"},"action":"harvest","summary":"good-harvest","bonus":1.260000000000001},{"rt":560.5,"stimulus":"\n                    <p><b>Action: <em>harvest</em></b></p>\n                    <p>This is the bee that you just saw.</p>\n                    <img src=\"bees-with-color/bee-B2SF.svg\" width=\"200\">\n                    <p><span class=\"greenText\"><b>Successful harvest!</b></span><br>Your pay has increased by $0.02. Your bonus pay is now $0.82.</p>\n            ","response":0,"trial_type":"html-button-response","trial_index":88,"time_elapsed":400586,"internal_node_id":"0.0-4.0-1.40","subject_id":"613aaf8a8dc36e94fa4f1ba7","study_id":"6197b3f67c2b5cd3b6d9596a","session_id":"619be31e66bf3d6f2e519ff2","condition":"contingent","relevant_dimensions":["antennae","pattern"],"bee_group":{"antennae":"A","wings":"X","pattern":"D","legs":"X"},"bonus":1.260000000000001},{"rt":2727.89999999851,"stimulus":"bees-with-color/bee-A1DF.svg","response":1,"trial_type":"image-button-response","trial_index":89,"time_elapsed":403315,"internal_node_id":"0.0-4.0-0.41","subject_id":"613aaf8a8dc36e94fa4f1ba7","study_id":"6197b3f67c2b5cd3b6d9596a","session_id":"619be31e66bf3d6f2e519ff2","condition":"contingent","relevant_dimensions":["antennae","pattern"],"bee_group":{"antennae":"A","wings":"X","pattern":"D","legs":"X"},"action":"avoid","summary":"good-avoid","bonus":1.260000000000001},{"rt":1203,"stimulus":"\n                    <p><b>Action: <em>avoid</em></b></p>\n                    <p>This is the bee that you just saw.</p>\n                    <img src=\"bees-with-color/bee-A1DF.svg\" width=\"200\">\n                    <p><br>Your bonus pay is unchanged, and remains at $0.82.</p>\n            ","response":0,"trial_type":"html-button-response","trial_index":90,"time_elapsed":404519,"internal_node_id":"0.0-4.0-1.41","subject_id":"613aaf8a8dc36e94fa4f1ba7","study_id":"6197b3f67c2b5cd3b6d9596a","session_id":"619be31e66bf3d6f2e519ff2","condition":"contingent","relevant_dimensions":["antennae","pattern"],"bee_group":{"antennae":"A","wings":"X","pattern":"D","legs":"X"},"bonus":1.260000000000001},{"rt":1044.199999999255,"stimulus":"bees-with-color/bee-B1SM.svg","response":0,"trial_type":"image-button-response","trial_index":91,"time_elapsed":405564,"internal_node_id":"0.0-4.0-0.42","subject_id":"613aaf8a8dc36e94fa4f1ba7","study_id":"6197b3f67c2b5cd3b6d9596a","session_id":"619be31e66bf3d6f2e519ff2","condition":"contingent","relevant_dimensions":["antennae","pattern"],"bee_group":{"antennae":"A","wings":"X","pattern":"D","legs":"X"},"action":"harvest","summary":"good-harvest","bonus":1.260000000000001},{"rt":557.4000000003725,"stimulus":"\n                    <p><b>Action: <em>harvest</em></b></p>\n                    <p>This is the bee that you just saw.</p>\n                    <img src=\"bees-with-color/bee-B1SM.svg\" width=\"200\">\n                    <p><span class=\"greenText\"><b>Successful harvest!</b></span><br>Your pay has increased by $0.02. Your bonus pay is now $0.84.</p>\n            ","response":0,"trial_type":"html-button-response","trial_index":92,"time_elapsed":406122,"internal_node_id":"0.0-4.0-1.42","subject_id":"613aaf8a8dc36e94fa4f1ba7","study_id":"6197b3f67c2b5cd3b6d9596a","session_id":"619be31e66bf3d6f2e519ff2","condition":"contingent","relevant_dimensions":["antennae","pattern"],"bee_group":{"antennae":"A","wings":"X","pattern":"D","legs":"X"},"bonus":1.260000000000001},{"rt":1340.199999999255,"stimulus":"bees-with-color/bee-A2DF.svg","response":1,"trial_type":"image-button-response","trial_index":93,"time_elapsed":407463,"internal_node_id":"0.0-4.0-0.43","subject_id":"613aaf8a8dc36e94fa4f1ba7","study_id":"6197b3f67c2b5cd3b6d9596a","session_id":"619be31e66bf3d6f2e519ff2","condition":"contingent","relevant_dimensions":["antennae","pattern"],"bee_group":{"antennae":"A","wings":"X","pattern":"D","legs":"X"},"action":"avoid","summary":"good-avoid","bonus":1.260000000000001},{"rt":423.19999999925494,"stimulus":"\n                    <p><b>Action: <em>avoid</em></b></p>\n                    <p>This is the bee that you just saw.</p>\n                    <img src=\"bees-with-color/bee-A2DF.svg\" width=\"200\">\n                    <p><br>Your bonus pay is unchanged, and remains at $0.84.</p>\n            ","response":0,"trial_type":"html-button-response","trial_index":94,"time_elapsed":407886,"internal_node_id":"0.0-4.0-1.43","subject_id":"613aaf8a8dc36e94fa4f1ba7","study_id":"6197b3f67c2b5cd3b6d9596a","session_id":"619be31e66bf3d6f2e519ff2","condition":"contingent","relevant_dimensions":["antennae","pattern"],"bee_group":{"antennae":"A","wings":"X","pattern":"D","legs":"X"},"bonus":1.260000000000001},{"rt":889.5,"stimulus":"bees-with-color/bee-B1DF.svg","response":0,"trial_type":"image-button-response","trial_index":95,"time_elapsed":408777,"internal_node_id":"0.0-4.0-0.44","subject_id":"613aaf8a8dc36e94fa4f1ba7","study_id":"6197b3f67c2b5cd3b6d9596a","session_id":"619be31e66bf3d6f2e519ff2","condition":"contingent","relevant_dimensions":["antennae","pattern"],"bee_group":{"antennae":"A","wings":"X","pattern":"D","legs":"X"},"action":"harvest","summary":"good-harvest","bonus":1.260000000000001},{"rt":520.9000000003725,"stimulus":"\n                    <p><b>Action: <em>harvest</em></b></p>\n                    <p>This is the bee that you just saw.</p>\n                    <img src=\"bees-with-color/bee-B1DF.svg\" width=\"200\">\n                    <p><span class=\"greenText\"><b>Successful harvest!</b></span><br>Your pay has increased by $0.02. Your bonus pay is now $0.86.</p>\n            ","response":0,"trial_type":"html-button-response","trial_index":96,"time_elapsed":409299,"internal_node_id":"0.0-4.0-1.44","subject_id":"613aaf8a8dc36e94fa4f1ba7","study_id":"6197b3f67c2b5cd3b6d9596a","session_id":"619be31e66bf3d6f2e519ff2","condition":"contingent","relevant_dimensions":["antennae","pattern"],"bee_group":{"antennae":"A","wings":"X","pattern":"D","legs":"X"},"bonus":1.260000000000001},{"rt":1410.199999999255,"stimulus":"bees-with-color/bee-B1SF.svg","response":0,"trial_type":"image-button-response","trial_index":97,"time_elapsed":410710,"internal_node_id":"0.0-4.0-0.45","subject_id":"613aaf8a8dc36e94fa4f1ba7","study_id":"6197b3f67c2b5cd3b6d9596a","session_id":"619be31e66bf3d6f2e519ff2","condition":"contingent","relevant_dimensions":["antennae","pattern"],"bee_group":{"antennae":"A","wings":"X","pattern":"D","legs":"X"},"action":"harvest","summary":"good-harvest","bonus":1.260000000000001},{"rt":508.90000000037253,"stimulus":"\n                    <p><b>Action: <em>harvest</em></b></p>\n                    <p>This is the bee that you just saw.</p>\n                    <img src=\"bees-with-color/bee-B1SF.svg\" width=\"200\">\n                    <p><span class=\"greenText\"><b>Successful harvest!</b></span><br>Your pay has increased by $0.02. Your bonus pay is now $0.88.</p>\n            ","response":0,"trial_type":"html-button-response","trial_index":98,"time_elapsed":411219,"internal_node_id":"0.0-4.0-1.45","subject_id":"613aaf8a8dc36e94fa4f1ba7","study_id":"6197b3f67c2b5cd3b6d9596a","session_id":"619be31e66bf3d6f2e519ff2","condition":"contingent","relevant_dimensions":["antennae","pattern"],"bee_group":{"antennae":"A","wings":"X","pattern":"D","legs":"X"},"bonus":1.260000000000001},{"rt":1370.699999999255,"stimulus":"bees-with-color/bee-A2SF.svg","response":1,"trial_type":"image-button-response","trial_index":99,"time_elapsed":412591,"internal_node_id":"0.0-4.0-0.46","subject_id":"613aaf8a8dc36e94fa4f1ba7","study_id":"6197b3f67c2b5cd3b6d9596a","session_id":"619be31e66bf3d6f2e519ff2","condition":"contingent","relevant_dimensions":["antennae","pattern"],"bee_group":{"antennae":"A","wings":"X","pattern":"D","legs":"X"},"action":"avoid","summary":"bad-avoid","bonus":1.260000000000001},{"rt":463.09999999962747,"stimulus":"\n                    <p><b>Action: <em>avoid</em></b></p>\n                    <p>This is the bee that you just saw.</p>\n                    <img src=\"bees-with-color/bee-A2SF.svg\" width=\"200\">\n                    <p><br>Your bonus pay is unchanged, and remains at $0.88.</p>\n            ","response":0,"trial_type":"html-button-response","trial_index":100,"time_elapsed":413055,"internal_node_id":"0.0-4.0-1.46","subject_id":"613aaf8a8dc36e94fa4f1ba7","study_id":"6197b3f67c2b5cd3b6d9596a","session_id":"619be31e66bf3d6f2e519ff2","condition":"contingent","relevant_dimensions":["antennae","pattern"],"bee_group":{"antennae":"A","wings":"X","pattern":"D","legs":"X"},"bonus":1.260000000000001},{"rt":4296.0999999996275,"stimulus":"bees-with-color/bee-A1SM.svg","response":1,"trial_type":"image-button-response","trial_index":101,"time_elapsed":417352,"internal_node_id":"0.0-4.0-0.47","subject_id":"613aaf8a8dc36e94fa4f1ba7","study_id":"6197b3f67c2b5cd3b6d9596a","session_id":"619be31e66bf3d6f2e519ff2","condition":"contingent","relevant_dimensions":["antennae","pattern"],"bee_group":{"antennae":"A","wings":"X","pattern":"D","legs":"X"},"action":"avoid","summary":"bad-avoid","bonus":1.260000000000001},{"rt":648.5999999996275,"stimulus":"\n                    <p><b>Action: <em>avoid</em></b></p>\n                    <p>This is the bee that you just saw.</p>\n                    <img src=\"bees-with-color/bee-A1SM.svg\" width=\"200\">\n                    <p><br>Your bonus pay is unchanged, and remains at $0.88.</p>\n            ","response":0,"trial_type":"html-button-response","trial_index":102,"time_elapsed":418001,"internal_node_id":"0.0-4.0-1.47","subject_id":"613aaf8a8dc36e94fa4f1ba7","study_id":"6197b3f67c2b5cd3b6d9596a","session_id":"619be31e66bf3d6f2e519ff2","condition":"contingent","relevant_dimensions":["antennae","pattern"],"bee_group":{"antennae":"A","wings":"X","pattern":"D","legs":"X"},"bonus":1.260000000000001},{"rt":4127.0999999996275,"stimulus":"bees-with-color/bee-B2SM.svg","response":0,"trial_type":"image-button-response","trial_index":103,"time_elapsed":422129,"internal_node_id":"0.0-4.0-0.48","subject_id":"613aaf8a8dc36e94fa4f1ba7","study_id":"6197b3f67c2b5cd3b6d9596a","session_id":"619be31e66bf3d6f2e519ff2","condition":"contingent","relevant_dimensions":["antennae","pattern"],"bee_group":{"antennae":"A","wings":"X","pattern":"D","legs":"X"},"action":"harvest","summary":"good-harvest","bonus":1.260000000000001},{"rt":497.30000000074506,"stimulus":"\n                    <p><b>Action: <em>harvest</em></b></p>\n                    <p>This is the bee that you just saw.</p>\n                    <img src=\"bees-with-color/bee-B2SM.svg\" width=\"200\">\n                    <p><span class=\"greenText\"><b>Successful harvest!</b></span><br>Your pay has increased by $0.02. Your bonus pay is now $0.90.</p>\n            ","response":0,"trial_type":"html-button-response","trial_index":104,"time_elapsed":422628,"internal_node_id":"0.0-4.0-1.48","subject_id":"613aaf8a8dc36e94fa4f1ba7","study_id":"6197b3f67c2b5cd3b6d9596a","session_id":"619be31e66bf3d6f2e519ff2","condition":"contingent","relevant_dimensions":["antennae","pattern"],"bee_group":{"antennae":"A","wings":"X","pattern":"D","legs":"X"},"bonus":1.260000000000001},{"rt":1238.0999999996275,"stimulus":"bees-with-color/bee-B2DM.svg","response":0,"trial_type":"image-button-response","trial_index":105,"time_elapsed":423867,"internal_node_id":"0.0-4.0-0.49","subject_id":"613aaf8a8dc36e94fa4f1ba7","study_id":"6197b3f67c2b5cd3b6d9596a","session_id":"619be31e66bf3d6f2e519ff2","condition":"contingent","relevant_dimensions":["antennae","pattern"],"bee_group":{"antennae":"A","wings":"X","pattern":"D","legs":"X"},"action":"harvest","summary":"good-harvest","bonus":1.260000000000001},{"rt":447.3999999985099,"stimulus":"\n                    <p><b>Action: <em>harvest</em></b></p>\n                    <p>This is the bee that you just saw.</p>\n                    <img src=\"bees-with-color/bee-B2DM.svg\" width=\"200\">\n                    <p><span class=\"greenText\"><b>Successful harvest!</b></span><br>Your pay has increased by $0.02. Your bonus pay is now $0.92.</p>\n            ","response":0,"trial_type":"html-button-response","trial_index":106,"time_elapsed":424315,"internal_node_id":"0.0-4.0-1.49","subject_id":"613aaf8a8dc36e94fa4f1ba7","study_id":"6197b3f67c2b5cd3b6d9596a","session_id":"619be31e66bf3d6f2e519ff2","condition":"contingent","relevant_dimensions":["antennae","pattern"],"bee_group":{"antennae":"A","wings":"X","pattern":"D","legs":"X"},"bonus":1.260000000000001},{"rt":1245.5,"stimulus":"bees-with-color/bee-B1SM.svg","response":0,"trial_type":"image-button-response","trial_index":107,"time_elapsed":425562,"internal_node_id":"0.0-4.0-0.50","subject_id":"613aaf8a8dc36e94fa4f1ba7","study_id":"6197b3f67c2b5cd3b6d9596a","session_id":"619be31e66bf3d6f2e519ff2","condition":"contingent","relevant_dimensions":["antennae","pattern"],"bee_group":{"antennae":"A","wings":"X","pattern":"D","legs":"X"},"action":"harvest","summary":"good-harvest","bonus":1.260000000000001},{"rt":411,"stimulus":"\n                    <p><b>Action: <em>harvest</em></b></p>\n                    <p>This is the bee that you just saw.</p>\n                    <img src=\"bees-with-color/bee-B1SM.svg\" width=\"200\">\n                    <p><span class=\"greenText\"><b>Successful harvest!</b></span><br>Your pay has increased by $0.02. Your bonus pay is now $0.94.</p>\n            ","response":0,"trial_type":"html-button-response","trial_index":108,"time_elapsed":425973,"internal_node_id":"0.0-4.0-1.50","subject_id":"613aaf8a8dc36e94fa4f1ba7","study_id":"6197b3f67c2b5cd3b6d9596a","session_id":"619be31e66bf3d6f2e519ff2","condition":"contingent","relevant_dimensions":["antennae","pattern"],"bee_group":{"antennae":"A","wings":"X","pattern":"D","legs":"X"},"bonus":1.260000000000001},{"rt":1138.5,"stimulus":"bees-with-color/bee-A1DM.svg","response":1,"trial_type":"image-button-response","trial_index":109,"time_elapsed":427112,"internal_node_id":"0.0-4.0-0.51","subject_id":"613aaf8a8dc36e94fa4f1ba7","study_id":"6197b3f67c2b5cd3b6d9596a","session_id":"619be31e66bf3d6f2e519ff2","condition":"contingent","relevant_dimensions":["antennae","pattern"],"bee_group":{"antennae":"A","wings":"X","pattern":"D","legs":"X"},"action":"avoid","summary":"good-avoid","bonus":1.260000000000001},{"rt":768.9000000003725,"stimulus":"\n                    <p><b>Action: <em>avoid</em></b></p>\n                    <p>This is the bee that you just saw.</p>\n                    <img src=\"bees-with-color/bee-A1DM.svg\" width=\"200\">\n                    <p><br>Your bonus pay is unchanged, and remains at $0.94.</p>\n            ","response":0,"trial_type":"html-button-response","trial_index":110,"time_elapsed":427882,"internal_node_id":"0.0-4.0-1.51","subject_id":"613aaf8a8dc36e94fa4f1ba7","study_id":"6197b3f67c2b5cd3b6d9596a","session_id":"619be31e66bf3d6f2e519ff2","condition":"contingent","relevant_dimensions":["antennae","pattern"],"bee_group":{"antennae":"A","wings":"X","pattern":"D","legs":"X"},"bonus":1.260000000000001},{"rt":1317.5999999996275,"stimulus":"bees-with-color/bee-B1DF.svg","response":0,"trial_type":"image-button-response","trial_index":111,"time_elapsed":429200,"internal_node_id":"0.0-4.0-0.52","subject_id":"613aaf8a8dc36e94fa4f1ba7","study_id":"6197b3f67c2b5cd3b6d9596a","session_id":"619be31e66bf3d6f2e519ff2","condition":"contingent","relevant_dimensions":["antennae","pattern"],"bee_group":{"antennae":"A","wings":"X","pattern":"D","legs":"X"},"action":"harvest","summary":"good-harvest","bonus":1.260000000000001},{"rt":475.09999999962747,"stimulus":"\n                    <p><b>Action: <em>harvest</em></b></p>\n                    <p>This is the bee that you just saw.</p>\n                    <img src=\"bees-with-color/bee-B1DF.svg\" width=\"200\">\n                    <p><span class=\"greenText\"><b>Successful harvest!</b></span><br>Your pay has increased by $0.02. Your bonus pay is now $0.96.</p>\n            ","response":0,"trial_type":"html-button-response","trial_index":112,"time_elapsed":429676,"internal_node_id":"0.0-4.0-1.52","subject_id":"613aaf8a8dc36e94fa4f1ba7","study_id":"6197b3f67c2b5cd3b6d9596a","session_id":"619be31e66bf3d6f2e519ff2","condition":"contingent","relevant_dimensions":["antennae","pattern"],"bee_group":{"antennae":"A","wings":"X","pattern":"D","legs":"X"},"bonus":1.260000000000001},{"rt":3731.4000000003725,"stimulus":"bees-with-color/bee-A1SF.svg","response":1,"trial_type":"image-button-response","trial_index":113,"time_elapsed":433408,"internal_node_id":"0.0-4.0-0.53","subject_id":"613aaf8a8dc36e94fa4f1ba7","study_id":"6197b3f67c2b5cd3b6d9596a","session_id":"619be31e66bf3d6f2e519ff2","condition":"contingent","relevant_dimensions":["antennae","pattern"],"bee_group":{"antennae":"A","wings":"X","pattern":"D","legs":"X"},"action":"avoid","summary":"bad-avoid","bonus":1.260000000000001},{"rt":481.2999999988824,"stimulus":"\n                    <p><b>Action: <em>avoid</em></b></p>\n                    <p>This is the bee that you just saw.</p>\n                    <img src=\"bees-with-color/bee-A1SF.svg\" width=\"200\">\n                    <p><br>Your bonus pay is unchanged, and remains at $0.96.</p>\n            ","response":0,"trial_type":"html-button-response","trial_index":114,"time_elapsed":433890,"internal_node_id":"0.0-4.0-1.53","subject_id":"613aaf8a8dc36e94fa4f1ba7","study_id":"6197b3f67c2b5cd3b6d9596a","session_id":"619be31e66bf3d6f2e519ff2","condition":"contingent","relevant_dimensions":["antennae","pattern"],"bee_group":{"antennae":"A","wings":"X","pattern":"D","legs":"X"},"bonus":1.260000000000001},{"rt":1325,"stimulus":"bees-with-color/bee-A2DF.svg","response":1,"trial_type":"image-button-response","trial_index":115,"time_elapsed":435216,"internal_node_id":"0.0-4.0-0.54","subject_id":"613aaf8a8dc36e94fa4f1ba7","study_id":"6197b3f67c2b5cd3b6d9596a","session_id":"619be31e66bf3d6f2e519ff2","condition":"contingent","relevant_dimensions":["antennae","pattern"],"bee_group":{"antennae":"A","wings":"X","pattern":"D","legs":"X"},"action":"avoid","summary":"good-avoid","bonus":1.260000000000001},{"rt":793.8000000007451,"stimulus":"\n                    <p><b>Action: <em>avoid</em></b></p>\n                    <p>This is the bee that you just saw.</p>\n                    <img src=\"bees-with-color/bee-A2DF.svg\" width=\"200\">\n                    <p><br>Your bonus pay is unchanged, and remains at $0.96.</p>\n            ","response":0,"trial_type":"html-button-response","trial_index":116,"time_elapsed":436011,"internal_node_id":"0.0-4.0-1.54","subject_id":"613aaf8a8dc36e94fa4f1ba7","study_id":"6197b3f67c2b5cd3b6d9596a","session_id":"619be31e66bf3d6f2e519ff2","condition":"contingent","relevant_dimensions":["antennae","pattern"],"bee_group":{"antennae":"A","wings":"X","pattern":"D","legs":"X"},"bonus":1.260000000000001},{"rt":1017.4000000003725,"stimulus":"bees-with-color/bee-B1DM.svg","response":0,"trial_type":"image-button-response","trial_index":117,"time_elapsed":437029,"internal_node_id":"0.0-4.0-0.55","subject_id":"613aaf8a8dc36e94fa4f1ba7","study_id":"6197b3f67c2b5cd3b6d9596a","session_id":"619be31e66bf3d6f2e519ff2","condition":"contingent","relevant_dimensions":["antennae","pattern"],"bee_group":{"antennae":"A","wings":"X","pattern":"D","legs":"X"},"action":"harvest","summary":"good-harvest","bonus":1.260000000000001},{"rt":568.5,"stimulus":"\n                    <p><b>Action: <em>harvest</em></b></p>\n                    <p>This is the bee that you just saw.</p>\n                    <img src=\"bees-with-color/bee-B1DM.svg\" width=\"200\">\n                    <p><span class=\"greenText\"><b>Successful harvest!</b></span><br>Your pay has increased by $0.02. Your bonus pay is now $0.98.</p>\n            ","response":0,"trial_type":"html-button-response","trial_index":118,"time_elapsed":437598,"internal_node_id":"0.0-4.0-1.55","subject_id":"613aaf8a8dc36e94fa4f1ba7","study_id":"6197b3f67c2b5cd3b6d9596a","session_id":"619be31e66bf3d6f2e519ff2","condition":"contingent","relevant_dimensions":["antennae","pattern"],"bee_group":{"antennae":"A","wings":"X","pattern":"D","legs":"X"},"bonus":1.260000000000001},{"rt":1578.9000000003725,"stimulus":"bees-with-color/bee-A2SF.svg","response":1,"trial_type":"image-button-response","trial_index":119,"time_elapsed":439178,"internal_node_id":"0.0-4.0-0.56","subject_id":"613aaf8a8dc36e94fa4f1ba7","study_id":"6197b3f67c2b5cd3b6d9596a","session_id":"619be31e66bf3d6f2e519ff2","condition":"contingent","relevant_dimensions":["antennae","pattern"],"bee_group":{"antennae":"A","wings":"X","pattern":"D","legs":"X"},"action":"avoid","summary":"bad-avoid","bonus":1.260000000000001},{"rt":469.09999999962747,"stimulus":"\n                    <p><b>Action: <em>avoid</em></b></p>\n                    <p>This is the bee that you just saw.</p>\n                    <img src=\"bees-with-color/bee-A2SF.svg\" width=\"200\">\n                    <p><br>Your bonus pay is unchanged, and remains at $0.98.</p>\n            ","response":0,"trial_type":"html-button-response","trial_index":120,"time_elapsed":439648,"internal_node_id":"0.0-4.0-1.56","subject_id":"613aaf8a8dc36e94fa4f1ba7","study_id":"6197b3f67c2b5cd3b6d9596a","session_id":"619be31e66bf3d6f2e519ff2","condition":"contingent","relevant_dimensions":["antennae","pattern"],"bee_group":{"antennae":"A","wings":"X","pattern":"D","legs":"X"},"bonus":1.260000000000001},{"rt":2042.0999999996275,"stimulus":"bees-with-color/bee-A2SM.svg","response":1,"trial_type":"image-button-response","trial_index":121,"time_elapsed":441691,"internal_node_id":"0.0-4.0-0.57","subject_id":"613aaf8a8dc36e94fa4f1ba7","study_id":"6197b3f67c2b5cd3b6d9596a","session_id":"619be31e66bf3d6f2e519ff2","condition":"contingent","relevant_dimensions":["antennae","pattern"],"bee_group":{"antennae":"A","wings":"X","pattern":"D","legs":"X"},"action":"avoid","summary":"bad-avoid","bonus":1.260000000000001},{"rt":399.1000000014901,"stimulus":"\n                    <p><b>Action: <em>avoid</em></b></p>\n                    <p>This is the bee that you just saw.</p>\n                    <img src=\"bees-with-color/bee-A2SM.svg\" width=\"200\">\n                    <p><br>Your bonus pay is unchanged, and remains at $0.98.</p>\n            ","response":0,"trial_type":"html-button-response","trial_index":122,"time_elapsed":442091,"internal_node_id":"0.0-4.0-1.57","subject_id":"613aaf8a8dc36e94fa4f1ba7","study_id":"6197b3f67c2b5cd3b6d9596a","session_id":"619be31e66bf3d6f2e519ff2","condition":"contingent","relevant_dimensions":["antennae","pattern"],"bee_group":{"antennae":"A","wings":"X","pattern":"D","legs":"X"},"bonus":1.260000000000001},{"rt":1611,"stimulus":"bees-with-color/bee-A1SM.svg","response":1,"trial_type":"image-button-response","trial_index":123,"time_elapsed":443703,"internal_node_id":"0.0-4.0-0.58","subject_id":"613aaf8a8dc36e94fa4f1ba7","study_id":"6197b3f67c2b5cd3b6d9596a","session_id":"619be31e66bf3d6f2e519ff2","condition":"contingent","relevant_dimensions":["antennae","pattern"],"bee_group":{"antennae":"A","wings":"X","pattern":"D","legs":"X"},"action":"avoid","summary":"bad-avoid","bonus":1.260000000000001},{"rt":415.09999999962747,"stimulus":"\n                    <p><b>Action: <em>avoid</em></b></p>\n                    <p>This is the bee that you just saw.</p>\n                    <img src=\"bees-with-color/bee-A1SM.svg\" width=\"200\">\n                    <p><br>Your bonus pay is unchanged, and remains at $0.98.</p>\n            ","response":0,"trial_type":"html-button-response","trial_index":124,"time_elapsed":444119,"internal_node_id":"0.0-4.0-1.58","subject_id":"613aaf8a8dc36e94fa4f1ba7","study_id":"6197b3f67c2b5cd3b6d9596a","session_id":"619be31e66bf3d6f2e519ff2","condition":"contingent","relevant_dimensions":["antennae","pattern"],"bee_group":{"antennae":"A","wings":"X","pattern":"D","legs":"X"},"bonus":1.260000000000001},{"rt":1350.4000000003725,"stimulus":"bees-with-color/bee-B2DF.svg","response":0,"trial_type":"image-button-response","trial_index":125,"time_elapsed":445470,"internal_node_id":"0.0-4.0-0.59","subject_id":"613aaf8a8dc36e94fa4f1ba7","study_id":"6197b3f67c2b5cd3b6d9596a","session_id":"619be31e66bf3d6f2e519ff2","condition":"contingent","relevant_dimensions":["antennae","pattern"],"bee_group":{"antennae":"A","wings":"X","pattern":"D","legs":"X"},"action":"harvest","summary":"good-harvest","bonus":1.260000000000001},{"rt":450.40000000037253,"stimulus":"\n                    <p><b>Action: <em>harvest</em></b></p>\n                    <p>This is the bee that you just saw.</p>\n                    <img src=\"bees-with-color/bee-B2DF.svg\" width=\"200\">\n                    <p><span class=\"greenText\"><b>Successful harvest!</b></span><br>Your pay has increased by $0.02. Your bonus pay is now $1.00.</p>\n            ","response":0,"trial_type":"html-button-response","trial_index":126,"time_elapsed":445921,"internal_node_id":"0.0-4.0-1.59","subject_id":"613aaf8a8dc36e94fa4f1ba7","study_id":"6197b3f67c2b5cd3b6d9596a","session_id":"619be31e66bf3d6f2e519ff2","condition":"contingent","relevant_dimensions":["antennae","pattern"],"bee_group":{"antennae":"A","wings":"X","pattern":"D","legs":"X"},"bonus":1.260000000000001},{"rt":1694.1000000014901,"stimulus":"bees-with-color/bee-A2DM.svg","response":1,"trial_type":"image-button-response","trial_index":127,"time_elapsed":447616,"internal_node_id":"0.0-4.0-0.60","subject_id":"613aaf8a8dc36e94fa4f1ba7","study_id":"6197b3f67c2b5cd3b6d9596a","session_id":"619be31e66bf3d6f2e519ff2","condition":"contingent","relevant_dimensions":["antennae","pattern"],"bee_group":{"antennae":"A","wings":"X","pattern":"D","legs":"X"},"action":"avoid","summary":"good-avoid","bonus":1.260000000000001},{"rt":475.40000000037253,"stimulus":"\n                    <p><b>Action: <em>avoid</em></b></p>\n                    <p>This is the bee that you just saw.</p>\n                    <img src=\"bees-with-color/bee-A2DM.svg\" width=\"200\">\n                    <p><br>Your bonus pay is unchanged, and remains at $1.00.</p>\n            ","response":0,"trial_type":"html-button-response","trial_index":128,"time_elapsed":448092,"internal_node_id":"0.0-4.0-1.60","subject_id":"613aaf8a8dc36e94fa4f1ba7","study_id":"6197b3f67c2b5cd3b6d9596a","session_id":"619be31e66bf3d6f2e519ff2","condition":"contingent","relevant_dimensions":["antennae","pattern"],"bee_group":{"antennae":"A","wings":"X","pattern":"D","legs":"X"},"bonus":1.260000000000001},{"rt":1345.300000000745,"stimulus":"bees-with-color/bee-A1DF.svg","response":0,"trial_type":"image-button-response","trial_index":129,"time_elapsed":449438,"internal_node_id":"0.0-4.0-0.61","subject_id":"613aaf8a8dc36e94fa4f1ba7","study_id":"6197b3f67c2b5cd3b6d9596a","session_id":"619be31e66bf3d6f2e519ff2","condition":"contingent","relevant_dimensions":["antennae","pattern"],"bee_group":{"antennae":"A","wings":"X","pattern":"D","legs":"X"},"action":"harvest","summary":"bad-harvest","bonus":1.260000000000001},{"rt":1519.800000000745,"stimulus":"\n                    <p><b>Action: <em>harvest</em></b></p>\n                    <p>This is the bee that you just saw.</p>\n                    <img src=\"bees-with-color/bee-A1DF.svg\" width=\"200\">\n                    <p><span class=\"redText\">Bad choice, the bee was angry.</span><br><b>You have been stung!</b><br>Your pay has been decreased by $0.10. Your bonus pay is now $0.90.</p>\n            ","response":0,"trial_type":"html-button-response","trial_index":130,"time_elapsed":450958,"internal_node_id":"0.0-4.0-1.61","subject_id":"613aaf8a8dc36e94fa4f1ba7","study_id":"6197b3f67c2b5cd3b6d9596a","session_id":"619be31e66bf3d6f2e519ff2","condition":"contingent","relevant_dimensions":["antennae","pattern"],"bee_group":{"antennae":"A","wings":"X","pattern":"D","legs":"X"},"bonus":1.260000000000001},{"rt":1000,"stimulus":"bees-with-color/bee-B1SF.svg","response":0,"trial_type":"image-button-response","trial_index":131,"time_elapsed":451960,"internal_node_id":"0.0-4.0-0.62","subject_id":"613aaf8a8dc36e94fa4f1ba7","study_id":"6197b3f67c2b5cd3b6d9596a","session_id":"619be31e66bf3d6f2e519ff2","condition":"contingent","relevant_dimensions":["antennae","pattern"],"bee_group":{"antennae":"A","wings":"X","pattern":"D","legs":"X"},"action":"harvest","summary":"good-harvest","bonus":1.260000000000001},{"rt":673.1999999992549,"stimulus":"\n                    <p><b>Action: <em>harvest</em></b></p>\n                    <p>This is the bee that you just saw.</p>\n                    <img src=\"bees-with-color/bee-B1SF.svg\" width=\"200\">\n                    <p><span class=\"greenText\"><b>Successful harvest!</b></span><br>Your pay has increased by $0.02. Your bonus pay is now $0.92.</p>\n            ","response":0,"trial_type":"html-button-response","trial_index":132,"time_elapsed":452633,"internal_node_id":"0.0-4.0-1.62","subject_id":"613aaf8a8dc36e94fa4f1ba7","study_id":"6197b3f67c2b5cd3b6d9596a","session_id":"619be31e66bf3d6f2e519ff2","condition":"contingent","relevant_dimensions":["antennae","pattern"],"bee_group":{"antennae":"A","wings":"X","pattern":"D","legs":"X"},"bonus":1.260000000000001},{"rt":961.5,"stimulus":"bees-with-color/bee-B2SF.svg","response":0,"trial_type":"image-button-response","trial_index":133,"time_elapsed":453596,"internal_node_id":"0.0-4.0-0.63","subject_id":"613aaf8a8dc36e94fa4f1ba7","study_id":"6197b3f67c2b5cd3b6d9596a","session_id":"619be31e66bf3d6f2e519ff2","condition":"contingent","relevant_dimensions":["antennae","pattern"],"bee_group":{"antennae":"A","wings":"X","pattern":"D","legs":"X"},"action":"harvest","summary":"good-harvest","bonus":1.260000000000001},{"rt":454.09999999962747,"stimulus":"\n                    <p><b>Action: <em>harvest</em></b></p>\n                    <p>This is the bee that you just saw.</p>\n                    <img src=\"bees-with-color/bee-B2SF.svg\" width=\"200\">\n                    <p><span class=\"greenText\"><b>Successful harvest!</b></span><br>Your pay has increased by $0.02. Your bonus pay is now $0.94.</p>\n            ","response":0,"trial_type":"html-button-response","trial_index":134,"time_elapsed":454050,"internal_node_id":"0.0-4.0-1.63","subject_id":"613aaf8a8dc36e94fa4f1ba7","study_id":"6197b3f67c2b5cd3b6d9596a","session_id":"619be31e66bf3d6f2e519ff2","condition":"contingent","relevant_dimensions":["antennae","pattern"],"bee_group":{"antennae":"A","wings":"X","pattern":"D","legs":"X"},"bonus":1.260000000000001},{"rt":9400.400000000373,"stimulus":"You have completed the first part of this experiment.<br><br>You will now begin a shorter second part, in which you will receive no feedback.<br>The same rules regarding bonus pay apply.<br><br>Press any key to begin.","response":"d","trial_type":"html-keyboard-response","trial_index":135,"time_elapsed":463452,"internal_node_id":"0.0-5.0","subject_id":"613aaf8a8dc36e94fa4f1ba7","study_id":"6197b3f67c2b5cd3b6d9596a","session_id":"619be31e66bf3d6f2e519ff2","condition":"contingent","relevant_dimensions":["antennae","pattern"],"bee_group":{"antennae":"A","wings":"X","pattern":"D","legs":"X"},"bonus":1.260000000000001},{"rt":3276.800000000745,"stimulus":"bees-with-color/bee-A2SM.svg","response":1,"trial_type":"image-button-response","trial_index":136,"time_elapsed":466731,"internal_node_id":"0.0-6.0-0.0","subject_id":"613aaf8a8dc36e94fa4f1ba7","study_id":"6197b3f67c2b5cd3b6d9596a","session_id":"619be31e66bf3d6f2e519ff2","condition":"contingent","relevant_dimensions":["antennae","pattern"],"bee_group":{"antennae":"A","wings":"X","pattern":"D","legs":"X"},"bonus":1.260000000000001},{"rt":2568.39999999851,"stimulus":"bees-with-color/bee-B1DM.svg","response":0,"trial_type":"image-button-response","trial_index":137,"time_elapsed":469301,"internal_node_id":"0.0-6.0-0.1","subject_id":"613aaf8a8dc36e94fa4f1ba7","study_id":"6197b3f67c2b5cd3b6d9596a","session_id":"619be31e66bf3d6f2e519ff2","condition":"contingent","relevant_dimensions":["antennae","pattern"],"bee_group":{"antennae":"A","wings":"X","pattern":"D","legs":"X"},"bonus":1.260000000000001},{"rt":1954.7000000011176,"stimulus":"bees-with-color/bee-A1SF.svg","response":1,"trial_type":"image-button-response","trial_index":138,"time_elapsed":471257,"internal_node_id":"0.0-6.0-0.2","subject_id":"613aaf8a8dc36e94fa4f1ba7","study_id":"6197b3f67c2b5cd3b6d9596a","session_id":"619be31e66bf3d6f2e519ff2","condition":"contingent","relevant_dimensions":["antennae","pattern"],"bee_group":{"antennae":"A","wings":"X","pattern":"D","legs":"X"},"bonus":1.260000000000001},{"rt":997.4000000003725,"stimulus":"bees-with-color/bee-A1DF.svg","response":1,"trial_type":"image-button-response","trial_index":139,"time_elapsed":472256,"internal_node_id":"0.0-6.0-0.3","subject_id":"613aaf8a8dc36e94fa4f1ba7","study_id":"6197b3f67c2b5cd3b6d9596a","session_id":"619be31e66bf3d6f2e519ff2","condition":"contingent","relevant_dimensions":["antennae","pattern"],"bee_group":{"antennae":"A","wings":"X","pattern":"D","legs":"X"},"bonus":1.260000000000001},{"rt":1114.7999999988824,"stimulus":"bees-with-color/bee-B1SM.svg","response":0,"trial_type":"image-button-response","trial_index":140,"time_elapsed":473372,"internal_node_id":"0.0-6.0-0.4","subject_id":"613aaf8a8dc36e94fa4f1ba7","study_id":"6197b3f67c2b5cd3b6d9596a","session_id":"619be31e66bf3d6f2e519ff2","condition":"contingent","relevant_dimensions":["antennae","pattern"],"bee_group":{"antennae":"A","wings":"X","pattern":"D","legs":"X"},"bonus":1.260000000000001},{"rt":2207.699999999255,"stimulus":"bees-with-color/bee-B2SM.svg","response":0,"trial_type":"image-button-response","trial_index":141,"time_elapsed":475581,"internal_node_id":"0.0-6.0-0.5","subject_id":"613aaf8a8dc36e94fa4f1ba7","study_id":"6197b3f67c2b5cd3b6d9596a","session_id":"619be31e66bf3d6f2e519ff2","condition":"contingent","relevant_dimensions":["antennae","pattern"],"bee_group":{"antennae":"A","wings":"X","pattern":"D","legs":"X"},"bonus":1.260000000000001},{"rt":1478.9000000003725,"stimulus":"bees-with-color/bee-B1DF.svg","response":0,"trial_type":"image-button-response","trial_index":142,"time_elapsed":477061,"internal_node_id":"0.0-6.0-0.6","subject_id":"613aaf8a8dc36e94fa4f1ba7","study_id":"6197b3f67c2b5cd3b6d9596a","session_id":"619be31e66bf3d6f2e519ff2","condition":"contingent","relevant_dimensions":["antennae","pattern"],"bee_group":{"antennae":"A","wings":"X","pattern":"D","legs":"X"},"bonus":1.260000000000001},{"rt":1009.2999999988824,"stimulus":"bees-with-color/bee-A1DM.svg","response":1,"trial_type":"image-button-response","trial_index":143,"time_elapsed":478072,"internal_node_id":"0.0-6.0-0.7","subject_id":"613aaf8a8dc36e94fa4f1ba7","study_id":"6197b3f67c2b5cd3b6d9596a","session_id":"619be31e66bf3d6f2e519ff2","condition":"contingent","relevant_dimensions":["antennae","pattern"],"bee_group":{"antennae":"A","wings":"X","pattern":"D","legs":"X"},"bonus":1.260000000000001},{"rt":1118.9000000003725,"stimulus":"bees-with-color/bee-B1SF.svg","response":0,"trial_type":"image-button-response","trial_index":144,"time_elapsed":479192,"internal_node_id":"0.0-6.0-0.8","subject_id":"613aaf8a8dc36e94fa4f1ba7","study_id":"6197b3f67c2b5cd3b6d9596a","session_id":"619be31e66bf3d6f2e519ff2","condition":"contingent","relevant_dimensions":["antennae","pattern"],"bee_group":{"antennae":"A","wings":"X","pattern":"D","legs":"X"},"bonus":1.260000000000001},{"rt":1358.0999999996275,"stimulus":"bees-with-color/bee-B2DF.svg","response":0,"trial_type":"image-button-response","trial_index":145,"time_elapsed":480551,"internal_node_id":"0.0-6.0-0.9","subject_id":"613aaf8a8dc36e94fa4f1ba7","study_id":"6197b3f67c2b5cd3b6d9596a","session_id":"619be31e66bf3d6f2e519ff2","condition":"contingent","relevant_dimensions":["antennae","pattern"],"bee_group":{"antennae":"A","wings":"X","pattern":"D","legs":"X"},"bonus":1.260000000000001},{"rt":809.4000000003725,"stimulus":"bees-with-color/bee-A2DF.svg","response":1,"trial_type":"image-button-response","trial_index":146,"time_elapsed":481362,"internal_node_id":"0.0-6.0-0.10","subject_id":"613aaf8a8dc36e94fa4f1ba7","study_id":"6197b3f67c2b5cd3b6d9596a","session_id":"619be31e66bf3d6f2e519ff2","condition":"contingent","relevant_dimensions":["antennae","pattern"],"bee_group":{"antennae":"A","wings":"X","pattern":"D","legs":"X"},"bonus":1.260000000000001},{"rt":1198.0999999996275,"stimulus":"bees-with-color/bee-A2DM.svg","response":1,"trial_type":"image-button-response","trial_index":147,"time_elapsed":482561,"internal_node_id":"0.0-6.0-0.11","subject_id":"613aaf8a8dc36e94fa4f1ba7","study_id":"6197b3f67c2b5cd3b6d9596a","session_id":"619be31e66bf3d6f2e519ff2","condition":"contingent","relevant_dimensions":["antennae","pattern"],"bee_group":{"antennae":"A","wings":"X","pattern":"D","legs":"X"},"bonus":1.260000000000001},{"rt":1995.7000000011176,"stimulus":"bees-with-color/bee-A1SM.svg","response":1,"trial_type":"image-button-response","trial_index":148,"time_elapsed":484558,"internal_node_id":"0.0-6.0-0.12","subject_id":"613aaf8a8dc36e94fa4f1ba7","study_id":"6197b3f67c2b5cd3b6d9596a","session_id":"619be31e66bf3d6f2e519ff2","condition":"contingent","relevant_dimensions":["antennae","pattern"],"bee_group":{"antennae":"A","wings":"X","pattern":"D","legs":"X"},"bonus":1.260000000000001},{"rt":3991.60000000149,"stimulus":"bees-with-color/bee-B2DM.svg","response":0,"trial_type":"image-button-response","trial_index":149,"time_elapsed":488551,"internal_node_id":"0.0-6.0-0.13","subject_id":"613aaf8a8dc36e94fa4f1ba7","study_id":"6197b3f67c2b5cd3b6d9596a","session_id":"619be31e66bf3d6f2e519ff2","condition":"contingent","relevant_dimensions":["antennae","pattern"],"bee_group":{"antennae":"A","wings":"X","pattern":"D","legs":"X"},"bonus":1.260000000000001},{"rt":1214,"stimulus":"bees-with-color/bee-A2SF.svg","response":1,"trial_type":"image-button-response","trial_index":150,"time_elapsed":489766,"internal_node_id":"0.0-6.0-0.14","subject_id":"613aaf8a8dc36e94fa4f1ba7","study_id":"6197b3f67c2b5cd3b6d9596a","session_id":"619be31e66bf3d6f2e519ff2","condition":"contingent","relevant_dimensions":["antennae","pattern"],"bee_group":{"antennae":"A","wings":"X","pattern":"D","legs":"X"},"bonus":1.260000000000001},{"rt":662.6000000014901,"stimulus":"bees-with-color/bee-B2SF.svg","response":0,"trial_type":"image-button-response","trial_index":151,"time_elapsed":490430,"internal_node_id":"0.0-6.0-0.15","subject_id":"613aaf8a8dc36e94fa4f1ba7","study_id":"6197b3f67c2b5cd3b6d9596a","session_id":"619be31e66bf3d6f2e519ff2","condition":"contingent","relevant_dimensions":["antennae","pattern"],"bee_group":{"antennae":"A","wings":"X","pattern":"D","legs":"X"},"bonus":1.260000000000001},{"rt":946,"stimulus":"bees-with-color/bee-A1DF.svg","response":1,"trial_type":"image-button-response","trial_index":152,"time_elapsed":491377,"internal_node_id":"0.0-6.0-0.16","subject_id":"613aaf8a8dc36e94fa4f1ba7","study_id":"6197b3f67c2b5cd3b6d9596a","session_id":"619be31e66bf3d6f2e519ff2","condition":"contingent","relevant_dimensions":["antennae","pattern"],"bee_group":{"antennae":"A","wings":"X","pattern":"D","legs":"X"},"bonus":1.260000000000001},{"rt":1013.2000000011176,"stimulus":"bees-with-color/bee-A1SF.svg","response":1,"trial_type":"image-button-response","trial_index":153,"time_elapsed":492391,"internal_node_id":"0.0-6.0-0.17","subject_id":"613aaf8a8dc36e94fa4f1ba7","study_id":"6197b3f67c2b5cd3b6d9596a","session_id":"619be31e66bf3d6f2e519ff2","condition":"contingent","relevant_dimensions":["antennae","pattern"],"bee_group":{"antennae":"A","wings":"X","pattern":"D","legs":"X"},"bonus":1.260000000000001},{"rt":1258,"stimulus":"bees-with-color/bee-B2SF.svg","response":0,"trial_type":"image-button-response","trial_index":154,"time_elapsed":493650,"internal_node_id":"0.0-6.0-0.18","subject_id":"613aaf8a8dc36e94fa4f1ba7","study_id":"6197b3f67c2b5cd3b6d9596a","session_id":"619be31e66bf3d6f2e519ff2","condition":"contingent","relevant_dimensions":["antennae","pattern"],"bee_group":{"antennae":"A","wings":"X","pattern":"D","legs":"X"},"bonus":1.260000000000001},{"rt":693.1999999992549,"stimulus":"bees-with-color/bee-A2SM.svg","response":1,"trial_type":"image-button-response","trial_index":155,"time_elapsed":494344,"internal_node_id":"0.0-6.0-0.19","subject_id":"613aaf8a8dc36e94fa4f1ba7","study_id":"6197b3f67c2b5cd3b6d9596a","session_id":"619be31e66bf3d6f2e519ff2","condition":"contingent","relevant_dimensions":["antennae","pattern"],"bee_group":{"antennae":"A","wings":"X","pattern":"D","legs":"X"},"bonus":1.260000000000001},{"rt":898.5999999996275,"stimulus":"bees-with-color/bee-B1SF.svg","response":0,"trial_type":"image-button-response","trial_index":156,"time_elapsed":495244,"internal_node_id":"0.0-6.0-0.20","subject_id":"613aaf8a8dc36e94fa4f1ba7","study_id":"6197b3f67c2b5cd3b6d9596a","session_id":"619be31e66bf3d6f2e519ff2","condition":"contingent","relevant_dimensions":["antennae","pattern"],"bee_group":{"antennae":"A","wings":"X","pattern":"D","legs":"X"},"bonus":1.260000000000001},{"rt":1364.5,"stimulus":"bees-with-color/bee-B2DF.svg","response":0,"trial_type":"image-button-response","trial_index":157,"time_elapsed":496609,"internal_node_id":"0.0-6.0-0.21","subject_id":"613aaf8a8dc36e94fa4f1ba7","study_id":"6197b3f67c2b5cd3b6d9596a","session_id":"619be31e66bf3d6f2e519ff2","condition":"contingent","relevant_dimensions":["antennae","pattern"],"bee_group":{"antennae":"A","wings":"X","pattern":"D","legs":"X"},"bonus":1.260000000000001},{"rt":610.8000000007451,"stimulus":"bees-with-color/bee-A1DM.svg","response":1,"trial_type":"image-button-response","trial_index":158,"time_elapsed":497221,"internal_node_id":"0.0-6.0-0.22","subject_id":"613aaf8a8dc36e94fa4f1ba7","study_id":"6197b3f67c2b5cd3b6d9596a","session_id":"619be31e66bf3d6f2e519ff2","condition":"contingent","relevant_dimensions":["antennae","pattern"],"bee_group":{"antennae":"A","wings":"X","pattern":"D","legs":"X"},"bonus":1.260000000000001},{"rt":1579.9000000003725,"stimulus":"bees-with-color/bee-B2SM.svg","response":0,"trial_type":"image-button-response","trial_index":159,"time_elapsed":498802,"internal_node_id":"0.0-6.0-0.23","subject_id":"613aaf8a8dc36e94fa4f1ba7","study_id":"6197b3f67c2b5cd3b6d9596a","session_id":"619be31e66bf3d6f2e519ff2","condition":"contingent","relevant_dimensions":["antennae","pattern"],"bee_group":{"antennae":"A","wings":"X","pattern":"D","legs":"X"},"bonus":1.260000000000001},{"rt":1517.9000000003725,"stimulus":"bees-with-color/bee-A2DM.svg","response":1,"trial_type":"image-button-response","trial_index":160,"time_elapsed":500321,"internal_node_id":"0.0-6.0-0.24","subject_id":"613aaf8a8dc36e94fa4f1ba7","study_id":"6197b3f67c2b5cd3b6d9596a","session_id":"619be31e66bf3d6f2e519ff2","condition":"contingent","relevant_dimensions":["antennae","pattern"],"bee_group":{"antennae":"A","wings":"X","pattern":"D","legs":"X"},"bonus":1.260000000000001},{"rt":1506.4000000003725,"stimulus":"bees-with-color/bee-A2DF.svg","response":1,"trial_type":"image-button-response","trial_index":161,"time_elapsed":501828,"internal_node_id":"0.0-6.0-0.25","subject_id":"613aaf8a8dc36e94fa4f1ba7","study_id":"6197b3f67c2b5cd3b6d9596a","session_id":"619be31e66bf3d6f2e519ff2","condition":"contingent","relevant_dimensions":["antennae","pattern"],"bee_group":{"antennae":"A","wings":"X","pattern":"D","legs":"X"},"bonus":1.260000000000001},{"rt":641.5,"stimulus":"bees-with-color/bee-B1SM.svg","response":0,"trial_type":"image-button-response","trial_index":162,"time_elapsed":502470,"internal_node_id":"0.0-6.0-0.26","subject_id":"613aaf8a8dc36e94fa4f1ba7","study_id":"6197b3f67c2b5cd3b6d9596a","session_id":"619be31e66bf3d6f2e519ff2","condition":"contingent","relevant_dimensions":["antennae","pattern"],"bee_group":{"antennae":"A","wings":"X","pattern":"D","legs":"X"},"bonus":1.260000000000001},{"rt":1672.2999999988824,"stimulus":"be