[{"success":true,"trial_type":"fullscreen","trial_index":0,"time_elapsed":8679,"internal_node_id":"0.0-0.0","subject_id":"6061e47ea7611d41855205b9","study_id":"6197b3f67c2b5cd3b6d9596a","session_id":"6197b9f026a6436e8bc0ff6b","condition":"full-information","relevant_dimensions":["wings","pattern"],"bee_group":{"antennae":"X","wings":"2","pattern":"S","legs":"X"},"bonus":0.880000000000001},{"success":true,"timeout":false,"failed_images":[],"failed_audio":[],"failed_video":[],"trial_type":"preload","trial_index":1,"time_elapsed":10737,"internal_node_id":"0.0-1.0","subject_id":"6061e47ea7611d41855205b9","study_id":"6197b3f67c2b5cd3b6d9596a","session_id":"6197b9f026a6436e8bc0ff6b","condition":"full-information","relevant_dimensions":["wings","pattern"],"bee_group":{"antennae":"X","wings":"2","pattern":"S","legs":"X"},"bonus":0.880000000000001},{"rt":5182.5999999940395,"stimulus":"Welcome! Press any key to begin.","response":" ","trial_type":"html-keyboard-response","trial_index":2,"time_elapsed":15920,"internal_node_id":"0.0-2.0","subject_id":"6061e47ea7611d41855205b9","study_id":"6197b3f67c2b5cd3b6d9596a","session_id":"6197b9f026a6436e8bc0ff6b","condition":"full-information","relevant_dimensions":["wings","pattern"],"bee_group":{"antennae":"X","wings":"2","pattern":"S","legs":"X"},"bonus":0.880000000000001},{"view_history":[{"page_index":0,"viewing_time":7081.5},{"page_index":1,"viewing_time":32684.59999999404},{"page_index":2,"viewing_time":24882.60000000894},{"page_index":3,"viewing_time":12237.89999999106},{"page_index":4,"viewing_time":13545.40000000596},{"page_index":5,"viewing_time":17737},{"page_index":6,"viewing_time":13884.5},{"page_index":7,"viewing_time":5300.5},{"page_index":8,"viewing_time":3792.2999999970198},{"page_index":9,"viewing_time":29315},{"page_index":10,"viewing_time":6327.79999999702},{"page_index":11,"viewing_time":12136.90000000596},{"page_index":12,"viewing_time":34108.20000000298},{"page_index":13,"viewing_time":1260},{"page_index":14,"viewing_time":1970.2000000029802}],"rt":216265,"trial_type":"instructions","trial_index":3,"time_elapsed":232187,"internal_node_id":"0.0-3.0-0.0","subject_id":"6061e47ea7611d41855205b9","study_id":"6197b3f67c2b5cd3b6d9596a","session_id":"6197b9f026a6436e8bc0ff6b","condition":"full-information","relevant_dimensions":["wings","pattern"],"bee_group":{"antennae":"X","wings":"2","pattern":"S","legs":"X"},"bonus":0.880000000000001},{"rt":19008.5,"response":{"Q0":["Two or six legs","Stripes or spots on body","Single or double wings","Antennae or no antennae"]},"question_order":[0],"trial_type":"survey-multi-select","trial_index":4,"time_elapsed":251198,"internal_node_id":"0.0-3.0-1.0","subject_id":"6061e47ea7611d41855205b9","study_id":"6197b3f67c2b5cd3b6d9596a","session_id":"6197b9f026a6436e8bc0ff6b","condition":"full-information","relevant_dimensions":["wings","pattern"],"bee_group":{"antennae":"X","wings":"2","pattern":"S","legs":"X"},"correct":true,"bonus":0.880000000000001},{"rt":39378.89999999106,"response":{"Q1":"No.","Q2":"Based on the four features of the bee.","Q3":"You learn if it was friendly or dangerous, but do not alter your bonus."},"question_order":[0,1,2],"trial_type":"survey-multi-choice","trial_index":5,"time_elapsed":290580,"internal_node_id":"0.0-3.0-2.0","subject_id":"6061e47ea7611d41855205b9","study_id":"6197b3f67c2b5cd3b6d9596a","session_id":"6197b9f026a6436e8bc0ff6b","condition":"full-information","relevant_dimensions":["wings","pattern"],"bee_group":{"antennae":"X","wings":"2","pattern":"S","legs":"X"},"correct":true,"bonus":0.880000000000001},{"rt":5176,"stimulus":"<p>Congrats, you got everything right<br>When you're ready, click the button below to continue to the experiment.</p>","response":0,"trial_type":"html-button-response","trial_index":6,"time_elapsed":295759,"internal_node_id":"0.0-3.0-3.0","subject_id":"6061e47ea7611d41855205b9","study_id":"6197b3f67c2b5cd3b6d9596a","session_id":"6197b9f026a6436e8bc0ff6b","condition":"full-information","relevant_dimensions":["wings","pattern"],"bee_group":{"antennae":"X","wings":"2","pattern":"S","legs":"X"},"bonus":0.880000000000001},{"rt":19720.59999999404,"stimulus":"bees-with-color/bee-A2DM.svg","response":0,"trial_type":"image-button-response","trial_index":7,"time_elapsed":315482,"internal_node_id":"0.0-4.0-0.0","subject_id":"6061e47ea7611d41855205b9","study_id":"6197b3f67c2b5cd3b6d9596a","session_id":"6197b9f026a6436e8bc0ff6b","condition":"full-information","relevant_dimensions":["wings","pattern"],"bee_group":{"antennae":"X","wings":"2","pattern":"S","legs":"X"},"action":"harvest","summary":"good-harvest","bonus":0.880000000000001},{"rt":15354.40000000596,"stimulus":"\n                    <p><b>Action: <em>harvest</em></b></p>\n                    <p>This is the bee that you just saw.</p>\n                    <img src=\"bees-with-color/bee-A2DM.svg\" width=\"200\">\n                    <p><span class=\"greenText\"><b>Successful harvest!</b></span><br>Your pay has increased by $0.02. Your bonus pay is now $0.56.</p>\n            ","response":0,"trial_type":"html-button-response","trial_index":8,"time_elapsed":330838,"internal_node_id":"0.0-4.0-1.0","subject_id":"6061e47ea7611d41855205b9","study_id":"6197b3f67c2b5cd3b6d9596a","session_id":"6197b9f026a6436e8bc0ff6b","condition":"full-information","relevant_dimensions":["wings","pattern"],"bee_group":{"antennae":"X","wings":"2","pattern":"S","legs":"X"},"bonus":0.880000000000001},{"rt":22065.59999999404,"stimulus":"bees-with-color/bee-A2SM.svg","response":1,"trial_type":"image-button-response","trial_index":9,"time_elapsed":352905,"internal_node_id":"0.0-4.0-0.1","subject_id":"6061e47ea7611d41855205b9","study_id":"6197b3f67c2b5cd3b6d9596a","session_id":"6197b9f026a6436e8bc0ff6b","condition":"full-information","relevant_dimensions":["wings","pattern"],"bee_group":{"antennae":"X","wings":"2","pattern":"S","legs":"X"},"action":"avoid","summary":"good-avoid","bonus":0.880000000000001},{"rt":13617.5,"stimulus":"\n                    <p><b>Action: <em>avoid</em></b></p>\n                    <p>This is the bee that you just saw.</p>\n                    <img src=\"bees-with-color/bee-A2SM.svg\" width=\"200\">\n                    <p><span class=\"greenText\">Good choice!</span>  This bee would have stung you.<br>Your bonus pay is unchanged, and remains at $0.56.</p>\n            ","response":0,"trial_type":"html-button-response","trial_index":10,"time_elapsed":366523,"internal_node_id":"0.0-4.0-1.1","subject_id":"6061e47ea7611d41855205b9","study_id":"6197b3f67c2b5cd3b6d9596a","session_id":"6197b9f026a6436e8bc0ff6b","condition":"full-information","relevant_dimensions":["wings","pattern"],"bee_group":{"antennae":"X","wings":"2","pattern":"S","legs":"X"},"bonus":0.880000000000001},{"rt":3842.5999999940395,"stimulus":"bees-with-color/bee-B2DM.svg","response":0,"trial_type":"image-button-response","trial_index":11,"time_elapsed":370368,"internal_node_id":"0.0-4.0-0.2","subject_id":"6061e47ea7611d41855205b9","study_id":"6197b3f67c2b5cd3b6d9596a","session_id":"6197b9f026a6436e8bc0ff6b","condition":"full-information","relevant_dimensions":["wings","pattern"],"bee_group":{"antennae":"X","wings":"2","pattern":"S","legs":"X"},"action":"harvest","summary":"good-harvest","bonus":0.880000000000001},{"rt":42285.39999999106,"stimulus":"\n                    <p><b>Action: <em>harvest</em></b></p>\n                    <p>This is the bee that you just saw.</p>\n                    <img src=\"bees-with-color/bee-B2DM.svg\" width=\"200\">\n                    <p><span class=\"greenText\"><b>Successful harvest!</b></span><br>Your pay has increased by $0.02. Your bonus pay is now $0.58.</p>\n            ","response":0,"trial_type":"html-button-response","trial_index":12,"time_elapsed":412654,"internal_node_id":"0.0-4.0-1.2","subject_id":"6061e47ea7611d41855205b9","study_id":"6197b3f67c2b5cd3b6d9596a","session_id":"6197b9f026a6436e8bc0ff6b","condition":"full-information","relevant_dimensions":["wings","pattern"],"bee_group":{"antennae":"X","wings":"2","pattern":"S","legs":"X"},"bonus":0.880000000000001},{"rt":5522.9000000059605,"stimulus":"bees-with-color/bee-A2DF.svg","response":1,"trial_type":"image-button-response","trial_index":13,"time_elapsed":418178,"internal_node_id":"0.0-4.0-0.3","subject_id":"6061e47ea7611d41855205b9","study_id":"6197b3f67c2b5cd3b6d9596a","session_id":"6197b9f026a6436e8bc0ff6b","condition":"full-information","relevant_dimensions":["wings","pattern"],"bee_group":{"antennae":"X","wings":"2","pattern":"S","legs":"X"},"action":"avoid","summary":"bad-avoid","bonus":0.880000000000001},{"rt":13702.60000000894,"stimulus":"\n                    <p><b>Action: <em>avoid</em></b></p>\n                    <p>This is the bee that you just saw.</p>\n                    <img src=\"bees-with-color/bee-A2DF.svg\" width=\"200\">\n                    <p><span class=\"redText\">Bad choice,</span> the bee was friendly.<br>Your bonus pay is unchanged, and remains at $0.58.</p>\n            ","response":0,"trial_type":"html-button-response","trial_index":14,"time_elapsed":431882,"internal_node_id":"0.0-4.0-1.3","subject_id":"6061e47ea7611d41855205b9","study_id":"6197b3f67c2b5cd3b6d9596a","session_id":"6197b9f026a6436e8bc0ff6b","condition":"full-information","relevant_dimensions":["wings","pattern"],"bee_group":{"antennae":"X","wings":"2","pattern":"S","legs":"X"},"bonus":0.880000000000001},{"rt":2090,"stimulus":"bees-with-color/bee-B1DF.svg","response":1,"trial_type":"image-button-response","trial_index":15,"time_elapsed":433973,"internal_node_id":"0.0-4.0-0.4","subject_id":"6061e47ea7611d41855205b9","study_id":"6197b3f67c2b5cd3b6d9596a","session_id":"6197b9f026a6436e8bc0ff6b","condition":"full-information","relevant_dimensions":["wings","pattern"],"bee_group":{"antennae":"X","wings":"2","pattern":"S","legs":"X"},"action":"avoid","summary":"bad-avoid","bonus":0.880000000000001},{"rt":4964.79999999702,"stimulus":"\n                    <p><b>Action: <em>avoid</em></b></p>\n                    <p>This is the bee that you just saw.</p>\n                    <img src=\"bees-with-color/bee-B1DF.svg\" width=\"200\">\n                    <p><span class=\"redText\">Bad choice,</span> the bee was friendly.<br>Your bonus pay is unchanged, and remains at $0.58.</p>\n            ","response":0,"trial_type":"html-button-response","trial_index":16,"time_elapsed":438939,"internal_node_id":"0.0-4.0-1.4","subject_id":"6061e47ea7611d41855205b9","study_id":"6197b3f67c2b5cd3b6d9596a","session_id":"6197b9f026a6436e8bc0ff6b","condition":"full-information","relevant_dimensions":["wings","pattern"],"bee_group":{"antennae":"X","wings":"2","pattern":"S","legs":"X"},"bonus":0.880000000000001},{"rt":5194,"stimulus":"bees-with-color/bee-A1DM.svg","response":0,"trial_type":"image-button-response","trial_index":17,"time_elapsed":444134,"internal_node_id":"0.0-4.0-0.5","subject_id":"6061e47ea7611d41855205b9","study_id":"6197b3f67c2b5cd3b6d9596a","session_id":"6197b9f026a6436e8bc0ff6b","condition":"full-information","relevant_dimensions":["wings","pattern"],"bee_group":{"antennae":"X","wings":"2","pattern":"S","legs":"X"},"action":"harvest","summary":"good-harvest","bonus":0.880000000000001},{"rt":1101.7999999970198,"stimulus":"\n                    <p><b>Action: <em>harvest</em></b></p>\n                    <p>This is the bee that you just saw.</p>\n                    <img src=\"bees-with-color/bee-A1DM.svg\" width=\"200\">\n                    <p><span class=\"greenText\"><b>Successful harvest!</b></span><br>Your pay has increased by $0.02. Your bonus pay is now $0.60.</p>\n            ","response":0,"trial_type":"html-button-response","trial_index":18,"time_elapsed":445237,"internal_node_id":"0.0-4.0-1.5","subject_id":"6061e47ea7611d41855205b9","study_id":"6197b3f67c2b5cd3b6d9596a","session_id":"6197b9f026a6436e8bc0ff6b","condition":"full-information","relevant_dimensions":["wings","pattern"],"bee_group":{"antennae":"X","wings":"2","pattern":"S","legs":"X"},"bonus":0.880000000000001},{"rt":1556.5,"stimulus":"bees-with-color/bee-B2SM.svg","response":1,"trial_type":"image-button-response","trial_index":19,"time_elapsed":446795,"internal_node_id":"0.0-4.0-0.6","subject_id":"6061e47ea7611d41855205b9","study_id":"6197b3f67c2b5cd3b6d9596a","session_id":"6197b9f026a6436e8bc0ff6b","condition":"full-information","relevant_dimensions":["wings","pattern"],"bee_group":{"antennae":"X","wings":"2","pattern":"S","legs":"X"},"action":"avoid","summary":"good-avoid","bonus":0.880000000000001},{"rt":835.8999999910593,"stimulus":"\n                    <p><b>Action: <em>avoid</em></b></p>\n                    <p>This is the bee that you just saw.</p>\n                    <img src=\"bees-with-color/bee-B2SM.svg\" width=\"200\">\n                    <p><span class=\"greenText\">Good choice!</span>  This bee would have stung you.<br>Your bonus pay is unchanged, and remains at $0.60.</p>\n            ","response":0,"trial_type":"html-button-response","trial_index":20,"time_elapsed":447632,"internal_node_id":"0.0-4.0-1.6","subject_id":"6061e47ea7611d41855205b9","study_id":"6197b3f67c2b5cd3b6d9596a","session_id":"6197b9f026a6436e8bc0ff6b","condition":"full-information","relevant_dimensions":["wings","pattern"],"bee_group":{"antennae":"X","wings":"2","pattern":"S","legs":"X"},"bonus":0.880000000000001},{"rt":5814.0999999940395,"stimulus":"bees-with-color/bee-B1DM.svg","response":0,"trial_type":"image-button-response","trial_index":21,"time_elapsed":453447,"internal_node_id":"0.0-4.0-0.7","subject_id":"6061e47ea7611d41855205b9","study_id":"6197b3f67c2b5cd3b6d9596a","session_id":"6197b9f026a6436e8bc0ff6b","condition":"full-information","relevant_dimensions":["wings","pattern"],"bee_group":{"antennae":"X","wings":"2","pattern":"S","legs":"X"},"action":"harvest","summary":"good-harvest","bonus":0.880000000000001},{"rt":843.4000000059605,"stimulus":"\n                    <p><b>Action: <em>harvest</em></b></p>\n                    <p>This is the bee that you just saw.</p>\n                    <img src=\"bees-with-color/bee-B1DM.svg\" width=\"200\">\n                    <p><span class=\"greenText\"><b>Successful harvest!</b></span><br>Your pay has increased by $0.02. Your bonus pay is now $0.62.</p>\n            ","response":0,"trial_type":"html-button-response","trial_index":22,"time_elapsed":454291,"internal_node_id":"0.0-4.0-1.7","subject_id":"6061e47ea7611d41855205b9","study_id":"6197b3f67c2b5cd3b6d9596a","session_id":"6197b9f026a6436e8bc0ff6b","condition":"full-information","relevant_dimensions":["wings","pattern"],"bee_group":{"antennae":"X","wings":"2","pattern":"S","legs":"X"},"bonus":0.880000000000001},{"rt":2809.8999999910593,"stimulus":"bees-with-color/bee-B2SF.svg","response":1,"trial_type":"image-button-response","trial_index":23,"time_elapsed":457103,"internal_node_id":"0.0-4.0-0.8","subject_id":"6061e47ea7611d41855205b9","study_id":"6197b3f67c2b5cd3b6d9596a","session_id":"6197b9f026a6436e8bc0ff6b","condition":"full-information","relevant_dimensions":["wings","pattern"],"bee_group":{"antennae":"X","wings":"2","pattern":"S","legs":"X"},"action":"avoid","summary":"good-avoid","bonus":0.880000000000001},{"rt":1007.8999999910593,"stimulus":"\n                    <p><b>Action: <em>avoid</em></b></p>\n                    <p>This is the bee that you just saw.</p>\n                    <img src=\"bees-with-color/bee-B2SF.svg\" width=\"200\">\n                    <p><span class=\"greenText\">Good choice!</span>  This bee would have stung you.<br>Your bonus pay is unchanged, and remains at $0.62.</p>\n            ","response":0,"trial_type":"html-button-response","trial_index":24,"time_elapsed":458112,"internal_node_id":"0.0-4.0-1.8","subject_id":"6061e47ea7611d41855205b9","study_id":"6197b3f67c2b5cd3b6d9596a","session_id":"6197b9f026a6436e8bc0ff6b","condition":"full-information","relevant_dimensions":["wings","pattern"],"bee_group":{"antennae":"X","wings":"2","pattern":"S","legs":"X"},"bonus":0.880000000000001},{"rt":1324.8999999910593,"stimulus":"bees-with-color/bee-A1SF.svg","response":1,"trial_type":"image-button-response","trial_index":25,"time_elapsed":459438,"internal_node_id":"0.0-4.0-0.9","subject_id":"6061e47ea7611d41855205b9","study_id":"6197b3f67c2b5cd3b6d9596a","session_id":"6197b9f026a6436e8bc0ff6b","condition":"full-information","relevant_dimensions":["wings","pattern"],"bee_group":{"antennae":"X","wings":"2","pattern":"S","legs":"X"},"action":"avoid","summary":"bad-avoid","bonus":0.880000000000001},{"rt":5020.5999999940395,"stimulus":"\n                    <p><b>Action: <em>avoid</em></b></p>\n                    <p>This is the bee that you just saw.</p>\n                    <img src=\"bees-with-color/bee-A1SF.svg\" width=\"200\">\n                    <p><span class=\"redText\">Bad choice,</span> the bee was friendly.<br>Your bonus pay is unchanged, and remains at $0.62.</p>\n            ","response":0,"trial_type":"html-button-response","trial_index":26,"time_elapsed":464459,"internal_node_id":"0.0-4.0-1.9","subject_id":"6061e47ea7611d41855205b9","study_id":"6197b3f67c2b5cd3b6d9596a","session_id":"6197b9f026a6436e8bc0ff6b","condition":"full-information","relevant_dimensions":["wings","pattern"],"bee_group":{"antennae":"X","wings":"2","pattern":"S","legs":"X"},"bonus":0.880000000000001},{"rt":2266.5999999940395,"stimulus":"bees-with-color/bee-B1SF.svg","response":0,"trial_type":"image-button-response","trial_index":27,"time_elapsed":466727,"internal_node_id":"0.0-4.0-0.10","subject_id":"6061e47ea7611d41855205b9","study_id":"6197b3f67c2b5cd3b6d9596a","session_id":"6197b9f026a6436e8bc0ff6b","condition":"full-information","relevant_dimensions":["wings","pattern"],"bee_group":{"antennae":"X","wings":"2","pattern":"S","legs":"X"},"action":"harvest","summary":"good-harvest","bonus":0.880000000000001},{"rt":811.7000000029802,"stimulus":"\n                    <p><b>Action: <em>harvest</em></b></p>\n                    <p>This is the bee that you just saw.</p>\n                    <img src=\"bees-with-color/bee-B1SF.svg\" width=\"200\">\n                    <p><span class=\"greenText\"><b>Successful harvest!</b></span><br>Your pay has increased by $0.02. Your bonus pay is now $0.64.</p>\n            ","response":0,"trial_type":"html-button-response","trial_index":28,"time_elapsed":467539,"internal_node_id":"0.0-4.0-1.10","subject_id":"6061e47ea7611d41855205b9","study_id":"6197b3f67c2b5cd3b6d9596a","session_id":"6197b9f026a6436e8bc0ff6b","condition":"full-information","relevant_dimensions":["wings","pattern"],"bee_group":{"antennae":"X","wings":"2","pattern":"S","legs":"X"},"bonus":0.880000000000001},{"rt":3548,"stimulus":"bees-with-color/bee-A1DF.svg","response":1,"trial_type":"image-button-response","trial_index":29,"time_elapsed":471088,"internal_node_id":"0.0-4.0-0.11","subject_id":"6061e47ea7611d41855205b9","study_id":"6197b3f67c2b5cd3b6d9596a","session_id":"6197b9f026a6436e8bc0ff6b","condition":"full-information","relevant_dimensions":["wings","pattern"],"bee_group":{"antennae":"X","wings":"2","pattern":"S","legs":"X"},"action":"avoid","summary":"bad-avoid","bonus":0.880000000000001},{"rt":1299.300000011921,"stimulus":"\n                    <p><b>Action: <em>avoid</em></b></p>\n                    <p>This is the bee that you just saw.</p>\n                    <img src=\"bees-with-color/bee-A1DF.svg\" width=\"200\">\n                    <p><span class=\"redText\">Bad choice,</span> the bee was friendly.<br>Your bonus pay is unchanged, and remains at $0.64.</p>\n            ","response":0,"trial_type":"html-button-response","trial_index":30,"time_elapsed":472388,"internal_node_id":"0.0-4.0-1.11","subject_id":"6061e47ea7611d41855205b9","study_id":"6197b3f67c2b5cd3b6d9596a","session_id":"6197b9f026a6436e8bc0ff6b","condition":"full-information","relevant_dimensions":["wings","pattern"],"bee_group":{"antennae":"X","wings":"2","pattern":"S","legs":"X"},"bonus":0.880000000000001},{"rt":4165.79999999702,"stimulus":"bees-with-color/bee-B2DF.svg","response":0,"trial_type":"image-button-response","trial_index":31,"time_elapsed":476555,"internal_node_id":"0.0-4.0-0.12","subject_id":"6061e47ea7611d41855205b9","study_id":"6197b3f67c2b5cd3b6d9596a","session_id":"6197b9f026a6436e8bc0ff6b","condition":"full-information","relevant_dimensions":["wings","pattern"],"bee_group":{"antennae":"X","wings":"2","pattern":"S","legs":"X"},"action":"harvest","summary":"good-harvest","bonus":0.880000000000001},{"rt":642.9000000059605,"stimulus":"\n                    <p><b>Action: <em>harvest</em></b></p>\n                    <p>This is the bee that you just saw.</p>\n                    <img src=\"bees-with-color/bee-B2DF.svg\" width=\"200\">\n                    <p><span class=\"greenText\"><b>Successful harvest!</b></span><br>Your pay has increased by $0.02. Your bonus pay is now $0.66.</p>\n            ","response":0,"trial_type":"html-button-response","trial_index":32,"time_elapsed":477199,"internal_node_id":"0.0-4.0-1.12","subject_id":"6061e47ea7611d41855205b9","study_id":"6197b3f67c2b5cd3b6d9596a","session_id":"6197b9f026a6436e8bc0ff6b","condition":"full-information","relevant_dimensions":["wings","pattern"],"bee_group":{"antennae":"X","wings":"2","pattern":"S","legs":"X"},"bonus":0.880000000000001},{"rt":2512,"stimulus":"bees-with-color/bee-B1SM.svg","response":1,"trial_type":"image-button-response","trial_index":33,"time_elapsed":479712,"internal_node_id":"0.0-4.0-0.13","subject_id":"6061e47ea7611d41855205b9","study_id":"6197b3f67c2b5cd3b6d9596a","session_id":"6197b9f026a6436e8bc0ff6b","condition":"full-information","relevant_dimensions":["wings","pattern"],"bee_group":{"antennae":"X","wings":"2","pattern":"S","legs":"X"},"action":"avoid","summary":"bad-avoid","bonus":0.880000000000001},{"rt":1265.3999999910593,"stimulus":"\n                    <p><b>Action: <em>avoid</em></b></p>\n                    <p>This is the bee that you just saw.</p>\n                    <img src=\"bees-with-color/bee-B1SM.svg\" width=\"200\">\n                    <p><span class=\"redText\">Bad choice,</span> the bee was friendly.<br>Your bonus pay is unchanged, and remains at $0.66.</p>\n            ","response":0,"trial_type":"html-button-response","trial_index":34,"time_elapsed":480978,"internal_node_id":"0.0-4.0-1.13","subject_id":"6061e47ea7611d41855205b9","study_id":"6197b3f67c2b5cd3b6d9596a","session_id":"6197b9f026a6436e8bc0ff6b","condition":"full-information","relevant_dimensions":["wings","pattern"],"bee_group":{"antennae":"X","wings":"2","pattern":"S","legs":"X"},"bonus":0.880000000000001},{"rt":794.8000000119209,"stimulus":"bees-with-color/bee-A2SF.svg","response":0,"trial_type":"image-button-response","trial_index":35,"time_elapsed":481774,"internal_node_id":"0.0-4.0-0.14","subject_id":"6061e47ea7611d41855205b9","study_id":"6197b3f67c2b5cd3b6d9596a","session_id":"6197b9f026a6436e8bc0ff6b","condition":"full-information","relevant_dimensions":["wings","pattern"],"bee_group":{"antennae":"X","wings":"2","pattern":"S","legs":"X"},"action":"harvest","summary":"bad-harvest","bonus":0.880000000000001},{"rt":6722.4000000059605,"stimulus":"\n                    <p><b>Action: <em>harvest</em></b></p>\n                    <p>This is the bee that you just saw.</p>\n                    <img src=\"bees-with-color/bee-A2SF.svg\" width=\"200\">\n                    <p><span class=\"redText\">Bad choice, the bee was angry.</span><br><b>You have been stung!</b><br>Your pay has been decreased by $0.10. Your bonus pay is now $0.56.</p>\n            ","response":0,"trial_type":"html-button-response","trial_index":36,"time_elapsed":488497,"internal_node_id":"0.0-4.0-1.14","subject_id":"6061e47ea7611d41855205b9","study_id":"6197b3f67c2b5cd3b6d9596a","session_id":"6197b9f026a6436e8bc0ff6b","condition":"full-information","relevant_dimensions":["wings","pattern"],"bee_group":{"antennae":"X","wings":"2","pattern":"S","legs":"X"},"bonus":0.880000000000001},{"rt":8497.59999999404,"stimulus":"bees-with-color/bee-A1SM.svg","response":0,"trial_type":"image-button-response","trial_index":37,"time_elapsed":496996,"internal_node_id":"0.0-4.0-0.15","subject_id":"6061e47ea7611d41855205b9","study_id":"6197b3f67c2b5cd3b6d9596a","session_id":"6197b9f026a6436e8bc0ff6b","condition":"full-information","relevant_dimensions":["wings","pattern"],"bee_group":{"antennae":"X","wings":"2","pattern":"S","legs":"X"},"action":"harvest","summary":"good-harvest","bonus":0.880000000000001},{"rt":1947.8999999910593,"stimulus":"\n                    <p><b>Action: <em>harvest</em></b></p>\n                    <p>This is the bee that you just saw.</p>\n                    <img src=\"bees-with-color/bee-A1SM.svg\" width=\"200\">\n                    <p><span class=\"greenText\"><b>Successful harvest!</b></span><br>Your pay has increased by $0.02. Your bonus pay is now $0.58.</p>\n            ","response":0,"trial_type":"html-button-response","trial_index":38,"time_elapsed":498945,"internal_node_id":"0.0-4.0-1.15","subject_id":"6061e47ea7611d41855205b9","study_id":"6197b3f67c2b5cd3b6d9596a","session_id":"6197b9f026a6436e8bc0ff6b","condition":"full-information","relevant_dimensions":["wings","pattern"],"bee_group":{"antennae":"X","wings":"2","pattern":"S","legs":"X"},"bonus":0.880000000000001},{"rt":2059.5999999940395,"stimulus":"bees-with-color/bee-B2DF.svg","response":1,"trial_type":"image-button-response","trial_index":39,"time_elapsed":501006,"internal_node_id":"0.0-4.0-0.16","subject_id":"6061e47ea7611d41855205b9","study_id":"6197b3f67c2b5cd3b6d9596a","session_id":"6197b9f026a6436e8bc0ff6b","condition":"full-information","relevant_dimensions":["wings","pattern"],"bee_group":{"antennae":"X","wings":"2","pattern":"S","legs":"X"},"action":"avoid","summary":"bad-avoid","bonus":0.880000000000001},{"rt":1056,"stimulus":"\n                    <p><b>Action: <em>avoid</em></b></p>\n                    <p>This is the bee that you just saw.</p>\n                    <img src=\"bees-with-color/bee-B2DF.svg\" width=\"200\">\n                    <p><span class=\"redText\">Bad choice,</span> the bee was friendly.<br>Your bonus pay is unchanged, and remains at $0.58.</p>\n            ","response":0,"trial_type":"html-button-response","trial_index":40,"time_elapsed":502063,"internal_node_id":"0.0-4.0-1.16","subject_id":"6061e47ea7611d41855205b9","study_id":"6197b3f67c2b5cd3b6d9596a","session_id":"6197b9f026a6436e8bc0ff6b","condition":"full-information","relevant_dimensions":["wings","pattern"],"bee_group":{"antennae":"X","wings":"2","pattern":"S","legs":"X"},"bonus":0.880000000000001},{"rt":800.9000000059605,"stimulus":"bees-with-color/bee-A2SF.svg","response":0,"trial_type":"image-button-response","trial_index":41,"time_elapsed":502865,"internal_node_id":"0.0-4.0-0.17","subject_id":"6061e47ea7611d41855205b9","study_id":"6197b3f67c2b5cd3b6d9596a","session_id":"6197b9f026a6436e8bc0ff6b","condition":"full-information","relevant_dimensions":["wings","pattern"],"bee_group":{"antennae":"X","wings":"2","pattern":"S","legs":"X"},"action":"harvest","summary":"bad-harvest","bonus":0.880000000000001},{"rt":1454.7999999970198,"stimulus":"\n                    <p><b>Action: <em>harvest</em></b></p>\n                    <p>This is the bee that you just saw.</p>\n                    <img src=\"bees-with-color/bee-A2SF.svg\" width=\"200\">\n                    <p><span class=\"redText\">Bad choice, the bee was angry.</span><br><b>You have been stung!</b><br>Your pay has been decreased by $0.10. Your bonus pay is now $0.48.</p>\n            ","response":0,"trial_type":"html-button-response","trial_index":42,"time_elapsed":504320,"internal_node_id":"0.0-4.0-1.17","subject_id":"6061e47ea7611d41855205b9","study_id":"6197b3f67c2b5cd3b6d9596a","session_id":"6197b9f026a6436e8bc0ff6b","condition":"full-information","relevant_dimensions":["wings","pattern"],"bee_group":{"antennae":"X","wings":"2","pattern":"S","legs":"X"},"bonus":0.880000000000001},{"rt":2031.300000011921,"stimulus":"bees-with-color/bee-B1SM.svg","response":1,"trial_type":"image-button-response","trial_index":43,"time_elapsed":506352,"internal_node_id":"0.0-4.0-0.18","subject_id":"6061e47ea7611d41855205b9","study_id":"6197b3f67c2b5cd3b6d9596a","session_id":"6197b9f026a6436e8bc0ff6b","condition":"full-information","relevant_dimensions":["wings","pattern"],"bee_group":{"antennae":"X","wings":"2","pattern":"S","legs":"X"},"action":"avoid","summary":"bad-avoid","bonus":0.880000000000001},{"rt":2290.3999999910593,"stimulus":"\n                    <p><b>Action: <em>avoid</em></b></p>\n                    <p>This is the bee that you just saw.</p>\n                    <img src=\"bees-with-color/bee-B1SM.svg\" width=\"200\">\n                    <p><span class=\"redText\">Bad choice,</span> the bee was friendly.<br>Your bonus pay is unchanged, and remains at $0.48.</p>\n            ","response":0,"trial_type":"html-button-response","trial_index":44,"time_elapsed":508644,"internal_node_id":"0.0-4.0-1.18","subject_id":"6061e47ea7611d41855205b9","study_id":"6197b3f67c2b5cd3b6d9596a","session_id":"6197b9f026a6436e8bc0ff6b","condition":"full-information","relevant_dimensions":["wings","pattern"],"bee_group":{"antennae":"X","wings":"2","pattern":"S","legs":"X"},"bonus":0.880000000000001},{"rt":2118.699999988079,"stimulus":"bees-with-color/bee-A1DM.svg","response":0,"trial_type":"image-button-response","trial_index":45,"time_elapsed":510764,"internal_node_id":"0.0-4.0-0.19","subject_id":"6061e47ea7611d41855205b9","study_id":"6197b3f67c2b5cd3b6d9596a","session_id":"6197b9f026a6436e8bc0ff6b","condition":"full-information","relevant_dimensions":["wings","pattern"],"bee_group":{"antennae":"X","wings":"2","pattern":"S","legs":"X"},"action":"harvest","summary":"good-harvest","bonus":0.880000000000001},{"rt":665.6000000089407,"stimulus":"\n                    <p><b>Action: <em>harvest</em></b></p>\n                    <p>This is the bee that you just saw.</p>\n                    <img src=\"bees-with-color/bee-A1DM.svg\" width=\"200\">\n                    <p><span class=\"greenText\"><b>Successful harvest!</b></span><br>Your pay has increased by $0.02. Your bonus pay is now $0.50.</p>\n            ","response":0,"trial_type":"html-button-response","trial_index":46,"time_elapsed":511431,"internal_node_id":"0.0-4.0-1.19","subject_id":"6061e47ea7611d41855205b9","study_id":"6197b3f67c2b5cd3b6d9596a","session_id":"6197b9f026a6436e8bc0ff6b","condition":"full-information","relevant_dimensions":["wings","pattern"],"bee_group":{"antennae":"X","wings":"2","pattern":"S","legs":"X"},"bonus":0.880000000000001},{"rt":1295.7999999970198,"stimulus":"bees-with-color/bee-A2SM.svg","response":1,"trial_type":"image-button-response","trial_index":47,"time_elapsed":512728,"internal_node_id":"0.0-4.0-0.20","subject_id":"6061e47ea7611d41855205b9","study_id":"6197b3f67c2b5cd3b6d9596a","session_id":"6197b9f026a6436e8bc0ff6b","condition":"full-information","relevant_dimensions":["wings","pattern"],"bee_group":{"antennae":"X","wings":"2","pattern":"S","legs":"X"},"action":"avoid","summary":"good-avoid","bonus":0.880000000000001},{"rt":530.5,"stimulus":"\n                    <p><b>Action: <em>avoid</em></b></p>\n                    <p>This is the bee that you just saw.</p>\n                    <img src=\"bees-with-color/bee-A2SM.svg\" width=\"200\">\n                    <p><span class=\"greenText\">Good choice!</span>  This bee would have stung you.<br>Your bonus pay is unchanged, and remains at $0.50.</p>\n            ","response":0,"trial_type":"html-button-response","trial_index":48,"time_elapsed":513259,"internal_node_id":"0.0-4.0-1.20","subject_id":"6061e47ea7611d41855205b9","study_id":"6197b3f67c2b5cd3b6d9596a","session_id":"6197b9f026a6436e8bc0ff6b","condition":"full-information","relevant_dimensions":["wings","pattern"],"bee_group":{"antennae":"X","wings":"2","pattern":"S","legs":"X"},"bonus":0.880000000000001},{"rt":2196.5,"stimulus":"bees-with-color/bee-A1SF.svg","response":0,"trial_type":"image-button-response","trial_index":49,"time_elapsed":515457,"internal_node_id":"0.0-4.0-0.21","subject_id":"6061e47ea7611d41855205b9","study_id":"6197b3f67c2b5cd3b6d9596a","session_id":"6197b9f026a6436e8bc0ff6b","condition":"full-information","relevant_dimensions":["wings","pattern"],"bee_group":{"antennae":"X","wings":"2","pattern":"S","legs":"X"},"action":"harvest","summary":"good-harvest","bonus":0.880000000000001},{"rt":567.5999999940395,"stimulus":"\n                    <p><b>Action: <em>harvest</em></b></p>\n                    <p>This is the bee that you just saw.</p>\n                    <img src=\"bees-with-color/bee-A1SF.svg\" width=\"200\">\n                    <p><span class=\"greenText\"><b>Successful harvest!</b></span><br>Your pay has increased by $0.02. Your bonus pay is now $0.52.</p>\n            ","response":0,"trial_type":"html-button-response","trial_index":50,"time_elapsed":516025,"internal_node_id":"0.0-4.0-1.21","subject_id":"6061e47ea7611d41855205b9","study_id":"6197b3f67c2b5cd3b6d9596a","session_id":"6197b9f026a6436e8bc0ff6b","condition":"full-information","relevant_dimensions":["wings","pattern"],"bee_group":{"antennae":"X","wings":"2","pattern":"S","legs":"X"},"bonus":0.880000000000001},{"rt":1357.5999999940395,"stimulus":"bees-with-color/bee-A2DM.svg","response":0,"trial_type":"image-button-response","trial_index":51,"time_elapsed":517384,"internal_node_id":"0.0-4.0-0.22","subject_id":"6061e47ea7611d41855205b9","study_id":"6197b3f67c2b5cd3b6d9596a","session_id":"6197b9f026a6436e8bc0ff6b","condition":"full-information","relevant_dimensions":["wings","pattern"],"bee_group":{"antennae":"X","wings":"2","pattern":"S","legs":"X"},"action":"harvest","summary":"good-harvest","bonus":0.880000000000001},{"rt":882.6000000089407,"stimulus":"\n                    <p><b>Action: <em>harvest</em></b></p>\n                    <p>This is the bee that you just saw.</p>\n                    <img src=\"bees-with-color/bee-A2DM.svg\" width=\"200\">\n                    <p><span class=\"greenText\"><b>Successful harvest!</b></span><br>Your pay has increased by $0.02. Your bonus pay is now $0.54.</p>\n            ","response":0,"trial_type":"html-button-response","trial_index":52,"time_elapsed":518267,"internal_node_id":"0.0-4.0-1.22","subject_id":"6061e47ea7611d41855205b9","study_id":"6197b3f67c2b5cd3b6d9596a","session_id":"6197b9f026a6436e8bc0ff6b","condition":"full-information","relevant_dimensions":["wings","pattern"],"bee_group":{"antennae":"X","wings":"2","pattern":"S","legs":"X"},"bonus":0.880000000000001},{"rt":1830.7999999970198,"stimulus":"bees-with-color/bee-A1SM.svg","response":0,"trial_type":"image-button-response","trial_index":53,"time_elapsed":520099,"internal_node_id":"0.0-4.0-0.23","subject_id":"6061e47ea7611d41855205b9","study_id":"6197b3f67c2b5cd3b6d9596a","session_id":"6197b9f026a6436e8bc0ff6b","condition":"full-information","relevant_dimensions":["wings","pattern"],"bee_group":{"antennae":"X","wings":"2","pattern":"S","legs":"X"},"action":"harvest","summary":"good-harvest","bonus":0.880000000000001},{"rt":632.9000000059605,"stimulus":"\n                    <p><b>Action: <em>harvest</em></b></p>\n                    <p>This is the bee that you just saw.</p>\n                    <img src=\"bees-with-color/bee-A1SM.svg\" width=\"200\">\n                    <p><span class=\"greenText\"><b>Successful harvest!</b></span><br>Your pay has increased by $0.02. Your bonus pay is now $0.56.</p>\n            ","response":0,"trial_type":"html-button-response","trial_index":54,"time_elapsed":520733,"internal_node_id":"0.0-4.0-1.23","subject_id":"6061e47ea7611d41855205b9","study_id":"6197b3f67c2b5cd3b6d9596a","session_id":"6197b9f026a6436e8bc0ff6b","condition":"full-information","relevant_dimensions":["wings","pattern"],"bee_group":{"antennae":"X","wings":"2","pattern":"S","legs":"X"},"bonus":0.880000000000001},{"rt":3559.7000000029802,"stimulus":"bees-with-color/bee-B1SF.svg","response":0,"trial_type":"image-button-response","trial_index":55,"time_elapsed":524293,"internal_node_id":"0.0-4.0-0.24","subject_id":"6061e47ea7611d41855205b9","study_id":"6197b3f67c2b5cd3b6d9596a","session_id":"6197b9f026a6436e8bc0ff6b","condition":"full-information","relevant_dimensions":["wings","pattern"],"bee_group":{"antennae":"X","wings":"2","pattern":"S","legs":"X"},"action":"harvest","summary":"good-harvest","bonus":0.880000000000001},{"rt":508.59999999403954,"stimulus":"\n                    <p><b>Action: <em>harvest</em></b></p>\n                    <p>This is the bee that you just saw.</p>\n                    <img src=\"bees-with-color/bee-B1SF.svg\" width=\"200\">\n                    <p><span class=\"greenText\"><b>Successful harvest!</b></span><br>Your pay has increased by $0.02. Your bonus pay is now $0.58.</p>\n            ","response":0,"trial_type":"html-button-response","trial_index":56,"time_elapsed":524803,"internal_node_id":"0.0-4.0-1.24","subject_id":"6061e47ea7611d41855205b9","study_id":"6197b3f67c2b5cd3b6d9596a","session_id":"6197b9f026a6436e8bc0ff6b","condition":"full-information","relevant_dimensions":["wings","pattern"],"bee_group":{"antennae":"X","wings":"2","pattern":"S","legs":"X"},"bonus":0.880000000000001},{"rt":2623.1000000089407,"stimulus":"bees-with-color/bee-B2SF.svg","response":1,"trial_type":"image-button-response","trial_index":57,"time_elapsed":527427,"internal_node_id":"0.0-4.0-0.25","subject_id":"6061e47ea7611d41855205b9","study_id":"6197b3f67c2b5cd3b6d9596a","session_id":"6197b9f026a6436e8bc0ff6b","condition":"full-information","relevant_dimensions":["wings","pattern"],"bee_group":{"antennae":"X","wings":"2","pattern":"S","legs":"X"},"action":"avoid","summary":"good-avoid","bonus":0.880000000000001},{"rt":669.5,"stimulus":"\n                    <p><b>Action: <em>avoid</em></b></p>\n                    <p>This is the bee that you just saw.</p>\n                    <img src=\"bees-with-color/bee-B2SF.svg\" width=\"200\">\n                    <p><span class=\"greenText\">Good choice!</span>  This bee would have stung you.<br>Your bonus pay is unchanged, and remains at $0.58.</p>\n            ","response":0,"trial_type":"html-button-response","trial_index":58,"time_elapsed":528098,"internal_node_id":"0.0-4.0-1.25","subject_id":"6061e47ea7611d41855205b9","study_id":"6197b3f67c2b5cd3b6d9596a","session_id":"6197b9f026a6436e8bc0ff6b","condition":"full-information","relevant_dimensions":["wings","pattern"],"bee_group":{"antennae":"X","wings":"2","pattern":"S","legs":"X"},"bonus":0.880000000000001},{"rt":3684.8999999910593,"stimulus":"bees-with-color/bee-B2DM.svg","response":0,"trial_type":"image-button-response","trial_index":59,"time_elapsed":531784,"internal_node_id":"0.0-4.0-0.26","subject_id":"6061e47ea7611d41855205b9","study_id":"6197b3f67c2b5cd3b6d9596a","session_id":"6197b9f026a6436e8bc0ff6b","condition":"full-information","relevant_dimensions":["wings","pattern"],"bee_group":{"antennae":"X","wings":"2","pattern":"S","legs":"X"},"action":"harvest","summary":"good-harvest","bonus":0.880000000000001},{"rt":722,"stimulus":"\n                    <p><b>Action: <em>harvest</em></b></p>\n                    <p>This is the bee that you just saw.</p>\n                    <img src=\"bees-with-color/bee-B2DM.svg\" width=\"200\">\n                    <p><span class=\"greenText\"><b>Successful harvest!</b></span><br>Your pay has increased by $0.02. Your bonus pay is now $0.60.</p>\n            ","response":0,"trial_type":"html-button-response","trial_index":60,"time_elapsed":532507,"internal_node_id":"0.0-4.0-1.26","subject_id":"6061e47ea7611d41855205b9","study_id":"6197b3f67c2b5cd3b6d9596a","session_id":"6197b9f026a6436e8bc0ff6b","condition":"full-information","relevant_dimensions":["wings","pattern"],"bee_group":{"antennae":"X","wings":"2","pattern":"S","legs":"X"},"bonus":0.880000000000001},{"rt":2451.699999988079,"stimulus":"bees-with-color/bee-B2SM.svg","response":1,"trial_type":"image-button-response","trial_index":61,"time_elapsed":534960,"internal_node_id":"0.0-4.0-0.27","subject_id":"6061e47ea7611d41855205b9","study_id":"6197b3f67c2b5cd3b6d9596a","session_id":"6197b9f026a6436e8bc0ff6b","condition":"full-information","relevant_dimensions":["wings","pattern"],"bee_group":{"antennae":"X","wings":"2","pattern":"S","legs":"X"},"action":"avoid","summary":"good-avoid","bonus":0.880000000000001},{"rt":1074.7999999970198,"stimulus":"\n                    <p><b>Action: <em>avoid</em></b></p>\n                    <p>This is the bee that you just saw.</p>\n                    <img src=\"bees-with-color/bee-B2SM.svg\" width=\"200\">\n                    <p><span class=\"greenText\">Good choice!</span>  This bee would have stung you.<br>Your bonus pay is unchanged, and remains at $0.60.</p>\n            ","response":0,"trial_type":"html-button-response","trial_index":62,"time_elapsed":536036,"internal_node_id":"0.0-4.0-1.27","subject_id":"6061e47ea7611d41855205b9","study_id":"6197b3f67c2b5cd3b6d9596a","session_id":"6197b9f026a6436e8bc0ff6b","condition":"full-information","relevant_dimensions":["wings","pattern"],"bee_group":{"antennae":"X","wings":"2","pattern":"S","legs":"X"},"bonus":0.880000000000001},{"rt":1788.800000011921,"stimulus":"bees-with-color/bee-A2DF.svg","response":0,"trial_type":"image-button-response","trial_index":63,"time_elapsed":537826,"internal_node_id":"0.0-4.0-0.28","subject_id":"6061e47ea7611d41855205b9","study_id":"6197b3f67c2b5cd3b6d9596a","session_id":"6197b9f026a6436e8bc0ff6b","condition":"full-information","relevant_dimensions":["wings","pattern"],"bee_group":{"antennae":"X","wings":"2","pattern":"S","legs":"X"},"action":"harvest","summary":"good-harvest","bonus":0.880000000000001},{"rt":612.6999999880791,"stimulus":"\n                    <p><b>Action: <em>harvest</em></b></p>\n                    <p>This is the bee that you just saw.</p>\n                    <img src=\"bees-with-color/bee-A2DF.svg\" width=\"200\">\n                    <p><span class=\"greenText\"><b>Successful harvest!</b></span><br>Your pay has increased by $0.02. Your bonus pay is now $0.62.</p>\n            ","response":0,"trial_type":"html-button-response","trial_index":64,"time_elapsed":538440,"internal_node_id":"0.0-4.0-1.28","subject_id":"6061e47ea7611d41855205b9","study_id":"6197b3f67c2b5cd3b6d9596a","session_id":"6197b9f026a6436e8bc0ff6b","condition":"full-information","relevant_dimensions":["wings","pattern"],"bee_group":{"antennae":"X","wings":"2","pattern":"S","legs":"X"},"bonus":0.880000000000001},{"rt":1357.9000000059605,"stimulus":"bees-with-color/bee-B1DF.svg","response":1,"trial_type":"image-button-response","trial_index":65,"time_elapsed":539799,"internal_node_id":"0.0-4.0-0.29","subject_id":"6061e47ea7611d41855205b9","study_id":"6197b3f67c2b5cd3b6d9596a","session_id":"6197b9f026a6436e8bc0ff6b","condition":"full-information","relevant_dimensions":["wings","pattern"],"bee_group":{"antennae":"X","wings":"2","pattern":"S","legs":"X"},"action":"avoid","summary":"bad-avoid","bonus":0.880000000000001},{"rt":633.6000000089407,"stimulus":"\n                    <p><b>Action: <em>avoid</em></b></p>\n                    <p>This is the bee that you just saw.</p>\n                    <img src=\"bees-with-color/bee-B1DF.svg\" width=\"200\">\n                    <p><span class=\"redText\">Bad choice,</span> the bee was friendly.<br>Your bonus pay is unchanged, and remains at $0.62.</p>\n            ","response":0,"trial_type":"html-button-response","trial_index":66,"time_elapsed":540433,"internal_node_id":"0.0-4.0-1.29","subject_id":"6061e47ea7611d41855205b9","study_id":"6197b3f67c2b5cd3b6d9596a","session_id":"6197b9f026a6436e8bc0ff6b","condition":"full-information","relevant_dimensions":["wings","pattern"],"bee_group":{"antennae":"X","wings":"2","pattern":"S","legs":"X"},"bonus":0.880000000000001},{"rt":1606.2000000029802,"stimulus":"bees-with-color/bee-B1DM.svg","response":0,"trial_type":"image-button-response","trial_index":67,"time_elapsed":542040,"internal_node_id":"0.0-4.0-0.30","subject_id":"6061e47ea7611d41855205b9","study_id":"6197b3f67c2b5cd3b6d9596a","session_id":"6197b9f026a6436e8bc0ff6b","condition":"full-information","relevant_dimensions":["wings","pattern"],"bee_group":{"antennae":"X","wings":"2","pattern":"S","legs":"X"},"action":"harvest","summary":"good-harvest","bonus":0.880000000000001},{"rt":540.7999999970198,"stimulus":"\n                    <p><b>Action: <em>harvest</em></b></p>\n                    <p>This is the bee that you just saw.</p>\n                    <img src=\"bees-with-color/bee-B1DM.svg\" width=\"200\">\n                    <p><span class=\"greenText\"><b>Successful harvest!</b></span><br>Your pay has increased by $0.02. Your bonus pay is now $0.64.</p>\n            ","response":0,"trial_type":"html-button-response","trial_index":68,"time_elapsed":542582,"internal_node_id":"0.0-4.0-1.30","subject_id":"6061e47ea7611d41855205b9","study_id":"6197b3f67c2b5cd3b6d9596a","session_id":"6197b9f026a6436e8bc0ff6b","condition":"full-information","relevant_dimensions":["wings","pattern"],"bee_group":{"antennae":"X","wings":"2","pattern":"S","legs":"X"},"bonus":0.880000000000001},{"rt":6933.70000000298,"stimulus":"bees-with-color/bee-A1DF.svg","response":0,"trial_type":"image-button-response","trial_index":69,"time_elapsed":549517,"internal_node_id":"0.0-4.0-0.31","subject_id":"6061e47ea7611d41855205b9","study_id":"6197b3f67c2b5cd3b6d9596a","session_id":"6197b9f026a6436e8bc0ff6b","condition":"full-information","relevant_dimensions":["wings","pattern"],"bee_group":{"antennae":"X","wings":"2","pattern":"S","legs":"X"},"action":"harvest","summary":"good-harvest","bonus":0.880000000000001},{"rt":652.4000000059605,"stimulus":"\n                    <p><b>Action: <em>harvest</em></b></p>\n                    <p>This is the bee that you just saw.</p>\n                    <img src=\"bees-with-color/bee-A1DF.svg\" width=\"200\">\n                    <p><span class=\"greenText\"><b>Successful harvest!</b></span><br>Your pay has increased by $0.02. Your bonus pay is now $0.66.</p>\n            ","response":0,"trial_type":"html-button-response","trial_index":70,"time_elapsed":550170,"internal_node_id":"0.0-4.0-1.31","subject_id":"6061e47ea7611d41855205b9","study_id":"6197b3f67c2b5cd3b6d9596a","session_id":"6197b9f026a6436e8bc0ff6b","condition":"full-information","relevant_dimensions":["wings","pattern"],"bee_group":{"antennae":"X","wings":"2","pattern":"S","legs":"X"},"bonus":0.880000000000001},{"rt":4107.899999991059,"stimulus":"bees-with-color/bee-A1DM.svg","response":0,"trial_type":"image-button-response","trial_index":71,"time_elapsed":554279,"internal_node_id":"0.0-4.0-0.32","subject_id":"6061e47ea7611d41855205b9","study_id":"6197b3f67c2b5cd3b6d9596a","session_id":"6197b9f026a6436e8bc0ff6b","condition":"full-information","relevant_dimensions":["wings","pattern"],"bee_group":{"antennae":"X","wings":"2","pattern":"S","legs":"X"},"action":"harvest","summary":"good-harvest","bonus":0.880000000000001},{"rt":472.79999999701977,"stimulus":"\n                    <p><b>Action: <em>harvest</em></b></p>\n                    <p>This is the bee that you just saw.</p>\n                    <img src=\"bees-with-color/bee-A1DM.svg\" width=\"200\">\n                    <p><span class=\"greenText\"><b>Successful harvest!</b></span><br>Your pay has increased by $0.02. Your bonus pay is now $0.68.</p>\n            ","response":0,"trial_type":"html-button-response","trial_index":72,"time_elapsed":554753,"internal_node_id":"0.0-4.0-1.32","subject_id":"6061e47ea7611d41855205b9","study_id":"6197b3f67c2b5cd3b6d9596a","session_id":"6197b9f026a6436e8bc0ff6b","condition":"full-information","relevant_dimensions":["wings","pattern"],"bee_group":{"antennae":"X","wings":"2","pattern":"S","legs":"X"},"bonus":0.880000000000001},{"rt":2775.7000000029802,"stimulus":"bees-with-color/bee-A1SM.svg","response":1,"trial_type":"image-button-response","trial_index":73,"time_elapsed":557530,"internal_node_id":"0.0-4.0-0.33","subject_id":"6061e47ea7611d41855205b9","study_id":"6197b3f67c2b5cd3b6d9596a","session_id":"6197b9f026a6436e8bc0ff6b","condition":"full-information","relevant_dimensions":["wings","pattern"],"bee_group":{"antennae":"X","wings":"2","pattern":"S","legs":"X"},"action":"avoid","summary":"bad-avoid","bonus":0.880000000000001},{"rt":502.70000000298023,"stimulus":"\n                    <p><b>Action: <em>avoid</em></b></p>\n                    <p>This is the bee that you just saw.</p>\n                    <img src=\"bees-with-color/bee-A1SM.svg\" width=\"200\">\n                    <p><span class=\"redText\">Bad choice,</span> the bee was friendly.<br>Your bonus pay is unchanged, and remains at $0.68.</p>\n            ","response":0,"trial_type":"html-button-response","trial_index":74,"time_elapsed":558034,"internal_node_id":"0.0-4.0-1.33","subject_id":"6061e47ea7611d41855205b9","study_id":"6197b3f67c2b5cd3b6d9596a","session_id":"6197b9f026a6436e8bc0ff6b","condition":"full-information","relevant_dimensions":["wings","pattern"],"bee_group":{"antennae":"X","wings":"2","pattern":"S","legs":"X"},"bonus":0.880000000000001},{"rt":1038.2999999970198,"stimulus":"bees-with-color/bee-A1DF.svg","response":0,"trial_type":"image-button-response","trial_index":75,"time_elapsed":559073,"internal_node_id":"0.0-4.0-0.34","subject_id":"6061e47ea7611d41855205b9","study_id":"6197b3f67c2b5cd3b6d9596a","session_id":"6197b9f026a6436e8bc0ff6b","condition":"full-information","relevant_dimensions":["wings","pattern"],"bee_group":{"antennae":"X","wings":"2","pattern":"S","legs":"X"},"action":"harvest","summary":"good-harvest","bonus":0.880000000000001},{"rt":373.6000000089407,"stimulus":"\n                    <p><b>Action: <em>harvest</em></b></p>\n                    <p>This is the bee that you just saw.</p>\n                    <img src=\"bees-with-color/bee-A1DF.svg\" width=\"200\">\n                    <p><span class=\"greenText\"><b>Successful harvest!</b></span><br>Your pay has increased by $0.02. Your bonus pay is now $0.70.</p>\n            ","response":0,"trial_type":"html-button-response","trial_index":76,"time_elapsed":559448,"internal_node_id":"0.0-4.0-1.34","subject_id":"6061e47ea7611d41855205b9","study_id":"6197b3f67c2b5cd3b6d9596a","session_id":"6197b9f026a6436e8bc0ff6b","condition":"full-information","relevant_dimensions":["wings","pattern"],"bee_group":{"antennae":"X","wings":"2","pattern":"S","legs":"X"},"bonus":0.880000000000001},{"rt":1398.2999999970198,"stimulus":"bees-with-color/bee-A2DM.svg","response":0,"trial_type":"image-button-response","trial_index":77,"time_elapsed":560847,"internal_node_id":"0.0-4.0-0.35","subject_id":"6061e47ea7611d41855205b9","study_id":"6197b3f67c2b5cd3b6d9596a","session_id":"6197b9f026a6436e8bc0ff6b","condition":"full-information","relevant_dimensions":["wings","pattern"],"bee_group":{"antennae":"X","wings":"2","pattern":"S","legs":"X"},"action":"harvest","summary":"good-harvest","bonus":0.880000000000001},{"rt":500.79999999701977,"stimulus":"\n                    <p><b>Action: <em>harvest</em></b></p>\n                    <p>This is the bee that you just saw.</p>\n                    <img src=\"bees-with-color/bee-A2DM.svg\" width=\"200\">\n                    <p><span class=\"greenText\"><b>Successful harvest!</b></span><br>Your pay has increased by $0.02. Your bonus pay is now $0.72.</p>\n            ","response":0,"trial_type":"html-button-response","trial_index":78,"time_elapsed":561349,"internal_node_id":"0.0-4.0-1.35","subject_id":"6061e47ea7611d41855205b9","study_id":"6197b3f67c2b5cd3b6d9596a","session_id":"6197b9f026a6436e8bc0ff6b","condition":"full-information","relevant_dimensions":["wings","pattern"],"bee_group":{"antennae":"X","wings":"2","pattern":"S","legs":"X"},"bonus":0.880000000000001},{"rt":1359.8999999910593,"stimulus":"bees-with-color/bee-B2DF.svg","response":0,"trial_type":"image-button-response","trial_index":79,"time_elapsed":562710,"internal_node_id":"0.0-4.0-0.36","subject_id":"6061e47ea7611d41855205b9","study_id":"6197b3f67c2b5cd3b6d9596a","session_id":"6197b9f026a6436e8bc0ff6b","condition":"full-information","relevant_dimensions":["wings","pattern"],"bee_group":{"antennae":"X","wings":"2","pattern":"S","legs":"X"},"action":"harvest","summary":"good-harvest","bonus":0.880000000000001},{"rt":808.5,"stimulus":"\n                    <p><b>Action: <em>harvest</em></b></p>\n                    <p>This is the bee that you just saw.</p>\n                    <img src=\"bees-with-color/bee-B2DF.svg\" width=\"200\">\n                    <p><span class=\"greenText\"><b>Successful harvest!</b></span><br>Your pay has increased by $0.02. Your bonus pay is now $0.74.</p>\n            ","response":0,"trial_type":"html-button-response","trial_index":80,"time_elapsed":563519,"internal_node_id":"0.0-4.0-1.36","subject_id":"6061e47ea7611d41855205b9","study_id":"6197b3f67c2b5cd3b6d9596a","session_id":"6197b9f026a6436e8bc0ff6b","condition":"full-information","relevant_dimensions":["wings","pattern"],"bee_group":{"antennae":"X","wings":"2","pattern":"S","legs":"X"},"bonus":0.880000000000001},{"rt":1431.0999999940395,"stimulus":"bees-with-color/bee-B2SM.svg","response":1,"trial_type":"image-button-response","trial_index":81,"time_elapsed":564951,"internal_node_id":"0.0-4.0-0.37","subject_id":"6061e47ea7611d41855205b9","study_id":"6197b3f67c2b5cd3b6d9596a","session_id":"6197b9f026a6436e8bc0ff6b","condition":"full-information","relevant_dimensions":["wings","pattern"],"bee_group":{"antennae":"X","wings":"2","pattern":"S","legs":"X"},"action":"avoid","summary":"good-avoid","bonus":0.880000000000001},{"rt":492,"stimulus":"\n                    <p><b>Action: <em>avoid</em></b></p>\n                    <p>This is the bee that you just saw.</p>\n                    <img src=\"bees-with-color/bee-B2SM.svg\" width=\"200\">\n                    <p><span class=\"greenText\">Good choice!</span>  This bee would have stung you.<br>Your bonus pay is unchanged, and remains at $0.74.</p>\n            ","response":0,"trial_type":"html-button-response","trial_index":82,"time_elapsed":565444,"internal_node_id":"0.0-4.0-1.37","subject_id":"6061e47ea7611d41855205b9","study_id":"6197b3f67c2b5cd3b6d9596a","session_id":"6197b9f026a6436e8bc0ff6b","condition":"full-information","relevant_dimensions":["wings","pattern"],"bee_group":{"antennae":"X","wings":"2","pattern":"S","legs":"X"},"bonus":0.880000000000001},{"rt":1349,"stimulus":"bees-with-color/bee-B2DM.svg","response":0,"trial_type":"image-button-response","trial_index":83,"time_elapsed":566794,"internal_node_id":"0.0-4.0-0.38","subject_id":"6061e47ea7611d41855205b9","study_id":"6197b3f67c2b5cd3b6d9596a","session_id":"6197b9f026a6436e8bc0ff6b","condition":"full-information","relevant_dimensions":["wings","pattern"],"bee_group":{"antennae":"X","wings":"2","pattern":"S","legs":"X"},"action":"harvest","summary":"good-harvest","bonus":0.880000000000001},{"rt":337.1000000089407,"stimulus":"\n                    <p><b>Action: <em>harvest</em></b></p>\n                    <p>This is the bee that you just saw.</p>\n                    <img src=\"bees-with-color/bee-B2DM.svg\" width=\"200\">\n                    <p><span class=\"greenText\"><b>Successful harvest!</b></span><br>Your pay has increased by $0.02. Your bonus pay is now $0.76.</p>\n            ","response":0,"trial_type":"html-button-response","trial_index":84,"time_elapsed":567132,"internal_node_id":"0.0-4.0-1.38","subject_id":"6061e47ea7611d41855205b9","study_id":"6197b3f67c2b5cd3b6d9596a","session_id":"6197b9f026a6436e8bc0ff6b","condition":"full-information","relevant_dimensions":["wings","pattern"],"bee_group":{"antennae":"X","wings":"2","pattern":"S","legs":"X"},"bonus":0.880000000000001},{"rt":2952.5999999940395,"stimulus":"bees-with-color/bee-A2SF.svg","response":0,"trial_type":"image-button-response","trial_index":85,"time_elapsed":570086,"internal_node_id":"0.0-4.0-0.39","subject_id":"6061e47ea7611d41855205b9","study_id":"6197b3f67c2b5cd3b6d9596a","session_id":"6197b9f026a6436e8bc0ff6b","condition":"full-information","relevant_dimensions":["wings","pattern"],"bee_group":{"antennae":"X","wings":"2","pattern":"S","legs":"X"},"action":"harvest","summary":"bad-harvest","bonus":0.880000000000001},{"rt":1113.5,"stimulus":"\n                    <p><b>Action: <em>harvest</em></b></p>\n                    <p>This is the bee that you just saw.</p>\n                    <img src=\"bees-with-color/bee-A2SF.svg\" width=\"200\">\n                    <p><span class=\"redText\">Bad choice, the bee was angry.</span><br><b>You have been stung!</b><br>Your pay has been decreased by $0.10. Your bonus pay is now $0.66.</p>\n            ","response":0,"trial_type":"html-button-response","trial_index":86,"time_elapsed":571200,"internal_node_id":"0.0-4.0-1.39","subject_id":"6061e47ea7611d41855205b9","study_id":"6197b3f67c2b5cd3b6d9596a","session_id":"6197b9f026a6436e8bc0ff6b","condition":"full-information","relevant_dimensions":["wings","pattern"],"bee_group":{"antennae":"X","wings":"2","pattern":"S","legs":"X"},"bonus":0.880000000000001},{"rt":1770.699999988079,"stimulus":"bees-with-color/bee-B2SF.svg","response":1,"trial_type":"image-button-response","trial_index":87,"time_elapsed":572972,"internal_node_id":"0.0-4.0-0.40","subject_id":"6061e47ea7611d41855205b9","study_id":"6197b3f67c2b5cd3b6d9596a","session_id":"6197b9f026a6436e8bc0ff6b","condition":"full-information","relevant_dimensions":["wings","pattern"],"bee_group":{"antennae":"X","wings":"2","pattern":"S","legs":"X"},"action":"avoid","summary":"good-avoid","bonus":0.880000000000001},{"rt":598.1999999880791,"stimulus":"\n                    <p><b>Action: <em>avoid</em></b></p>\n                    <p>This is the bee that you just saw.</p>\n                    <img src=\"bees-with-color/bee-B2SF.svg\" width=\"200\">\n                    <p><span class=\"greenText\">Good choice!</span>  This bee would have stung you.<br>Your bonus pay is unchanged, and remains at $0.66.</p>\n            ","response":0,"trial_type":"html-button-response","trial_index":88,"time_elapsed":573571,"internal_node_id":"0.0-4.0-1.40","subject_id":"6061e47ea7611d41855205b9","study_id":"6197b3f67c2b5cd3b6d9596a","session_id":"6197b9f026a6436e8bc0ff6b","condition":"full-information","relevant_dimensions":["wings","pattern"],"bee_group":{"antennae":"X","wings":"2","pattern":"S","legs":"X"},"bonus":0.880000000000001},{"rt":1288.7999999970198,"stimulus":"bees-with-color/bee-A2DF.svg","response":0,"trial_type":"image-button-response","trial_index":89,"time_elapsed":574861,"internal_node_id":"0.0-4.0-0.41","subject_id":"6061e47ea7611d41855205b9","study_id":"6197b3f67c2b5cd3b6d9596a","session_id":"6197b9f026a6436e8bc0ff6b","condition":"full-information","relevant_dimensions":["wings","pattern"],"bee_group":{"antennae":"X","wings":"2","pattern":"S","legs":"X"},"action":"harvest","summary":"good-harvest","bonus":0.880000000000001},{"rt":485.69999998807907,"stimulus":"\n                    <p><b>Action: <em>harvest</em></b></p>\n                    <p>This is the bee that you just saw.</p>\n                    <img src=\"bees-with-color/bee-A2DF.svg\" width=\"200\">\n                    <p><span class=\"greenText\"><b>Successful harvest!</b></span><br>Your pay has increased by $0.02. Your bonus pay is now $0.68.</p>\n            ","response":0,"trial_type":"html-button-response","trial_index":90,"time_elapsed":575348,"internal_node_id":"0.0-4.0-1.41","subject_id":"6061e47ea7611d41855205b9","study_id":"6197b3f67c2b5cd3b6d9596a","session_id":"6197b9f026a6436e8bc0ff6b","condition":"full-information","relevant_dimensions":["wings","pattern"],"bee_group":{"antennae":"X","wings":"2","pattern":"S","legs":"X"},"bonus":0.880000000000001},{"rt":4240.800000011921,"stimulus":"bees-with-color/bee-B1DF.svg","response":0,"trial_type":"image-button-response","trial_index":91,"time_elapsed":579590,"internal_node_id":"0.0-4.0-0.42","subject_id":"6061e47ea7611d41855205b9","study_id":"6197b3f67c2b5cd3b6d9596a","session_id":"6197b9f026a6436e8bc0ff6b","condition":"full-information","relevant_dimensions":["wings","pattern"],"bee_group":{"antennae":"X","wings":"2","pattern":"S","legs":"X"},"action":"harvest","summary":"good-harvest","bonus":0.880000000000001},{"rt":483.20000000298023,"stimulus":"\n                    <p><b>Action: <em>harvest</em></b></p>\n                    <p>This is the bee that you just saw.</p>\n                    <img src=\"bees-with-color/bee-B1DF.svg\" width=\"200\">\n                    <p><span class=\"greenText\"><b>Successful harvest!</b></span><br>Your pay has increased by $0.02. Your bonus pay is now $0.70.</p>\n            ","response":0,"trial_type":"html-button-response","trial_index":92,"time_elapsed":580074,"internal_node_id":"0.0-4.0-1.42","subject_id":"6061e47ea7611d41855205b9","study_id":"6197b3f67c2b5cd3b6d9596a","session_id":"6197b9f026a6436e8bc0ff6b","condition":"full-information","relevant_dimensions":["wings","pattern"],"bee_group":{"antennae":"X","wings":"2","pattern":"S","legs":"X"},"bonus":0.880000000000001},{"rt":1872.4000000059605,"stimulus":"bees-with-color/bee-A1SF.svg","response":0,"trial_type":"image-button-response","trial_index":93,"time_elapsed":581947,"internal_node_id":"0.0-4.0-0.43","subject_id":"6061e47ea7611d41855205b9","study_id":"6197b3f67c2b5cd3b6d9596a","session_id":"6197b9f026a6436e8bc0ff6b","condition":"full-information","relevant_dimensions":["wings","pattern"],"bee_group":{"antennae":"X","wings":"2","pattern":"S","legs":"X"},"action":"harvest","summary":"good-harvest","bonus":0.880000000000001},{"rt":608.3999999910593,"stimulus":"\n                    <p><b>Action: <em>harvest</em></b></p>\n                    <p>This is the bee that you just saw.</p>\n                    <img src=\"bees-with-color/bee-A1SF.svg\" width=\"200\">\n                    <p><span class=\"greenText\"><b>Successful harvest!</b></span><br>Your pay has increased by $0.02. Your bonus pay is now $0.72.</p>\n            ","response":0,"trial_type":"html-button-response","trial_index":94,"time_elapsed":582556,"internal_node_id":"0.0-4.0-1.43","subject_id":"6061e47ea7611d41855205b9","study_id":"6197b3f67c2b5cd3b6d9596a","session_id":"6197b9f026a6436e8bc0ff6b","condition":"full-information","relevant_dimensions":["wings","pattern"],"bee_group":{"antennae":"X","wings":"2","pattern":"S","legs":"X"},"bonus":0.880000000000001},{"rt":3621.7999999970198,"stimulus":"bees-with-color/bee-B1DM.svg","response":0,"trial_type":"image-button-response","trial_index":95,"time_elapsed":586179,"internal_node_id":"0.0-4.0-0.44","subject_id":"6061e47ea7611d41855205b9","study_id":"6197b3f67c2b5cd3b6d9596a","session_id":"6197b9f026a6436e8bc0ff6b","condition":"full-information","relevant_dimensions":["wings","pattern"],"bee_group":{"antennae":"X","wings":"2","pattern":"S","legs":"X"},"action":"harvest","summary":"good-harvest","bonus":0.880000000000001},{"rt":572.9000000059605,"stimulus":"\n                    <p><b>Action: <em>harvest</em></b></p>\n                    <p>This is the bee that you just saw.</p>\n                    <img src=\"bees-with-color/bee-B1DM.svg\" width=\"200\">\n                    <p><span class=\"greenText\"><b>Successful harvest!</b></span><br>Your pay has increased by $0.02. Your bonus pay is now $0.74.</p>\n            ","response":0,"trial_type":"html-button-response","trial_index":96,"time_elapsed":586752,"internal_node_id":"0.0-4.0-1.44","subject_id":"6061e47ea7611d41855205b9","study_id":"6197b3f67c2b5cd3b6d9596a","session_id":"6197b9f026a6436e8bc0ff6b","condition":"full-information","relevant_dimensions":["wings","pattern"],"bee_group":{"antennae":"X","wings":"2","pattern":"S","legs":"X"},"bonus":0.880000000000001},{"rt":1353.3999999910593,"stimulus":"bees-with-color/bee-B1SF.svg","response":1,"trial_type":"image-button-response","trial_index":97,"time_elapsed":588107,"internal_node_id":"0.0-4.0-0.45","subject_id":"6061e47ea7611d41855205b9","study_id":"6197b3f67c2b5cd3b6d9596a","session_id":"6197b9f026a6436e8bc0ff6b","condition":"full-information","relevant_dimensions":["wings","pattern"],"bee_group":{"antennae":"X","wings":"2","pattern":"S","legs":"X"},"action":"avoid","summary":"bad-avoid","bonus":0.880000000000001},{"rt":877.8000000119209,"stimulus":"\n                    <p><b>Action: <em>avoid</em></b></p>\n                    <p>This is the bee that you just saw.</p>\n                    <img src=\"bees-with-color/bee-B1SF.svg\" width=\"200\">\n                    <p><span class=\"redText\">Bad choice,</span> the bee was friendly.<br>Your bonus pay is unchanged, and remains at $0.74.</p>\n            ","response":0,"trial_type":"html-button-response","trial_index":98,"time_elapsed":588986,"internal_node_id":"0.0-4.0-1.45","subject_id":"6061e47ea7611d41855205b9","study_id":"6197b3f67c2b5cd3b6d9596a","session_id":"6197b9f026a6436e8bc0ff6b","condition":"full-information","relevant_dimensions":["wings","pattern"],"bee_group":{"antennae":"X","wings":"2","pattern":"S","legs":"X"},"bonus":0.880000000000001},{"rt":2791.5,"stimulus":"bees-with-color/bee-A2SM.svg","response":1,"trial_type":"image-button-response","trial_index":99,"time_elapsed":591778,"internal_node_id":"0.0-4.0-0.46","subject_id":"6061e47ea7611d41855205b9","study_id":"6197b3f67c2b5cd3b6d9596a","session_id":"6197b9f026a6436e8bc0ff6b","condition":"full-information","relevant_dimensions":["wings","pattern"],"bee_group":{"antennae":"X","wings":"2","pattern":"S","legs":"X"},"action":"avoid","summary":"good-avoid","bonus":0.880000000000001},{"rt":1055.5999999940395,"stimulus":"\n                    <p><b>Action: <em>avoid</em></b></p>\n                    <p>This is the bee that you just saw.</p>\n                    <img src=\"bees-with-color/bee-A2SM.svg\" width=\"200\">\n                    <p><span class=\"greenText\">Good choice!</span>  This bee would have stung you.<br>Your bonus pay is unchanged, and remains at $0.74.</p>\n            ","response":0,"trial_type":"html-button-response","trial_index":100,"time_elapsed":592835,"internal_node_id":"0.0-4.0-1.46","subject_id":"6061e47ea7611d41855205b9","study_id":"6197b3f67c2b5cd3b6d9596a","session_id":"6197b9f026a6436e8bc0ff6b","condition":"full-information","relevant_dimensions":["wings","pattern"],"bee_group":{"antennae":"X","wings":"2","pattern":"S","legs":"X"},"bonus":0.880000000000001},{"rt":1483.7999999970198,"stimulus":"bees-with-color/bee-B1SM.svg","response":1,"trial_type":"image-button-response","trial_index":101,"time_elapsed":594320,"internal_node_id":"0.0-4.0-0.47","subject_id":"6061e47ea7611d41855205b9","study_id":"6197b3f67c2b5cd3b6d9596a","session_id":"6197b9f026a6436e8bc0ff6b","condition":"full-information","relevant_dimensions":["wings","pattern"],"bee_group":{"antennae":"X","wings":"2","pattern":"S","legs":"X"},"action":"avoid","summary":"bad-avoid","bonus":0.880000000000001},{"rt":2119.5999999940395,"stimulus":"\n                    <p><b>Action: <em>avoid</em></b></p>\n                    <p>This is the bee that you just saw.</p>\n                    <img src=\"bees-with-color/bee-B1SM.svg\" width=\"200\">\n                    <p><span class=\"redText\">Bad choice,</span> the bee was friendly.<br>Your bonus pay is unchanged, and remains at $0.74.</p>\n            ","response":0,"trial_type":"html-button-response","trial_index":102,"time_elapsed":596441,"internal_node_id":"0.0-4.0-1.47","subject_id":"6061e47ea7611d41855205b9","study_id":"6197b3f67c2b5cd3b6d9596a","session_id":"6197b9f026a6436e8bc0ff6b","condition":"full-information","relevant_dimensions":["wings","pattern"],"bee_group":{"antennae":"X","wings":"2","pattern":"S","legs":"X"},"bonus":0.880000000000001},{"rt":914.9000000059605,"stimulus":"bees-with-color/bee-A2DF.svg","response":0,"trial_type":"image-button-response","trial_index":103,"time_elapsed":597357,"internal_node_id":"0.0-4.0-0.48","subject_id":"6061e47ea7611d41855205b9","study_id":"6197b3f67c2b5cd3b6d9596a","session_id":"6197b9f026a6436e8bc0ff6b","condition":"full-information","relevant_dimensions":["wings","pattern"],"bee_group":{"antennae":"X","wings":"2","pattern":"S","legs":"X"},"action":"harvest","summary":"good-harvest","bonus":0.880000000000001},{"rt":534.3999999910593,"stimulus":"\n                    <p><b>Action: <em>harvest</em></b></p>\n                    <p>This is the bee that you just saw.</p>\n                    <img src=\"bees-with-color/bee-A2DF.svg\" width=\"200\">\n                    <p><span class=\"greenText\"><b>Successful harvest!</b></span><br>Your pay has increased by $0.02. Your bonus pay is now $0.76.</p>\n            ","response":0,"trial_type":"html-button-response","trial_index":104,"time_elapsed":597893,"internal_node_id":"0.0-4.0-1.48","subject_id":"6061e47ea7611d41855205b9","study_id":"6197b3f67c2b5cd3b6d9596a","session_id":"6197b9f026a6436e8bc0ff6b","condition":"full-information","relevant_dimensions":["wings","pattern"],"bee_group":{"antennae":"X","wings":"2","pattern":"S","legs":"X"},"bonus":0.880000000000001},{"rt":1196.2999999970198,"stimulus":"bees-with-color/bee-A2SF.svg","response":1,"trial_type":"image-button-response","trial_index":105,"time_elapsed":599090,"internal_node_id":"0.0-4.0-0.49","subject_id":"6061e47ea7611d41855205b9","study_id":"6197b3f67c2b5cd3b6d9596a","session_id":"6197b9f026a6436e8bc0ff6b","condition":"full-information","relevant_dimensions":["wings","pattern"],"bee_group":{"antennae":"X","wings":"2","pattern":"S","legs":"X"},"action":"avoid","summary":"good-avoid","bonus":0.880000000000001},{"rt":787.6000000089407,"stimulus":"\n                    <p><b>Action: <em>avoid</em></b></p>\n                    <p>This is the bee that you just saw.</p>\n                    <img src=\"bees-with-color/bee-A2SF.svg\" width=\"200\">\n                    <p><span class=\"greenText\">Good choice!</span>  This bee would have stung you.<br>Your bonus pay is unchanged, and remains at $0.76.</p>\n            ","response":0,"trial_type":"html-button-response","trial_index":106,"time_elapsed":599879,"internal_node_id":"0.0-4.0-1.49","subject_id":"6061e47ea7611d41855205b9","study_id":"6197b3f67c2b5cd3b6d9596a","session_id":"6197b9f026a6436e8bc0ff6b","condition":"full-information","relevant_dimensions":["wings","pattern"],"bee_group":{"antennae":"X","wings":"2","pattern":"S","legs":"X"},"bonus":0.880000000000001},{"rt":1186.5,"stimulus":"bees-with-color/bee-A1SF.svg","response":1,"trial_type":"image-button-response","trial_index":107,"time_elapsed":601066,"internal_node_id":"0.0-4.0-0.50","subject_id":"6061e47ea7611d41855205b9","study_id":"6197b3f67c2b5cd3b6d9596a","session_id":"6197b9f026a6436e8bc0ff6b","condition":"full-information","relevant_dimensions":["wings","pattern"],"bee_group":{"antennae":"X","wings":"2","pattern":"S","legs":"X"},"action":"avoid","summary":"bad-avoid","bonus":0.880000000000001},{"rt":821.5999999940395,"stimulus":"\n                    <p><b>Action: <em>avoid</em></b></p>\n                    <p>This is the bee that you just saw.</p>\n                    <img src=\"bees-with-color/bee-A1SF.svg\" width=\"200\">\n                    <p><span class=\"redText\">Bad choice,</span> the bee was friendly.<br>Your bonus pay is unchanged, and remains at $0.76.</p>\n            ","response":0,"trial_type":"html-button-response","trial_index":108,"time_elapsed":601889,"internal_node_id":"0.0-4.0-1.50","subject_id":"6061e47ea7611d41855205b9","study_id":"6197b3f67c2b5cd3b6d9596a","session_id":"6197b9f026a6436e8bc0ff6b","condition":"full-information","relevant_dimensions":["wings","pattern"],"bee_group":{"antennae":"X","wings":"2","pattern":"S","legs":"X"},"bonus":0.880000000000001},{"rt":1768.0999999940395,"stimulus":"bees-with-color/bee-A2SM.svg","response":1,"trial_type":"image-button-response","trial_index":109,"time_elapsed":603658,"internal_node_id":"0.0-4.0-0.51","subject_id":"6061e47ea7611d41855205b9","study_id":"6197b3f67c2b5cd3b6d9596a","session_id":"6197b9f026a6436e8bc0ff6b","condition":"full-information","relevant_dimensions":["wings","pattern"],"bee_group":{"antennae":"X","wings":"2","pattern":"S","legs":"X"},"action":"avoid","summary":"good-avoid","bonus":0.880000000000001},{"rt":451.70000000298023,"stimulus":"\n                    <p><b>Action: <em>avoid</em></b></p>\n                    <p>This is the bee that you just saw.</p>\n                    <img src=\"bees-with-color/bee-A2SM.svg\" width=\"200\">\n                    <p><span class=\"greenText\">Good choice!</span>  This bee would have stung you.<br>Your bonus pay is unchanged, and remains at $0.76.</p>\n            ","response":0,"trial_type":"html-button-response","trial_index":110,"time_elapsed":604111,"internal_node_id":"0.0-4.0-1.51","subject_id":"6061e47ea7611d41855205b9","study_id":"6197b3f67c2b5cd3b6d9596a","session_id":"6197b9f026a6436e8bc0ff6b","condition":"full-information","relevant_dimensions":["wings","pattern"],"bee_group":{"antennae":"X","wings":"2","pattern":"S","legs":"X"},"bonus":0.880000000000001},{"rt":2639.2999999970198,"stimulus":"bees-with-color/bee-B1SM.svg","response":1,"trial_type":"image-button-response","trial_index":111,"time_elapsed":606751,"internal_node_id":"0.0-4.0-0.52","subject_id":"6061e47ea7611d41855205b9","study_id":"6197b3f67c2b5cd3b6d9596a","session_id":"6197b9f026a6436e8bc0ff6b","condition":"full-information","relevant_dimensions":["wings","pattern"],"bee_group":{"antennae":"X","wings":"2","pattern":"S","legs":"X"},"action":"avoid","summary":"bad-avoid","bonus":0.880000000000001},{"rt":586.7000000029802,"stimulus":"\n                    <p><b>Action: <em>avoid</em></b></p>\n                    <p>This is the bee that you just saw.</p>\n                    <img src=\"bees-with-color/bee-B1SM.svg\" width=\"200\">\n                    <p><span class=\"redText\">Bad choice,</span> the bee was friendly.<br>Your bonus pay is unchanged, and remains at $0.76.</p>\n            ","response":0,"trial_type":"html-button-response","trial_index":112,"time_elapsed":607339,"internal_node_id":"0.0-4.0-1.52","subject_id":"6061e47ea7611d41855205b9","study_id":"6197b3f67c2b5cd3b6d9596a","session_id":"6197b9f026a6436e8bc0ff6b","condition":"full-information","relevant_dimensions":["wings","pattern"],"bee_group":{"antennae":"X","wings":"2","pattern":"S","legs":"X"},"bonus":0.880000000000001},{"rt":1871.9000000059605,"stimulus":"bees-with-color/bee-B1SF.svg","response":0,"trial_type":"image-button-response","trial_index":113,"time_elapsed":609212,"internal_node_id":"0.0-4.0-0.53","subject_id":"6061e47ea7611d41855205b9","study_id":"6197b3f67c2b5cd3b6d9596a","session_id":"6197b9f026a6436e8bc0ff6b","condition":"full-information","relevant_dimensions":["wings","pattern"],"bee_group":{"antennae":"X","wings":"2","pattern":"S","legs":"X"},"action":"harvest","summary":"good-harvest","bonus":0.880000000000001},{"rt":584,"stimulus":"\n                    <p><b>Action: <em>harvest</em></b></p>\n                    <p>This is the bee that you just saw.</p>\n                    <img src=\"bees-with-color/bee-B1SF.svg\" width=\"200\">\n                    <p><span class=\"greenText\"><b>Successful harvest!</b></span><br>Your pay has increased by $0.02. Your bonus pay is now $0.78.</p>\n            ","response":0,"trial_type":"html-button-response","trial_index":114,"time_elapsed":609797,"internal_node_id":"0.0-4.0-1.53","subject_id":"6061e47ea7611d41855205b9","study_id":"6197b3f67c2b5cd3b6d9596a","session_id":"6197b9f026a6436e8bc0ff6b","condition":"full-information","relevant_dimensions":["wings","pattern"],"bee_group":{"antennae":"X","wings":"2","pattern":"S","legs":"X"},"bonus":0.880000000000001},{"rt":1405.2000000029802,"stimulus":"bees-with-color/bee-A1SM.svg","response":1,"trial_type":"image-button-response","trial_index":115,"time_elapsed":611203,"internal_node_id":"0.0-4.0-0.54","subject_id":"6061e47ea7611d41855205b9","study_id":"6197b3f67c2b5cd3b6d9596a","session_id":"6197b9f026a6436e8bc0ff6b","condition":"full-information","relevant_dimensions":["wings","pattern"],"bee_group":{"antennae":"X","wings":"2","pattern":"S","legs":"X"},"action":"avoid","summary":"bad-avoid","bonus":0.880000000000001},{"rt":1041.699999988079,"stimulus":"\n                    <p><b>Action: <em>avoid</em></b></p>\n                    <p>This is the bee that you just saw.</p>\n                    <img src=\"bees-with-color/bee-A1SM.svg\" width=\"200\">\n                    <p><span class=\"redText\">Bad choice,</span> the bee was friendly.<br>Your bonus pay is unchanged, and remains at $0.78.</p>\n            ","response":0,"trial_type":"html-button-response","trial_index":116,"time_elapsed":612246,"internal_node_id":"0.0-4.0-1.54","subject_id":"6061e47ea7611d41855205b9","study_id":"6197b3f67c2b5cd3b6d9596a","session_id":"6197b9f026a6436e8bc0ff6b","condition":"full-information","relevant_dimensions":["wings","pattern"],"bee_group":{"antennae":"X","wings":"2","pattern":"S","legs":"X"},"bonus":0.880000000000001},{"rt":1129.2999999970198,"stimulus":"bees-with-color/bee-A2DM.svg","response":0,"trial_type":"image-button-response","trial_index":117,"time_elapsed":613376,"internal_node_id":"0.0-4.0-0.55","subject_id":"6061e47ea7611d41855205b9","study_id":"6197b3f67c2b5cd3b6d9596a","session_id":"6197b9f026a6436e8bc0ff6b","condition":"full-information","relevant_dimensions":["wings","pattern"],"bee_group":{"antennae":"X","wings":"2","pattern":"S","legs":"X"},"action":"harvest","summary":"good-harvest","bonus":0.880000000000001},{"rt":966.7999999970198,"stimulus":"\n                    <p><b>Action: <em>harvest</em></b></p>\n                    <p>This is the bee that you just saw.</p>\n                    <img src=\"bees-with-color/bee-A2DM.svg\" width=\"200\">\n                    <p><span class=\"greenText\"><b>Successful harvest!</b></span><br>Your pay has increased by $0.02. Your bonus pay is now $0.80.</p>\n            ","response":0,"trial_type":"html-button-response","trial_index":118,"time_elapsed":614344,"internal_node_id":"0.0-4.0-1.55","subject_id":"6061e47ea7611d41855205b9","study_id":"6197b3f67c2b5cd3b6d9596a","session_id":"6197b9f026a6436e8bc0ff6b","condition":"full-information","relevant_dimensions":["wings","pattern"],"bee_group":{"antennae":"X","wings":"2","pattern":"S","legs":"X"},"bonus":0.880000000000001},{"rt":781,"stimulus":"bees-with-color/bee-B2DF.svg","response":0,"trial_type":"image-button-response","trial_index":119,"time_elapsed":615126,"internal_node_id":"0.0-4.0-0.56","subject_id":"6061e47ea7611d41855205b9","study_id":"6197b3f67c2b5cd3b6d9596a","session_id":"6197b9f026a6436e8bc0ff6b","condition":"full-information","relevant_dimensions":["wings","pattern"],"bee_group":{"antennae":"X","wings":"2","pattern":"S","legs":"X"},"action":"harvest","summary":"good-harvest","bonus":0.880000000000001},{"rt":666.6999999880791,"stimulus":"\n                    <p><b>Action: <em>harvest</em></b></p>\n                    <p>This is the bee that you just saw.</p>\n                    <img src=\"bees-with-color/bee-B2DF.svg\" width=\"200\">\n                    <p><span class=\"greenText\"><b>Successful harvest!</b></span><br>Your pay has increased by $0.02. Your bonus pay is now $0.82.</p>\n            ","response":0,"trial_type":"html-button-response","trial_index":120,"time_elapsed":615794,"internal_node_id":"0.0-4.0-1.56","subject_id":"6061e47ea7611d41855205b9","study_id":"6197b3f67c2b5cd3b6d9596a","session_id":"6197b9f026a6436e8bc0ff6b","condition":"full-information","relevant_dimensions":["wings","pattern"],"bee_group":{"antennae":"X","wings":"2","pattern":"S","legs":"X"},"bonus":0.880000000000001},{"rt":1817.8999999910593,"stimulus":"bees-with-color/bee-B1DM.svg","response":0,"trial_type":"image-button-response","trial_index":121,"time_elapsed":617613,"internal_node_id":"0.0-4.0-0.57","subject_id":"6061e47ea7611d41855205b9","study_id":"6197b3f67c2b5cd3b6d9596a","session_id":"6197b9f026a6436e8bc0ff6b","condition":"full-information","relevant_dimensions":["wings","pattern"],"bee_group":{"antennae":"X","wings":"2","pattern":"S","legs":"X"},"action":"harvest","summary":"good-harvest","bonus":0.880000000000001},{"rt":490.59999999403954,"stimulus":"\n                    <p><b>Action: <em>harvest</em></b></p>\n                    <p>This is the bee that you just saw.</p>\n                    <img src=\"bees-with-color/bee-B1DM.svg\" width=\"200\">\n                    <p><span class=\"greenText\"><b>Successful harvest!</b></span><br>Your pay has increased by $0.02. Your bonus pay is now $0.84.</p>\n            ","response":0,"trial_type":"html-button-response","trial_index":122,"time_elapsed":618105,"internal_node_id":"0.0-4.0-1.57","subject_id":"6061e47ea7611d41855205b9","study_id":"6197b3f67c2b5cd3b6d9596a","session_id":"6197b9f026a6436e8bc0ff6b","condition":"full-information","relevant_dimensions":["wings","pattern"],"bee_group":{"antennae":"X","wings":"2","pattern":"S","legs":"X"},"bonus":0.880000000000001},{"rt":1778.1000000089407,"stimulus":"bees-with-color/bee-B2DM.svg","response":1,"trial_type":"image-button-response","trial_index":123,"time_elapsed":619884,"internal_node_id":"0.0-4.0-0.58","subject_id":"6061e47ea7611d41855205b9","study_id":"6197b3f67c2b5cd3b6d9596a","session_id":"6197b9f026a6436e8bc0ff6b","condition":"full-information","relevant_dimensions":["wings","pattern"],"bee_group":{"antennae":"X","wings":"2","pattern":"S","legs":"X"},"action":"avoid","summary":"bad-avoid","bonus":0.880000000000001},{"rt":568.7000000029802,"stimulus":"\n                    <p><b>Action: <em>avoid</em></b></p>\n                    <p>This is the bee that you just saw.</p>\n                    <img src=\"bees-with-color/bee-B2DM.svg\" width=\"200\">\n                    <p><span class=\"redText\">Bad choice,</span> the bee was friendly.<br>Your bonus pay is unchanged, and remains at $0.84.</p>\n            ","response":0,"trial_type":"html-button-response","trial_index":124,"time_elapsed":620454,"internal_node_id":"0.0-4.0-1.58","subject_id":"6061e47ea7611d41855205b9","study_id":"6197b3f67c2b5cd3b6d9596a","session_id":"6197b9f026a6436e8bc0ff6b","condition":"full-information","relevant_dimensions":["wings","pattern"],"bee_group":{"antennae":"X","wings":"2","pattern":"S","legs":"X"},"bonus":0.880000000000001},{"rt":1127.199999988079,"stimulus":"bees-with-color/bee-B1DF.svg","response":1,"trial_type":"image-button-response","trial_index":125,"time_elapsed":621582,"internal_node_id":"0.0-4.0-0.59","subject_id":"6061e47ea7611d41855205b9","study_id":"6197b3f67c2b5cd3b6d9596a","session_id":"6197b9f026a6436e8bc0ff6b","condition":"full-information","relevant_dimensions":["wings","pattern"],"bee_group":{"antennae":"X","wings":"2","pattern":"S","legs":"X"},"action":"avoid","summary":"bad-avoid","bonus":0.880000000000001},{"rt":390.09999999403954,"stimulus":"\n                    <p><b>Action: <em>avoid</em></b></p>\n                    <p>This is the bee that you just saw.</p>\n                    <img src=\"bees-with-color/bee-B1DF.svg\" width=\"200\">\n                    <p><span class=\"redText\">Bad choice,</span> the bee was friendly.<br>Your bonus pay is unchanged, and remains at $0.84.</p>\n            ","response":0,"trial_type":"html-button-response","trial_index":126,"time_elapsed":621973,"internal_node_id":"0.0-4.0-1.59","subject_id":"6061e47ea7611d41855205b9","study_id":"6197b3f67c2b5cd3b6d9596a","session_id":"6197b9f026a6436e8bc0ff6b","condition":"full-information","relevant_dimensions":["wings","pattern"],"bee_group":{"antennae":"X","wings":"2","pattern":"S","legs":"X"},"bonus":0.880000000000001},{"rt":1038.2999999970198,"stimulus":"bees-with-color/bee-A1DF.svg","response":0,"trial_type":"image-button-response","trial_index":127,"time_elapsed":623012,"internal_node_id":"0.0-4.0-0.60","subject_id":"6061e47ea7611d41855205b9","study_id":"6197b3f67c2b5cd3b6d9596a","session_id":"6197b9f026a6436e8bc0ff6b","condition":"full-information","relevant_dimensions":["wings","pattern"],"bee_group":{"antennae":"X","wings":"2","pattern":"S","legs":"X"},"action":"harvest","summary":"good-harvest","bonus":0.880000000000001},{"rt":436.90000000596046,"stimulus":"\n                    <p><b>Action: <em>harvest</em></b></p>\n                    <p>This is the bee that you just saw.</p>\n                    <img src=\"bees-with-color/bee-A1DF.svg\" width=\"200\">\n                    <p><span class=\"greenText\"><b>Successful harvest!</b></span><br>Your pay has increased by $0.02. Your bonus pay is now $0.86.</p>\n            ","response":0,"trial_type":"html-button-response","trial_index":128,"time_elapsed":623450,"internal_node_id":"0.0-4.0-1.60","subject_id":"6061e47ea7611d41855205b9","study_id":"6197b3f67c2b5cd3b6d9596a","session_id":"6197b9f026a6436e8bc0ff6b","condition":"full-information","relevant_dimensions":["wings","pattern"],"bee_group":{"antennae":"X","wings":"2","pattern":"S","legs":"X"},"bonus":0.880000000000001},{"rt":1565.5999999940395,"stimulus":"bees-with-color/bee-B2SF.svg","response":0,"trial_type":"image-button-response","trial_index":129,"time_elapsed":625016,"internal_node_id":"0.0-4.0-0.61","subject_id":"6061e47ea7611d41855205b9","study_id":"6197b3f67c2b5cd3b6d9596a","session_id":"6197b9f026a6436e8bc0ff6b","condition":"full-information","relevant_dimensions":["wings","pattern"],"bee_group":{"antennae":"X","wings":"2","pattern":"S","legs":"X"},"action":"harvest","summary":"bad-harvest","bonus":0.880000000000001},{"rt":798.2999999970198,"stimulus":"\n                    <p><b>Action: <em>harvest</em></b></p>\n                    <p>This is the bee that you just saw.</p>\n                    <img src=\"bees-with-color/bee-B2SF.svg\" width=\"200\">\n                    <p><span class=\"redText\">Bad choice, the bee was angry.</span><br><b>You have been stung!</b><br>Your pay has been decreased by $0.10. Your bonus pay is now $0.76.</p>\n            ","response":0,"trial_type":"html-button-response","trial_index":130,"time_elapsed":625815,"internal_node_id":"0.0-4.0-1.61","subject_id":"6061e47ea7611d41855205b9","study_id":"6197b3f67c2b5cd3b6d9596a","session_id":"6197b9f026a6436e8bc0ff6b","condition":"full-information","relevant_dimensions":["wings","pattern"],"bee_group":{"antennae":"X","wings":"2","pattern":"S","legs":"X"},"bonus":0.880000000000001},{"rt":3852.7999999970198,"stimulus":"bees-with-color/bee-A1DM.svg","response":1,"trial_type":"image-button-response","trial_index":131,"time_elapsed":629669,"internal_node_id":"0.0-4.0-0.62","subject_id":"6061e47ea7611d41855205b9","study_id":"6197b3f67c2b5cd3b6d9596a","session_id":"6197b9f026a6436e8bc0ff6b","condition":"full-information","relevant_dimensions":["wings","pattern"],"bee_group":{"antennae":"X","wings":"2","pattern":"S","legs":"X"},"action":"avoid","summary":"bad-avoid","bonus":0.880000000000001},{"rt":665.5,"stimulus":"\n                    <p><b>Action: <em>avoid</em></b></p>\n                    <p>This is the bee that you just saw.</p>\n                    <img src=\"bees-with-color/bee-A1DM.svg\" width=\"200\">\n                    <p><span class=\"redText\">Bad choice,</span> the bee was friendly.<br>Your bonus pay is unchanged, and remains at $0.76.</p>\n            ","response":0,"trial_type":"html-button-response","trial_index":132,"time_elapsed":630336,"internal_node_id":"0.0-4.0-1.62","subject_id":"6061e47ea7611d41855205b9","study_id":"6197b3f67c2b5cd3b6d9596a","session_id":"6197b9f026a6436e8bc0ff6b","condition":"full-information","relevant_dimensions":["wings","pattern"],"bee_group":{"antennae":"X","wings":"2","pattern":"S","legs":"X"},"bonus":0.880000000000001},{"rt":1745.7999999970198,"stimulus":"bees-with-color/bee-B2SM.svg","response":1,"trial_type":"image-button-response","trial_index":133,"time_elapsed":632083,"internal_node_id":"0.0-4.0-0.63","subject_id":"6061e47ea7611d41855205b9","study_id":"6197b3f67c2b5cd3b6d9596a","session_id":"6197b9f026a6436e8bc0ff6b","condition":"full-information","relevant_dimensions":["wings","pattern"],"bee_group":{"antennae":"X","wings":"2","pattern":"S","legs":"X"},"action":"avoid","summary":"good-avoid","bonus":0.880000000000001},{"rt":533.4000000059605,"stimulus":"\n                    <p><b>Action: <em>avoid</em></b></p>\n                    <p>This is the bee that you just saw.</p>\n                    <img src=\"bees-with-color/bee-B2SM.svg\" width=\"200\">\n                    <p><span class=\"greenText\">Good choice!</span>  This bee would have stung you.<br>Your bonus pay is unchanged, and remains at $0.76.</p>\n            ","response":0,"trial_type":"html-button-response","trial_index":134,"time_elapsed":632617,"internal_node_id":"0.0-4.0-1.63","subject_id":"6061e47ea7611d41855205b9","study_id":"6197b3f67c2b5cd3b6d9596a","session_id":"6197b9f026a6436e8bc0ff6b","condition":"full-information","relevant_dimensions":["wings","pattern"],"bee_group":{"antennae":"X","wings":"2","pattern":"S","legs":"X"},"bonus":0.880000000000001},{"rt":10173,"stimulus":"You have completed the first part of this experiment.<br><br>You will now begin a shorter second part, in which you will receive no feedback.<br>The same rules regarding bonus pay apply.<br><br>Press any key to begin.","response":"enter","trial_type":"html-keyboard-response","trial_index":135,"time_elapsed":642791,"internal_node_id":"0.0-5.0","subject_id":"6061e47ea7611d41855205b9","study_id":"6197b3f67c2b5cd3b6d9596a","session_id":"6197b9f026a6436e8bc0ff6b","condition":"full-information","relevant_dimensions":["wings","pattern"],"bee_group":{"antennae":"X","wings":"2","pattern":"S","legs":"X"},"bonus":0.880000000000001},{"rt":3601.2999999970198,"stimulus":"bees-with-color/bee-A2SF.svg","response":0,"trial_type":"image-button-response","trial_index":136,"time_elapsed":646399,"internal_node_id":"0.0-6.0-0.0","subject_id":"6061e47ea7611d41855205b9","study_id":"6197b3f67c2b5cd3b6d9596a","session_id":"6197b9f026a6436e8bc0ff6b","condition":"full-information","relevant_dimensions":["wings","pattern"],"bee_group":{"antennae":"X","wings":"2","pattern":"S","legs":"X"},"bonus":0.880000000000001},{"rt":4131.5999999940395,"stimulus":"bees-with-color/bee-A2DM.svg","response":0,"trial_type":"image-button-response","trial_index":137,"time_elapsed":650532,"internal_node_id":"0.0-6.0-0.1","subject_id":"6061e47ea7611d41855205b9","study_id":"6197b3f67c2b5cd3b6d9596a","session_id":"6197b9f026a6436e8bc0ff6b","condition":"full-information","relevant_dimensions":["wings","pattern"],"bee_group":{"antennae":"X","wings":"2","pattern":"S","legs":"X"},"bonus":0.880000000000001},{"rt":4034.2000000029802,"stimulus":"bees-with-color/bee-B2DM.svg","response":0,"trial_type":"image-button-response","trial_index":138,"time_elapsed":654568,"internal_node_id":"0.0-6.0-0.2","subject_id":"6061e47ea7611d41855205b9","study_id":"6197b3f67c2b5cd3b6d9596a","session_id":"6197b9f026a6436e8bc0ff6b","condition":"full-information","relevant_dimensions":["wings","pattern"],"bee_group":{"antennae":"X","wings":"2","pattern":"S","legs":"X"},"bonus":0.880000000000001},{"rt":6016.5,"stimulus":"bees-with-color/bee-B1DF.svg","response":0,"trial_type":"image-button-response","trial_index":139,"time_elapsed":660586,"internal_node_id":"0.0-6.0-0.3","subject_id":"6061e47ea7611d41855205b9","study_id":"6197b3f67c2b5cd3b6d9596a","session_id":"6197b9f026a6436e8bc0ff6b","condition":"full-information","relevant_dimensions":["wings","pattern"],"bee_group":{"antennae":"X","wings":"2","pattern":"S","legs":"X"},"bonus":0.880000000000001},{"rt":945.5,"stimulus":"bees-with-color/bee-B1SM.svg","response":1,"trial_type":"image-button-response","trial_index":140,"time_elapsed":661533,"internal_node_id":"0.0-6.0-0.4","subject_id":"6061e47ea7611d41855205b9","study_id":"6197b3f67c2b5cd3b6d9596a","session_id":"6197b9f026a6436e8bc0ff6b","condition":"full-information","relevant_dimensions":["wings","pattern"],"bee_group":{"antennae":"X","wings":"2","pattern":"S","legs":"X"},"bonus":0.880000000000001},{"rt":1173.2000000029802,"stimulus":"bees-with-color/bee-A1DM.svg","response":0,"trial_type":"image-button-response","trial_index":141,"time_elapsed":662707,"internal_node_id":"0.0-6.0-0.5","subject_id":"6061e47ea7611d41855205b9","study_id":"6197b3f67c2b5cd3b6d9596a","session_id":"6197b9f026a6436e8bc0ff6b","condition":"full-information","relevant_dimensions":["wings","pattern"],"bee_group":{"antennae":"X","wings":"2","pattern":"S","legs":"X"},"bonus":0.880000000000001},{"rt":1156.2999999970198,"stimulus":"bees-with-color/bee-B1SF.svg","response":0,"trial_type":"image-button-response","trial_index":142,"time_elapsed":663865,"internal_node_id":"0.0-6.0-0.6","subject_id":"6061e47ea7611d41855205b9","study_id":"6197b3f67c2b5cd3b6d9596a","session_id":"6197b9f026a6436e8bc0ff6b","condition":"full-information","relevant_dimensions":["wings","pattern"],"bee_group":{"antennae":"X","wings":"2","pattern":"S","legs":"X"},"bonus":0.880000000000001},{"rt":1261.5,"stimulus":"bees-with-color/bee-B2SM.svg","response":1,"trial_type":"image-button-response","trial_index":143,"time_elapsed":665128,"internal_node_id":"0.0-6.0-0.7","subject_id":"6061e47ea7611d41855205b9","study_id":"6197b3f67c2b5cd3b6d9596a","session_id":"6197b9f026a6436e8bc0ff6b","condition":"full-information","relevant_dimensions":["wings","pattern"],"bee_group":{"antennae":"X","wings":"2","pattern":"S","legs":"X"},"bonus":0.880000000000001},{"rt":1369.2000000029802,"stimulus":"bees-with-color/bee-A1SM.svg","response":1,"trial_type":"image-button-response","trial_index":144,"time_elapsed":666498,"internal_node_id":"0.0-6.0-0.8","subject_id":"6061e47ea7611d41855205b9","study_id":"6197b3f67c2b5cd3b6d9596a","session_id":"6197b9f026a6436e8bc0ff6b","condition":"full-information","relevant_dimensions":["wings","pattern"],"bee_group":{"antennae":"X","wings":"2","pattern":"S","legs":"X"},"bonus":0.880000000000001},{"rt":1378.5999999940395,"stimulus":"bees-with-color/bee-B1DM.svg","response":0,"trial_type":"image-button-response","trial_index":145,"time_elapsed":667878,"internal_node_id":"0.0-6.0-0.9","subject_id":"6061e47ea7611d41855205b9","study_id":"6197b3f67c2b5cd3b6d9596a","session_id":"6197b9f026a6436e8bc0ff6b","condition":"full-information","relevant_dimensions":["wings","pattern"],"bee_group":{"antennae":"X","wings":"2","pattern":"S","legs":"X"},"bonus":0.880000000000001},{"rt":1313.6000000089407,"stimulus":"bees-with-color/bee-B2DF.svg","response":0,"trial_type":"image-button-response","trial_index":146,"time_elapsed":669194,"internal_node_id":"0.0-6.0-0.10","subject_id":"6061e47ea7611d41855205b9","study_id":"6197b3f67c2b5cd3b6d9596a","session_id":"6197b9f026a6436e8bc0ff6b","condition":"full-information","relevant_dimensions":["wings","pattern"],"bee_group":{"antennae":"X","wings":"2","pattern":"S","legs":"X"},"bonus":0.880000000000001},{"rt":876.4000000059605,"stimulus":"bees-with-color/bee-B2SF.svg","response":1,"trial_type":"image-button-response","trial_index":147,"time_elapsed":670071,"internal_node_id":"0.0-6.0-0.11","subject_id":"6061e47ea7611d41855205b9","study_id":"6197b3f67c2b5cd3b6d9596a","session_id":"6197b9f026a6436e8bc0ff6b","condition":"full-information","relevant_dimensions":["wings","pattern"],"bee_group":{"antennae":"X","wings":"2","pattern":"S","legs":"X"},"bonus":0.880000000000001},{"rt":1430.7000000029802,"stimulus":"bees-with-color/bee-A2SM.svg","response":1,"trial_type":"image-button-response","trial_index":148,"time_elapsed":671504,"internal_node_id":"0.0-6.0-0.12","subject_id":"6061e47ea7611d41855205b9","study_id":"6197b3f67c2b5cd3b6d9596a","session_id":"6197b9f026a6436e8bc0ff6b","condition":"full-information","relevant_dimensions":["wings","pattern"],"bee_group":{"antennae":"X","wings":"2","pattern":"S","legs":"X"},"bonus":0.880000000000001},{"rt":1064.5,"stimulus":"bees-with-color/bee-A1SF.svg","response":0,"trial_type":"image-button-response","trial_index":149,"time_elapsed":672570,"internal_node_id":"0.0-6.0-0.13","subject_id":"6061e47ea7611d41855205b9","study_id":"6197b3f67c2b5cd3b6d9596a","session_id":"6197b9f026a6436e8bc0ff6b","condition":"full-information","relevant_dimensions":["wings","pattern"],"bee_group":{"antennae":"X","wings":"2","pattern":"S","legs":"X"},"bonus":0.880000000000001},{"rt":1834.3999999910593,"stimulus":"bees-with-color/bee-A2DF.svg","response":1,"trial_type":"image-button-response","trial_index":150,"time_elapsed":674406,"internal_node_id":"0.0-6.0-0.14","subject_id":"6061e47ea7611d41855205b9","study_id":"6197b3f67c2b5cd3b6d9596a","session_id":"6197b9f026a6436e8bc0ff6b","condition":"full-information","relevant_dimensions":["wings","pattern"],"bee_group":{"antennae":"X","wings":"2","pattern":"S","legs":"X"},"bonus":0.880000000000001},{"rt":795.3999999910593,"stimulus":"bees-with-color/bee-A1DF.svg","response":0,"trial_type":"image-button-response","trial_index":151,"time_elapsed":675202,"internal_node_id":"0.0-6.0-0.15","subject_id":"6061e47ea7611d41855205b9","study_id":"6197b3f67c2b5cd3b6d9596a","session_id":"6197b9f026a6436e8bc0ff6b","condition":"full-information","relevant_dimensions":["wings","pattern"],"bee_group":{"antennae":"X","wings":"2","pattern":"S","legs":"X"},"bonus":0.880000000000001},{"rt":912.6999999880791,"stimulus":"bees-with-color/bee-B1DF.svg","response":0,"trial_type":"image-button-response","trial_index":152,"time_elapsed":676117,"internal_node_id":"0.0-6.0-0.16","subject_id":"6061e47ea7611d41855205b9","study_id":"6197b3f67c2b5cd3b6d9596a","session_id":"6197b9f026a6436e8bc0ff6b","condition":"full-information","relevant_dimensions":["wings","pattern"],"bee_group":{"antennae":"X","wings":"2","pattern":"S","legs":"X"},"bonus":0.880000000000001},{"rt":930.5999999940395,"stimulus":"bees-with-color/bee-A2SM.svg","response":1,"trial_type":"image-button-response","trial_index":153,"time_elapsed":677048,"internal_node_id":"0.0-6.0-0.17","subject_id":"6061e47ea7611d41855205b9","study_id":"6197b3f67c2b5cd3b6d9596a","session_id":"6197b9f026a6436e8bc0ff6b","condition":"full-information","relevant_dimensions":["wings","pattern"],"bee_group":{"antennae":"X","wings":"2","pattern":"S","legs":"X"},"bonus":0.880000000000001},{"rt":960.7999999970198,"stimulus":"bees-with-color/bee-B1SM.svg","response":1,"trial_type":"image-button-response","trial_index":154,"time_elapsed":678011,"internal_node_id":"0.0-6.0-0.18","subject_id":"6061e47ea7611d41855205b9","study_id":"6197b3f67c2b5cd3b6d9596a","session_id":"6197b9f026a6436e8bc0ff6b","condition":"full-information","relevant_dimensions":["wings","pattern"],"bee_group":{"antennae":"X","wings":"2","pattern":"S","legs":"X"},"bonus":0.880000000000001},{"rt":1317.7999999970198,"stimulus":"bees-with-color/bee-A1DF.svg","response":0,"trial_type":"image-button-response","trial_index":155,"time_elapsed":679330,"internal_node_id":"0.0-6.0-0.19","subject_id":"6061e47ea7611d41855205b9","study_id":"6197b3f67c2b5cd3b6d9596a","session_id":"6197b9f026a6436e8bc0ff6b","condition":"full-information","relevant_dimensions":["wings","pattern"],"bee_group":{"antennae":"X","wings":"2","pattern":"S","legs":"X"},"bonus":0.880000000000001},{"rt":1532.6000000089407,"stimulus":"bees-with-color/bee-B2SF.svg","response":0,"trial_type":"image-button-response","trial_index":156,"time_elapsed":680864,"internal_node_id":"0.0-6.0-0.20","subject_id":"6061e47ea7611d41855205b9","study_id":"6197b3f67c2b5cd3b6d9596a","session_id":"6197b9f026a6436e8bc0ff6b","condition":"full-information","relevant_dimensions":["wings","pattern"],"bee_group":{"antennae":"X","wings":"2","pattern":"S","legs":"X"},"bonus":0.880000000000001},{"rt":1238.5999999940395,"stimulus":"bees-with-color/bee-A1DM.svg","response":1,"trial_type":"image-button-response","trial_index":157,"time_elapsed":682104,"internal_node_id":"0.0-6.0-0.21","subject_id":"6061e47ea7611d41855205b9","study_id":"6197b3f67c2b5cd3b6d9596a","session_id":"6197b9f026a6436e8bc0ff6b","condition":"full-information","relevant_dimensions":["wings","pattern"],"bee_group":{"antennae":"X","wings":"2","pattern":"S","legs":"X"},"bonus":0.880000000000001},{"rt":1193.5999