[{"success":true,"trial_type":"fullscreen","trial_index":0,"time_elapsed":5482,"internal_node_id":"0.0-0.0","subject_id":"600a450ae3f1781b223ee066","study_id":"60edd13110225f80f9f3709b","session_id":"6196c7043d5fe63ce5441fe0","condition":"contingent","relevant_dimensions":["pattern","legs"],"bee_group":{"antennae":"X","wings":"X","pattern":"D","legs":"F"},"bonus":1.3400000000000014},{"success":true,"timeout":false,"failed_images":[],"failed_audio":[],"failed_video":[],"trial_type":"preload","trial_index":1,"time_elapsed":7128,"internal_node_id":"0.0-1.0","subject_id":"600a450ae3f1781b223ee066","study_id":"60edd13110225f80f9f3709b","session_id":"6196c7043d5fe63ce5441fe0","condition":"contingent","relevant_dimensions":["pattern","legs"],"bee_group":{"antennae":"X","wings":"X","pattern":"D","legs":"F"},"bonus":1.3400000000000014},{"rt":2690.4000000003725,"stimulus":"Welcome! Press any key to begin.","response":" ","trial_type":"html-keyboard-response","trial_index":2,"time_elapsed":9819,"internal_node_id":"0.0-2.0","subject_id":"600a450ae3f1781b223ee066","study_id":"60edd13110225f80f9f3709b","session_id":"6196c7043d5fe63ce5441fe0","condition":"contingent","relevant_dimensions":["pattern","legs"],"bee_group":{"antennae":"X","wings":"X","pattern":"D","legs":"F"},"bonus":1.3400000000000014},{"view_history":[{"page_index":0,"viewing_time":12876.900000000373},{"page_index":1,"viewing_time":15680.5},{"page_index":2,"viewing_time":15842.5},{"page_index":3,"viewing_time":16028.599999999627},{"page_index":4,"viewing_time":6111},{"page_index":5,"viewing_time":11960.099999999627},{"page_index":6,"viewing_time":9020.400000000373},{"page_index":7,"viewing_time":15459},{"page_index":8,"viewing_time":2773.800000000745},{"page_index":7,"viewing_time":1600.5},{"page_index":8,"viewing_time":3279.199999999255},{"page_index":9,"viewing_time":3317.699999999255},{"page_index":10,"viewing_time":3065.2000000011176},{"page_index":11,"viewing_time":8828.5},{"page_index":12,"viewing_time":13036.699999999255},{"page_index":13,"viewing_time":1185.800000000745},{"page_index":14,"viewing_time":2470.199999999255}],"rt":142537.40000000037,"trial_type":"instructions","trial_index":3,"time_elapsed":152357,"internal_node_id":"0.0-3.0-0.0","subject_id":"600a450ae3f1781b223ee066","study_id":"60edd13110225f80f9f3709b","session_id":"6196c7043d5fe63ce5441fe0","condition":"contingent","relevant_dimensions":["pattern","legs"],"bee_group":{"antennae":"X","wings":"X","pattern":"D","legs":"F"},"bonus":1.3400000000000014},{"rt":11897.400000000373,"response":{"Q0":["Two or six legs","Stripes or spots on body","Single or double wings","Antennae or no antennae"]},"question_order":[0],"trial_type":"survey-multi-select","trial_index":4,"time_elapsed":164257,"internal_node_id":"0.0-3.0-1.0","subject_id":"600a450ae3f1781b223ee066","study_id":"60edd13110225f80f9f3709b","session_id":"6196c7043d5fe63ce5441fe0","condition":"contingent","relevant_dimensions":["pattern","legs"],"bee_group":{"antennae":"X","wings":"X","pattern":"D","legs":"F"},"correct":true,"bonus":1.3400000000000014},{"rt":28610.200000001118,"response":{"Q1":"No.","Q2":"Based on the four features of the bee.","Q3":"You do not learn if it was friendly or dangerous, and do not alter your bonus."},"question_order":[0,1,2],"trial_type":"survey-multi-choice","trial_index":5,"time_elapsed":192868,"internal_node_id":"0.0-3.0-2.0","subject_id":"600a450ae3f1781b223ee066","study_id":"60edd13110225f80f9f3709b","session_id":"6196c7043d5fe63ce5441fe0","condition":"contingent","relevant_dimensions":["pattern","legs"],"bee_group":{"antennae":"X","wings":"X","pattern":"D","legs":"F"},"correct":true,"bonus":1.3400000000000014},{"rt":1972.199999999255,"stimulus":"<p>Congrats, you got everything right<br>When you're ready, click the button below to continue to the experiment.</p>","response":0,"trial_type":"html-button-response","trial_index":6,"time_elapsed":194842,"internal_node_id":"0.0-3.0-3.0","subject_id":"600a450ae3f1781b223ee066","study_id":"60edd13110225f80f9f3709b","session_id":"6196c7043d5fe63ce5441fe0","condition":"contingent","relevant_dimensions":["pattern","legs"],"bee_group":{"antennae":"X","wings":"X","pattern":"D","legs":"F"},"bonus":1.3400000000000014},{"rt":4485.499999998137,"stimulus":"bees-with-color/bee-A1SF.svg","response":0,"trial_type":"image-button-response","trial_index":7,"time_elapsed":199329,"internal_node_id":"0.0-4.0-0.0","subject_id":"600a450ae3f1781b223ee066","study_id":"60edd13110225f80f9f3709b","session_id":"6196c7043d5fe63ce5441fe0","condition":"contingent","relevant_dimensions":["pattern","legs"],"bee_group":{"antennae":"X","wings":"X","pattern":"D","legs":"F"},"action":"harvest","summary":"good-harvest","bonus":1.3400000000000014},{"rt":10650.699999999255,"stimulus":"\n                    <p><b>Action: <em>harvest</em></b></p>\n                    <p>This is the bee that you just saw.</p>\n                    <img src=\"bees-with-color/bee-A1SF.svg\" width=\"200\">\n                    <p><span class=\"greenText\"><b>Successful harvest!</b></span><br>Your pay has increased by $0.02. Your bonus pay is now $0.56.</p>\n            ","response":0,"trial_type":"html-button-response","trial_index":8,"time_elapsed":209981,"internal_node_id":"0.0-4.0-1.0","subject_id":"600a450ae3f1781b223ee066","study_id":"60edd13110225f80f9f3709b","session_id":"6196c7043d5fe63ce5441fe0","condition":"contingent","relevant_dimensions":["pattern","legs"],"bee_group":{"antennae":"X","wings":"X","pattern":"D","legs":"F"},"bonus":1.3400000000000014},{"rt":5403.39999999851,"stimulus":"bees-with-color/bee-A2SF.svg","response":0,"trial_type":"image-button-response","trial_index":9,"time_elapsed":215386,"internal_node_id":"0.0-4.0-0.1","subject_id":"600a450ae3f1781b223ee066","study_id":"60edd13110225f80f9f3709b","session_id":"6196c7043d5fe63ce5441fe0","condition":"contingent","relevant_dimensions":["pattern","legs"],"bee_group":{"antennae":"X","wings":"X","pattern":"D","legs":"F"},"action":"harvest","summary":"good-harvest","bonus":1.3400000000000014},{"rt":6794.699999999255,"stimulus":"\n                    <p><b>Action: <em>harvest</em></b></p>\n                    <p>This is the bee that you just saw.</p>\n                    <img src=\"bees-with-color/bee-A2SF.svg\" width=\"200\">\n                    <p><span class=\"greenText\"><b>Successful harvest!</b></span><br>Your pay has increased by $0.02. Your bonus pay is now $0.58.</p>\n            ","response":0,"trial_type":"html-button-response","trial_index":10,"time_elapsed":222183,"internal_node_id":"0.0-4.0-1.1","subject_id":"600a450ae3f1781b223ee066","study_id":"60edd13110225f80f9f3709b","session_id":"6196c7043d5fe63ce5441fe0","condition":"contingent","relevant_dimensions":["pattern","legs"],"bee_group":{"antennae":"X","wings":"X","pattern":"D","legs":"F"},"bonus":1.3400000000000014},{"rt":4085.89999999851,"stimulus":"bees-with-color/bee-A2DF.svg","response":1,"trial_type":"image-button-response","trial_index":11,"time_elapsed":226270,"internal_node_id":"0.0-4.0-0.2","subject_id":"600a450ae3f1781b223ee066","study_id":"60edd13110225f80f9f3709b","session_id":"6196c7043d5fe63ce5441fe0","condition":"contingent","relevant_dimensions":["pattern","legs"],"bee_group":{"antennae":"X","wings":"X","pattern":"D","legs":"F"},"action":"avoid","summary":"good-avoid","bonus":1.3400000000000014},{"rt":4887.39999999851,"stimulus":"\n                    <p><b>Action: <em>avoid</em></b></p>\n                    <p>This is the bee that you just saw.</p>\n                    <img src=\"bees-with-color/bee-A2DF.svg\" width=\"200\">\n                    <p><br>Your bonus pay is unchanged, and remains at $0.58.</p>\n            ","response":0,"trial_type":"html-button-response","trial_index":12,"time_elapsed":231159,"internal_node_id":"0.0-4.0-1.2","subject_id":"600a450ae3f1781b223ee066","study_id":"60edd13110225f80f9f3709b","session_id":"6196c7043d5fe63ce5441fe0","condition":"contingent","relevant_dimensions":["pattern","legs"],"bee_group":{"antennae":"X","wings":"X","pattern":"D","legs":"F"},"bonus":1.3400000000000014},{"rt":2375.699999999255,"stimulus":"bees-with-color/bee-B2SF.svg","response":0,"trial_type":"image-button-response","trial_index":13,"time_elapsed":233536,"internal_node_id":"0.0-4.0-0.3","subject_id":"600a450ae3f1781b223ee066","study_id":"60edd13110225f80f9f3709b","session_id":"6196c7043d5fe63ce5441fe0","condition":"contingent","relevant_dimensions":["pattern","legs"],"bee_group":{"antennae":"X","wings":"X","pattern":"D","legs":"F"},"action":"harvest","summary":"good-harvest","bonus":1.3400000000000014},{"rt":4412.5,"stimulus":"\n                    <p><b>Action: <em>harvest</em></b></p>\n                    <p>This is the bee that you just saw.</p>\n                    <img src=\"bees-with-color/bee-B2SF.svg\" width=\"200\">\n                    <p><span class=\"greenText\"><b>Successful harvest!</b></span><br>Your pay has increased by $0.02. Your bonus pay is now $0.60.</p>\n            ","response":0,"trial_type":"html-button-response","trial_index":14,"time_elapsed":237950,"internal_node_id":"0.0-4.0-1.3","subject_id":"600a450ae3f1781b223ee066","study_id":"60edd13110225f80f9f3709b","session_id":"6196c7043d5fe63ce5441fe0","condition":"contingent","relevant_dimensions":["pattern","legs"],"bee_group":{"antennae":"X","wings":"X","pattern":"D","legs":"F"},"bonus":1.3400000000000014},{"rt":3706,"stimulus":"bees-with-color/bee-B1SF.svg","response":1,"trial_type":"image-button-response","trial_index":15,"time_elapsed":241657,"internal_node_id":"0.0-4.0-0.4","subject_id":"600a450ae3f1781b223ee066","study_id":"60edd13110225f80f9f3709b","session_id":"6196c7043d5fe63ce5441fe0","condition":"contingent","relevant_dimensions":["pattern","legs"],"bee_group":{"antennae":"X","wings":"X","pattern":"D","legs":"F"},"action":"avoid","summary":"bad-avoid","bonus":1.3400000000000014},{"rt":1065.5,"stimulus":"\n                    <p><b>Action: <em>avoid</em></b></p>\n                    <p>This is the bee that you just saw.</p>\n                    <img src=\"bees-with-color/bee-B1SF.svg\" width=\"200\">\n                    <p><br>Your bonus pay is unchanged, and remains at $0.60.</p>\n            ","response":0,"trial_type":"html-button-response","trial_index":16,"time_elapsed":242724,"internal_node_id":"0.0-4.0-1.4","subject_id":"600a450ae3f1781b223ee066","study_id":"60edd13110225f80f9f3709b","session_id":"6196c7043d5fe63ce5441fe0","condition":"contingent","relevant_dimensions":["pattern","legs"],"bee_group":{"antennae":"X","wings":"X","pattern":"D","legs":"F"},"bonus":1.3400000000000014},{"rt":2793.699999999255,"stimulus":"bees-with-color/bee-A1SM.svg","response":0,"trial_type":"image-button-response","trial_index":17,"time_elapsed":245519,"internal_node_id":"0.0-4.0-0.5","subject_id":"600a450ae3f1781b223ee066","study_id":"60edd13110225f80f9f3709b","session_id":"6196c7043d5fe63ce5441fe0","condition":"contingent","relevant_dimensions":["pattern","legs"],"bee_group":{"antennae":"X","wings":"X","pattern":"D","legs":"F"},"action":"harvest","summary":"good-harvest","bonus":1.3400000000000014},{"rt":1353.5,"stimulus":"\n                    <p><b>Action: <em>harvest</em></b></p>\n                    <p>This is the bee that you just saw.</p>\n                    <img src=\"bees-with-color/bee-A1SM.svg\" width=\"200\">\n                    <p><span class=\"greenText\"><b>Successful harvest!</b></span><br>Your pay has increased by $0.02. Your bonus pay is now $0.62.</p>\n            ","response":0,"trial_type":"html-button-response","trial_index":18,"time_elapsed":246874,"internal_node_id":"0.0-4.0-1.5","subject_id":"600a450ae3f1781b223ee066","study_id":"60edd13110225f80f9f3709b","session_id":"6196c7043d5fe63ce5441fe0","condition":"contingent","relevant_dimensions":["pattern","legs"],"bee_group":{"antennae":"X","wings":"X","pattern":"D","legs":"F"},"bonus":1.3400000000000014},{"rt":2077.5,"stimulus":"bees-with-color/bee-B2DF.svg","response":1,"trial_type":"image-button-response","trial_index":19,"time_elapsed":248953,"internal_node_id":"0.0-4.0-0.6","subject_id":"600a450ae3f1781b223ee066","study_id":"60edd13110225f80f9f3709b","session_id":"6196c7043d5fe63ce5441fe0","condition":"contingent","relevant_dimensions":["pattern","legs"],"bee_group":{"antennae":"X","wings":"X","pattern":"D","legs":"F"},"action":"avoid","summary":"good-avoid","bonus":1.3400000000000014},{"rt":910.6000000014901,"stimulus":"\n                    <p><b>Action: <em>avoid</em></b></p>\n                    <p>This is the bee that you just saw.</p>\n                    <img src=\"bees-with-color/bee-B2DF.svg\" width=\"200\">\n                    <p><br>Your bonus pay is unchanged, and remains at $0.62.</p>\n            ","response":0,"trial_type":"html-button-response","trial_index":20,"time_elapsed":249865,"internal_node_id":"0.0-4.0-1.6","subject_id":"600a450ae3f1781b223ee066","study_id":"60edd13110225f80f9f3709b","session_id":"6196c7043d5fe63ce5441fe0","condition":"contingent","relevant_dimensions":["pattern","legs"],"bee_group":{"antennae":"X","wings":"X","pattern":"D","legs":"F"},"bonus":1.3400000000000014},{"rt":3228.099999997765,"stimulus":"bees-with-color/bee-B2SM.svg","response":0,"trial_type":"image-button-response","trial_index":21,"time_elapsed":253094,"internal_node_id":"0.0-4.0-0.7","subject_id":"600a450ae3f1781b223ee066","study_id":"60edd13110225f80f9f3709b","session_id":"6196c7043d5fe63ce5441fe0","condition":"contingent","relevant_dimensions":["pattern","legs"],"bee_group":{"antennae":"X","wings":"X","pattern":"D","legs":"F"},"action":"harvest","summary":"good-harvest","bonus":1.3400000000000014},{"rt":991.5999999977648,"stimulus":"\n                    <p><b>Action: <em>harvest</em></b></p>\n                    <p>This is the bee that you just saw.</p>\n                    <img src=\"bees-with-color/bee-B2SM.svg\" width=\"200\">\n                    <p><span class=\"greenText\"><b>Successful harvest!</b></span><br>Your pay has increased by $0.02. Your bonus pay is now $0.64.</p>\n            ","response":0,"trial_type":"html-button-response","trial_index":22,"time_elapsed":254087,"internal_node_id":"0.0-4.0-1.7","subject_id":"600a450ae3f1781b223ee066","study_id":"60edd13110225f80f9f3709b","session_id":"6196c7043d5fe63ce5441fe0","condition":"contingent","relevant_dimensions":["pattern","legs"],"bee_group":{"antennae":"X","wings":"X","pattern":"D","legs":"F"},"bonus":1.3400000000000014},{"rt":3493.300000000745,"stimulus":"bees-with-color/bee-A1DM.svg","response":1,"trial_type":"image-button-response","trial_index":23,"time_elapsed":257582,"internal_node_id":"0.0-4.0-0.8","subject_id":"600a450ae3f1781b223ee066","study_id":"60edd13110225f80f9f3709b","session_id":"6196c7043d5fe63ce5441fe0","condition":"contingent","relevant_dimensions":["pattern","legs"],"bee_group":{"antennae":"X","wings":"X","pattern":"D","legs":"F"},"action":"avoid","summary":"bad-avoid","bonus":1.3400000000000014},{"rt":919.2999999970198,"stimulus":"\n                    <p><b>Action: <em>avoid</em></b></p>\n                    <p>This is the bee that you just saw.</p>\n                    <img src=\"bees-with-color/bee-A1DM.svg\" width=\"200\">\n                    <p><br>Your bonus pay is unchanged, and remains at $0.64.</p>\n            ","response":0,"trial_type":"html-button-response","trial_index":24,"time_elapsed":258503,"internal_node_id":"0.0-4.0-1.8","subject_id":"600a450ae3f1781b223ee066","study_id":"60edd13110225f80f9f3709b","session_id":"6196c7043d5fe63ce5441fe0","condition":"contingent","relevant_dimensions":["pattern","legs"],"bee_group":{"antennae":"X","wings":"X","pattern":"D","legs":"F"},"bonus":1.3400000000000014},{"rt":3322.199999999255,"stimulus":"bees-with-color/bee-B1DF.svg","response":1,"trial_type":"image-button-response","trial_index":25,"time_elapsed":261826,"internal_node_id":"0.0-4.0-0.9","subject_id":"600a450ae3f1781b223ee066","study_id":"60edd13110225f80f9f3709b","session_id":"6196c7043d5fe63ce5441fe0","condition":"contingent","relevant_dimensions":["pattern","legs"],"bee_group":{"antennae":"X","wings":"X","pattern":"D","legs":"F"},"action":"avoid","summary":"good-avoid","bonus":1.3400000000000014},{"rt":696.3999999985099,"stimulus":"\n                    <p><b>Action: <em>avoid</em></b></p>\n                    <p>This is the bee that you just saw.</p>\n                    <img src=\"bees-with-color/bee-B1DF.svg\" width=\"200\">\n                    <p><br>Your bonus pay is unchanged, and remains at $0.64.</p>\n            ","response":0,"trial_type":"html-button-response","trial_index":26,"time_elapsed":262523,"internal_node_id":"0.0-4.0-1.9","subject_id":"600a450ae3f1781b223ee066","study_id":"60edd13110225f80f9f3709b","session_id":"6196c7043d5fe63ce5441fe0","condition":"contingent","relevant_dimensions":["pattern","legs"],"bee_group":{"antennae":"X","wings":"X","pattern":"D","legs":"F"},"bonus":1.3400000000000014},{"rt":2116.60000000149,"stimulus":"bees-with-color/bee-B1DM.svg","response":0,"trial_type":"image-button-response","trial_index":27,"time_elapsed":264641,"internal_node_id":"0.0-4.0-0.10","subject_id":"600a450ae3f1781b223ee066","study_id":"60edd13110225f80f9f3709b","session_id":"6196c7043d5fe63ce5441fe0","condition":"contingent","relevant_dimensions":["pattern","legs"],"bee_group":{"antennae":"X","wings":"X","pattern":"D","legs":"F"},"action":"harvest","summary":"good-harvest","bonus":1.3400000000000014},{"rt":5125.60000000149,"stimulus":"\n                    <p><b>Action: <em>harvest</em></b></p>\n                    <p>This is the bee that you just saw.</p>\n                    <img src=\"bees-with-color/bee-B1DM.svg\" width=\"200\">\n                    <p><span class=\"greenText\"><b>Successful harvest!</b></span><br>Your pay has increased by $0.02. Your bonus pay is now $0.66.</p>\n            ","response":0,"trial_type":"html-button-response","trial_index":28,"time_elapsed":269768,"internal_node_id":"0.0-4.0-1.10","subject_id":"600a450ae3f1781b223ee066","study_id":"60edd13110225f80f9f3709b","session_id":"6196c7043d5fe63ce5441fe0","condition":"contingent","relevant_dimensions":["pattern","legs"],"bee_group":{"antennae":"X","wings":"X","pattern":"D","legs":"F"},"bonus":1.3400000000000014},{"rt":1737.800000000745,"stimulus":"bees-with-color/bee-A1DF.svg","response":1,"trial_type":"image-button-response","trial_index":29,"time_elapsed":271507,"internal_node_id":"0.0-4.0-0.11","subject_id":"600a450ae3f1781b223ee066","study_id":"60edd13110225f80f9f3709b","session_id":"6196c7043d5fe63ce5441fe0","condition":"contingent","relevant_dimensions":["pattern","legs"],"bee_group":{"antennae":"X","wings":"X","pattern":"D","legs":"F"},"action":"avoid","summary":"good-avoid","bonus":1.3400000000000014},{"rt":973,"stimulus":"\n                    <p><b>Action: <em>avoid</em></b></p>\n                    <p>This is the bee that you just saw.</p>\n                    <img src=\"bees-with-color/bee-A1DF.svg\" width=\"200\">\n                    <p><br>Your bonus pay is unchanged, and remains at $0.66.</p>\n            ","response":0,"trial_type":"html-button-response","trial_index":30,"time_elapsed":272481,"internal_node_id":"0.0-4.0-1.11","subject_id":"600a450ae3f1781b223ee066","study_id":"60edd13110225f80f9f3709b","session_id":"6196c7043d5fe63ce5441fe0","condition":"contingent","relevant_dimensions":["pattern","legs"],"bee_group":{"antennae":"X","wings":"X","pattern":"D","legs":"F"},"bonus":1.3400000000000014},{"rt":2281.900000002235,"stimulus":"bees-with-color/bee-A2DM.svg","response":0,"trial_type":"image-button-response","trial_index":31,"time_elapsed":274764,"internal_node_id":"0.0-4.0-0.12","subject_id":"600a450ae3f1781b223ee066","study_id":"60edd13110225f80f9f3709b","session_id":"6196c7043d5fe63ce5441fe0","condition":"contingent","relevant_dimensions":["pattern","legs"],"bee_group":{"antennae":"X","wings":"X","pattern":"D","legs":"F"},"action":"harvest","summary":"good-harvest","bonus":1.3400000000000014},{"rt":7492.20000000298,"stimulus":"\n                    <p><b>Action: <em>harvest</em></b></p>\n                    <p>This is the bee that you just saw.</p>\n                    <img src=\"bees-with-color/bee-A2DM.svg\" width=\"200\">\n                    <p><span class=\"greenText\"><b>Successful harvest!</b></span><br>Your pay has increased by $0.02. Your bonus pay is now $0.68.</p>\n            ","response":0,"trial_type":"html-button-response","trial_index":32,"time_elapsed":282257,"internal_node_id":"0.0-4.0-1.12","subject_id":"600a450ae3f1781b223ee066","study_id":"60edd13110225f80f9f3709b","session_id":"6196c7043d5fe63ce5441fe0","condition":"contingent","relevant_dimensions":["pattern","legs"],"bee_group":{"antennae":"X","wings":"X","pattern":"D","legs":"F"},"bonus":1.3400000000000014},{"rt":1851.1000000014901,"stimulus":"bees-with-color/bee-B1SM.svg","response":0,"trial_type":"image-button-response","trial_index":33,"time_elapsed":284109,"internal_node_id":"0.0-4.0-0.13","subject_id":"600a450ae3f1781b223ee066","study_id":"60edd13110225f80f9f3709b","session_id":"6196c7043d5fe63ce5441fe0","condition":"contingent","relevant_dimensions":["pattern","legs"],"bee_group":{"antennae":"X","wings":"X","pattern":"D","legs":"F"},"action":"harvest","summary":"good-harvest","bonus":1.3400000000000014},{"rt":2820.2999999970198,"stimulus":"\n                    <p><b>Action: <em>harvest</em></b></p>\n                    <p>This is the bee that you just saw.</p>\n                    <img src=\"bees-with-color/bee-B1SM.svg\" width=\"200\">\n                    <p><span class=\"greenText\"><b>Successful harvest!</b></span><br>Your pay has increased by $0.02. Your bonus pay is now $0.70.</p>\n            ","response":0,"trial_type":"html-button-response","trial_index":34,"time_elapsed":286930,"internal_node_id":"0.0-4.0-1.13","subject_id":"600a450ae3f1781b223ee066","study_id":"60edd13110225f80f9f3709b","session_id":"6196c7043d5fe63ce5441fe0","condition":"contingent","relevant_dimensions":["pattern","legs"],"bee_group":{"antennae":"X","wings":"X","pattern":"D","legs":"F"},"bonus":1.3400000000000014},{"rt":3105.89999999851,"stimulus":"bees-with-color/bee-A2SM.svg","response":0,"trial_type":"image-button-response","trial_index":35,"time_elapsed":290037,"internal_node_id":"0.0-4.0-0.14","subject_id":"600a450ae3f1781b223ee066","study_id":"60edd13110225f80f9f3709b","session_id":"6196c7043d5fe63ce5441fe0","condition":"contingent","relevant_dimensions":["pattern","legs"],"bee_group":{"antennae":"X","wings":"X","pattern":"D","legs":"F"},"action":"harvest","summary":"good-harvest","bonus":1.3400000000000014},{"rt":2259.199999999255,"stimulus":"\n                    <p><b>Action: <em>harvest</em></b></p>\n                    <p>This is the bee that you just saw.</p>\n                    <img src=\"bees-with-color/bee-A2SM.svg\" width=\"200\">\n                    <p><span class=\"greenText\"><b>Successful harvest!</b></span><br>Your pay has increased by $0.02. Your bonus pay is now $0.72.</p>\n            ","response":0,"trial_type":"html-button-response","trial_index":36,"time_elapsed":292297,"internal_node_id":"0.0-4.0-1.14","subject_id":"600a450ae3f1781b223ee066","study_id":"60edd13110225f80f9f3709b","session_id":"6196c7043d5fe63ce5441fe0","condition":"contingent","relevant_dimensions":["pattern","legs"],"bee_group":{"antennae":"X","wings":"X","pattern":"D","legs":"F"},"bonus":1.3400000000000014},{"rt":2693.89999999851,"stimulus":"bees-with-color/bee-B2DM.svg","response":0,"trial_type":"image-button-response","trial_index":37,"time_elapsed":294992,"internal_node_id":"0.0-4.0-0.15","subject_id":"600a450ae3f1781b223ee066","study_id":"60edd13110225f80f9f3709b","session_id":"6196c7043d5fe63ce5441fe0","condition":"contingent","relevant_dimensions":["pattern","legs"],"bee_group":{"antennae":"X","wings":"X","pattern":"D","legs":"F"},"action":"harvest","summary":"good-harvest","bonus":1.3400000000000014},{"rt":1534.3999999985099,"stimulus":"\n                    <p><b>Action: <em>harvest</em></b></p>\n                    <p>This is the bee that you just saw.</p>\n                    <img src=\"bees-with-color/bee-B2DM.svg\" width=\"200\">\n                    <p><span class=\"greenText\"><b>Successful harvest!</b></span><br>Your pay has increased by $0.02. Your bonus pay is now $0.74.</p>\n            ","response":0,"trial_type":"html-button-response","trial_index":38,"time_elapsed":296528,"internal_node_id":"0.0-4.0-1.15","subject_id":"600a450ae3f1781b223ee066","study_id":"60edd13110225f80f9f3709b","session_id":"6196c7043d5fe63ce5441fe0","condition":"contingent","relevant_dimensions":["pattern","legs"],"bee_group":{"antennae":"X","wings":"X","pattern":"D","legs":"F"},"bonus":1.3400000000000014},{"rt":4192.300000000745,"stimulus":"bees-with-color/bee-A2DF.svg","response":0,"trial_type":"image-button-response","trial_index":39,"time_elapsed":300721,"internal_node_id":"0.0-4.0-0.16","subject_id":"600a450ae3f1781b223ee066","study_id":"60edd13110225f80f9f3709b","session_id":"6196c7043d5fe63ce5441fe0","condition":"contingent","relevant_dimensions":["pattern","legs"],"bee_group":{"antennae":"X","wings":"X","pattern":"D","legs":"F"},"action":"harvest","summary":"bad-harvest","bonus":1.3400000000000014},{"rt":10704,"stimulus":"\n                    <p><b>Action: <em>harvest</em></b></p>\n                    <p>This is the bee that you just saw.</p>\n                    <img src=\"bees-with-color/bee-A2DF.svg\" width=\"200\">\n                    <p><span class=\"redText\">Bad choice, the bee was angry.</span><br><b>You have been stung!</b><br>Your pay has been decreased by $0.10. Your bonus pay is now $0.64.</p>\n            ","response":0,"trial_type":"html-button-response","trial_index":40,"time_elapsed":311427,"internal_node_id":"0.0-4.0-1.16","subject_id":"600a450ae3f1781b223ee066","study_id":"60edd13110225f80f9f3709b","session_id":"6196c7043d5fe63ce5441fe0","condition":"contingent","relevant_dimensions":["pattern","legs"],"bee_group":{"antennae":"X","wings":"X","pattern":"D","legs":"F"},"bonus":1.3400000000000014},{"rt":1369.4000000022352,"stimulus":"bees-with-color/bee-B2SM.svg","response":0,"trial_type":"image-button-response","trial_index":41,"time_elapsed":312797,"internal_node_id":"0.0-4.0-0.17","subject_id":"600a450ae3f1781b223ee066","study_id":"60edd13110225f80f9f3709b","session_id":"6196c7043d5fe63ce5441fe0","condition":"contingent","relevant_dimensions":["pattern","legs"],"bee_group":{"antennae":"X","wings":"X","pattern":"D","legs":"F"},"action":"harvest","summary":"good-harvest","bonus":1.3400000000000014},{"rt":644.3999999985099,"stimulus":"\n                    <p><b>Action: <em>harvest</em></b></p>\n                    <p>This is the bee that you just saw.</p>\n                    <img src=\"bees-with-color/bee-B2SM.svg\" width=\"200\">\n                    <p><span class=\"greenText\"><b>Successful harvest!</b></span><br>Your pay has increased by $0.02. Your bonus pay is now $0.66.</p>\n            ","response":0,"trial_type":"html-button-response","trial_index":42,"time_elapsed":313443,"internal_node_id":"0.0-4.0-1.17","subject_id":"600a450ae3f1781b223ee066","study_id":"60edd13110225f80f9f3709b","session_id":"6196c7043d5fe63ce5441fe0","condition":"contingent","relevant_dimensions":["pattern","legs"],"bee_group":{"antennae":"X","wings":"X","pattern":"D","legs":"F"},"bonus":1.3400000000000014},{"rt":1367.199999999255,"stimulus":"bees-with-color/bee-A1DM.svg","response":0,"trial_type":"image-button-response","trial_index":43,"time_elapsed":314811,"internal_node_id":"0.0-4.0-0.18","subject_id":"600a450ae3f1781b223ee066","study_id":"60edd13110225f80f9f3709b","session_id":"6196c7043d5fe63ce5441fe0","condition":"contingent","relevant_dimensions":["pattern","legs"],"bee_group":{"antennae":"X","wings":"X","pattern":"D","legs":"F"},"action":"harvest","summary":"good-harvest","bonus":1.3400000000000014},{"rt":853.2000000029802,"stimulus":"\n                    <p><b>Action: <em>harvest</em></b></p>\n                    <p>This is the bee that you just saw.</p>\n                    <img src=\"bees-with-color/bee-A1DM.svg\" width=\"200\">\n                    <p><span class=\"greenText\"><b>Successful harvest!</b></span><br>Your pay has increased by $0.02. Your bonus pay is now $0.68.</p>\n            ","response":0,"trial_type":"html-button-response","trial_index":44,"time_elapsed":315665,"internal_node_id":"0.0-4.0-1.18","subject_id":"600a450ae3f1781b223ee066","study_id":"60edd13110225f80f9f3709b","session_id":"6196c7043d5fe63ce5441fe0","condition":"contingent","relevant_dimensions":["pattern","legs"],"bee_group":{"antennae":"X","wings":"X","pattern":"D","legs":"F"},"bonus":1.3400000000000014},{"rt":1365.699999999255,"stimulus":"bees-with-color/bee-A1SM.svg","response":0,"trial_type":"image-button-response","trial_index":45,"time_elapsed":317031,"internal_node_id":"0.0-4.0-0.19","subject_id":"600a450ae3f1781b223ee066","study_id":"60edd13110225f80f9f3709b","session_id":"6196c7043d5fe63ce5441fe0","condition":"contingent","relevant_dimensions":["pattern","legs"],"bee_group":{"antennae":"X","wings":"X","pattern":"D","legs":"F"},"action":"harvest","summary":"good-harvest","bonus":1.3400000000000014},{"rt":754,"stimulus":"\n                    <p><b>Action: <em>harvest</em></b></p>\n                    <p>This is the bee that you just saw.</p>\n                    <img src=\"bees-with-color/bee-A1SM.svg\" width=\"200\">\n                    <p><span class=\"greenText\"><b>Successful harvest!</b></span><br>Your pay has increased by $0.02. Your bonus pay is now $0.70.</p>\n            ","response":0,"trial_type":"html-button-response","trial_index":46,"time_elapsed":317786,"internal_node_id":"0.0-4.0-1.19","subject_id":"600a450ae3f1781b223ee066","study_id":"60edd13110225f80f9f3709b","session_id":"6196c7043d5fe63ce5441fe0","condition":"contingent","relevant_dimensions":["pattern","legs"],"bee_group":{"antennae":"X","wings":"X","pattern":"D","legs":"F"},"bonus":1.3400000000000014},{"rt":3421.300000000745,"stimulus":"bees-with-color/bee-A1SF.svg","response":0,"trial_type":"image-button-response","trial_index":47,"time_elapsed":321209,"internal_node_id":"0.0-4.0-0.20","subject_id":"600a450ae3f1781b223ee066","study_id":"60edd13110225f80f9f3709b","session_id":"6196c7043d5fe63ce5441fe0","condition":"contingent","relevant_dimensions":["pattern","legs"],"bee_group":{"antennae":"X","wings":"X","pattern":"D","legs":"F"},"action":"harvest","summary":"good-harvest","bonus":1.3400000000000014},{"rt":792.2999999970198,"stimulus":"\n                    <p><b>Action: <em>harvest</em></b></p>\n                    <p>This is the bee that you just saw.</p>\n                    <img src=\"bees-with-color/bee-A1SF.svg\" width=\"200\">\n                    <p><span class=\"greenText\"><b>Successful harvest!</b></span><br>Your pay has increased by $0.02. Your bonus pay is now $0.72.</p>\n            ","response":0,"trial_type":"html-button-response","trial_index":48,"time_elapsed":322002,"internal_node_id":"0.0-4.0-1.20","subject_id":"600a450ae3f1781b223ee066","study_id":"60edd13110225f80f9f3709b","session_id":"6196c7043d5fe63ce5441fe0","condition":"contingent","relevant_dimensions":["pattern","legs"],"bee_group":{"antennae":"X","wings":"X","pattern":"D","legs":"F"},"bonus":1.3400000000000014},{"rt":2113.2000000029802,"stimulus":"bees-with-color/bee-A2SM.svg","response":0,"trial_type":"image-button-response","trial_index":49,"time_elapsed":324116,"internal_node_id":"0.0-4.0-0.21","subject_id":"600a450ae3f1781b223ee066","study_id":"60edd13110225f80f9f3709b","session_id":"6196c7043d5fe63ce5441fe0","condition":"contingent","relevant_dimensions":["pattern","legs"],"bee_group":{"antennae":"X","wings":"X","pattern":"D","legs":"F"},"action":"harvest","summary":"good-harvest","bonus":1.3400000000000014},{"rt":711.3000000007451,"stimulus":"\n                    <p><b>Action: <em>harvest</em></b></p>\n                    <p>This is the bee that you just saw.</p>\n                    <img src=\"bees-with-color/bee-A2SM.svg\" width=\"200\">\n                    <p><span class=\"greenText\"><b>Successful harvest!</b></span><br>Your pay has increased by $0.02. Your bonus pay is now $0.74.</p>\n            ","response":0,"trial_type":"html-button-response","trial_index":50,"time_elapsed":324828,"internal_node_id":"0.0-4.0-1.21","subject_id":"600a450ae3f1781b223ee066","study_id":"60edd13110225f80f9f3709b","session_id":"6196c7043d5fe63ce5441fe0","condition":"contingent","relevant_dimensions":["pattern","legs"],"bee_group":{"antennae":"X","wings":"X","pattern":"D","legs":"F"},"bonus":1.3400000000000014},{"rt":4176.10000000149,"stimulus":"bees-with-color/bee-B1DM.svg","response":0,"trial_type":"image-button-response","trial_index":51,"time_elapsed":329006,"internal_node_id":"0.0-4.0-0.22","subject_id":"600a450ae3f1781b223ee066","study_id":"60edd13110225f80f9f3709b","session_id":"6196c7043d5fe63ce5441fe0","condition":"contingent","relevant_dimensions":["pattern","legs"],"bee_group":{"antennae":"X","wings":"X","pattern":"D","legs":"F"},"action":"harvest","summary":"good-harvest","bonus":1.3400000000000014},{"rt":802.9000000022352,"stimulus":"\n                    <p><b>Action: <em>harvest</em></b></p>\n                    <p>This is the bee that you just saw.</p>\n                    <img src=\"bees-with-color/bee-B1DM.svg\" width=\"200\">\n                    <p><span class=\"greenText\"><b>Successful harvest!</b></span><br>Your pay has increased by $0.02. Your bonus pay is now $0.76.</p>\n            ","response":0,"trial_type":"html-button-response","trial_index":52,"time_elapsed":329809,"internal_node_id":"0.0-4.0-1.22","subject_id":"600a450ae3f1781b223ee066","study_id":"60edd13110225f80f9f3709b","session_id":"6196c7043d5fe63ce5441fe0","condition":"contingent","relevant_dimensions":["pattern","legs"],"bee_group":{"antennae":"X","wings":"X","pattern":"D","legs":"F"},"bonus":1.3400000000000014},{"rt":2391.89999999851,"stimulus":"bees-with-color/bee-B2DF.svg","response":0,"trial_type":"image-button-response","trial_index":53,"time_elapsed":332203,"internal_node_id":"0.0-4.0-0.23","subject_id":"600a450ae3f1781b223ee066","study_id":"60edd13110225f80f9f3709b","session_id":"6196c7043d5fe63ce5441fe0","condition":"contingent","relevant_dimensions":["pattern","legs"],"bee_group":{"antennae":"X","wings":"X","pattern":"D","legs":"F"},"action":"harvest","summary":"bad-harvest","bonus":1.3400000000000014},{"rt":5144.300000000745,"stimulus":"\n                    <p><b>Action: <em>harvest</em></b></p>\n                    <p>This is the bee that you just saw.</p>\n                    <img src=\"bees-with-color/bee-B2DF.svg\" width=\"200\">\n                    <p><span class=\"redText\">Bad choice, the bee was angry.</span><br><b>You have been stung!</b><br>Your pay has been decreased by $0.10. Your bonus pay is now $0.66.</p>\n            ","response":0,"trial_type":"html-button-response","trial_index":54,"time_elapsed":337348,"internal_node_id":"0.0-4.0-1.23","subject_id":"600a450ae3f1781b223ee066","study_id":"60edd13110225f80f9f3709b","session_id":"6196c7043d5fe63ce5441fe0","condition":"contingent","relevant_dimensions":["pattern","legs"],"bee_group":{"antennae":"X","wings":"X","pattern":"D","legs":"F"},"bonus":1.3400000000000014},{"rt":1977.300000000745,"stimulus":"bees-with-color/bee-B2DM.svg","response":0,"trial_type":"image-button-response","trial_index":55,"time_elapsed":339327,"internal_node_id":"0.0-4.0-0.24","subject_id":"600a450ae3f1781b223ee066","study_id":"60edd13110225f80f9f3709b","session_id":"6196c7043d5fe63ce5441fe0","condition":"contingent","relevant_dimensions":["pattern","legs"],"bee_group":{"antennae":"X","wings":"X","pattern":"D","legs":"F"},"action":"harvest","summary":"good-harvest","bonus":1.3400000000000014},{"rt":867.3000000007451,"stimulus":"\n                    <p><b>Action: <em>harvest</em></b></p>\n                    <p>This is the bee that you just saw.</p>\n                    <img src=\"bees-with-color/bee-B2DM.svg\" width=\"200\">\n                    <p><span class=\"greenText\"><b>Successful harvest!</b></span><br>Your pay has increased by $0.02. Your bonus pay is now $0.68.</p>\n            ","response":0,"trial_type":"html-button-response","trial_index":56,"time_elapsed":340195,"internal_node_id":"0.0-4.0-1.24","subject_id":"600a450ae3f1781b223ee066","study_id":"60edd13110225f80f9f3709b","session_id":"6196c7043d5fe63ce5441fe0","condition":"contingent","relevant_dimensions":["pattern","legs"],"bee_group":{"antennae":"X","wings":"X","pattern":"D","legs":"F"},"bonus":1.3400000000000014},{"rt":2739.599999997765,"stimulus":"bees-with-color/bee-B1DF.svg","response":0,"trial_type":"image-button-response","trial_index":57,"time_elapsed":342936,"internal_node_id":"0.0-4.0-0.25","subject_id":"600a450ae3f1781b223ee066","study_id":"60edd13110225f80f9f3709b","session_id":"6196c7043d5fe63ce5441fe0","condition":"contingent","relevant_dimensions":["pattern","legs"],"bee_group":{"antennae":"X","wings":"X","pattern":"D","legs":"F"},"action":"harvest","summary":"bad-harvest","bonus":1.3400000000000014},{"rt":6213.199999999255,"stimulus":"\n                    <p><b>Action: <em>harvest</em></b></p>\n                    <p>This is the bee that you just saw.</p>\n                    <img src=\"bees-with-color/bee-B1DF.svg\" width=\"200\">\n                    <p><span class=\"redText\">Bad choice, the bee was angry.</span><br><b>You have been stung!</b><br>Your pay has been decreased by $0.10. Your bonus pay is now $0.58.</p>\n            ","response":0,"trial_type":"html-button-response","trial_index":58,"time_elapsed":349150,"internal_node_id":"0.0-4.0-1.25","subject_id":"600a450ae3f1781b223ee066","study_id":"60edd13110225f80f9f3709b","session_id":"6196c7043d5fe63ce5441fe0","condition":"contingent","relevant_dimensions":["pattern","legs"],"bee_group":{"antennae":"X","wings":"X","pattern":"D","legs":"F"},"bonus":1.3400000000000014},{"rt":1539,"stimulus":"bees-with-color/bee-A2DM.svg","response":0,"trial_type":"image-button-response","trial_index":59,"time_elapsed":350691,"internal_node_id":"0.0-4.0-0.26","subject_id":"600a450ae3f1781b223ee066","study_id":"60edd13110225f80f9f3709b","session_id":"6196c7043d5fe63ce5441fe0","condition":"contingent","relevant_dimensions":["pattern","legs"],"bee_group":{"antennae":"X","wings":"X","pattern":"D","legs":"F"},"action":"harvest","summary":"good-harvest","bonus":1.3400000000000014},{"rt":755.6999999992549,"stimulus":"\n                    <p><b>Action: <em>harvest</em></b></p>\n                    <p>This is the bee that you just saw.</p>\n                    <img src=\"bees-with-color/bee-A2DM.svg\" width=\"200\">\n                    <p><span class=\"greenText\"><b>Successful harvest!</b></span><br>Your pay has increased by $0.02. Your bonus pay is now $0.60.</p>\n            ","response":0,"trial_type":"html-button-response","trial_index":60,"time_elapsed":351447,"internal_node_id":"0.0-4.0-1.26","subject_id":"600a450ae3f1781b223ee066","study_id":"60edd13110225f80f9f3709b","session_id":"6196c7043d5fe63ce5441fe0","condition":"contingent","relevant_dimensions":["pattern","legs"],"bee_group":{"antennae":"X","wings":"X","pattern":"D","legs":"F"},"bonus":1.3400000000000014},{"rt":1421.7000000029802,"stimulus":"bees-with-color/bee-A2SF.svg","response":0,"trial_type":"image-button-response","trial_index":61,"time_elapsed":352870,"internal_node_id":"0.0-4.0-0.27","subject_id":"600a450ae3f1781b223ee066","study_id":"60edd13110225f80f9f3709b","session_id":"6196c7043d5fe63ce5441fe0","condition":"contingent","relevant_dimensions":["pattern","legs"],"bee_group":{"antennae":"X","wings":"X","pattern":"D","legs":"F"},"action":"harvest","summary":"good-harvest","bonus":1.3400000000000014},{"rt":618.3000000007451,"stimulus":"\n                    <p><b>Action: <em>harvest</em></b></p>\n                    <p>This is the bee that you just saw.</p>\n                    <img src=\"bees-with-color/bee-A2SF.svg\" width=\"200\">\n                    <p><span class=\"greenText\"><b>Successful harvest!</b></span><br>Your pay has increased by $0.02. Your bonus pay is now $0.62.</p>\n            ","response":0,"trial_type":"html-button-response","trial_index":62,"time_elapsed":353490,"internal_node_id":"0.0-4.0-1.27","subject_id":"600a450ae3f1781b223ee066","study_id":"60edd13110225f80f9f3709b","session_id":"6196c7043d5fe63ce5441fe0","condition":"contingent","relevant_dimensions":["pattern","legs"],"bee_group":{"antennae":"X","wings":"X","pattern":"D","legs":"F"},"bonus":1.3400000000000014},{"rt":1786.699999999255,"stimulus":"bees-with-color/bee-B1SF.svg","response":0,"trial_type":"image-button-response","trial_index":63,"time_elapsed":355278,"internal_node_id":"0.0-4.0-0.28","subject_id":"600a450ae3f1781b223ee066","study_id":"60edd13110225f80f9f3709b","session_id":"6196c7043d5fe63ce5441fe0","condition":"contingent","relevant_dimensions":["pattern","legs"],"bee_group":{"antennae":"X","wings":"X","pattern":"D","legs":"F"},"action":"harvest","summary":"good-harvest","bonus":1.3400000000000014},{"rt":666.5999999977648,"stimulus":"\n                    <p><b>Action: <em>harvest</em></b></p>\n                    <p>This is the bee that you just saw.</p>\n                    <img src=\"bees-with-color/bee-B1SF.svg\" width=\"200\">\n                    <p><span class=\"greenText\"><b>Successful harvest!</b></span><br>Your pay has increased by $0.02. Your bonus pay is now $0.64.</p>\n            ","response":0,"trial_type":"html-button-response","trial_index":64,"time_elapsed":355946,"internal_node_id":"0.0-4.0-1.28","subject_id":"600a450ae3f1781b223ee066","study_id":"60edd13110225f80f9f3709b","session_id":"6196c7043d5fe63ce5441fe0","condition":"contingent","relevant_dimensions":["pattern","legs"],"bee_group":{"antennae":"X","wings":"X","pattern":"D","legs":"F"},"bonus":1.3400000000000014},{"rt":1371.8999999985099,"stimulus":"bees-with-color/bee-B1SM.svg","response":0,"trial_type":"image-button-response","trial_index":65,"time_elapsed":357319,"internal_node_id":"0.0-4.0-0.29","subject_id":"600a450ae3f1781b223ee066","study_id":"60edd13110225f80f9f3709b","session_id":"6196c7043d5fe63ce5441fe0","condition":"contingent","relevant_dimensions":["pattern","legs"],"bee_group":{"antennae":"X","wings":"X","pattern":"D","legs":"F"},"action":"harvest","summary":"good-harvest","bonus":1.3400000000000014},{"rt":623.5999999977648,"stimulus":"\n                    <p><b>Action: <em>harvest</em></b></p>\n                    <p>This is the bee that you just saw.</p>\n                    <img src=\"bees-with-color/bee-B1SM.svg\" width=\"200\">\n                    <p><span class=\"greenText\"><b>Successful harvest!</b></span><br>Your pay has increased by $0.02. Your bonus pay is now $0.66.</p>\n            ","response":0,"trial_type":"html-button-response","trial_index":66,"time_elapsed":357944,"internal_node_id":"0.0-4.0-1.29","subject_id":"600a450ae3f1781b223ee066","study_id":"60edd13110225f80f9f3709b","session_id":"6196c7043d5fe63ce5441fe0","condition":"contingent","relevant_dimensions":["pattern","legs"],"bee_group":{"antennae":"X","wings":"X","pattern":"D","legs":"F"},"bonus":1.3400000000000014},{"rt":4613.5,"stimulus":"bees-with-color/bee-A1DF.svg","response":1,"trial_type":"image-button-response","trial_index":67,"time_elapsed":362559,"internal_node_id":"0.0-4.0-0.30","subject_id":"600a450ae3f1781b223ee066","study_id":"60edd13110225f80f9f3709b","session_id":"6196c7043d5fe63ce5441fe0","condition":"contingent","relevant_dimensions":["pattern","legs"],"bee_group":{"antennae":"X","wings":"X","pattern":"D","legs":"F"},"action":"avoid","summary":"good-avoid","bonus":1.3400000000000014},{"rt":601.6000000014901,"stimulus":"\n                    <p><b>Action: <em>avoid</em></b></p>\n                    <p>This is the bee that you just saw.</p>\n                    <img src=\"bees-with-color/bee-A1DF.svg\" width=\"200\">\n                    <p><br>Your bonus pay is unchanged, and remains at $0.66.</p>\n            ","response":0,"trial_type":"html-button-response","trial_index":68,"time_elapsed":363162,"internal_node_id":"0.0-4.0-1.30","subject_id":"600a450ae3f1781b223ee066","study_id":"60edd13110225f80f9f3709b","session_id":"6196c7043d5fe63ce5441fe0","condition":"contingent","relevant_dimensions":["pattern","legs"],"bee_group":{"antennae":"X","wings":"X","pattern":"D","legs":"F"},"bonus":1.3400000000000014},{"rt":2348.699999999255,"stimulus":"bees-with-color/bee-B2SF.svg","response":0,"trial_type":"image-button-response","trial_index":69,"time_elapsed":365512,"internal_node_id":"0.0-4.0-0.31","subject_id":"600a450ae3f1781b223ee066","study_id":"60edd13110225f80f9f3709b","session_id":"6196c7043d5fe63ce5441fe0","condition":"contingent","relevant_dimensions":["pattern","legs"],"bee_group":{"antennae":"X","wings":"X","pattern":"D","legs":"F"},"action":"harvest","summary":"good-harvest","bonus":1.3400000000000014},{"rt":566.5999999977648,"stimulus":"\n                    <p><b>Action: <em>harvest</em></b></p>\n                    <p>This is the bee that you just saw.</p>\n                    <img src=\"bees-with-color/bee-B2SF.svg\" width=\"200\">\n                    <p><span class=\"greenText\"><b>Successful harvest!</b></span><br>Your pay has increased by $0.02. Your bonus pay is now $0.68.</p>\n            ","response":0,"trial_type":"html-button-response","trial_index":70,"time_elapsed":366080,"internal_node_id":"0.0-4.0-1.31","subject_id":"600a450ae3f1781b223ee066","study_id":"60edd13110225f80f9f3709b","session_id":"6196c7043d5fe63ce5441fe0","condition":"contingent","relevant_dimensions":["pattern","legs"],"bee_group":{"antennae":"X","wings":"X","pattern":"D","legs":"F"},"bonus":1.3400000000000014},{"rt":2925.800000000745,"stimulus":"bees-with-color/bee-A1DF.svg","response":0,"trial_type":"image-button-response","trial_index":71,"time_elapsed":369007,"internal_node_id":"0.0-4.0-0.32","subject_id":"600a450ae3f1781b223ee066","study_id":"60edd13110225f80f9f3709b","session_id":"6196c7043d5fe63ce5441fe0","condition":"contingent","relevant_dimensions":["pattern","legs"],"bee_group":{"antennae":"X","wings":"X","pattern":"D","legs":"F"},"action":"harvest","summary":"bad-harvest","bonus":1.3400000000000014},{"rt":4174.400000002235,"stimulus":"\n                    <p><b>Action: <em>harvest</em></b></p>\n                    <p>This is the bee that you just saw.</p>\n                    <img src=\"bees-with-color/bee-A1DF.svg\" width=\"200\">\n                    <p><span class=\"redText\">Bad choice, the bee was angry.</span><br><b>You have been stung!</b><br>Your pay has been decreased by $0.10. Your bonus pay is now $0.58.</p>\n            ","response":0,"trial_type":"html-button-response","trial_index":72,"time_elapsed":373182,"internal_node_id":"0.0-4.0-1.32","subject_id":"600a450ae3f1781b223ee066","study_id":"60edd13110225f80f9f3709b","session_id":"6196c7043d5fe63ce5441fe0","condition":"contingent","relevant_dimensions":["pattern","legs"],"bee_group":{"antennae":"X","wings":"X","pattern":"D","legs":"F"},"bonus":1.3400000000000014},{"rt":1102.9000000022352,"stimulus":"bees-with-color/bee-A1DM.svg","response":0,"trial_type":"image-button-response","trial_index":73,"time_elapsed":374286,"internal_node_id":"0.0-4.0-0.33","subject_id":"600a450ae3f1781b223ee066","study_id":"60edd13110225f80f9f3709b","session_id":"6196c7043d5fe63ce5441fe0","condition":"contingent","relevant_dimensions":["pattern","legs"],"bee_group":{"antennae":"X","wings":"X","pattern":"D","legs":"F"},"action":"harvest","summary":"good-harvest","bonus":1.3400000000000014},{"rt":859.1000000014901,"stimulus":"\n                    <p><b>Action: <em>harvest</em></b></p>\n                    <p>This is the bee that you just saw.</p>\n                    <img src=\"bees-with-color/bee-A1DM.svg\" width=\"200\">\n                    <p><span class=\"greenText\"><b>Successful harvest!</b></span><br>Your pay has increased by $0.02. Your bonus pay is now $0.60.</p>\n            ","response":0,"trial_type":"html-button-response","trial_index":74,"time_elapsed":375147,"internal_node_id":"0.0-4.0-1.33","subject_id":"600a450ae3f1781b223ee066","study_id":"60edd13110225f80f9f3709b","session_id":"6196c7043d5fe63ce5441fe0","condition":"contingent","relevant_dimensions":["pattern","legs"],"bee_group":{"antennae":"X","wings":"X","pattern":"D","legs":"F"},"bonus":1.3400000000000014},{"rt":903.4000000022352,"stimulus":"bees-with-color/bee-A1SM.svg","response":0,"trial_type":"image-button-response","trial_index":75,"time_elapsed":376051,"internal_node_id":"0.0-4.0-0.34","subject_id":"600a450ae3f1781b223ee066","study_id":"60edd13110225f80f9f3709b","session_id":"6196c7043d5fe63ce5441fe0","condition":"contingent","relevant_dimensions":["pattern","legs"],"bee_group":{"antennae":"X","wings":"X","pattern":"D","legs":"F"},"action":"harvest","summary":"good-harvest","bonus":1.3400000000000014},{"rt":530.5,"stimulus":"\n                    <p><b>Action: <em>harvest</em></b></p>\n                    <p>This is the bee that you just saw.</p>\n                    <img src=\"bees-with-color/bee-A1SM.svg\" width=\"200\">\n                    <p><span class=\"greenText\"><b>Successful harvest!</b></span><br>Your pay has increased by $0.02. Your bonus pay is now $0.62.</p>\n            ","response":0,"trial_type":"html-button-response","trial_index":76,"time_elapsed":376583,"internal_node_id":"0.0-4.0-1.34","subject_id":"600a450ae3f1781b223ee066","study_id":"60edd13110225f80f9f3709b","session_id":"6196c7043d5fe63ce5441fe0","condition":"contingent","relevant_dimensions":["pattern","legs"],"bee_group":{"antennae":"X","wings":"X","pattern":"D","legs":"F"},"bonus":1.3400000000000014},{"rt":993.6999999992549,"stimulus":"bees-with-color/bee-A1SF.svg","response":0,"trial_type":"image-button-response","trial_index":77,"time_elapsed":377578,"internal_node_id":"0.0-4.0-0.35","subject_id":"600a450ae3f1781b223ee066","study_id":"60edd13110225f80f9f3709b","session_id":"6196c7043d5fe63ce5441fe0","condition":"contingent","relevant_dimensions":["pattern","legs"],"bee_group":{"antennae":"X","wings":"X","pattern":"D","legs":"F"},"action":"harvest","summary":"good-harvest","bonus":1.3400000000000014},{"rt":525,"stimulus":"\n                    <p><b>Action: <em>harvest</em></b></p>\n                    <p>This is the bee that you just saw.</p>\n                    <img src=\"bees-with-color/bee-A1SF.svg\" width=\"200\">\n                    <p><span class=\"greenText\"><b>Successful harvest!</b></span><br>Your pay has increased by $0.02. Your bonus pay is now $0.64.</p>\n            ","response":0,"trial_type":"html-button-response","trial_index":78,"time_elapsed":378104,"internal_node_id":"0.0-4.0-1.35","subject_id":"600a450ae3f1781b223ee066","study_id":"60edd13110225f80f9f3709b","session_id":"6196c7043d5fe63ce5441fe0","condition":"contingent","relevant_dimensions":["pattern","legs"],"bee_group":{"antennae":"X","wings":"X","pattern":"D","legs":"F"},"bonus":1.3400000000000014},{"rt":1331,"stimulus":"bees-with-color/bee-A2DM.svg","response":0,"trial_type":"image-button-response","trial_index":79,"time_elapsed":379436,"internal_node_id":"0.0-4.0-0.36","subject_id":"600a450ae3f1781b223ee066","study_id":"60edd13110225f80f9f3709b","session_id":"6196c7043d5fe63ce5441fe0","condition":"contingent","relevant_dimensions":["pattern","legs"],"bee_group":{"antennae":"X","wings":"X","pattern":"D","legs":"F"},"action":"harvest","summary":"good-harvest","bonus":1.3400000000000014},{"rt":565.8999999985099,"stimulus":"\n                    <p><b>Action: <em>harvest</em></b></p>\n                    <p>This is the bee that you just saw.</p>\n                    <img src=\"bees-with-color/bee-A2DM.svg\" width=\"200\">\n                    <p><span class=\"greenText\"><b>Successful harvest!</b></span><br>Your pay has increased by $0.02. Your bonus pay is now $0.66.</p>\n            ","response":0,"trial_type":"html-button-response","trial_index":80,"time_elapsed":380003,"internal_node_id":"0.0-4.0-1.36","subject_id":"600a450ae3f1781b223ee066","study_id":"60edd13110225f80f9f3709b","session_id":"6196c7043d5fe63ce5441fe0","condition":"contingent","relevant_dimensions":["pattern","legs"],"bee_group":{"antennae":"X","wings":"X","pattern":"D","legs":"F"},"bonus":1.3400000000000014},{"rt":3506.300000000745,"stimulus":"bees-with-color/bee-B2DF.svg","response":0,"trial_type":"image-button-response","trial_index":81,"time_elapsed":383510,"internal_node_id":"0.0-4.0-0.37","subject_id":"600a450ae3f1781b223ee066","study_id":"60edd13110225f80f9f3709b","session_id":"6196c7043d5fe63ce5441fe0","condition":"contingent","relevant_dimensions":["pattern","legs"],"bee_group":{"antennae":"X","wings":"X","pattern":"D","legs":"F"},"action":"harvest","summary":"bad-harvest","bonus":1.3400000000000014},{"rt":1970.1000000014901,"stimulus":"\n                    <p><b>Action: <em>harvest</em></b></p>\n                    <p>This is the bee that you just saw.</p>\n                    <img src=\"bees-with-color/bee-B2DF.svg\" width=\"200\">\n                    <p><span class=\"redText\">Bad choice, the bee was angry.</span><br><b>You have been stung!</b><br>Your pay has been decreased by $0.10. Your bonus pay is now $0.56.</p>\n            ","response":0,"trial_type":"html-button-response","trial_index":82,"time_elapsed":385482,"internal_node_id":"0.0-4.0-1.37","subject_id":"600a450ae3f1781b223ee066","study_id":"60edd13110225f80f9f3709b","session_id":"6196c7043d5fe63ce5441fe0","condition":"contingent","relevant_dimensions":["pattern","legs"],"bee_group":{"antennae":"X","wings":"X","pattern":"D","legs":"F"},"bonus":1.3400000000000014},{"rt":1188.699999999255,"stimulus":"bees-with-color/bee-A2SM.svg","response":0,"trial_type":"image-button-response","trial_index":83,"time_elapsed":386672,"internal_node_id":"0.0-4.0-0.38","subject_id":"600a450ae3f1781b223ee066","study_id":"60edd13110225f80f9f3709b","session_id":"6196c7043d5fe63ce5441fe0","condition":"contingent","relevant_dimensions":["pattern","legs"],"bee_group":{"antennae":"X","wings":"X","pattern":"D","legs":"F"},"action":"harvest","summary":"good-harvest","bonus":1.3400000000000014},{"rt":704.6000000014901,"stimulus":"\n                    <p><b>Action: <em>harvest</em></b></p>\n                    <p>This is the bee that you just saw.</p>\n                    <img src=\"bees-with-color/bee-A2SM.svg\" width=\"200\">\n                    <p><span class=\"greenText\"><b>Successful harvest!</b></span><br>Your pay has increased by $0.02. Your bonus pay is now $0.58.</p>\n            ","response":0,"trial_type":"html-button-response","trial_index":84,"time_elapsed":387378,"internal_node_id":"0.0-4.0-1.38","subject_id":"600a450ae3f1781b223ee066","study_id":"60edd13110225f80f9f3709b","session_id":"6196c7043d5fe63ce5441fe0","condition":"contingent","relevant_dimensions":["pattern","legs"],"bee_group":{"antennae":"X","wings":"X","pattern":"D","legs":"F"},"bonus":1.3400000000000014},{"rt":1300.5999999977648,"stimulus":"bees-with-color/bee-B2SM.svg","response":0,"trial_type":"image-button-response","trial_index":85,"time_elapsed":388679,"internal_node_id":"0.0-4.0-0.39","subject_id":"600a450ae3f1781b223ee066","study_id":"60edd13110225f80f9f3709b","session_id":"6196c7043d5fe63ce5441fe0","condition":"contingent","relevant_dimensions":["pattern","legs"],"bee_group":{"antennae":"X","wings":"X","pattern":"D","legs":"F"},"action":"harvest","summary":"good-harvest","bonus":1.3400000000000014},{"rt":473.8999999985099,"stimulus":"\n                    <p><b>Action: <em>harvest</em></b></p>\n                    <p>This is the bee that you just saw.</p>\n                    <img src=\"bees-with-color/bee-B2SM.svg\" width=\"200\">\n                    <p><span class=\"greenText\"><b>Successful harvest!</b></span><br>Your pay has increased by $0.02. Your bonus pay is now $0.60.</p>\n            ","response":0,"trial_type":"html-button-response","trial_index":86,"time_elapsed":389154,"internal_node_id":"0.0-4.0-1.39","subject_id":"600a450ae3f1781b223ee066","study_id":"60edd13110225f80f9f3709b","session_id":"6196c7043d5fe63ce5441fe0","condition":"contingent","relevant_dimensions":["pattern","legs"],"bee_group":{"antennae":"X","wings":"X","pattern":"D","legs":"F"},"bonus":1.3400000000000014},{"rt":1252.800000000745,"stimulus":"bees-with-color/bee-B1DM.svg","response":0,"trial_type":"image-button-response","trial_index":87,"time_elapsed":390407,"internal_node_id":"0.0-4.0-0.40","subject_id":"600a450ae3f1781b223ee066","study_id":"60edd13110225f80f9f3709b","session_id":"6196c7043d5fe63ce5441fe0","condition":"contingent","relevant_dimensions":["pattern","legs"],"bee_group":{"antennae":"X","wings":"X","pattern":"D","legs":"F"},"action":"harvest","summary":"good-harvest","bonus":1.3400000000000014},{"rt":432.19999999925494,"stimulus":"\n                    <p><b>Action: <em>harvest</em></b></p>\n                    <p>This is the bee that you just saw.</p>\n                    <img src=\"bees-with-color/bee-B1DM.svg\" width=\"200\">\n                    <p><span class=\"greenText\"><b>Successful harvest!</b></span><br>Your pay has increased by $0.02. Your bonus pay is now $0.62.</p>\n            ","response":0,"trial_type":"html-button-response","trial_index":88,"time_elapsed":390841,"internal_node_id":"0.0-4.0-1.40","subject_id":"600a450ae3f1781b223ee066","study_id":"60edd13110225f80f9f3709b","session_id":"6196c7043d5fe63ce5441fe0","condition":"contingent","relevant_dimensions":["pattern","legs"],"bee_group":{"antennae":"X","wings":"X","pattern":"D","legs":"F"},"bonus":1.3400000000000014},{"rt":958.2999999970198,"stimulus":"bees-with-color/bee-B1SM.svg","response":0,"trial_type":"image-button-response","trial_index":89,"time_elapsed":391800,"internal_node_id":"0.0-4.0-0.41","subject_id":"600a450ae3f1781b223ee066","study_id":"60edd13110225f80f9f3709b","session_id":"6196c7043d5fe63ce5441fe0","condition":"contingent","relevant_dimensions":["pattern","legs"],"bee_group":{"antennae":"X","wings":"X","pattern":"D","legs":"F"},"action":"harvest","summary":"good-harvest","bonus":1.3400000000000014},{"rt":468.19999999925494,"stimulus":"\n                    <p><b>Action: <em>harvest</em></b></p>\n                    <p>This is the bee that you just saw.</p>\n                    <img src=\"bees-with-color/bee-B1SM.svg\" width=\"200\">\n                    <p><span class=\"greenText\"><b>Successful harvest!</b></span><br>Your pay has increased by $0.02. Your bonus pay is now $0.64.</p>\n            ","response":0,"trial_type":"html-button-response","trial_index":90,"time_elapsed":392269,"internal_node_id":"0.0-4.0-1.41","subject_id":"600a450ae3f1781b223ee066","study_id":"60edd13110225f80f9f3709b","session_id":"6196c7043d5fe63ce5441fe0","condition":"contingent","relevant_dimensions":["pattern","legs"],"bee_group":{"antennae":"X","wings":"X","pattern":"D","legs":"F"},"bonus":1.3400000000000014},{"rt":1148.699999999255,"stimulus":"bees-with-color/bee-A2SF.svg","response":0,"trial_type":"image-button-response","trial_index":91,"time_elapsed":393419,"internal_node_id":"0.0-4.0-0.42","subject_id":"600a450ae3f1781b223ee066","study_id":"60edd13110225f80f9f3709b","session_id":"6196c7043d5fe63ce5441fe0","condition":"contingent","relevant_dimensions":["pattern","legs"],"bee_group":{"antennae":"X","wings":"X","pattern":"D","legs":"F"},"action":"harvest","summary":"good-harvest","bonus":1.3400000000000014},{"rt":857.5999999977648,"stimulus":"\n                    <p><b>Action: <em>harvest</em></b></p>\n                    <p>This is the bee that you just saw.</p>\n                    <img src=\"bees-with-color/bee-A2SF.svg\" width=\"200\">\n                    <p><span class=\"greenText\"><b>Successful harvest!</b></span><br>Your pay has increased by $0.02. Your bonus pay is now $0.66.</p>\n            ","response":0,"trial_type":"html-button-response","trial_index":92,"time_elapsed":394278,"internal_node_id":"0.0-4.0-1.42","subject_id":"600a450ae3f1781b223ee066","study_id":"60edd13110225f80f9f3709b","session_id":"6196c7043d5fe63ce5441fe0","condition":"contingent","relevant_dimensions":["pattern","legs"],"bee_group":{"antennae":"X","wings":"X","pattern":"D","legs":"F"},"bonus":1.3400000000000014},{"rt":872.1999999992549,"stimulus":"bees-with-color/bee-B2SF.svg","response":0,"trial_type":"image-button-response","trial_index":93,"time_elapsed":395151,"internal_node_id":"0.0-4.0-0.43","subject_id":"600a450ae3f1781b223ee066","study_id":"60edd13110225f80f9f3709b","session_id":"6196c7043d5fe63ce5441fe0","condition":"contingent","relevant_dimensions":["pattern","legs"],"bee_group":{"antennae":"X","wings":"X","pattern":"D","legs":"F"},"action":"harvest","summary":"good-harvest","bonus":1.3400000000000014},{"rt":579.3000000007451,"stimulus":"\n                    <p><b>Action: <em>harvest</em></b></p>\n                    <p>This is the bee that you just saw.</p>\n                    <img src=\"bees-with-color/bee-B2SF.svg\" width=\"200\">\n                    <p><span class=\"greenText\"><b>Successful harvest!</b></span><br>Your pay has increased by $0.02. Your bonus pay is now $0.68.</p>\n            ","response":0,"trial_type":"html-button-response","trial_index":94,"time_elapsed":395732,"internal_node_id":"0.0-4.0-1.43","subject_id":"600a450ae3f1781b223ee066","study_id":"60edd13110225f80f9f3709b","session_id":"6196c7043d5fe63ce5441fe0","condition":"contingent","relevant_dimensions":["pattern","legs"],"bee_group":{"antennae":"X","wings":"X","pattern":"D","legs":"F"},"bonus":1.3400000000000014},{"rt":2272,"stimulus":"bees-with-color/bee-A2DF.svg","response":0,"trial_type":"image-button-response","trial_index":95,"time_elapsed":398005,"internal_node_id":"0.0-4.0-0.44","subject_id":"600a450ae3f1781b223ee066","study_id":"60edd13110225f80f9f3709b","session_id":"6196c7043d5fe63ce5441fe0","condition":"contingent","relevant_dimensions":["pattern","legs"],"bee_group":{"antennae":"X","wings":"X","pattern":"D","legs":"F"},"action":"harvest","summary":"bad-harvest","bonus":1.3400000000000014},{"rt":1163.800000000745,"stimulus":"\n                    <p><b>Action: <em>harvest</em></b></p>\n                    <p>This is the bee that you just saw.</p>\n                    <img src=\"bees-with-color/bee-A2DF.svg\" width=\"200\">\n                    <p><span class=\"redText\">Bad choice, the bee was angry.</span><br><b>You have been stung!</b><br>Your pay has been decreased by $0.10. Your bonus pay is now $0.58.</p>\n            ","response":0,"trial_type":"html-button-response","trial_index":96,"time_elapsed":399170,"internal_node_id":"0.0-4.0-1.44","subject_id":"600a450ae3f1781b223ee066","study_id":"60edd13110225f80f9f3709b","session_id":"6196c7043d5fe63ce5441fe0","condition":"contingent","relevant_dimensions":["pattern","legs"],"bee_group":{"antennae":"X","wings":"X","pattern":"D","legs":"F"},"bonus":1.3400000000000014},{"rt":1268.7999999970198,"stimulus":"bees-with-color/bee-B2DM.svg","response":0,"trial_type":"image-button-response","trial_index":97,"time_elapsed":400440,"internal_node_id":"0.0-4.0-0.45","subject_id":"600a450ae3f1781b223ee066","study_id":"60edd13110225f80f9f3709b","session_id":"6196c7043d5fe63ce5441fe0","condition":"contingent","relevant_dimensions":["pattern","legs"],"bee_group":{"antennae":"X","wings":"X","pattern":"D","legs":"F"},"action":"harvest","summary":"good-harvest","bonus":1.3400000000000014},{"rt":521.1000000014901,"stimulus":"\n                    <p><b>Action: <em>harvest</em></b></p>\n                    <p>This is the bee that you just saw.</p>\n                    <img src=\"bees-with-color/bee-B2DM.svg\" width=\"200\">\n                    <p><span class=\"greenText\"><b>Successful harvest!</b></span><br>Your pay has increased by $0.02. Your bonus pay is now $0.60.</p>\n            ","response":0,"trial_type":"html-button-response","trial_index":98,"time_elapsed":400962,"internal_node_id":"0.0-4.0-1.45","subject_id":"600a450ae3f1781b223ee066","study_id":"60edd13110225f80f9f3709b","session_id":"6196c7043d5fe63ce5441fe0","condition":"contingent","relevant_dimensions":["pattern","legs"],"bee_group":{"antennae":"X","wings":"X","pattern":"D","legs":"F"},"bonus":1.3400000000000014},{"rt":2579.60000000149,"stimulus":"bees-with-color/bee-B1DF.svg","response":1,"trial_type":"image-button-response","trial_index":99,"time_elapsed":403543,"internal_node_id":"0.0-4.0-0.46","subject_id":"600a450ae3f1781b223ee066","study_id":"60edd13110225f80f9f3709b","session_id":"6196c7043d5fe63ce5441fe0","condition":"contingent","relevant_dimensions":["pattern","legs"],"bee_group":{"antennae":"X","wings":"X","pattern":"D","legs":"F"},"action":"avoid","summary":"good-avoid","bonus":1.3400000000000014},{"rt":538.5,"stimulus":"\n                    <p><b>Action: <em>avoid</em></b></p>\n                    <p>This is the bee that you just saw.</p>\n                    <img src=\"bees-with-color/bee-B1DF.svg\" width=\"200\">\n                    <p><br>Your bonus pay is unchanged, and remains at $0.60.</p>\n            ","response":0,"trial_type":"html-button-response","trial_index":100,"time_elapsed":404082,"internal_node_id":"0.0-4.0-1.46","subject_id":"600a450ae3f1781b223ee066","study_id":"60edd13110225f80f9f3709b","session_id":"6196c7043d5fe63ce5441fe0","condition":"contingent","relevant_dimensions":["pattern","legs"],"bee_group":{"antennae":"X","wings":"X","pattern":"D","legs":"F"},"bonus":1.3400000000000014},{"rt":1137.4000000022352,"stimulus":"bees-with-color/bee-B1SF.svg","response":0,"trial_type":"image-button-response","trial_index":101,"time_elapsed":405221,"internal_node_id":"0.0-4.0-0.47","subject_id":"600a450ae3f1781b223ee066","study_id":"60edd13110225f80f9f3709b","session_id":"6196c7043d5fe63ce5441fe0","condition":"contingent","relevant_dimensions":["pattern","legs"],"bee_group":{"antennae":"X","wings":"X","pattern":"D","legs":"F"},"action":"harvest","summary":"good-harvest","bonus":1.3400000000000014},{"rt":443.8999999985099,"stimulus":"\n                    <p><b>Action: <em>harvest</em></b></p>\n                    <p>This is the bee that you just saw.</p>\n                    <img src=\"bees-with-color/bee-B1SF.svg\" width=\"200\">\n                    <p><span class=\"greenText\"><b>Successful harvest!</b></span><br>Your pay has increased by $0.02. Your bonus pay is now $0.62.</p>\n            ","response":0,"trial_type":"html-button-response","trial_index":102,"time_elapsed":405666,"internal_node_id":"0.0-4.0-1.47","subject_id":"600a450ae3f1781b223ee066","study_id":"60edd13110225f80f9f3709b","session_id":"6196c7043d5fe63ce5441fe0","condition":"contingent","relevant_dimensions":["pattern","legs"],"bee_group":{"antennae":"X","wings":"X","pattern":"D","legs":"F"},"bonus":1.3400000000000014},{"rt":1285.2000000029802,"stimulus":"bees-with-color/bee-A1DM.svg","response":0,"trial_type":"image-button-response","trial_index":103,"time_elapsed":406952,"internal_node_id":"0.0-4.0-0.48","subject_id":"600a450ae3f1781b223ee066","study_id":"60edd13110225f80f9f3709b","session_id":"6196c7043d5fe63ce5441fe0","condition":"contingent","relevant_dimensions":["pattern","legs"],"bee_group":{"antennae":"X","wings":"X","pattern":"D","legs":"F"},"action":"harvest","summary":"good-harvest","bonus":1.3400000000000014},{"rt":435.80000000074506,"stimulus":"\n                    <p><b>Action: <em>harvest</em></b></p>\n                    <p>This is the bee that you just saw.</p>\n                    <img src=\"bees-with-color/bee-A1DM.svg\" width=\"200\">\n                    <p><span class=\"greenText\"><b>Successful harvest!</b></span><br>Your pay has increased by $0.02. Your bonus pay is now $0.64.</p>\n            ","response":0,"trial_type":"html-button-response","trial_index":104,"time_elapsed":407389,"internal_node_id":"0.0-4.0-1.48","subject_id":"600a450ae3f1781b223ee066","study_id":"60edd13110225f80f9f3709b","session_id":"6196c7043d5fe63ce5441fe0","condition":"contingent","relevant_dimensions":["pattern","legs"],"bee_group":{"antennae":"X","wings":"X","pattern":"D","legs":"F"},"bonus":1.3400000000000014},{"rt":1050.2999999970198,"stimulus":"bees-with-color/bee-B1DF.svg","response":1,"trial_type":"image-button-response","trial_index":105,"time_elapsed":408440,"internal_node_id":"0.0-4.0-0.49","subject_id":"600a450ae3f1781b223ee066","study_id":"60edd13110225f80f9f3709b","session_id":"6196c7043d5fe63ce5441fe0","condition":"contingent","relevant_dimensions":["pattern","legs"],"bee_group":{"antennae":"X","wings":"X","pattern":"D","legs":"F"},"action":"avoid","summary":"good-avoid","bonus":1.3400000000000014},{"rt":1075.2000000029802,"stimulus":"\n                    <p><b>Action: <em>avoid</em></b></p>\n                    <p>This is the bee that you just saw.</p>\n                    <img src=\"bees-with-color/bee-B1DF.svg\" width=\"200\">\n                    <p><br>Your bonus pay is unchanged, and remains at $0.64.</p>\n            ","response":0,"trial_type":"html-button-response","trial_index":106,"time_elapsed":409516,"internal_node_id":"0.0-4.0-1.49","subject_id":"600a450ae3f1781b223ee066","study_id":"60edd13110225f80f9f3709b","session_id":"6196c7043d5fe63ce5441fe0","condition":"contingent","relevant_dimensions":["pattern","legs"],"bee_group":{"antennae":"X","wings":"X","pattern":"D","legs":"F"},"bonus":1.3400000000000014},{"rt":1487.4000000022352,"stimulus":"bees-with-color/bee-A2DM.svg","response":0,"trial_type":"image-button-response","trial_index":107,"time_elapsed":411005,"internal_node_id":"0.0-4.0-0.50","subject_id":"600a450ae3f1781b223ee066","study_id":"60edd13110225f80f9f3709b","session_id":"6196c7043d5fe63ce5441fe0","condition":"contingent","relevant_dimensions":["pattern","legs"],"bee_group":{"antennae":"X","wings":"X","pattern":"D","legs":"F"},"action":"harvest","summary":"good-harvest","bonus":1.3400000000000014},{"rt":393.4000000022352,"stimulus":"\n                    <p><b>Action: <em>harvest</em></b></p>\n                    <p>This is the bee that you just saw.</p>\n                    <img src=\"bees-with-color/bee-A2DM.svg\" width=\"200\">\n                    <p><span class=\"greenText\"><b>Successful harvest!</b></span><br>Your pay has increased by $0.02. Your bonus pay is now $0.66.</p>\n            ","response":0,"trial_type":"html-button-response","trial_index":108,"time_elapsed":411400,"internal_node_id":"0.0-4.0-1.50","subject_id":"600a450ae3f1781b223ee066","study_id":"60edd13110225f80f9f3709b","session_id":"6196c7043d5fe63ce5441fe0","condition":"contingent","relevant_dimensions":["pattern","legs"],"bee_group":{"antennae":"X","wings":"X","pattern":"D","legs":"F"},"bonus":1.3400000000000014},{"rt":1030.5,"stimulus":"bees-with-color/bee-A2SF.svg","response":0,"trial_type":"image-button-response","trial_index":109,"time_elapsed":412431,"internal_node_id":"0.0-4.0-0.51","subject_id":"600a450ae3f1781b223ee066","study_id":"60edd13110225f80f9f3709b","session_id":"6196c7043d5fe63ce5441fe0","condition":"contingent","relevant_dimensions":["pattern","legs"],"bee_group":{"antennae":"X","wings":"X","pattern":"D","legs":"F"},"action":"harvest","summary":"good-harvest","bonus":1.3400000000000014},{"rt":365.5,"stimulus":"\n                    <p><b>Action: <em>harvest</em></b></p>\n                    <p>This is the bee that you just saw.</p>\n                    <img src=\"bees-with-color/bee-A2SF.svg\" width=\"200\">\n                    <p><span class=\"greenText\"><b>Successful harvest!</b></span><br>Your pay has increased by $0.02. Your bonus pay is now $0.68.</p>\n            ","response":0,"trial_type":"html-button-response","trial_index":110,"time_elapsed":412798,"internal_node_id":"0.0-4.0-1.51","subject_id":"600a450ae3f1781b223ee066","study_id":"60edd13110225f80f9f3709b","session_id":"6196c7043d5fe63ce5441fe0","condition":"contingent","relevant_dimensions":["pattern","legs"],"bee_group":{"antennae":"X","wings":"X","pattern":"D","legs":"F"},"bonus":1.3400000000000014},{"rt":3230.099999997765,"stimulus":"bees-with-color/bee-A1DF.svg","response":1,"trial_type":"image-button-response","trial_index":111,"time_elapsed":416028,"internal_node_id":"0.0-4.0-0.52","subject_id":"600a450ae3f1781b223ee066","study_id":"60edd13110225f80f9f3709b","session_id":"6196c7043d5fe63ce5441fe0","condition":"contingent","relevant_dimensions":["pattern","legs"],"bee_group":{"antennae":"X","wings":"X","pattern":"D","legs":"F"},"action":"avoid","summary":"good-avoid","bonus":1.3400000000000014},{"rt":749.3999999985099,"stimulus":"\n                    <p><b>Action: <em>avoid</em></b></p>\n                    <p>This is the bee that you just saw.</p>\n                    <img src=\"bees-with-color/bee-A1DF.svg\" width=\"200\">\n                    <p><br>Your bonus pay is unchanged, and remains at $0.68.</p>\n            ","response":0,"trial_type":"html-button-response","trial_index":112,"time_elapsed":416779,"internal_node_id":"0.0-4.0-1.52","subject_id":"600a450ae3f1781b223ee066","study_id":"60edd13110225f80f9f3709b","session_id":"6196c7043d5fe63ce5441fe0","condition":"contingent","relevant_dimensions":["pattern","legs"],"bee_group":{"antennae":"X","wings":"X","pattern":"D","legs":"F"},"bonus":1.3400000000000014},{"rt":790.3000000007451,"stimulus":"bees-with-color/bee-B1SM.svg","response":0,"trial_type":"image-button-response","trial_index":113,"time_elapsed":417571,"internal_node_id":"0.0-4.0-0.53","subject_id":"600a450ae3f1781b223ee066","study_id":"60edd13110225f80f9f3709b","session_id":"6196c7043d5fe63ce5441fe0","condition":"contingent","relevant_dimensions":["pattern","legs"],"bee_group":{"antennae":"X","wings":"X","pattern":"D","legs":"F"},"action":"harvest","summary":"good-harvest","bonus":1.3400000000000014},{"rt":394,"stimulus":"\n                    <p><b>Action: <em>harvest</em></b></p>\n                    <p>This is the bee that you just saw.</p>\n                    <img src=\"bees-with-color/bee-B1SM.svg\" width=\"200\">\n                    <p><span class=\"greenText\"><b>Successful harvest!</b></span><br>Your pay has increased by $0.02. Your bonus pay is now $0.70.</p>\n            ","response":0,"trial_type":"html-button-response","trial_index":114,"time_elapsed":417966,"internal_node_id":"0.0-4.0-1.53","subject_id":"600a450ae3f1781b223ee066","study_id":"60edd13110225f80f9f3709b","session_id":"6196c7043d5fe63ce5441fe0","condition":"contingent","relevant_dimensions":["pattern","legs"],"bee_group":{"antennae":"X","wings":"X","pattern":"D","legs":"F"},"bonus":1.3400000000000014},{"rt":816.9000000022352,"stimulus":"bees-with-color/bee-A2SM.svg","response":0,"trial_type":"image-button-response","trial_index":115,"time_elapsed":418783,"internal_node_id":"0.0-4.0-0.54","subject_id":"600a450ae3f1781b223ee066","study_id":"60edd13110225f80f9f3709b","session_id":"6196c7043d5fe63ce5441fe0","condition":"contingent","relevant_dimensions":["pattern","legs"],"bee_group":{"antennae":"X","wings":"X","pattern":"D","legs":"F"},"action":"harvest","summary":"good-harvest","bonus":1.3400000000000014},{"rt":406.30000000074506,"stimulus":"\n                    <p><b>Action: <em>harvest</em></b></p>\n                    <p>This is the bee that you just saw.</p>\n                    <img src=\"bees-with-color/bee-A2SM.svg\" width=\"200\">\n                    <p><span class=\"greenText\"><b>Successful harvest!</b></span><br>Your pay has increased by $0.02. Your bonus pay is now $0.72.</p>\n            ","response":0,"trial_type":"html-button-response","trial_index":116,"time_elapsed":419191,"internal_node_id":"0.0-4.0-1.54","subject_id":"600a450ae3f1781b223ee066","study_id":"60edd13110225f80f9f3709b","session_id":"6196c7043d5fe63ce5441fe0","condition":"contingent","relevant_dimensions":["pattern","legs"],"bee_group":{"antennae":"X","wings":"X","pattern":"D","legs":"F"},"bonus":1.3400000000000014},{"rt":1905,"stimulus":"bees-with-color/bee-B1SF.svg","response":0,"trial_type":"image-button-response","trial_index":117,"time_elapsed":421097,"internal_node_id":"0.0-4.0-0.55","subject_id":"600a450ae3f1781b223ee066","study_id":"60edd13110225f80f9f3709b","session_id":"6196c7043d5fe63ce5441fe0","condition":"contingent","relevant_dimensions":["pattern","legs"],"bee_group":{"antennae":"X","wings":"X","pattern":"D","legs":"F"},"action":"harvest","summary":"good-harvest","bonus":1.3400000000000014},{"rt":416.5,"stimulus":"\n                    <p><b>Action: <em>harvest</em></b></p>\n                    <p>This is the bee that you just saw.</p>\n                    <img src=\"bees-with-color/bee-B1SF.svg\" width=\"200\">\n                    <p><span class=\"greenText\"><b>Successful harvest!</b></span><br>Your pay has increased by $0.02. Your bonus pay is now $0.74.</p>\n            ","response":0,"trial_type":"html-button-response","trial_index":118,"time_elapsed":421514,"internal_node_id":"0.0-4.0-1.55","subject_id":"600a450ae3f1781b223ee066","study_id":"60edd13110225f80f9f3709b","session_id":"6196c7043d5fe63ce5441fe0","condition":"contingent","relevant_dimensions":["pattern","legs"],"bee_group":{"antennae":"X","wings":"X","pattern":"D","legs":"F"},"bonus":1.3400000000000014},{"rt":876.8000000007451,"stimulus":"bees-with-color/bee-B2SM.svg","response":0,"trial_type":"image-button-response","trial_index":119,"time_elapsed":422392,"internal_node_id":"0.0-4.0-0.56","subject_id":"600a450ae3f1781b223ee066","study_id":"60edd13110225f80f9f3709b","session_id":"6196c7043d5fe63ce5441fe0","condition":"contingent","relevant_dimensions":["pattern","legs"],"bee_group":{"antennae":"X","wings":"X","pattern":"D","legs":"F"},"action":"harvest","summary":"good-harvest","bonus":1.3400000000000014},{"rt":341.30000000074506,"stimulus":"\n                    <p><b>Action: <em>harvest</em></b></p>\n                    <p>This is the bee that you just saw.</p>\n                    <img src=\"bees-with-color/bee-B2SM.svg\" width=\"200\">\n                    <p><span class=\"greenText\"><b>Successful harvest!</b></span><br>Your pay has increased by $0.02. Your bonus pay is now $0.76.</p>\n            ","response":0,"trial_type":"html-button-response","trial_index":120,"time_elapsed":422735,"internal_node_id":"0.0-4.0-1.56","subject_id":"600a450ae3f1781b223ee066","study_id":"60edd13110225f80f9f3709b","session_id":"6196c7043d5fe63ce5441fe0","condition":"contingent","relevant_dimensions":["pattern","legs"],"bee_group":{"antennae":"X","wings":"X","pattern":"D","legs":"F"},"bonus":1.3400000000000014},{"rt":910.9000000022352,"stimulus":"bees-with-color/bee-B2DF.svg","response":1,"trial_type":"image-button-response","trial_index":121,"time_elapsed":423647,"internal_node_id":"0.0-4.0-0.57","subject_id":"600a450ae3f1781b223ee066","study_id":"60edd13110225f80f9f3709b","session_id":"6196c7043d5fe63ce5441fe0","condition":"contingent","relevant_dimensions":["pattern","legs"],"bee_group":{"antennae":"X","wings":"X","pattern":"D","legs":"F"},"action":"avoid","summary":"good-avoid","bonus":1.3400000000000014},{"rt":408.0999999977648,"stimulus":"\n                    <p><b>Action: <em>avoid</em></b></p>\n                    <p>This is the bee that you just saw.</p>\n                    <img src=\"bees-with-color/bee-B2DF.svg\" width=\"200\">\n                    <p><br>Your bonus pay is unchanged, and remains at $0.76.</p>\n            ","response":0,"trial_type":"html-button-response","trial_index":122,"time_elapsed":424056,"internal_node_id":"0.0-4.0-1.57","subject_id":"600a450ae3f1781b223ee066","study_id":"60edd13110225f80f9f3709b","session_id":"6196c7043d5fe63ce5441fe0","condition":"contingent","relevant_dimensions":["pattern","legs"],"bee_group":{"antennae":"X","wings":"X","pattern":"D","legs":"F"},"bonus":1.3400000000000014},{"rt":1564,"stimulus":"bees-with-color/bee-A2DF.svg","response":1,"trial_type":"image-button-response","trial_index":123,"time_elapsed":425621,"internal_node_id":"0.0-4.0-0.58","subject_id":"600a450ae3f1781b223ee066","study_id":"60edd13110225f80f9f3709b","session_id":"6196c7043d5fe63ce5441fe0","condition":"contingent","relevant_dimensions":["pattern","legs"],"bee_group":{"antennae":"X","wings":"X","pattern":"D","legs":"F"},"action":"avoid","summary":"good-avoid","bonus":1.3400000000000014},{"rt":652.0999999977648,"stimulus":"\n                    <p><b>Action: <em>avoid</em></b></p>\n                    <p>This is the bee that you just saw.</p>\n                    <img src=\"bees-with-color/bee-A2DF.svg\" width=\"200\">\n                    <p><br>Your bonus pay is unchanged, and remains at $0.76.</p>\n            ","response":0,"trial_type":"html-button-response","trial_index":124,"time_elapsed":426274,"internal_node_id":"0.0-4.0-1.58","subject_id":"600a450ae3f1781b223ee066","study_id":"60edd13110225f80f9f3709b","session_id":"6196c7043d5fe63ce5441fe0","condition":"contingent","relevant_dimensions":["pattern","legs"],"bee_group":{"antennae":"X","wings":"X","pattern":"D","legs":"F"},"bonus":1.3400000000000014},{"rt":743,"stimulus":"bees-with-color/bee-B2DM.svg","response":0,"trial_type":"image-button-response","trial_index":125,"time_elapsed":427019,"internal_node_id":"0.0-4.0-0.59","subject_id":"600a450ae3f1781b223ee066","study_id":"60edd13110225f80f9f3709b","session_id":"6196c7043d5fe63ce5441fe0","condition":"contingent","relevant_dimensions":["pattern","legs"],"bee_group":{"antennae":"X","wings":"X","pattern":"D","legs":"F"},"action":"harvest","summary":"good-harvest","bonus":1.3400000000000014},{"rt":384.5,"stimulus":"\n                    <p><b>Action: <em>harvest</em></b></p>\n                    <p>This is the bee that you just saw.</p>\n                    <img src=\"bees-with-color/bee-B2DM.svg\" width=\"200\">\n                    <p><span class=\"greenText\"><b>Successful harvest!</b></span><br>Your pay has increased by $0.02. Your bonus pay is now $0.78.</p>\n            ","response":0,"trial_type":"html-button-response","trial_index":126,"time_elapsed":427404,"internal_node_id":"0.0-4.0-1.59","subject_id":"600a450ae3f1781b223ee066","study_id":"60edd13110225f80f9f3709b","session_id":"6196c7043d5fe63ce5441fe0","condition":"contingent","relevant_dimensions":["pattern","legs"],"bee_group":{"antennae":"X","wings":"X","pattern":"D","legs":"F"},"bonus":1.3400000000000014},{"rt":877.5,"stimulus":"bees-with-color/bee-B1DM.svg","response":0,"trial_type":"image-button-response","trial_index":127,"time_elapsed":428283,"internal_node_id":"0.0-4.0-0.60","subject_id":"600a450ae3f1781b223ee066","study_id":"60edd13110225f80f9f3709b","session_id":"6196c7043d5fe63ce5441fe0","condition":"contingent","relevant_dimensions":["pattern","legs"],"bee_group":{"antennae":"X","wings":"X","pattern":"D","legs":"F"},"action":"harvest","summary":"good-harvest","bonus":1.3400000000000014},{"rt":398,"stimulus":"\n                    <p><b>Action: <em>harvest</em></b></p>\n                    <p>This is the bee that you just saw.</p>\n                    <img src=\"bees-with-color/bee-B1DM.svg\" width=\"200\">\n                    <p><span class=\"greenText\"><b>Successful harvest!</b></span><br>Your pay has increased by $0.02. Your bonus pay is now $0.80.</p>\n            ","response":0,"trial_type":"html-button-response","trial_index":128,"time_elapsed":428682,"internal_node_id":"0.0-4.0-1.60","subject_id":"600a450ae3f1781b223ee066","study_id":"60edd13110225f80f9f3709b","session_id":"6196c7043d5fe63ce5441fe0","condition":"contingent","relevant_dimensions":["pattern","legs"],"bee_group":{"antennae":"X","wings":"X","pattern":"D","legs":"F"},"bonus":1.3400000000000014},{"rt":1144.2000000029802,"stimulus":"bees-with-color/bee-B2SF.svg","response":0,"trial_type":"image-button-response","trial_index":129,"time_elapsed":429827,"internal_node_id":"0.0-4.0-0.61","subject_id":"600a450ae3f1781b223ee066","study_id":"60edd13110225f80f9f3709b","session_id":"6196c7043d5fe63ce5441fe0","condition":"contingent","relevant_dimensions":["pattern","legs"],"bee_group":{"antennae":"X","wings":"X","pattern":"D","legs":"F"},"action":"harvest","summary":"good-harvest","bonus":1.3400000000000014},{"rt":358.80000000074506,"stimulus":"\n                    <p><b>Action: <em>harvest</em></b></p>\n                    <p>This is the bee that you just saw.</p>\n                    <img src=\"bees-with-color/bee-B2SF.svg\" width=\"200\">\n                    <p><span class=\"greenText\"><b>Successful harvest!</b></span><br>Your pay has increased by $0.02. Your bonus pay is now $0.82.</p>\n            ","response":0,"trial_type":"html-button-response","trial_index":130,"time_elapsed":430187,"internal_node_id":"0.0-4.0-1.61","subject_id":"600a450ae3f1781b223ee066","study_id":"60edd13110225f80f9f3709b","session_id":"6196c7043d5fe63ce5441fe0","condition":"contingent","relevant_dimensions":["pattern","legs"],"bee_group":{"antennae":"X","wings":"X","pattern":"D","legs":"F"},"bonus":1.3400000000000014},{"rt":862.8000000007451,"stimulus":"bees-with-color/bee-A1SM.svg","response":0,"trial_type":"image-button-response","trial_index":131,"time_elapsed":431051,"internal_node_id":"0.0-4.0-0.62","subject_id":"600a450ae3f1781b223ee066","study_id":"60edd13110225f80f9f3709b","session_id":"6196c7043d5fe63ce5441fe0","condition":"contingent","relevant_dimensions":["pattern","legs"],"bee_group":{"antennae":"X","wings":"X","pattern":"D","legs":"F"},"action":"harvest","summary":"good-harvest","bonus":1.3400000000000014},{"rt":372,"stimulus":"\n                    <p><b>Action: <em>harvest</em></b></p>\n                    <p>This is the bee that you just saw.</p>\n                    <img src=\"bees-with-color/bee-A1SM.svg\" width=\"200\">\n                    <p><span class=\"greenText\"><b>Successful harvest!</b></span><br>Your pay has increased by $0.02. Your bonus pay is now $0.84.</p>\n            ","response":0,"trial_type":"html-button-response","trial_index":132,"time_elapsed":431424,"internal_node_id":"0.0-4.0-1.62","subject_id":"600a450ae3f1781b223ee066","study_id":"60edd13110225f80f9f3709b","session_id":"6196c7043d5fe63ce5441fe0","condition":"contingent","relevant_dimensions":["pattern","legs"],"bee_group":{"antennae":"X","wings":"X","pattern":"D","legs":"F"},"bonus":1.3400000000000014},{"rt":726.8000000007451,"stimulus":"bees-with-color/bee-A1SF.svg","response":0,"trial_type":"image-button-response","trial_index":133,"time_elapsed":432152,"internal_node_id":"0.0-4.0-0.63","subject_id":"600a450ae3f1781b223ee066","study_id":"60edd13110225f80f9f3709b","session_id":"6196c7043d5fe63ce5441fe0","condition":"contingent","relevant_dimensions":["pattern","legs"],"bee_group":{"antennae":"X","wings":"X","pattern":"D","legs":"F"},"action":"harvest","summary":"good-harvest","bonus":1.3400000000000014},{"rt":638.3000000007451,"stimulus":"\n                    <p><b>Action: <em>harvest</em></b></p>\n                    <p>This is the bee that you just saw.</p>\n                    <img src=\"bees-with-color/bee-A1SF.svg\" width=\"200\">\n                    <p><span class=\"greenText\"><b>Successful harvest!</b></span><br>Your pay has increased by $0.02. Your bonus pay is now $0.86.</p>\n            ","response":0,"trial_type":"html-button-response","trial_index":134,"time_elapsed":432791,"internal_node_id":"0.0-4.0-1.63","subject_id":"600a450ae3f1781b223ee066","study_id":"60edd13110225f80f9f3709b","session_id":"6196c7043d5fe63ce5441fe0","condition":"contingent","relevant_dimensions":["pattern","legs"],"bee_group":{"antennae":"X","wings":"X","pattern":"D","legs":"F"},"bonus":1.3400000000000014},{"rt":8716.89999999851,"stimulus":"You have completed the first part of this experiment.<br><br>You will now begin a shorter second part, in which you will receive no feedback.<br>The same rules regarding bonus pay apply.<br><br>Press any key to begin.","response":" ","trial_type":"html-keyboard-response","trial_index":135,"time_elapsed":441509,"internal_node_id":"0.0-5.0","subject_id":"600a450ae3f1781b223ee066","study_id":"60edd13110225f80f9f3709b","session_id":"6196c7043d5fe63ce5441fe0","condition":"contingent","relevant_dimensions":["pattern","legs"],"bee_group":{"antennae":"X","wings":"X","pattern":"D","legs":"F"},"bonus":1.3400000000000014},{"rt":6099.300000000745,"stimulus":"bees-with-color/bee-A2DF.svg","response":1,"trial_type":"image-button-response","trial_index":136,"time_elapsed":447616,"internal_node_id":"0.0-6.0-0.0","subject_id":"600a450ae3f1781b223ee066","study_id":"60edd13110225f80f9f3709b","session_id":"6196c7043d5fe63ce5441fe0","condition":"contingent","relevant_dimensions":["pattern","legs"],"bee_group":{"antennae":"X","wings":"X","pattern":"D","legs":"F"},"bonus":1.3400000000000014},{"rt":970.4000000022352,"stimulus":"bees-with-color/bee-A2SM.svg","response":0,"trial_type":"image-button-response","trial_index":137,"time_elapsed":448588,"internal_node_id":"0.0-6.0-0.1","subject_id":"600a450ae3f1781b223ee066","study_id":"60edd13110225f80f9f3709b","session_id":"6196c7043d5fe63ce5441fe0","condition":"contingent","relevant_dimensions":["pattern","legs"],"bee_group":{"antennae":"X","wings":"X","pattern":"D","legs":"F"},"bonus":1.3400000000000014},{"rt":1163.1000000014901,"stimulus":"bees-with-color/bee-B2DF.svg","response":1,"trial_type":"image-button-response","trial_index":138,"time_elapsed":449752,"internal_node_id":"0.0-6.0-0.2","subject_id":"600a450ae3f1781b223ee066","study_id":"60edd13110225f80f9f3709b","session_id":"6196c7043d5fe63ce5441fe0","condition":"contingent","relevant_dimensions":["pattern","legs"],"bee_group":{"antennae":"X","wings":"X","pattern":"D","legs":"F"},"bonus":1.3400000000000014},{"rt":853.5,"stimulus":"bees-with-color/bee-B2DM.svg","response":0,"trial_type":"image-button-response","trial_index":139,"time_elapsed":450607,"internal_node_id":"0.0-6.0-0.3","subject_id":"600a450ae3f1781b223ee066","study_id":"60edd13110225f80f9f3709b","session_id":"6196c7043d5fe63ce5441fe0","condition":"contingent","relevant_dimensions":["pattern","legs"],"bee_group":{"antennae":"X","wings":"X","pattern":"D","legs":"F"},"bonus":1.3400000000000014},{"rt":696.4000000022352,"stimulus":"bees-with-color/bee-A1SM.svg","response":0,"trial_type":"image-button-response","trial_index":140,"time_elapsed":451305,"internal_node_id":"0.0-6.0-0.4","subject_id":"600a450ae3f1781b223ee066","study_id":"60edd13110225f80f9f3709b","session_id":"6196c7043d5fe63ce5441fe0","condition":"contingent","relevant_dimensions":["pattern","legs"],"bee_group":{"antennae":"X","wings":"X","pattern":"D","legs":"F"},"bonus":1.3400000000000014},{"rt":591.5,"stimulus":"bees-with-color/bee-B1SF.svg","response":0,"trial_type":"image-button-response","trial_index":141,"time_elapsed":451898,"internal_node_id":"0.0-6.0-0.5","subject_id":"600a450ae3f1781b223ee066","study_id":"60edd13110225f80f9f3709b","session_id":"6196c7043d5fe63ce5441fe0","condition":"contingent","relevant_dimensions":["pattern","legs"],"bee_group":{"antennae":"X","wings":"X","pattern":"D","legs":"F"},"bonus":1.3400000000000014},{"rt":1186.5,"stimulus":"bees-with-color/bee-B1DM.svg","response":0,"trial_type":"image-button-response","trial_index":142,"time_elapsed":453087,"internal_node_id":"0.0-6.0-0.6","subject_id":"600a450ae3f1781b223ee066","study_id":"60edd13110225f80f9f3709b","session_id":"6196c7043d5fe63ce5441fe0","condition":"contingent","relevant_dimensions":["pattern","legs"],"bee_group":{"antennae":"X","wings":"X","pattern":"D","legs":"F"},"bonus":1.3400000000000014},{"rt":631.8999999985099,"stimulus":"bees-with-color/bee-A2DM.svg","response":0,"trial_type":"image-button-response","trial_index":143,"time_elapsed":453721,"internal_node_id":"0.0-6.0-0.7","subject_id":"600a450ae3f1781b223ee066","study_id":"60edd13110225f80f9f3709b","session_id":"6196c7043d5fe63ce5441fe0","condition":"contingent","relevant_dimensions":["pattern","legs"],"bee_group":{"antennae":"X","wings":"X","pattern":"D","legs":"F"},"bonus":1.3400000000000014},{"rt":802.1999999992549,"stimulus":"bees-with-color/bee-A1DF.svg","response":1,"trial_type":"image-button-response","trial_index":144,"time_elapsed":454524,"internal_node_id":"0.0-6.0-0.8","subject_id":"600a450ae3f1781b223ee066","study_id":"60edd13110225f80f9f3709b","session_id":"6196c7043d5fe63ce5441fe0","condition":"contingent","relevant_dimensions":["pattern","legs"],"bee_group":{"antennae":"X","wings":"X","pattern":"D","legs":"F"},"bonus":1.3400000000000014},{"rt":639.5,"stimulus":"bees-with-color/bee-B1SM.svg","response":0,"trial_type":"image-button-response","trial_index":145,"time_elapsed":455166,"internal_node_id":"0.0-6.0-0.9","subject_id":"600a450ae3f1781b223ee066","study_id":"60edd13110225f80f9f3709b","session_id":"6196c7043d5fe63ce5441fe0","condition":"contingent","relevant_dimensions":["pattern","legs"],"bee_group":{"antennae":"X","wings":"X","pattern":"D","legs":"F"},"bonus":1.3400000000000014},{"rt":645.6999999992549,"stimulus":"bees-with-color/bee-A1DM.svg","response":0,"trial_type":"image-button-response","trial_index":146,"time_elapsed":455813,"internal_node_id":"0.0-6.0-0.10","subject_id":"600a450ae3f1781b223ee066","study_id":"60edd13110225f80f9f3709b","session_id":"6196c7043d5fe63ce5441fe0","condition":"contingent","relevant_dimensions":["pattern","legs"],"bee_group":{"antennae":"X","wings":"X","pattern":"D","legs":"F"},"bonus":1.3400000000000014},{"rt":579.1000000014901,"stimulus":"bees-with-color/bee-A2SF.svg","response":0,"trial_type":"image-button-response","trial_index":147,"time_elapsed":456393,"internal_node_id":"0.0-6.0-0.11","subject_id":"600a450ae3f1781b223ee066","study_id":"60edd13110225f80f9f3709b","session_id":"6196c7043d5fe63ce5441fe0","condition":"contingent","relevant_dimensions":["pattern","legs"],"bee_group":{"antennae":"X","wings":"X","pattern":"D","legs":"F"},"bonus":1.3400000000000014},{"rt":604.3000000007451,"stimulus":"bees-with-color/bee-A1SF.svg","response":0,"trial_type":"image-button-response","trial_index":148,"time_elapsed":456999,"internal_node_id":"0.0-6.0-0.12","subject_id":"600a450ae3f1781b223ee066","study_id":"60edd13110225f80f9f3709b","session_id":"6196c7043d5fe63ce5441fe0","condition":"contingent","relevant_dimensions":["pattern","legs"],"bee_group":{"antennae":"X","wings":"X","pattern":"D","legs":"F"},"bonus":1.3400000000000014},{"rt":940.3999999985099,"stimulus":"bees-with-color/bee-B1DF.svg","response":1,"trial_type":"image-button-response","trial_index":149,"time_elapsed":457941,"internal_node_id":"0.0-6.0-0.13","subject_id":"600a450ae3f1781b223ee066","study_id":"60edd13110225f80f9f3709b","session_id":"6196c7043d5fe63ce5441fe0","condition":"contingent","relevant_dimensions":["pattern","legs"],"bee_group":{"antennae":"X","wings":"X","pattern":"D","legs":"F"},"bonus":1.3400000000000014},{"rt":547.7999999970198,"stimulus":"bees-with-color/bee-B2SM.svg","response":0,"trial_type":"image-button-response","trial_index":150,"time_elapsed":458491,"internal_node_id":"0.0-6.0-0.14","subject_id":"600a450ae3f1781b223ee066","study_id":"60edd13110225f80f9f3709b","session_id":"6196c7043d5fe63ce5441fe0","condition":"contingent","relevant_dimensions":["pattern","legs"],"bee_group":{"antennae":"X","wings":"X","pattern":"D","legs":"F"},"bonus":1.3400000000000014},{"rt":685.9000000022352,"stimulus":"bees-with-color/bee-B2SF.svg","response":0,"trial_type":"image-button-response","trial_index":151,"time_elapsed":459178,"internal_node_id":"0.0-6.0-0.15","subject_id":"600a450ae3f1781b223ee066","study_id":"60edd13110225f80f9f3709b","session_id":"6196c7043d5fe63ce5441fe0","condition":"contingent","relevant_dimensions":["pattern","legs"],"bee_group":{"antennae":"X","wings":"X","pattern":"D","legs":"F"},"bonus":1.3400000000000014},{"rt":667.1000000014901,"stimulus":"bees-with-color/bee-B1DM.svg","response":0,"trial_type":"image-button-response","trial_index":152,"time_elapsed":459847,"internal_node_id":"0.0-6.0-0.16","subject_id":"600a450ae3f1781b223ee066","study_id":"60edd13110225f80f9f3709b","session_id":"6196c7043d5fe63ce5441fe0","condition":"contingent","relevant_dimensions":["pattern","legs"],"bee_group":{"antennae":"X","wings":"X","pattern":"D","legs":"F"},"bonus":1.3400000000000014},{"rt":665.2999999970198,"stimulus":"bees-with-color/bee-A2SF.svg","response":0,"trial_type":"image-button-response","trial_index":153,"time_elapsed":460513,"internal_node_id":"0.0-6.0-0.17","subject_id":"600a450ae3f1781b223ee066","study_id":"60edd13110225f80f9f3709b","session_id":"6196c7043d5fe63ce5441fe0","condition":"contingent","relevant_dimensions":["pattern","legs"],"bee_group":{"antennae":"X","wings":"X","pattern":"D","legs":"F"},"bonus":1.3400000000000014},{"rt":632.0999999977648,"stimulus":"bees-with-color/bee-A1DM.svg","response":0,"trial_type":"image-button-response","trial_index":154,"time_elapsed":461146,"internal_node_id":"0.0-6.0-0.18","subject_id":"600a450ae3f1781b223ee066","study_id":"60edd13110225f80f9f3709b","session_id":"6196c7043d5fe63ce5441fe0","condition":"contingent","relevant_dimensions":["pattern","legs"],"bee_group":{"antennae":"X","wings":"X","pattern":"D","legs":"F"},"bonus":1.3400000000000014},{"rt":694.2999999970198,"stimulus":"bees-with-color/bee-B2SF.svg","response":0,"trial_type":"image-button-response","trial_index":155,"time_elapsed":461842,"internal_node_id":"0.0-6.0-0.19","subject_id":"600a450ae3f1781b223ee066","study_id":"60edd13110225f80f9f3709b","session_id":"6196c7043d5fe63ce5441fe0","condition":"contingent","relevant_dimensions":["pattern","legs"],"bee_group":{"antennae":"X","wings":"X","pattern":"D","legs":"F"},"bonus":1.3400000000000014},{"rt":993.3999999985099,"stimulus":"bees-with-color/bee-B2DF.svg","response":1,"trial_type":"image-button-response","trial_index":156,"time_elapsed":462836,"internal_node_id":"0.0-6.0-0.20","subject_id":"600a450ae3f1781b223ee066","study_id":"60edd13110225f80f9f3709b","session_id":"6196c7043d5fe63ce5441fe0","condition":"contingent","relevant_dimensions":["pattern","legs"],"bee_group":{"antennae":"X","wings":"X","pattern":"D","legs":"F"},"bonus":1.3400000000000014},{"rt":547.8000000007451,"stimulus":"bees-with-color/bee-A2DM.svg","response":0,"trial_type":"image-button-response","trial_index":157,"time_elapsed":463385,"internal_node_id":"0.0-6.0-0.21","subject_id":"600a450ae3f1781b223ee066","study_id":"60edd13110225f80f9f3709b","session_id":"6196c7043d5fe63ce5441fe0","condition":"contingent","relevant_dimensions":["pattern","legs"],"bee_group":{"antennae":"X","wings":"X","pattern":"D","legs":"F"},"bonus":1.3400000000000014},{"rt":636.3999999985099,"stimulus":"bees-with-color/bee-A2SM.svg","response":0,"trial_type":"image-button-response","trial_index":158,"time_elapsed":464023,"internal_node_id":"0.0-6.0-0.22","subject_id":"600a450ae3f1781b223ee066","study_id":"60edd13110225f80f9f3709b","session_id":"6196c7043d5fe63ce5441fe0","condition":"contingent","relevant_dimensions":["pattern","legs"],"bee_group":{"antennae":"X","wings":"X","pattern":"D","legs":"F"},"bonus":1.3400000000000014},{"rt":872,"stimulus":"bees-with-color/bee-B1DF.svg","response":1,"trial_type":"image-button-response","trial_index":159,"time_elapsed":464896,"internal_node_id":"0.0-6.0-0.23","subject_id":"600a450ae3f1781b223ee066","study_id":"60edd13110225f80f9f3709b","session_id":"6196c7043d5fe63ce5441fe0","condition":"contingent","relevant_dimensions":["pattern","legs"],"bee_group":{"antennae":"X","wings":"X","pattern":"D","legs":"F"},"bonus":1.3400000000000014},{"rt":629,"stimulus":"bees-with-color/bee-B1SF.svg","response":0,"trial_type":"image-button-response","trial_index":160,"time_elapsed":465526,"internal_node_id":"0.0-6.0-0.24","subject_id":"600a450ae3f1781b223ee066","study_id":"60edd13110225f80f9f3709b","session_id":"6196c7043d5fe63ce5441fe0","condition":"contingent","relevant_dimensions":["pattern","legs"],"bee_group":{"antennae":"X","wings":"X","pattern":"D","legs":"F"},"bonus":1.3400000000000014},{"rt":687.3000000007451,"stimulus":"bees-with-color/bee-A1SF.svg","response":0,"trial_type":"image-button-response","trial_index":161,"time_elapsed":466215,"internal_node_id":"0.0-6.0-0.25","subject