[{"success":true,"trial_type":"fullscreen","trial_index":0,"time_elapsed":4186,"internal_node_id":"0.0-0.0","subject_id":"6130ee325904e883b9d19cd2","study_id":"6197b3f67c2b5cd3b6d9596a","session_id":"619be7891450b2e45f5ae65d","condition":"full-information","relevant_dimensions":["antennae","wings"],"bee_group":{"antennae":"A","wings":"1","pattern":"X","legs":"X"},"bonus":0.6600000000000009},{"success":true,"timeout":false,"failed_images":[],"failed_audio":[],"failed_video":[],"trial_type":"preload","trial_index":1,"time_elapsed":5621,"internal_node_id":"0.0-1.0","subject_id":"6130ee325904e883b9d19cd2","study_id":"6197b3f67c2b5cd3b6d9596a","session_id":"619be7891450b2e45f5ae65d","condition":"full-information","relevant_dimensions":["antennae","wings"],"bee_group":{"antennae":"A","wings":"1","pattern":"X","legs":"X"},"bonus":0.6600000000000009},{"rt":16967,"stimulus":"Welcome! Press any key to begin.","response":" ","trial_type":"html-keyboard-response","trial_index":2,"time_elapsed":22590,"internal_node_id":"0.0-2.0","subject_id":"6130ee325904e883b9d19cd2","study_id":"6197b3f67c2b5cd3b6d9596a","session_id":"619be7891450b2e45f5ae65d","condition":"full-information","relevant_dimensions":["antennae","wings"],"bee_group":{"antennae":"A","wings":"1","pattern":"X","legs":"X"},"bonus":0.6600000000000009},{"view_history":[{"page_index":0,"viewing_time":1784},{"page_index":1,"viewing_time":8088.600000008941},{"page_index":2,"viewing_time":6735},{"page_index":3,"viewing_time":12060.199999988079},{"page_index":4,"viewing_time":5768.20000000298},{"page_index":5,"viewing_time":5972.70000000298},{"page_index":6,"viewing_time":9171.20000000298},{"page_index":7,"viewing_time":4998.70000000298},{"page_index":8,"viewing_time":3535.199999988079},{"page_index":9,"viewing_time":2632.1000000089407},{"page_index":10,"viewing_time":5781.899999991059},{"page_index":11,"viewing_time":6940},{"page_index":12,"viewing_time":9539.90000000596},{"page_index":13,"viewing_time":857.9000000059605},{"page_index":14,"viewing_time":1982.0999999940395}],"rt":85848,"trial_type":"instructions","trial_index":3,"time_elapsed":108439,"internal_node_id":"0.0-3.0-0.0","subject_id":"6130ee325904e883b9d19cd2","study_id":"6197b3f67c2b5cd3b6d9596a","session_id":"619be7891450b2e45f5ae65d","condition":"full-information","relevant_dimensions":["antennae","wings"],"bee_group":{"antennae":"A","wings":"1","pattern":"X","legs":"X"},"bonus":0.6600000000000009},{"rt":12213.29999999702,"response":{"Q0":["Two or six legs","Stripes or spots on body","Single or double wings","Antennae or no antennae"]},"question_order":[0],"trial_type":"survey-multi-select","trial_index":4,"time_elapsed":120657,"internal_node_id":"0.0-3.0-1.0","subject_id":"6130ee325904e883b9d19cd2","study_id":"6197b3f67c2b5cd3b6d9596a","session_id":"619be7891450b2e45f5ae65d","condition":"full-information","relevant_dimensions":["antennae","wings"],"bee_group":{"antennae":"A","wings":"1","pattern":"X","legs":"X"},"correct":true,"bonus":0.6600000000000009},{"rt":23312.10000000894,"response":{"Q1":"No.","Q2":"Based on the four features of the bee.","Q3":"You learn if it was friendly or dangerous, but do not alter your bonus."},"question_order":[0,1,2],"trial_type":"survey-multi-choice","trial_index":5,"time_elapsed":143970,"internal_node_id":"0.0-3.0-2.0","subject_id":"6130ee325904e883b9d19cd2","study_id":"6197b3f67c2b5cd3b6d9596a","session_id":"619be7891450b2e45f5ae65d","condition":"full-information","relevant_dimensions":["antennae","wings"],"bee_group":{"antennae":"A","wings":"1","pattern":"X","legs":"X"},"correct":true,"bonus":0.6600000000000009},{"rt":2572.7000000029802,"stimulus":"<p>Congrats, you got everything right<br>When you're ready, click the button below to continue to the experiment.</p>","response":0,"trial_type":"html-button-response","trial_index":6,"time_elapsed":146544,"internal_node_id":"0.0-3.0-3.0","subject_id":"6130ee325904e883b9d19cd2","study_id":"6197b3f67c2b5cd3b6d9596a","session_id":"619be7891450b2e45f5ae65d","condition":"full-information","relevant_dimensions":["antennae","wings"],"bee_group":{"antennae":"A","wings":"1","pattern":"X","legs":"X"},"bonus":0.6600000000000009},{"rt":2447.8999999910593,"stimulus":"bees-with-color/bee-B2SM.svg","response":0,"trial_type":"image-button-response","trial_index":7,"time_elapsed":148995,"internal_node_id":"0.0-4.0-0.0","subject_id":"6130ee325904e883b9d19cd2","study_id":"6197b3f67c2b5cd3b6d9596a","session_id":"619be7891450b2e45f5ae65d","condition":"full-information","relevant_dimensions":["antennae","wings"],"bee_group":{"antennae":"A","wings":"1","pattern":"X","legs":"X"},"action":"harvest","summary":"good-harvest","bonus":0.6600000000000009},{"rt":6934.4000000059605,"stimulus":"\n                    <p><b>Action: <em>harvest</em></b></p>\n                    <p>This is the bee that you just saw.</p>\n                    <img src=\"bees-with-color/bee-B2SM.svg\" width=\"200\">\n                    <p><span class=\"greenText\"><b>Successful harvest!</b></span><br>Your pay has increased by $0.02. Your bonus pay is now $0.56.</p>\n            ","response":0,"trial_type":"html-button-response","trial_index":8,"time_elapsed":155931,"internal_node_id":"0.0-4.0-1.0","subject_id":"6130ee325904e883b9d19cd2","study_id":"6197b3f67c2b5cd3b6d9596a","session_id":"619be7891450b2e45f5ae65d","condition":"full-information","relevant_dimensions":["antennae","wings"],"bee_group":{"antennae":"A","wings":"1","pattern":"X","legs":"X"},"bonus":0.6600000000000009},{"rt":5280,"stimulus":"bees-with-color/bee-A2DM.svg","response":1,"trial_type":"image-button-response","trial_index":9,"time_elapsed":161213,"internal_node_id":"0.0-4.0-0.1","subject_id":"6130ee325904e883b9d19cd2","study_id":"6197b3f67c2b5cd3b6d9596a","session_id":"619be7891450b2e45f5ae65d","condition":"full-information","relevant_dimensions":["antennae","wings"],"bee_group":{"antennae":"A","wings":"1","pattern":"X","legs":"X"},"action":"avoid","summary":"bad-avoid","bonus":0.6600000000000009},{"rt":7642.5999999940395,"stimulus":"\n                    <p><b>Action: <em>avoid</em></b></p>\n                    <p>This is the bee that you just saw.</p>\n                    <img src=\"bees-with-color/bee-A2DM.svg\" width=\"200\">\n                    <p><span class=\"redText\">Bad choice,</span> the bee was friendly.<br>Your bonus pay is unchanged, and remains at $0.56.</p>\n            ","response":0,"trial_type":"html-button-response","trial_index":10,"time_elapsed":168857,"internal_node_id":"0.0-4.0-1.1","subject_id":"6130ee325904e883b9d19cd2","study_id":"6197b3f67c2b5cd3b6d9596a","session_id":"619be7891450b2e45f5ae65d","condition":"full-information","relevant_dimensions":["antennae","wings"],"bee_group":{"antennae":"A","wings":"1","pattern":"X","legs":"X"},"bonus":0.6600000000000009},{"rt":1978.5999999940395,"stimulus":"bees-with-color/bee-A1SM.svg","response":0,"trial_type":"image-button-response","trial_index":11,"time_elapsed":170838,"internal_node_id":"0.0-4.0-0.2","subject_id":"6130ee325904e883b9d19cd2","study_id":"6197b3f67c2b5cd3b6d9596a","session_id":"619be7891450b2e45f5ae65d","condition":"full-information","relevant_dimensions":["antennae","wings"],"bee_group":{"antennae":"A","wings":"1","pattern":"X","legs":"X"},"action":"harvest","summary":"bad-harvest","bonus":0.6600000000000009},{"rt":6414.70000000298,"stimulus":"\n                    <p><b>Action: <em>harvest</em></b></p>\n                    <p>This is the bee that you just saw.</p>\n                    <img src=\"bees-with-color/bee-A1SM.svg\" width=\"200\">\n                    <p><span class=\"redText\">Bad choice, the bee was angry.</span><br><b>You have been stung!</b><br>Your pay has been decreased by $0.10. Your bonus pay is now $0.46.</p>\n            ","response":0,"trial_type":"html-button-response","trial_index":12,"time_elapsed":177254,"internal_node_id":"0.0-4.0-1.2","subject_id":"6130ee325904e883b9d19cd2","study_id":"6197b3f67c2b5cd3b6d9596a","session_id":"619be7891450b2e45f5ae65d","condition":"full-information","relevant_dimensions":["antennae","wings"],"bee_group":{"antennae":"A","wings":"1","pattern":"X","legs":"X"},"bonus":0.6600000000000009},{"rt":2304.2000000029802,"stimulus":"bees-with-color/bee-B1SF.svg","response":0,"trial_type":"image-button-response","trial_index":13,"time_elapsed":179560,"internal_node_id":"0.0-4.0-0.3","subject_id":"6130ee325904e883b9d19cd2","study_id":"6197b3f67c2b5cd3b6d9596a","session_id":"619be7891450b2e45f5ae65d","condition":"full-information","relevant_dimensions":["antennae","wings"],"bee_group":{"antennae":"A","wings":"1","pattern":"X","legs":"X"},"action":"harvest","summary":"good-harvest","bonus":0.6600000000000009},{"rt":6874.399999991059,"stimulus":"\n                    <p><b>Action: <em>harvest</em></b></p>\n                    <p>This is the bee that you just saw.</p>\n                    <img src=\"bees-with-color/bee-B1SF.svg\" width=\"200\">\n                    <p><span class=\"greenText\"><b>Successful harvest!</b></span><br>Your pay has increased by $0.02. Your bonus pay is now $0.48.</p>\n            ","response":0,"trial_type":"html-button-response","trial_index":14,"time_elapsed":186437,"internal_node_id":"0.0-4.0-1.3","subject_id":"6130ee325904e883b9d19cd2","study_id":"6197b3f67c2b5cd3b6d9596a","session_id":"619be7891450b2e45f5ae65d","condition":"full-information","relevant_dimensions":["antennae","wings"],"bee_group":{"antennae":"A","wings":"1","pattern":"X","legs":"X"},"bonus":0.6600000000000009},{"rt":2939.2000000029802,"stimulus":"bees-with-color/bee-B2SF.svg","response":0,"trial_type":"image-button-response","trial_index":15,"time_elapsed":189378,"internal_node_id":"0.0-4.0-0.4","subject_id":"6130ee325904e883b9d19cd2","study_id":"6197b3f67c2b5cd3b6d9596a","session_id":"619be7891450b2e45f5ae65d","condition":"full-information","relevant_dimensions":["antennae","wings"],"bee_group":{"antennae":"A","wings":"1","pattern":"X","legs":"X"},"action":"harvest","summary":"good-harvest","bonus":0.6600000000000009},{"rt":1996.7000000029802,"stimulus":"\n                    <p><b>Action: <em>harvest</em></b></p>\n                    <p>This is the bee that you just saw.</p>\n                    <img src=\"bees-with-color/bee-B2SF.svg\" width=\"200\">\n                    <p><span class=\"greenText\"><b>Successful harvest!</b></span><br>Your pay has increased by $0.02. Your bonus pay is now $0.50.</p>\n            ","response":0,"trial_type":"html-button-response","trial_index":16,"time_elapsed":191376,"internal_node_id":"0.0-4.0-1.4","subject_id":"6130ee325904e883b9d19cd2","study_id":"6197b3f67c2b5cd3b6d9596a","session_id":"619be7891450b2e45f5ae65d","condition":"full-information","relevant_dimensions":["antennae","wings"],"bee_group":{"antennae":"A","wings":"1","pattern":"X","legs":"X"},"bonus":0.6600000000000009},{"rt":2487.5999999940395,"stimulus":"bees-with-color/bee-B2DM.svg","response":1,"trial_type":"image-button-response","trial_index":17,"time_elapsed":193865,"internal_node_id":"0.0-4.0-0.5","subject_id":"6130ee325904e883b9d19cd2","study_id":"6197b3f67c2b5cd3b6d9596a","session_id":"619be7891450b2e45f5ae65d","condition":"full-information","relevant_dimensions":["antennae","wings"],"bee_group":{"antennae":"A","wings":"1","pattern":"X","legs":"X"},"action":"avoid","summary":"bad-avoid","bonus":0.6600000000000009},{"rt":4603.5999999940395,"stimulus":"\n                    <p><b>Action: <em>avoid</em></b></p>\n                    <p>This is the bee that you just saw.</p>\n                    <img src=\"bees-with-color/bee-B2DM.svg\" width=\"200\">\n                    <p><span class=\"redText\">Bad choice,</span> the bee was friendly.<br>Your bonus pay is unchanged, and remains at $0.50.</p>\n            ","response":0,"trial_type":"html-button-response","trial_index":18,"time_elapsed":198470,"internal_node_id":"0.0-4.0-1.5","subject_id":"6130ee325904e883b9d19cd2","study_id":"6197b3f67c2b5cd3b6d9596a","session_id":"619be7891450b2e45f5ae65d","condition":"full-information","relevant_dimensions":["antennae","wings"],"bee_group":{"antennae":"A","wings":"1","pattern":"X","legs":"X"},"bonus":0.6600000000000009},{"rt":1386.1000000089407,"stimulus":"bees-with-color/bee-A1DF.svg","response":1,"trial_type":"image-button-response","trial_index":19,"time_elapsed":199857,"internal_node_id":"0.0-4.0-0.6","subject_id":"6130ee325904e883b9d19cd2","study_id":"6197b3f67c2b5cd3b6d9596a","session_id":"619be7891450b2e45f5ae65d","condition":"full-information","relevant_dimensions":["antennae","wings"],"bee_group":{"antennae":"A","wings":"1","pattern":"X","legs":"X"},"action":"avoid","summary":"good-avoid","bonus":0.6600000000000009},{"rt":8618.90000000596,"stimulus":"\n                    <p><b>Action: <em>avoid</em></b></p>\n                    <p>This is the bee that you just saw.</p>\n                    <img src=\"bees-with-color/bee-A1DF.svg\" width=\"200\">\n                    <p><span class=\"greenText\">Good choice!</span>  This bee would have stung you.<br>Your bonus pay is unchanged, and remains at $0.50.</p>\n            ","response":0,"trial_type":"html-button-response","trial_index":20,"time_elapsed":208478,"internal_node_id":"0.0-4.0-1.6","subject_id":"6130ee325904e883b9d19cd2","study_id":"6197b3f67c2b5cd3b6d9596a","session_id":"619be7891450b2e45f5ae65d","condition":"full-information","relevant_dimensions":["antennae","wings"],"bee_group":{"antennae":"A","wings":"1","pattern":"X","legs":"X"},"bonus":0.6600000000000009},{"rt":1514.3999999910593,"stimulus":"bees-with-color/bee-B1DM.svg","response":0,"trial_type":"image-button-response","trial_index":21,"time_elapsed":209994,"internal_node_id":"0.0-4.0-0.7","subject_id":"6130ee325904e883b9d19cd2","study_id":"6197b3f67c2b5cd3b6d9596a","session_id":"619be7891450b2e45f5ae65d","condition":"full-information","relevant_dimensions":["antennae","wings"],"bee_group":{"antennae":"A","wings":"1","pattern":"X","legs":"X"},"action":"harvest","summary":"good-harvest","bonus":0.6600000000000009},{"rt":1874.2999999970198,"stimulus":"\n                    <p><b>Action: <em>harvest</em></b></p>\n                    <p>This is the bee that you just saw.</p>\n                    <img src=\"bees-with-color/bee-B1DM.svg\" width=\"200\">\n                    <p><span class=\"greenText\"><b>Successful harvest!</b></span><br>Your pay has increased by $0.02. Your bonus pay is now $0.52.</p>\n            ","response":0,"trial_type":"html-button-response","trial_index":22,"time_elapsed":211869,"internal_node_id":"0.0-4.0-1.7","subject_id":"6130ee325904e883b9d19cd2","study_id":"6197b3f67c2b5cd3b6d9596a","session_id":"619be7891450b2e45f5ae65d","condition":"full-information","relevant_dimensions":["antennae","wings"],"bee_group":{"antennae":"A","wings":"1","pattern":"X","legs":"X"},"bonus":0.6600000000000009},{"rt":1143.7000000029802,"stimulus":"bees-with-color/bee-A2SF.svg","response":1,"trial_type":"image-button-response","trial_index":23,"time_elapsed":213015,"internal_node_id":"0.0-4.0-0.8","subject_id":"6130ee325904e883b9d19cd2","study_id":"6197b3f67c2b5cd3b6d9596a","session_id":"619be7891450b2e45f5ae65d","condition":"full-information","relevant_dimensions":["antennae","wings"],"bee_group":{"antennae":"A","wings":"1","pattern":"X","legs":"X"},"action":"avoid","summary":"bad-avoid","bonus":0.6600000000000009},{"rt":4525.5,"stimulus":"\n                    <p><b>Action: <em>avoid</em></b></p>\n                    <p>This is the bee that you just saw.</p>\n                    <img src=\"bees-with-color/bee-A2SF.svg\" width=\"200\">\n                    <p><span class=\"redText\">Bad choice,</span> the bee was friendly.<br>Your bonus pay is unchanged, and remains at $0.52.</p>\n            ","response":0,"trial_type":"html-button-response","trial_index":24,"time_elapsed":217541,"internal_node_id":"0.0-4.0-1.8","subject_id":"6130ee325904e883b9d19cd2","study_id":"6197b3f67c2b5cd3b6d9596a","session_id":"619be7891450b2e45f5ae65d","condition":"full-information","relevant_dimensions":["antennae","wings"],"bee_group":{"antennae":"A","wings":"1","pattern":"X","legs":"X"},"bonus":0.6600000000000009},{"rt":2332.5999999940395,"stimulus":"bees-with-color/bee-A2SM.svg","response":0,"trial_type":"image-button-response","trial_index":25,"time_elapsed":219876,"internal_node_id":"0.0-4.0-0.9","subject_id":"6130ee325904e883b9d19cd2","study_id":"6197b3f67c2b5cd3b6d9596a","session_id":"619be7891450b2e45f5ae65d","condition":"full-information","relevant_dimensions":["antennae","wings"],"bee_group":{"antennae":"A","wings":"1","pattern":"X","legs":"X"},"action":"harvest","summary":"good-harvest","bonus":0.6600000000000009},{"rt":1057.7000000029802,"stimulus":"\n                    <p><b>Action: <em>harvest</em></b></p>\n                    <p>This is the bee that you just saw.</p>\n                    <img src=\"bees-with-color/bee-A2SM.svg\" width=\"200\">\n                    <p><span class=\"greenText\"><b>Successful harvest!</b></span><br>Your pay has increased by $0.02. Your bonus pay is now $0.54.</p>\n            ","response":0,"trial_type":"html-button-response","trial_index":26,"time_elapsed":220935,"internal_node_id":"0.0-4.0-1.9","subject_id":"6130ee325904e883b9d19cd2","study_id":"6197b3f67c2b5cd3b6d9596a","session_id":"619be7891450b2e45f5ae65d","condition":"full-information","relevant_dimensions":["antennae","wings"],"bee_group":{"antennae":"A","wings":"1","pattern":"X","legs":"X"},"bonus":0.6600000000000009},{"rt":1608.5,"stimulus":"bees-with-color/bee-A2DF.svg","response":1,"trial_type":"image-button-response","trial_index":27,"time_elapsed":222545,"internal_node_id":"0.0-4.0-0.10","subject_id":"6130ee325904e883b9d19cd2","study_id":"6197b3f67c2b5cd3b6d9596a","session_id":"619be7891450b2e45f5ae65d","condition":"full-information","relevant_dimensions":["antennae","wings"],"bee_group":{"antennae":"A","wings":"1","pattern":"X","legs":"X"},"action":"avoid","summary":"bad-avoid","bonus":0.6600000000000009},{"rt":3826.800000011921,"stimulus":"\n                    <p><b>Action: <em>avoid</em></b></p>\n                    <p>This is the bee that you just saw.</p>\n                    <img src=\"bees-with-color/bee-A2DF.svg\" width=\"200\">\n                    <p><span class=\"redText\">Bad choice,</span> the bee was friendly.<br>Your bonus pay is unchanged, and remains at $0.54.</p>\n            ","response":0,"trial_type":"html-button-response","trial_index":28,"time_elapsed":226373,"internal_node_id":"0.0-4.0-1.10","subject_id":"6130ee325904e883b9d19cd2","study_id":"6197b3f67c2b5cd3b6d9596a","session_id":"619be7891450b2e45f5ae65d","condition":"full-information","relevant_dimensions":["antennae","wings"],"bee_group":{"antennae":"A","wings":"1","pattern":"X","legs":"X"},"bonus":0.6600000000000009},{"rt":1682.5,"stimulus":"bees-with-color/bee-A1DM.svg","response":1,"trial_type":"image-button-response","trial_index":29,"time_elapsed":228057,"internal_node_id":"0.0-4.0-0.11","subject_id":"6130ee325904e883b9d19cd2","study_id":"6197b3f67c2b5cd3b6d9596a","session_id":"619be7891450b2e45f5ae65d","condition":"full-information","relevant_dimensions":["antennae","wings"],"bee_group":{"antennae":"A","wings":"1","pattern":"X","legs":"X"},"action":"avoid","summary":"good-avoid","bonus":0.6600000000000009},{"rt":5674.5,"stimulus":"\n                    <p><b>Action: <em>avoid</em></b></p>\n                    <p>This is the bee that you just saw.</p>\n                    <img src=\"bees-with-color/bee-A1DM.svg\" width=\"200\">\n                    <p><span class=\"greenText\">Good choice!</span>  This bee would have stung you.<br>Your bonus pay is unchanged, and remains at $0.54.</p>\n            ","response":0,"trial_type":"html-button-response","trial_index":30,"time_elapsed":233733,"internal_node_id":"0.0-4.0-1.11","subject_id":"6130ee325904e883b9d19cd2","study_id":"6197b3f67c2b5cd3b6d9596a","session_id":"619be7891450b2e45f5ae65d","condition":"full-information","relevant_dimensions":["antennae","wings"],"bee_group":{"antennae":"A","wings":"1","pattern":"X","legs":"X"},"bonus":0.6600000000000009},{"rt":1893.5,"stimulus":"bees-with-color/bee-B2DF.svg","response":0,"trial_type":"image-button-response","trial_index":31,"time_elapsed":235628,"internal_node_id":"0.0-4.0-0.12","subject_id":"6130ee325904e883b9d19cd2","study_id":"6197b3f67c2b5cd3b6d9596a","session_id":"619be7891450b2e45f5ae65d","condition":"full-information","relevant_dimensions":["antennae","wings"],"bee_group":{"antennae":"A","wings":"1","pattern":"X","legs":"X"},"action":"harvest","summary":"good-harvest","bonus":0.6600000000000009},{"rt":1320.7999999970198,"stimulus":"\n                    <p><b>Action: <em>harvest</em></b></p>\n                    <p>This is the bee that you just saw.</p>\n                    <img src=\"bees-with-color/bee-B2DF.svg\" width=\"200\">\n                    <p><span class=\"greenText\"><b>Successful harvest!</b></span><br>Your pay has increased by $0.02. Your bonus pay is now $0.56.</p>\n            ","response":0,"trial_type":"html-button-response","trial_index":32,"time_elapsed":236950,"internal_node_id":"0.0-4.0-1.12","subject_id":"6130ee325904e883b9d19cd2","study_id":"6197b3f67c2b5cd3b6d9596a","session_id":"619be7891450b2e45f5ae65d","condition":"full-information","relevant_dimensions":["antennae","wings"],"bee_group":{"antennae":"A","wings":"1","pattern":"X","legs":"X"},"bonus":0.6600000000000009},{"rt":1907.800000011921,"stimulus":"bees-with-color/bee-B1SM.svg","response":1,"trial_type":"image-button-response","trial_index":33,"time_elapsed":238860,"internal_node_id":"0.0-4.0-0.13","subject_id":"6130ee325904e883b9d19cd2","study_id":"6197b3f67c2b5cd3b6d9596a","session_id":"619be7891450b2e45f5ae65d","condition":"full-information","relevant_dimensions":["antennae","wings"],"bee_group":{"antennae":"A","wings":"1","pattern":"X","legs":"X"},"action":"avoid","summary":"bad-avoid","bonus":0.6600000000000009},{"rt":3188.6000000089407,"stimulus":"\n                    <p><b>Action: <em>avoid</em></b></p>\n                    <p>This is the bee that you just saw.</p>\n                    <img src=\"bees-with-color/bee-B1SM.svg\" width=\"200\">\n                    <p><span class=\"redText\">Bad choice,</span> the bee was friendly.<br>Your bonus pay is unchanged, and remains at $0.56.</p>\n            ","response":0,"trial_type":"html-button-response","trial_index":34,"time_elapsed":242049,"internal_node_id":"0.0-4.0-1.13","subject_id":"6130ee325904e883b9d19cd2","study_id":"6197b3f67c2b5cd3b6d9596a","session_id":"619be7891450b2e45f5ae65d","condition":"full-information","relevant_dimensions":["antennae","wings"],"bee_group":{"antennae":"A","wings":"1","pattern":"X","legs":"X"},"bonus":0.6600000000000009},{"rt":2121.7000000029802,"stimulus":"bees-with-color/bee-B1DF.svg","response":0,"trial_type":"image-button-response","trial_index":35,"time_elapsed":244172,"internal_node_id":"0.0-4.0-0.14","subject_id":"6130ee325904e883b9d19cd2","study_id":"6197b3f67c2b5cd3b6d9596a","session_id":"619be7891450b2e45f5ae65d","condition":"full-information","relevant_dimensions":["antennae","wings"],"bee_group":{"antennae":"A","wings":"1","pattern":"X","legs":"X"},"action":"harvest","summary":"good-harvest","bonus":0.6600000000000009},{"rt":1254.7000000029802,"stimulus":"\n                    <p><b>Action: <em>harvest</em></b></p>\n                    <p>This is the bee that you just saw.</p>\n                    <img src=\"bees-with-color/bee-B1DF.svg\" width=\"200\">\n                    <p><span class=\"greenText\"><b>Successful harvest!</b></span><br>Your pay has increased by $0.02. Your bonus pay is now $0.58.</p>\n            ","response":0,"trial_type":"html-button-response","trial_index":36,"time_elapsed":245428,"internal_node_id":"0.0-4.0-1.14","subject_id":"6130ee325904e883b9d19cd2","study_id":"6197b3f67c2b5cd3b6d9596a","session_id":"619be7891450b2e45f5ae65d","condition":"full-information","relevant_dimensions":["antennae","wings"],"bee_group":{"antennae":"A","wings":"1","pattern":"X","legs":"X"},"bonus":0.6600000000000009},{"rt":1850.1000000089407,"stimulus":"bees-with-color/bee-A1SF.svg","response":1,"trial_type":"image-button-response","trial_index":37,"time_elapsed":247280,"internal_node_id":"0.0-4.0-0.15","subject_id":"6130ee325904e883b9d19cd2","study_id":"6197b3f67c2b5cd3b6d9596a","session_id":"619be7891450b2e45f5ae65d","condition":"full-information","relevant_dimensions":["antennae","wings"],"bee_group":{"antennae":"A","wings":"1","pattern":"X","legs":"X"},"action":"avoid","summary":"good-avoid","bonus":0.6600000000000009},{"rt":1288.9000000059605,"stimulus":"\n                    <p><b>Action: <em>avoid</em></b></p>\n                    <p>This is the bee that you just saw.</p>\n                    <img src=\"bees-with-color/bee-A1SF.svg\" width=\"200\">\n                    <p><span class=\"greenText\">Good choice!</span>  This bee would have stung you.<br>Your bonus pay is unchanged, and remains at $0.58.</p>\n            ","response":0,"trial_type":"html-button-response","trial_index":38,"time_elapsed":248570,"internal_node_id":"0.0-4.0-1.15","subject_id":"6130ee325904e883b9d19cd2","study_id":"6197b3f67c2b5cd3b6d9596a","session_id":"619be7891450b2e45f5ae65d","condition":"full-information","relevant_dimensions":["antennae","wings"],"bee_group":{"antennae":"A","wings":"1","pattern":"X","legs":"X"},"bonus":0.6600000000000009},{"rt":1368.2999999970198,"stimulus":"bees-with-color/bee-A1DM.svg","response":0,"trial_type":"image-button-response","trial_index":39,"time_elapsed":249940,"internal_node_id":"0.0-4.0-0.16","subject_id":"6130ee325904e883b9d19cd2","study_id":"6197b3f67c2b5cd3b6d9596a","session_id":"619be7891450b2e45f5ae65d","condition":"full-information","relevant_dimensions":["antennae","wings"],"bee_group":{"antennae":"A","wings":"1","pattern":"X","legs":"X"},"action":"harvest","summary":"bad-harvest","bonus":0.6600000000000009},{"rt":6302.4000000059605,"stimulus":"\n                    <p><b>Action: <em>harvest</em></b></p>\n                    <p>This is the bee that you just saw.</p>\n                    <img src=\"bees-with-color/bee-A1DM.svg\" width=\"200\">\n                    <p><span class=\"redText\">Bad choice, the bee was angry.</span><br><b>You have been stung!</b><br>Your pay has been decreased by $0.10. Your bonus pay is now $0.48.</p>\n            ","response":0,"trial_type":"html-button-response","trial_index":40,"time_elapsed":256243,"internal_node_id":"0.0-4.0-1.16","subject_id":"6130ee325904e883b9d19cd2","study_id":"6197b3f67c2b5cd3b6d9596a","session_id":"619be7891450b2e45f5ae65d","condition":"full-information","relevant_dimensions":["antennae","wings"],"bee_group":{"antennae":"A","wings":"1","pattern":"X","legs":"X"},"bonus":0.6600000000000009},{"rt":1559.4000000059605,"stimulus":"bees-with-color/bee-B2SM.svg","response":0,"trial_type":"image-button-response","trial_index":41,"time_elapsed":257804,"internal_node_id":"0.0-4.0-0.17","subject_id":"6130ee325904e883b9d19cd2","study_id":"6197b3f67c2b5cd3b6d9596a","session_id":"619be7891450b2e45f5ae65d","condition":"full-information","relevant_dimensions":["antennae","wings"],"bee_group":{"antennae":"A","wings":"1","pattern":"X","legs":"X"},"action":"harvest","summary":"good-harvest","bonus":0.6600000000000009},{"rt":1277.5999999940395,"stimulus":"\n                    <p><b>Action: <em>harvest</em></b></p>\n                    <p>This is the bee that you just saw.</p>\n                    <img src=\"bees-with-color/bee-B2SM.svg\" width=\"200\">\n                    <p><span class=\"greenText\"><b>Successful harvest!</b></span><br>Your pay has increased by $0.02. Your bonus pay is now $0.50.</p>\n            ","response":0,"trial_type":"html-button-response","trial_index":42,"time_elapsed":259083,"internal_node_id":"0.0-4.0-1.17","subject_id":"6130ee325904e883b9d19cd2","study_id":"6197b3f67c2b5cd3b6d9596a","session_id":"619be7891450b2e45f5ae65d","condition":"full-information","relevant_dimensions":["antennae","wings"],"bee_group":{"antennae":"A","wings":"1","pattern":"X","legs":"X"},"bonus":0.6600000000000009},{"rt":1443.2999999970198,"stimulus":"bees-with-color/bee-B2DM.svg","response":1,"trial_type":"image-button-response","trial_index":43,"time_elapsed":260528,"internal_node_id":"0.0-4.0-0.18","subject_id":"6130ee325904e883b9d19cd2","study_id":"6197b3f67c2b5cd3b6d9596a","session_id":"619be7891450b2e45f5ae65d","condition":"full-information","relevant_dimensions":["antennae","wings"],"bee_group":{"antennae":"A","wings":"1","pattern":"X","legs":"X"},"action":"avoid","summary":"bad-avoid","bonus":0.6600000000000009},{"rt":1234.300000011921,"stimulus":"\n                    <p><b>Action: <em>avoid</em></b></p>\n                    <p>This is the bee that you just saw.</p>\n                    <img src=\"bees-with-color/bee-B2DM.svg\" width=\"200\">\n                    <p><span class=\"redText\">Bad choice,</span> the bee was friendly.<br>Your bonus pay is unchanged, and remains at $0.50.</p>\n            ","response":0,"trial_type":"html-button-response","trial_index":44,"time_elapsed":261764,"internal_node_id":"0.0-4.0-1.18","subject_id":"6130ee325904e883b9d19cd2","study_id":"6197b3f67c2b5cd3b6d9596a","session_id":"619be7891450b2e45f5ae65d","condition":"full-information","relevant_dimensions":["antennae","wings"],"bee_group":{"antennae":"A","wings":"1","pattern":"X","legs":"X"},"bonus":0.6600000000000009},{"rt":1058.2999999970198,"stimulus":"bees-with-color/bee-A2DF.svg","response":1,"trial_type":"image-button-response","trial_index":45,"time_elapsed":262823,"internal_node_id":"0.0-4.0-0.19","subject_id":"6130ee325904e883b9d19cd2","study_id":"6197b3f67c2b5cd3b6d9596a","session_id":"619be7891450b2e45f5ae65d","condition":"full-information","relevant_dimensions":["antennae","wings"],"bee_group":{"antennae":"A","wings":"1","pattern":"X","legs":"X"},"action":"avoid","summary":"bad-avoid","bonus":0.6600000000000009},{"rt":976.2999999970198,"stimulus":"\n                    <p><b>Action: <em>avoid</em></b></p>\n                    <p>This is the bee that you just saw.</p>\n                    <img src=\"bees-with-color/bee-A2DF.svg\" width=\"200\">\n                    <p><span class=\"redText\">Bad choice,</span> the bee was friendly.<br>Your bonus pay is unchanged, and remains at $0.50.</p>\n            ","response":0,"trial_type":"html-button-response","trial_index":46,"time_elapsed":263801,"internal_node_id":"0.0-4.0-1.19","subject_id":"6130ee325904e883b9d19cd2","study_id":"6197b3f67c2b5cd3b6d9596a","session_id":"619be7891450b2e45f5ae65d","condition":"full-information","relevant_dimensions":["antennae","wings"],"bee_group":{"antennae":"A","wings":"1","pattern":"X","legs":"X"},"bonus":0.6600000000000009},{"rt":1639.2999999970198,"stimulus":"bees-with-color/bee-A1DF.svg","response":1,"trial_type":"image-button-response","trial_index":47,"time_elapsed":265441,"internal_node_id":"0.0-4.0-0.20","subject_id":"6130ee325904e883b9d19cd2","study_id":"6197b3f67c2b5cd3b6d9596a","session_id":"619be7891450b2e45f5ae65d","condition":"full-information","relevant_dimensions":["antennae","wings"],"bee_group":{"antennae":"A","wings":"1","pattern":"X","legs":"X"},"action":"avoid","summary":"good-avoid","bonus":0.6600000000000009},{"rt":1101.199999988079,"stimulus":"\n                    <p><b>Action: <em>avoid</em></b></p>\n                    <p>This is the bee that you just saw.</p>\n                    <img src=\"bees-with-color/bee-A1DF.svg\" width=\"200\">\n                    <p><span class=\"greenText\">Good choice!</span>  This bee would have stung you.<br>Your bonus pay is unchanged, and remains at $0.50.</p>\n            ","response":0,"trial_type":"html-button-response","trial_index":48,"time_elapsed":266543,"internal_node_id":"0.0-4.0-1.20","subject_id":"6130ee325904e883b9d19cd2","study_id":"6197b3f67c2b5cd3b6d9596a","session_id":"619be7891450b2e45f5ae65d","condition":"full-information","relevant_dimensions":["antennae","wings"],"bee_group":{"antennae":"A","wings":"1","pattern":"X","legs":"X"},"bonus":0.6600000000000009},{"rt":3705.3999999910593,"stimulus":"bees-with-color/bee-A2SF.svg","response":1,"trial_type":"image-button-response","trial_index":49,"time_elapsed":270250,"internal_node_id":"0.0-4.0-0.21","subject_id":"6130ee325904e883b9d19cd2","study_id":"6197b3f67c2b5cd3b6d9596a","session_id":"619be7891450b2e45f5ae65d","condition":"full-information","relevant_dimensions":["antennae","wings"],"bee_group":{"antennae":"A","wings":"1","pattern":"X","legs":"X"},"action":"avoid","summary":"bad-avoid","bonus":0.6600000000000009},{"rt":833.6999999880791,"stimulus":"\n                    <p><b>Action: <em>avoid</em></b></p>\n                    <p>This is the bee that you just saw.</p>\n                    <img src=\"bees-with-color/bee-A2SF.svg\" width=\"200\">\n                    <p><span class=\"redText\">Bad choice,</span> the bee was friendly.<br>Your bonus pay is unchanged, and remains at $0.50.</p>\n            ","response":0,"trial_type":"html-button-response","trial_index":50,"time_elapsed":271085,"internal_node_id":"0.0-4.0-1.21","subject_id":"6130ee325904e883b9d19cd2","study_id":"6197b3f67c2b5cd3b6d9596a","session_id":"619be7891450b2e45f5ae65d","condition":"full-information","relevant_dimensions":["antennae","wings"],"bee_group":{"antennae":"A","wings":"1","pattern":"X","legs":"X"},"bonus":0.6600000000000009},{"rt":1223.2999999970198,"stimulus":"bees-with-color/bee-B1SM.svg","response":1,"trial_type":"image-button-response","trial_index":51,"time_elapsed":272310,"internal_node_id":"0.0-4.0-0.22","subject_id":"6130ee325904e883b9d19cd2","study_id":"6197b3f67c2b5cd3b6d9596a","session_id":"619be7891450b2e45f5ae65d","condition":"full-information","relevant_dimensions":["antennae","wings"],"bee_group":{"antennae":"A","wings":"1","pattern":"X","legs":"X"},"action":"avoid","summary":"bad-avoid","bonus":0.6600000000000009},{"rt":812,"stimulus":"\n                    <p><b>Action: <em>avoid</em></b></p>\n                    <p>This is the bee that you just saw.</p>\n                    <img src=\"bees-with-color/bee-B1SM.svg\" width=\"200\">\n                    <p><span class=\"redText\">Bad choice,</span> the bee was friendly.<br>Your bonus pay is unchanged, and remains at $0.50.</p>\n            ","response":0,"trial_type":"html-button-response","trial_index":52,"time_elapsed":273123,"internal_node_id":"0.0-4.0-1.22","subject_id":"6130ee325904e883b9d19cd2","study_id":"6197b3f67c2b5cd3b6d9596a","session_id":"619be7891450b2e45f5ae65d","condition":"full-information","relevant_dimensions":["antennae","wings"],"bee_group":{"antennae":"A","wings":"1","pattern":"X","legs":"X"},"bonus":0.6600000000000009},{"rt":1129.699999988079,"stimulus":"bees-with-color/bee-B2SF.svg","response":0,"trial_type":"image-button-response","trial_index":53,"time_elapsed":274254,"internal_node_id":"0.0-4.0-0.23","subject_id":"6130ee325904e883b9d19cd2","study_id":"6197b3f67c2b5cd3b6d9596a","session_id":"619be7891450b2e45f5ae65d","condition":"full-information","relevant_dimensions":["antennae","wings"],"bee_group":{"antennae":"A","wings":"1","pattern":"X","legs":"X"},"action":"harvest","summary":"good-harvest","bonus":0.6600000000000009},{"rt":836,"stimulus":"\n                    <p><b>Action: <em>harvest</em></b></p>\n                    <p>This is the bee that you just saw.</p>\n                    <img src=\"bees-with-color/bee-B2SF.svg\" width=\"200\">\n                    <p><span class=\"greenText\"><b>Successful harvest!</b></span><br>Your pay has increased by $0.02. Your bonus pay is now $0.52.</p>\n            ","response":0,"trial_type":"html-button-response","trial_index":54,"time_elapsed":275091,"internal_node_id":"0.0-4.0-1.23","subject_id":"6130ee325904e883b9d19cd2","study_id":"6197b3f67c2b5cd3b6d9596a","session_id":"619be7891450b2e45f5ae65d","condition":"full-information","relevant_dimensions":["antennae","wings"],"bee_group":{"antennae":"A","wings":"1","pattern":"X","legs":"X"},"bonus":0.6600000000000009},{"rt":789.5999999940395,"stimulus":"bees-with-color/bee-B1DM.svg","response":1,"trial_type":"image-button-response","trial_index":55,"time_elapsed":275882,"internal_node_id":"0.0-4.0-0.24","subject_id":"6130ee325904e883b9d19cd2","study_id":"6197b3f67c2b5cd3b6d9596a","session_id":"619be7891450b2e45f5ae65d","condition":"full-information","relevant_dimensions":["antennae","wings"],"bee_group":{"antennae":"A","wings":"1","pattern":"X","legs":"X"},"action":"avoid","summary":"bad-avoid","bonus":0.6600000000000009},{"rt":785,"stimulus":"\n                    <p><b>Action: <em>avoid</em></b></p>\n                    <p>This is the bee that you just saw.</p>\n                    <img src=\"bees-with-color/bee-B1DM.svg\" width=\"200\">\n                    <p><span class=\"redText\">Bad choice,</span> the bee was friendly.<br>Your bonus pay is unchanged, and remains at $0.52.</p>\n            ","response":0,"trial_type":"html-button-response","trial_index":56,"time_elapsed":276668,"internal_node_id":"0.0-4.0-1.24","subject_id":"6130ee325904e883b9d19cd2","study_id":"6197b3f67c2b5cd3b6d9596a","session_id":"619be7891450b2e45f5ae65d","condition":"full-information","relevant_dimensions":["antennae","wings"],"bee_group":{"antennae":"A","wings":"1","pattern":"X","legs":"X"},"bonus":0.6600000000000009},{"rt":933.8999999910593,"stimulus":"bees-with-color/bee-B2DF.svg","response":1,"trial_type":"image-button-response","trial_index":57,"time_elapsed":277603,"internal_node_id":"0.0-4.0-0.25","subject_id":"6130ee325904e883b9d19cd2","study_id":"6197b3f67c2b5cd3b6d9596a","session_id":"619be7891450b2e45f5ae65d","condition":"full-information","relevant_dimensions":["antennae","wings"],"bee_group":{"antennae":"A","wings":"1","pattern":"X","legs":"X"},"action":"avoid","summary":"bad-avoid","bonus":0.6600000000000009},{"rt":560.4000000059605,"stimulus":"\n                    <p><b>Action: <em>avoid</em></b></p>\n                    <p>This is the bee that you just saw.</p>\n                    <img src=\"bees-with-color/bee-B2DF.svg\" width=\"200\">\n                    <p><span class=\"redText\">Bad choice,</span> the bee was friendly.<br>Your bonus pay is unchanged, and remains at $0.52.</p>\n            ","response":0,"trial_type":"html-button-response","trial_index":58,"time_elapsed":278164,"internal_node_id":"0.0-4.0-1.25","subject_id":"6130ee325904e883b9d19cd2","study_id":"6197b3f67c2b5cd3b6d9596a","session_id":"619be7891450b2e45f5ae65d","condition":"full-information","relevant_dimensions":["antennae","wings"],"bee_group":{"antennae":"A","wings":"1","pattern":"X","legs":"X"},"bonus":0.6600000000000009},{"rt":598.2999999970198,"stimulus":"bees-with-color/bee-B1DF.svg","response":1,"trial_type":"image-button-response","trial_index":59,"time_elapsed":278764,"internal_node_id":"0.0-4.0-0.26","subject_id":"6130ee325904e883b9d19cd2","study_id":"6197b3f67c2b5cd3b6d9596a","session_id":"619be7891450b2e45f5ae65d","condition":"full-information","relevant_dimensions":["antennae","wings"],"bee_group":{"antennae":"A","wings":"1","pattern":"X","legs":"X"},"action":"avoid","summary":"bad-avoid","bonus":0.6600000000000009},{"rt":685,"stimulus":"\n                    <p><b>Action: <em>avoid</em></b></p>\n                    <p>This is the bee that you just saw.</p>\n                    <img src=\"bees-with-color/bee-B1DF.svg\" width=\"200\">\n                    <p><span class=\"redText\">Bad choice,</span> the bee was friendly.<br>Your bonus pay is unchanged, and remains at $0.52.</p>\n            ","response":0,"trial_type":"html-button-response","trial_index":60,"time_elapsed":279450,"internal_node_id":"0.0-4.0-1.26","subject_id":"6130ee325904e883b9d19cd2","study_id":"6197b3f67c2b5cd3b6d9596a","session_id":"619be7891450b2e45f5ae65d","condition":"full-information","relevant_dimensions":["antennae","wings"],"bee_group":{"antennae":"A","wings":"1","pattern":"X","legs":"X"},"bonus":0.6600000000000009},{"rt":895.7999999970198,"stimulus":"bees-with-color/bee-A1SM.svg","response":1,"trial_type":"image-button-response","trial_index":61,"time_elapsed":280347,"internal_node_id":"0.0-4.0-0.27","subject_id":"6130ee325904e883b9d19cd2","study_id":"6197b3f67c2b5cd3b6d9596a","session_id":"619be7891450b2e45f5ae65d","condition":"full-information","relevant_dimensions":["antennae","wings"],"bee_group":{"antennae":"A","wings":"1","pattern":"X","legs":"X"},"action":"avoid","summary":"good-avoid","bonus":0.6600000000000009},{"rt":814.7999999970198,"stimulus":"\n                    <p><b>Action: <em>avoid</em></b></p>\n                    <p>This is the bee that you just saw.</p>\n                    <img src=\"bees-with-color/bee-A1SM.svg\" width=\"200\">\n                    <p><span class=\"greenText\">Good choice!</span>  This bee would have stung you.<br>Your bonus pay is unchanged, and remains at $0.52.</p>\n            ","response":0,"trial_type":"html-button-response","trial_index":62,"time_elapsed":281163,"internal_node_id":"0.0-4.0-1.27","subject_id":"6130ee325904e883b9d19cd2","study_id":"6197b3f67c2b5cd3b6d9596a","session_id":"619be7891450b2e45f5ae65d","condition":"full-information","relevant_dimensions":["antennae","wings"],"bee_group":{"antennae":"A","wings":"1","pattern":"X","legs":"X"},"bonus":0.6600000000000009},{"rt":738.9000000059605,"stimulus":"bees-with-color/bee-B1SF.svg","response":0,"trial_type":"image-button-response","trial_index":63,"time_elapsed":281903,"internal_node_id":"0.0-4.0-0.28","subject_id":"6130ee325904e883b9d19cd2","study_id":"6197b3f67c2b5cd3b6d9596a","session_id":"619be7891450b2e45f5ae65d","condition":"full-information","relevant_dimensions":["antennae","wings"],"bee_group":{"antennae":"A","wings":"1","pattern":"X","legs":"X"},"action":"harvest","summary":"good-harvest","bonus":0.6600000000000009},{"rt":504.3999999910593,"stimulus":"\n                    <p><b>Action: <em>harvest</em></b></p>\n                    <p>This is the bee that you just saw.</p>\n                    <img src=\"bees-with-color/bee-B1SF.svg\" width=\"200\">\n                    <p><span class=\"greenText\"><b>Successful harvest!</b></span><br>Your pay has increased by $0.02. Your bonus pay is now $0.54.</p>\n            ","response":0,"trial_type":"html-button-response","trial_index":64,"time_elapsed":282409,"internal_node_id":"0.0-4.0-1.28","subject_id":"6130ee325904e883b9d19cd2","study_id":"6197b3f67c2b5cd3b6d9596a","session_id":"619be7891450b2e45f5ae65d","condition":"full-information","relevant_dimensions":["antennae","wings"],"bee_group":{"antennae":"A","wings":"1","pattern":"X","legs":"X"},"bonus":0.6600000000000009},{"rt":789.5,"stimulus":"bees-with-color/bee-A2SM.svg","response":0,"trial_type":"image-button-response","trial_index":65,"time_elapsed":283199,"internal_node_id":"0.0-4.0-0.29","subject_id":"6130ee325904e883b9d19cd2","study_id":"6197b3f67c2b5cd3b6d9596a","session_id":"619be7891450b2e45f5ae65d","condition":"full-information","relevant_dimensions":["antennae","wings"],"bee_group":{"antennae":"A","wings":"1","pattern":"X","legs":"X"},"action":"harvest","summary":"good-harvest","bonus":0.6600000000000009},{"rt":599.5,"stimulus":"\n                    <p><b>Action: <em>harvest</em></b></p>\n                    <p>This is the bee that you just saw.</p>\n                    <img src=\"bees-with-color/bee-A2SM.svg\" width=\"200\">\n                    <p><span class=\"greenText\"><b>Successful harvest!</b></span><br>Your pay has increased by $0.02. Your bonus pay is now $0.56.</p>\n            ","response":0,"trial_type":"html-button-response","trial_index":66,"time_elapsed":283800,"internal_node_id":"0.0-4.0-1.29","subject_id":"6130ee325904e883b9d19cd2","study_id":"6197b3f67c2b5cd3b6d9596a","session_id":"619be7891450b2e45f5ae65d","condition":"full-information","relevant_dimensions":["antennae","wings"],"bee_group":{"antennae":"A","wings":"1","pattern":"X","legs":"X"},"bonus":0.6600000000000009},{"rt":1533.2000000029802,"stimulus":"bees-with-color/bee-A1SF.svg","response":0,"trial_type":"image-button-response","trial_index":67,"time_elapsed":285334,"internal_node_id":"0.0-4.0-0.30","subject_id":"6130ee325904e883b9d19cd2","study_id":"6197b3f67c2b5cd3b6d9596a","session_id":"619be7891450b2e45f5ae65d","condition":"full-information","relevant_dimensions":["antennae","wings"],"bee_group":{"antennae":"A","wings":"1","pattern":"X","legs":"X"},"action":"harvest","summary":"bad-harvest","bonus":0.6600000000000009},{"rt":789,"stimulus":"\n                    <p><b>Action: <em>harvest</em></b></p>\n                    <p>This is the bee that you just saw.</p>\n                    <img src=\"bees-with-color/bee-A1SF.svg\" width=\"200\">\n                    <p><span class=\"redText\">Bad choice, the bee was angry.</span><br><b>You have been stung!</b><br>Your pay has been decreased by $0.10. Your bonus pay is now $0.46.</p>\n            ","response":0,"trial_type":"html-button-response","trial_index":68,"time_elapsed":286124,"internal_node_id":"0.0-4.0-1.30","subject_id":"6130ee325904e883b9d19cd2","study_id":"6197b3f67c2b5cd3b6d9596a","session_id":"619be7891450b2e45f5ae65d","condition":"full-information","relevant_dimensions":["antennae","wings"],"bee_group":{"antennae":"A","wings":"1","pattern":"X","legs":"X"},"bonus":0.6600000000000009},{"rt":2052.6000000089407,"stimulus":"bees-with-color/bee-A2DM.svg","response":0,"trial_type":"image-button-response","trial_index":69,"time_elapsed":288178,"internal_node_id":"0.0-4.0-0.31","subject_id":"6130ee325904e883b9d19cd2","study_id":"6197b3f67c2b5cd3b6d9596a","session_id":"619be7891450b2e45f5ae65d","condition":"full-information","relevant_dimensions":["antennae","wings"],"bee_group":{"antennae":"A","wings":"1","pattern":"X","legs":"X"},"action":"harvest","summary":"good-harvest","bonus":0.6600000000000009},{"rt":615.2999999970198,"stimulus":"\n                    <p><b>Action: <em>harvest</em></b></p>\n                    <p>This is the bee that you just saw.</p>\n                    <img src=\"bees-with-color/bee-A2DM.svg\" width=\"200\">\n                    <p><span class=\"greenText\"><b>Successful harvest!</b></span><br>Your pay has increased by $0.02. Your bonus pay is now $0.48.</p>\n            ","response":0,"trial_type":"html-button-response","trial_index":70,"time_elapsed":288795,"internal_node_id":"0.0-4.0-1.31","subject_id":"6130ee325904e883b9d19cd2","study_id":"6197b3f67c2b5cd3b6d9596a","session_id":"619be7891450b2e45f5ae65d","condition":"full-information","relevant_dimensions":["antennae","wings"],"bee_group":{"antennae":"A","wings":"1","pattern":"X","legs":"X"},"bonus":0.6600000000000009},{"rt":1650.2000000029802,"stimulus":"bees-with-color/bee-B2SF.svg","response":0,"trial_type":"image-button-response","trial_index":71,"time_elapsed":290446,"internal_node_id":"0.0-4.0-0.32","subject_id":"6130ee325904e883b9d19cd2","study_id":"6197b3f67c2b5cd3b6d9596a","session_id":"619be7891450b2e45f5ae65d","condition":"full-information","relevant_dimensions":["antennae","wings"],"bee_group":{"antennae":"A","wings":"1","pattern":"X","legs":"X"},"action":"harvest","summary":"good-harvest","bonus":0.6600000000000009},{"rt":1093.2999999970198,"stimulus":"\n                    <p><b>Action: <em>harvest</em></b></p>\n                    <p>This is the bee that you just saw.</p>\n                    <img src=\"bees-with-color/bee-B2SF.svg\" width=\"200\">\n                    <p><span class=\"greenText\"><b>Successful harvest!</b></span><br>Your pay has increased by $0.02. Your bonus pay is now $0.50.</p>\n            ","response":0,"trial_type":"html-button-response","trial_index":72,"time_elapsed":291541,"internal_node_id":"0.0-4.0-1.32","subject_id":"6130ee325904e883b9d19cd2","study_id":"6197b3f67c2b5cd3b6d9596a","session_id":"619be7891450b2e45f5ae65d","condition":"full-information","relevant_dimensions":["antennae","wings"],"bee_group":{"antennae":"A","wings":"1","pattern":"X","legs":"X"},"bonus":0.6600000000000009},{"rt":2564.7000000029802,"stimulus":"bees-with-color/bee-B1SM.svg","response":0,"trial_type":"image-button-response","trial_index":73,"time_elapsed":294107,"internal_node_id":"0.0-4.0-0.33","subject_id":"6130ee325904e883b9d19cd2","study_id":"6197b3f67c2b5cd3b6d9596a","session_id":"619be7891450b2e45f5ae65d","condition":"full-information","relevant_dimensions":["antennae","wings"],"bee_group":{"antennae":"A","wings":"1","pattern":"X","legs":"X"},"action":"harvest","summary":"good-harvest","bonus":0.6600000000000009},{"rt":711.9000000059605,"stimulus":"\n                    <p><b>Action: <em>harvest</em></b></p>\n                    <p>This is the bee that you just saw.</p>\n                    <img src=\"bees-with-color/bee-B1SM.svg\" width=\"200\">\n                    <p><span class=\"greenText\"><b>Successful harvest!</b></span><br>Your pay has increased by $0.02. Your bonus pay is now $0.52.</p>\n            ","response":0,"trial_type":"html-button-response","trial_index":74,"time_elapsed":294820,"internal_node_id":"0.0-4.0-1.33","subject_id":"6130ee325904e883b9d19cd2","study_id":"6197b3f67c2b5cd3b6d9596a","session_id":"619be7891450b2e45f5ae65d","condition":"full-information","relevant_dimensions":["antennae","wings"],"bee_group":{"antennae":"A","wings":"1","pattern":"X","legs":"X"},"bonus":0.6600000000000009},{"rt":1265.199999988079,"stimulus":"bees-with-color/bee-A2DF.svg","response":1,"trial_type":"image-button-response","trial_index":75,"time_elapsed":296086,"internal_node_id":"0.0-4.0-0.34","subject_id":"6130ee325904e883b9d19cd2","study_id":"6197b3f67c2b5cd3b6d9596a","session_id":"619be7891450b2e45f5ae65d","condition":"full-information","relevant_dimensions":["antennae","wings"],"bee_group":{"antennae":"A","wings":"1","pattern":"X","legs":"X"},"action":"avoid","summary":"bad-avoid","bonus":0.6600000000000009},{"rt":1314.7000000029802,"stimulus":"\n                    <p><b>Action: <em>avoid</em></b></p>\n                    <p>This is the bee that you just saw.</p>\n                    <img src=\"bees-with-color/bee-A2DF.svg\" width=\"200\">\n                    <p><span class=\"redText\">Bad choice,</span> the bee was friendly.<br>Your bonus pay is unchanged, and remains at $0.52.</p>\n            ","response":0,"trial_type":"html-button-response","trial_index":76,"time_elapsed":297402,"internal_node_id":"0.0-4.0-1.34","subject_id":"6130ee325904e883b9d19cd2","study_id":"6197b3f67c2b5cd3b6d9596a","session_id":"619be7891450b2e45f5ae65d","condition":"full-information","relevant_dimensions":["antennae","wings"],"bee_group":{"antennae":"A","wings":"1","pattern":"X","legs":"X"},"bonus":0.6600000000000009},{"rt":1662.7999999970198,"stimulus":"bees-with-color/bee-A1DM.svg","response":1,"trial_type":"image-button-response","trial_index":77,"time_elapsed":299066,"internal_node_id":"0.0-4.0-0.35","subject_id":"6130ee325904e883b9d19cd2","study_id":"6197b3f67c2b5cd3b6d9596a","session_id":"619be7891450b2e45f5ae65d","condition":"full-information","relevant_dimensions":["antennae","wings"],"bee_group":{"antennae":"A","wings":"1","pattern":"X","legs":"X"},"action":"avoid","summary":"good-avoid","bonus":0.6600000000000009},{"rt":1006.7000000029802,"stimulus":"\n                    <p><b>Action: <em>avoid</em></b></p>\n                    <p>This is the bee that you just saw.</p>\n                    <img src=\"bees-with-color/bee-A1DM.svg\" width=\"200\">\n                    <p><span class=\"greenText\">Good choice!</span>  This bee would have stung you.<br>Your bonus pay is unchanged, and remains at $0.52.</p>\n            ","response":0,"trial_type":"html-button-response","trial_index":78,"time_elapsed":300074,"internal_node_id":"0.0-4.0-1.35","subject_id":"6130ee325904e883b9d19cd2","study_id":"6197b3f67c2b5cd3b6d9596a","session_id":"619be7891450b2e45f5ae65d","condition":"full-information","relevant_dimensions":["antennae","wings"],"bee_group":{"antennae":"A","wings":"1","pattern":"X","legs":"X"},"bonus":0.6600000000000009},{"rt":1243.8999999910593,"stimulus":"bees-with-color/bee-A2SM.svg","response":0,"trial_type":"image-button-response","trial_index":79,"time_elapsed":301319,"internal_node_id":"0.0-4.0-0.36","subject_id":"6130ee325904e883b9d19cd2","study_id":"6197b3f67c2b5cd3b6d9596a","session_id":"619be7891450b2e45f5ae65d","condition":"full-information","relevant_dimensions":["antennae","wings"],"bee_group":{"antennae":"A","wings":"1","pattern":"X","legs":"X"},"action":"harvest","summary":"good-harvest","bonus":0.6600000000000009},{"rt":933.7000000029802,"stimulus":"\n                    <p><b>Action: <em>harvest</em></b></p>\n                    <p>This is the bee that you just saw.</p>\n                    <img src=\"bees-with-color/bee-A2SM.svg\" width=\"200\">\n                    <p><span class=\"greenText\"><b>Successful harvest!</b></span><br>Your pay has increased by $0.02. Your bonus pay is now $0.54.</p>\n            ","response":0,"trial_type":"html-button-response","trial_index":80,"time_elapsed":302254,"internal_node_id":"0.0-4.0-1.36","subject_id":"6130ee325904e883b9d19cd2","study_id":"6197b3f67c2b5cd3b6d9596a","session_id":"619be7891450b2e45f5ae65d","condition":"full-information","relevant_dimensions":["antennae","wings"],"bee_group":{"antennae":"A","wings":"1","pattern":"X","legs":"X"},"bonus":0.6600000000000009},{"rt":1195.0999999940395,"stimulus":"bees-with-color/bee-B1DF.svg","response":0,"trial_type":"image-button-response","trial_index":81,"time_elapsed":303450,"internal_node_id":"0.0-4.0-0.37","subject_id":"6130ee325904e883b9d19cd2","study_id":"6197b3f67c2b5cd3b6d9596a","session_id":"619be7891450b2e45f5ae65d","condition":"full-information","relevant_dimensions":["antennae","wings"],"bee_group":{"antennae":"A","wings":"1","pattern":"X","legs":"X"},"action":"harvest","summary":"good-harvest","bonus":0.6600000000000009},{"rt":881.2000000029802,"stimulus":"\n                    <p><b>Action: <em>harvest</em></b></p>\n                    <p>This is the bee that you just saw.</p>\n                    <img src=\"bees-with-color/bee-B1DF.svg\" width=\"200\">\n                    <p><span class=\"greenText\"><b>Successful harvest!</b></span><br>Your pay has increased by $0.02. Your bonus pay is now $0.56.</p>\n            ","response":0,"trial_type":"html-button-response","trial_index":82,"time_elapsed":304332,"internal_node_id":"0.0-4.0-1.37","subject_id":"6130ee325904e883b9d19cd2","study_id":"6197b3f67c2b5cd3b6d9596a","session_id":"619be7891450b2e45f5ae65d","condition":"full-information","relevant_dimensions":["antennae","wings"],"bee_group":{"antennae":"A","wings":"1","pattern":"X","legs":"X"},"bonus":0.6600000000000009},{"rt":2857.7999999970198,"stimulus":"bees-with-color/bee-B2DM.svg","response":0,"trial_type":"image-button-response","trial_index":83,"time_elapsed":307191,"internal_node_id":"0.0-4.0-0.38","subject_id":"6130ee325904e883b9d19cd2","study_id":"6197b3f67c2b5cd3b6d9596a","session_id":"619be7891450b2e45f5ae65d","condition":"full-information","relevant_dimensions":["antennae","wings"],"bee_group":{"antennae":"A","wings":"1","pattern":"X","legs":"X"},"action":"harvest","summary":"good-harvest","bonus":0.6600000000000009},{"rt":844.5,"stimulus":"\n                    <p><b>Action: <em>harvest</em></b></p>\n                    <p>This is the bee that you just saw.</p>\n                    <img src=\"bees-with-color/bee-B2DM.svg\" width=\"200\">\n                    <p><span class=\"greenText\"><b>Successful harvest!</b></span><br>Your pay has increased by $0.02. Your bonus pay is now $0.58.</p>\n            ","response":0,"trial_type":"html-button-response","trial_index":84,"time_elapsed":308037,"internal_node_id":"0.0-4.0-1.38","subject_id":"6130ee325904e883b9d19cd2","study_id":"6197b3f67c2b5cd3b6d9596a","session_id":"619be7891450b2e45f5ae65d","condition":"full-information","relevant_dimensions":["antennae","wings"],"bee_group":{"antennae":"A","wings":"1","pattern":"X","legs":"X"},"bonus":0.6600000000000009},{"rt":749.2999999970198,"stimulus":"bees-with-color/bee-A1SF.svg","response":1,"trial_type":"image-button-response","trial_index":85,"time_elapsed":308788,"internal_node_id":"0.0-4.0-0.39","subject_id":"6130ee325904e883b9d19cd2","study_id":"6197b3f67c2b5cd3b6d9596a","session_id":"619be7891450b2e45f5ae65d","condition":"full-information","relevant_dimensions":["antennae","wings"],"bee_group":{"antennae":"A","wings":"1","pattern":"X","legs":"X"},"action":"avoid","summary":"good-avoid","bonus":0.6600000000000009},{"rt":1487.5,"stimulus":"\n                    <p><b>Action: <em>avoid</em></b></p>\n                    <p>This is the bee that you just saw.</p>\n                    <img src=\"bees-with-color/bee-A1SF.svg\" width=\"200\">\n                    <p><span class=\"greenText\">Good choice!</span>  This bee would have stung you.<br>Your bonus pay is unchanged, and remains at $0.58.</p>\n            ","response":0,"trial_type":"html-button-response","trial_index":86,"time_elapsed":310276,"internal_node_id":"0.0-4.0-1.39","subject_id":"6130ee325904e883b9d19cd2","study_id":"6197b3f67c2b5cd3b6d9596a","session_id":"619be7891450b2e45f5ae65d","condition":"full-information","relevant_dimensions":["antennae","wings"],"bee_group":{"antennae":"A","wings":"1","pattern":"X","legs":"X"},"bonus":0.6600000000000009},{"rt":1766.7999999970198,"stimulus":"bees-with-color/bee-A1DF.svg","response":0,"trial_type":"image-button-response","trial_index":87,"time_elapsed":312044,"internal_node_id":"0.0-4.0-0.40","subject_id":"6130ee325904e883b9d19cd2","study_id":"6197b3f67c2b5cd3b6d9596a","session_id":"619be7891450b2e45f5ae65d","condition":"full-information","relevant_dimensions":["antennae","wings"],"bee_group":{"antennae":"A","wings":"1","pattern":"X","legs":"X"},"action":"harvest","summary":"bad-harvest","bonus":0.6600000000000009},{"rt":1990.800000011921,"stimulus":"\n                    <p><b>Action: <em>harvest</em></b></p>\n                    <p>This is the bee that you just saw.</p>\n                    <img src=\"bees-with-color/bee-A1DF.svg\" width=\"200\">\n                    <p><span class=\"redText\">Bad choice, the bee was angry.</span><br><b>You have been stung!</b><br>Your pay has been decreased by $0.10. Your bonus pay is now $0.48.</p>\n            ","response":0,"trial_type":"html-button-response","trial_index":88,"time_elapsed":314036,"internal_node_id":"0.0-4.0-1.40","subject_id":"6130ee325904e883b9d19cd2","study_id":"6197b3f67c2b5cd3b6d9596a","session_id":"619be7891450b2e45f5ae65d","condition":"full-information","relevant_dimensions":["antennae","wings"],"bee_group":{"antennae":"A","wings":"1","pattern":"X","legs":"X"},"bonus":0.6600000000000009},{"rt":874.5,"stimulus":"bees-with-color/bee-A2SF.svg","response":0,"trial_type":"image-button-response","trial_index":89,"time_elapsed":314912,"internal_node_id":"0.0-4.0-0.41","subject_id":"6130ee325904e883b9d19cd2","study_id":"6197b3f67c2b5cd3b6d9596a","session_id":"619be7891450b2e45f5ae65d","condition":"full-information","relevant_dimensions":["antennae","wings"],"bee_group":{"antennae":"A","wings":"1","pattern":"X","legs":"X"},"action":"harvest","summary":"good-harvest","bonus":0.6600000000000009},{"rt":476.29999999701977,"stimulus":"\n                    <p><b>Action: <em>harvest</em></b></p>\n                    <p>This is the bee that you just saw.</p>\n                    <img src=\"bees-with-color/bee-A2SF.svg\" width=\"200\">\n                    <p><span class=\"greenText\"><b>Successful harvest!</b></span><br>Your pay has increased by $0.02. Your bonus pay is now $0.50.</p>\n            ","response":0,"trial_type":"html-button-response","trial_index":90,"time_elapsed":315390,"internal_node_id":"0.0-4.0-1.41","subject_id":"6130ee325904e883b9d19cd2","study_id":"6197b3f67c2b5cd3b6d9596a","session_id":"619be7891450b2e45f5ae65d","condition":"full-information","relevant_dimensions":["antennae","wings"],"bee_group":{"antennae":"A","wings":"1","pattern":"X","legs":"X"},"bonus":0.6600000000000009},{"rt":687.2000000029802,"stimulus":"bees-with-color/bee-B1DM.svg","response":0,"trial_type":"image-button-response","trial_index":91,"time_elapsed":316078,"internal_node_id":"0.0-4.0-0.42","subject_id":"6130ee325904e883b9d19cd2","study_id":"6197b3f67c2b5cd3b6d9596a","session_id":"619be7891450b2e45f5ae65d","condition":"full-information","relevant_dimensions":["antennae","wings"],"bee_group":{"antennae":"A","wings":"1","pattern":"X","legs":"X"},"action":"harvest","summary":"good-harvest","bonus":0.6600000000000009},{"rt":507.80000001192093,"stimulus":"\n                    <p><b>Action: <em>harvest</em></b></p>\n                    <p>This is the bee that you just saw.</p>\n                    <img src=\"bees-with-color/bee-B1DM.svg\" width=\"200\">\n                    <p><span class=\"greenText\"><b>Successful harvest!</b></span><br>Your pay has increased by $0.02. Your bonus pay is now $0.52.</p>\n            ","response":0,"trial_type":"html-button-response","trial_index":92,"time_elapsed":316587,"internal_node_id":"0.0-4.0-1.42","subject_id":"6130ee325904e883b9d19cd2","study_id":"6197b3f67c2b5cd3b6d9596a","session_id":"619be7891450b2e45f5ae65d","condition":"full-information","relevant_dimensions":["antennae","wings"],"bee_group":{"antennae":"A","wings":"1","pattern":"X","legs":"X"},"bonus":0.6600000000000009},{"rt":1984.0999999940395,"stimulus":"bees-with-color/bee-B2SM.svg","response":0,"trial_type":"image-button-response","trial_index":93,"time_elapsed":318572,"internal_node_id":"0.0-4.0-0.43","subject_id":"6130ee325904e883b9d19cd2","study_id":"6197b3f67c2b5cd3b6d9596a","session_id":"619be7891450b2e45f5ae65d","condition":"full-information","relevant_dimensions":["antennae","wings"],"bee_group":{"antennae":"A","wings":"1","pattern":"X","legs":"X"},"action":"harvest","summary":"good-harvest","bonus":0.6600000000000009},{"rt":563.2999999970198,"stimulus":"\n                    <p><b>Action: <em>harvest</em></b></p>\n                    <p>This is the bee that you just saw.</p>\n                    <img src=\"bees-with-color/bee-B2SM.svg\" width=\"200\">\n                    <p><span class=\"greenText\"><b>Successful harvest!</b></span><br>Your pay has increased by $0.02. Your bonus pay is now $0.54.</p>\n            ","response":0,"trial_type":"html-button-response","trial_index":94,"time_elapsed":319137,"internal_node_id":"0.0-4.0-1.43","subject_id":"6130ee325904e883b9d19cd2","study_id":"6197b3f67c2b5cd3b6d9596a","session_id":"619be7891450b2e45f5ae65d","condition":"full-information","relevant_dimensions":["antennae","wings"],"bee_group":{"antennae":"A","wings":"1","pattern":"X","legs":"X"},"bonus":0.6600000000000009},{"rt":1002.4000000059605,"stimulus":"bees-with-color/bee-B1SF.svg","response":0,"trial_type":"image-button-response","trial_index":95,"time_elapsed":320141,"internal_node_id":"0.0-4.0-0.44","subject_id":"6130ee325904e883b9d19cd2","study_id":"6197b3f67c2b5cd3b6d9596a","session_id":"619be7891450b2e45f5ae65d","condition":"full-information","relevant_dimensions":["antennae","wings"],"bee_group":{"antennae":"A","wings":"1","pattern":"X","legs":"X"},"action":"harvest","summary":"good-harvest","bonus":0.6600000000000009},{"rt":510.70000000298023,"stimulus":"\n                    <p><b>Action: <em>harvest</em></b></p>\n                    <p>This is the bee that you just saw.</p>\n                    <img src=\"bees-with-color/bee-B1SF.svg\" width=\"200\">\n                    <p><span class=\"greenText\"><b>Successful harvest!</b></span><br>Your pay has increased by $0.02. Your bonus pay is now $0.56.</p>\n            ","response":0,"trial_type":"html-button-response","trial_index":96,"time_elapsed":320653,"internal_node_id":"0.0-4.0-1.44","subject_id":"6130ee325904e883b9d19cd2","study_id":"6197b3f67c2b5cd3b6d9596a","session_id":"619be7891450b2e45f5ae65d","condition":"full-information","relevant_dimensions":["antennae","wings"],"bee_group":{"antennae":"A","wings":"1","pattern":"X","legs":"X"},"bonus":0.6600000000000009},{"rt":995.7999999970198,"stimulus":"bees-with-color/bee-A2DM.svg","response":1,"trial_type":"image-button-response","trial_index":97,"time_elapsed":321650,"internal_node_id":"0.0-4.0-0.45","subject_id":"6130ee325904e883b9d19cd2","study_id":"6197b3f67c2b5cd3b6d9596a","session_id":"619be7891450b2e45f5ae65d","condition":"full-information","relevant_dimensions":["antennae","wings"],"bee_group":{"antennae":"A","wings":"1","pattern":"X","legs":"X"},"action":"avoid","summary":"bad-avoid","bonus":0.6600000000000009},{"rt":866.5,"stimulus":"\n                    <p><b>Action: <em>avoid</em></b></p>\n                    <p>This is the bee that you just saw.</p>\n                    <img src=\"bees-with-color/bee-A2DM.svg\" width=\"200\">\n                    <p><span class=\"redText\">Bad choice,</span> the bee was friendly.<br>Your bonus pay is unchanged, and remains at $0.56.</p>\n            ","response":0,"trial_type":"html-button-response","trial_index":98,"time_elapsed":322518,"internal_node_id":"0.0-4.0-1.45","subject_id":"6130ee325904e883b9d19cd2","study_id":"6197b3f67c2b5cd3b6d9596a","session_id":"619be7891450b2e45f5ae65d","condition":"full-information","relevant_dimensions":["antennae","wings"],"bee_group":{"antennae":"A","wings":"1","pattern":"X","legs":"X"},"bonus":0.6600000000000009},{"rt":781.2000000029802,"stimulus":"bees-with-color/bee-B2DF.svg","response":1,"trial_type":"image-button-response","trial_index":99,"time_elapsed":323300,"internal_node_id":"0.0-4.0-0.46","subject_id":"6130ee325904e883b9d19cd2","study_id":"6197b3f67c2b5cd3b6d9596a","session_id":"619be7891450b2e45f5ae65d","condition":"full-information","relevant_dimensions":["antennae","wings"],"bee_group":{"antennae":"A","wings":"1","pattern":"X","legs":"X"},"action":"avoid","summary":"bad-avoid","bonus":0.6600000000000009},{"rt":667.5,"stimulus":"\n                    <p><b>Action: <em>avoid</em></b></p>\n                    <p>This is the bee that you just saw.</p>\n                    <img src=\"bees-with-color/bee-B2DF.svg\" width=\"200\">\n                    <p><span class=\"redText\">Bad choice,</span> the bee was friendly.<br>Your bonus pay is unchanged, and remains at $0.56.</p>\n            ","response":0,"trial_type":"html-button-response","trial_index":100,"time_elapsed":323969,"internal_node_id":"0.0-4.0-1.46","subject_id":"6130ee325904e883b9d19cd2","study_id":"6197b3f67c2b5cd3b6d9596a","session_id":"619be7891450b2e45f5ae65d","condition":"full-information","relevant_dimensions":["antennae","wings"],"bee_group":{"antennae":"A","wings":"1","pattern":"X","legs":"X"},"bonus":0.6600000000000009},{"rt":613.6000000089407,"stimulus":"bees-with-color/bee-A1SM.svg","response":1,"trial_type":"image-button-response","trial_index":101,"time_elapsed":324583,"internal_node_id":"0.0-4.0-0.47","subject_id":"6130ee325904e883b9d19cd2","study_id":"6197b3f67c2b5cd3b6d9596a","session_id":"619be7891450b2e45f5ae65d","condition":"full-information","relevant_dimensions":["antennae","wings"],"bee_group":{"antennae":"A","wings":"1","pattern":"X","legs":"X"},"action":"avoid","summary":"good-avoid","bonus":0.6600000000000009},{"rt":1168.7000000029802,"stimulus":"\n                    <p><b>Action: <em>avoid</em></b></p>\n                    <p>This is the bee that you just saw.</p>\n                    <img src=\"bees-with-color/bee-A1SM.svg\" width=\"200\">\n                    <p><span class=\"greenText\">Good choice!</span>  This bee would have stung you.<br>Your bonus pay is unchanged, and remains at $0.56.</p>\n            ","response":0,"trial_type":"html-button-response","trial_index":102,"time_elapsed":325753,"internal_node_id":"0.0-4.0-1.47","subject_id":"6130ee325904e883b9d19cd2","study_id":"6197b3f67c2b5cd3b6d9596a","session_id":"619be7891450b2e45f5ae65d","condition":"full-information","relevant_dimensions":["antennae","wings"],"bee_group":{"antennae":"A","wings":"1","pattern":"X","legs":"X"},"bonus":0.6600000000000009},{"rt":4849.899999991059,"stimulus":"bees-with-color/bee-A2SM.svg","response":0,"trial_type":"image-button-response","trial_index":103,"time_elapsed":330604,"internal_node_id":"0.0-4.0-0.48","subject_id":"6130ee325904e883b9d19cd2","study_id":"6197b3f67c2b5cd3b6d9596a","session_id":"619be7891450b2e45f5ae65d","condition":"full-information","relevant_dimensions":["antennae","wings"],"bee_group":{"antennae":"A","wings":"1","pattern":"X","legs":"X"},"action":"harvest","summary":"good-harvest","bonus":0.6600000000000009},{"rt":755.7000000029802,"stimulus":"\n                    <p><b>Action: <em>harvest</em></b></p>\n                    <p>This is the bee that you just saw.</p>\n                    <img src=\"bees-with-color/bee-A2SM.svg\" width=\"200\">\n                    <p><span class=\"greenText\"><b>Successful harvest!</b></span><br>Your pay has increased by $0.02. Your bonus pay is now $0.58.</p>\n            ","response":0,"trial_type":"html-button-response","trial_index":104,"time_elapsed":331361,"internal_node_id":"0.0-4.0-1.48","subject_id":"6130ee325904e883b9d19cd2","study_id":"6197b3f67c2b5cd3b6d9596a","session_id":"619be7891450b2e45f5ae65d","condition":"full-information","relevant_dimensions":["antennae","wings"],"bee_group":{"antennae":"A","wings":"1","pattern":"X","legs":"X"},"bonus":0.6600000000000009},{"rt":1782.5,"stimulus":"bees-with-color/bee-B1SM.svg","response":0,"trial_type":"image-button-response","trial_index":105,"time_elapsed":333145,"internal_node_id":"0.0-4.0-0.49","subject_id":"6130ee325904e883b9d19cd2","study_id":"6197b3f67c2b5cd3b6d9596a","session_id":"619be7891450b2e45f5ae65d","condition":"full-information","relevant_dimensions":["antennae","wings"],"bee_group":{"antennae":"A","wings":"1","pattern":"X","legs":"X"},"action":"harvest","summary":"good-harvest","bonus":0.6600000000000009},{"rt":763.9000000059605,"stimulus":"\n                    <p><b>Action: <em>harvest</em></b></p>\n                    <p>This is the bee that you just saw.</p>\n                    <img src=\"bees-with-color/bee-B1SM.svg\" width=\"200\">\n                    <p><span class=\"greenText\"><b>Successful harvest!</b></span><br>Your pay has increased by $0.02. Your bonus pay is now $0.60.</p>\n            ","response":0,"trial_type":"html-button-response","trial_index":106,"time_elapsed":333910,"internal_node_id":"0.0-4.0-1.49","subject_id":"6130ee325904e883b9d19cd2","study_id":"6197b3f67c2b5cd3b6d9596a","session_id":"619be7891450b2e45f5ae65d","condition":"full-information","relevant_dimensions":["antennae","wings"],"bee_group":{"antennae":"A","wings":"1","pattern":"X","legs":"X"},"bonus":0.6600000000000009},{"rt":1726.0999999940395,"stimulus":"bees-with-color/bee-A2SF.svg","response":1,"trial_type":"image-button-response","trial_index":107,"time_elapsed":335637,"internal_node_id":"0.0-4.0-0.50","subject_id":"6130ee325904e883b9d19cd2","study_id":"6197b3f67c2b5cd3b6d9596a","session_id":"619be7891450b2e45f5ae65d","condition":"full-information","relevant_dimensions":["antennae","wings"],"bee_group":{"antennae":"A","wings":"1","pattern":"X","legs":"X"},"action":"avoid","summary":"bad-avoid","bonus":0.6600000000000009},{"rt":791.8000000119209,"stimulus":"\n                    <p><b>Action: <em>avoid</em></b></p>\n                    <p>This is the bee that you just saw.</p>\n                    <img src=\"bees-with-color/bee-A2SF.svg\" width=\"200\">\n                    <p><span class=\"redText\">Bad choice,</span> the bee was friendly.<br>Your bonus pay is unchanged, and remains at $0.60.</p>\n            ","response":0,"trial_type":"html-button-response","trial_index":108,"time_elapsed":336430,"internal_node_id":"0.0-4.0-1.50","subject_id":"6130ee325904e883b9d19cd2","study_id":"6197b3f67c2b5cd3b6d9596a","session_id":"619be7891450b2e45f5ae65d","condition":"full-information","relevant_dimensions":["antennae","wings"],"bee_group":{"antennae":"A","wings":"1","pattern":"X","legs":"X"},"bonus":0.6600000000000009},{"rt":1513.699999988079,"stimulus":"bees-with-color/bee-B2SM.svg","response":0,"trial_type":"image-button-response","trial_index":109,"time_elapsed":337945,"internal_node_id":"0.0-4.0-0.51","subject_id":"6130ee325904e883b9d19cd2","study_id":"6197b3f67c2b5cd3b6d9596a","session_id":"619be7891450b2e45f5ae65d","condition":"full-information","relevant_dimensions":["antennae","wings"],"bee_group":{"antennae":"A","wings":"1","pattern":"X","legs":"X"},"action":"harvest","summary":"good-harvest","bonus":0.6600000000000009},{"rt":1160.2000000029802,"stimulus":"\n                    <p><b>Action: <em>harvest</em></b></p>\n                    <p>This is the bee that you just saw.</p>\n                    <img src=\"bees-with-color/bee-B2SM.svg\" width=\"200\">\n                    <p><span class=\"greenText\"><b>Successful harvest!</b></span><br>Your pay has increased by $0.02. Your bonus pay is now $0.62.</p>\n            ","response":0,"trial_type":"html-button-response","trial_index":110,"time_elapsed":339106,"internal_node_id":"0.0-4.0-1.51","subject_id":"6130ee325904e883b9d19cd2","study_id":"6197b3f67c2b5cd3b6d9596a","session_id":"619be7891450b2e45f5ae65d","condition":"full-information","relevant_dimensions":["antennae","wings"],"bee_group":{"antennae":"A","wings":"1","pattern":"X","legs":"X"},"bonus":0.6600000000000009},{"rt":2277,"stimulus":"bees-with-color/bee-A1DF.svg","response":1,"trial_type":"image-button-response","trial_index":111,"time_elapsed":341385,"internal_node_id":"0.0-4.0-0.52","subject_id":"6130ee325904e883b9d19cd2","study_id":"6197b3f67c2b5cd3b6d9596a","session_id":"619be7891450b2e45f5ae65d","condition":"full-information","relevant_dimensions":["antennae","wings"],"bee_group":{"antennae":"A","wings":"1","pattern":"X","legs":"X"},"action":"avoid","summary":"good-avoid","bonus":0.6600000000000009},{"rt":919,"stimulus":"\n                    <p><b>Action: <em>avoid</em></b></p>\n                    <p>This is the bee that you just saw.</p>\n                    <img src=\"bees-with-color/bee-A1DF.svg\" width=\"200\">\n                    <p><span class=\"greenText\">Good choice!</span>  This bee would have stung you.<br>Your bonus pay is unchanged, and remains at $0.62.</p>\n            ","response":0,"trial_type":"html-button-response","trial_index":112,"time_elapsed":342305,"internal_node_id":"0.0-4.0-1.52","subject_id":"6130ee325904e883b9d19cd2","study_id":"6197b3f67c2b5cd3b6d9596a","session_id":"619be7891450b2e45f5ae65d","condition":"full-information","relevant_dimensions":["antennae","wings"],"bee_group":{"antennae":"A","wings":"1","pattern":"X","legs":"X"},"bonus":0.6600000000000009},{"rt":1725.7000000029802,"stimulus":"bees-with-color/bee-A2DM.svg","response":0,"trial_type":"image-button-response","trial_index":113,"time_elapsed":344032,"internal_node_id":"0.0-4.0-0.53","subject_id":"6130ee325904e883b9d19cd2","study_id":"6197b3f67c2b5cd3b6d9596a","session_id":"619be7891450b2e45f5ae65d","condition":"full-information","relevant_dimensions":["antennae","wings"],"bee_group":{"antennae":"A","wings":"1","pattern":"X","legs":"X"},"action":"harvest","summary":"good-harvest","bonus":0.6600000000000009},{"rt":711,"stimulus":"\n                    <p><b>Action: <em>harvest</em></b></p>\n                    <p>This is the bee that you just saw.</p>\n                    <img src=\"bees-with-color/bee-A2DM.svg\" width=\"200\">\n                    <p><span class=\"greenText\"><b>Successful harvest!</b></span><br>Your pay has increased by $0.02. Your bonus pay is now $0.64.</p>\n            ","response":0,"trial_type":"html-button-response","trial_index":114,"time_elapsed":344744,"internal_node_id":"0.0-4.0-1.53","subject_id":"6130ee325904e883b9d19cd2","study_id":"6197b3f67c2b5cd3b6d9596a","session_id":"619be7891450b2e45f5ae65d","condition":"full-information","relevant_dimensions":["antennae","wings"],"bee_group":{"antennae":"A","wings":"1","pattern":"X","legs":"X"},"bonus":0.6600000000000009},{"rt":1224.2999999970198,"stimulus":"bees-with-color/bee-B1SF.svg","response":1,"trial_type":"image-button-response","trial_index":115,"time_elapsed":345970,"internal_node_id":"0.0-4.0-0.54","subject_id":"6130ee325904e883b9d19cd2","study_id":"6197b3f67c2b5cd3b6d9596a","session_id":"619be7891450b2e45f5ae65d","condition":"full-information","relevant_dimensions":["antennae","wings"],"bee_group":{"antennae":"A","wings":"1","pattern":"X","legs":"X"},"action":"avoid","summary":"bad-avoid","bonus":0.6600000000000009},{"rt":848,"stimulus":"\n                    <p><b>Action: <em>avoid</em></b></p>\n                    <p>This is the bee that you just saw.</p>\n                    <img src=\"bees-with-color/bee-B1SF.svg\" width=\"200\">\n                    <p><span class=\"redText\">Bad choice,</span> the bee was friendly.<br>Your bonus pay is unchanged, and remains at $0.64.</p>\n            ","response":0,"trial_type":"html-button-response","trial_index":116,"time_elapsed":346819,"internal_node_id":"0.0-4.0-1.54","subject_id":"6130ee325904e883b9d19cd2","study_id":"6197b3f67c2b5cd3b6d9596a","session_id":"619be7891450b2e45f5ae65d","condition":"full-information","relevant_dimensions":["antennae","wings"],"bee_group":{"antennae":"A","wings":"1","pattern":"X","legs":"X"},"bonus":0.6600000000000009},{"rt":1384.7000000029802,"stimulus":"bees-with-color/bee-A1SM.svg","response":1,"trial_type":"image-button-response","trial_index":117,"time_elapsed":348205,"internal_node_id":"0.0-4.0-0.55","subject_id":"6130ee325904e883b9d19cd2","study_id":"6197b3f67c2b5cd3b6d9596a","session_id":"619be7891450b2e45f5ae65d","condition":"full-information","relevant_dimensions":["antennae","wings"],"bee_group":{"antennae":"A","wings":"1","pattern":"X","legs":"X"},"action":"avoid","summary":"good-avoid","bonus":0.6600000000000009},{"rt":697.8000000119209,"stimulus":"\n                    <p><b>Action: <em>avoid</em></b></p>\n                    <p>This is the bee that you just saw.</p>\n                    <img src=\"bees-with-color/bee-A1SM.svg\" width=\"200\">\n                    <p><span class=\"greenText\">Good choice!</span>  This bee would have stung you.<br>Your bonus pay is unchanged, and remains at $0.64.</p>\n            ","response":0,"trial_type":"html-button-response","trial_index":118,"time_elapsed":348904,"internal_node_id":"0.0-4.0-1.55","subject_id":"6130ee325904e883b9d19cd2","study_id":"6197b3f67c2b5cd3b6d9596a","session_id":"619be7891450b2e45f5ae65d","condition":"full-information","relevant_dimensions":["antennae","wings"],"bee_group":{"antennae":"A","wings":"1","pattern":"X","legs":"X"},"bonus":0.6600000000000009},{"rt":2060.7000000029802,"stimulus":"bees-with-color/bee-A1SF.svg","response":0,"trial_type":"image-button-response","trial_index":119,"time_elapsed":350966,"internal_node_id":"0.0-4.0-0.56","subject_id":"6130ee325904e883b9d19cd2","study_id":"6197b3f67c2b5cd3b6d9596a","session_id":"619be7891450b2e45f5ae65d","condition":"full-information","relevant_dimensions":["antennae","wings"],"bee_group":{"antennae":"A","wings":"1","pattern":"X","legs":"X"},"action":"harvest","summary":"bad-harvest","bonus":0.6600000000000009},{"rt":1115.9000000059605,"stimulus":"\n                    <p><b>Action: <em>harvest</em></b></p>\n                    <p>This is the bee that you just saw.</p>\n                    <img src=\"bees-with-color/bee-A1SF.svg\" width=\"200\">\n                    <p><span class=\"redText\">Bad choice, the bee was angry.</span><br><b>You have been stung!</b><br>Your pay has been decreased by $0.10. Your bonus pay is now $0.54.</p>\n            ","response":0,"trial_type":"html-button-response","trial_index":120,"time_elapsed":352083,"internal_node_id":"0.0-4.0-1.56","subject_id":"6130ee325904e883b9d19cd2","study_id":"6197b3f67c2b5cd3b6d9596a","session_id":"619be7891450b2e45f5ae65d","condition":"full-information","relevant_dimensions":["antennae","wings"],"bee_group":{"antennae":"A","wings":"1","pattern":"X","legs":"X"},"bonus":0.6600000000000009},{"rt":1690.7999999970198,"stimulus":"bees-with-color/bee-A2DF.svg","response":0,"trial_type":"image-button-response","trial_index":121,"time_elapsed":353775,"internal_node_id":"0.0-4.0-0.57","subject_id":"6130ee325904e883b9d19cd2","study_id":"6197b3f67c2b5cd3b6d9596a","session_id":"619be7891450b2e45f5ae65d","condition":"full-information","relevant_dimensions":["antennae","wings"],"bee_group":{"antennae":"A","wings":"1","pattern":"X","legs":"X"},"action":"harvest","summary":"good-harvest","bonus":0.6600000000000009},{"rt":831.7000000029802,"stimulus":"\n                    <p><b>Action: <em>harvest</em></b></p>\n                    <p>This is the bee that you just saw.</p>\n                    <img src=\"bees-with-color/bee-A2DF.svg\" width=\"200\">\n                    <p><span class=\"greenText\"><b>Successful harvest!</b></span><br>Your pay has increased by $0.02. Your bonus pay is now $0.56.</p>\n            ","response":0,"trial_type":"html-button-response","trial_index":122,"time_elapsed":354608,"internal_node_id":"0.0-4.0-1.57","subject_id":"6130ee325904e883b9d19cd2","study_id":"6197b3f67c2b5cd3b6d9596a","session_id":"619be7891450b2e45f5ae65d","condition":"full-information","relevant_dimensions":["antennae","wings"],"bee_group":{"antennae":"A","wings":"1","pattern":"X","legs":"X"},"bonus":0.6600000000000009},{"rt":1232.9000000059605,"stimulus":"bees-with-color/bee-B2DF.svg","response":0,"trial_type":"image-button-response","trial_index":123,"time_elapsed":355842,"internal_node_id":"0.0-4.0-0.58","subject_id":"6130ee325904e883b9d19cd2","study_id":"6197b3f67c2b5cd3b6d9596a","session_id":"619be7891450b2e45f5ae65d","condition":"full-information","relevant_dimensions":["antennae","wings"],"bee_group":{"antennae":"A","wings":"1","pattern":"X","legs":"X"},"action":"harvest","summary":"good-harvest","bonus":0.6600000000000009},{"rt":746.8999999910593,"stimulus":"\n                    <p><b>Action: <em>harvest</em></b></p>\n                    <p>This is the bee that you just saw.</p>\n                    <img src=\"bees-with-color/bee-B2DF.svg\" width=\"200\">\n                    <p><span class=\"greenText\"><b>Successful harvest!</b></span><br>Your pay has increased by $0.02. Your bonus pay is now $0.58.</p>\n            ","response":0,"trial_type":"html-button-response","trial_index":124,"time_elapsed":356590,"internal_node_id":"0.0-4.0-1.58","subject_id":"6130ee325904e883b9d19cd2","study_id":"6197b3f67c2b5cd3b6d9596a","session_id":"619be7891450b2e45f5ae65d","condition":"full-information","relevant_dimensions":["antennae","wings"],"bee_group":{"antennae":"A","wings":"1","pattern":"X","legs":"X"},"bonus":0.6600000000000009},{"rt":1808,"stimulus":"bees-with-color/bee-B1DM.svg","response":1,"trial_type":"image-button-response","trial_index":125,"time_elapsed":358399,"internal_node_id":"0.0-4.0-0.59","subject_id":"6130ee325904e883b9d19cd2","study_id":"6197b3f67c2b5cd3b6d9596a","session_id":"619be7891450b2e45f5ae65d","condition":"full-information","relevant_dimensions":["antennae","wings"],"bee_group":{"antennae":"A","wings":"1","pattern":"X","legs":"X"},"action":"avoid","summary":"bad-avoid","bonus":0.6600000000000009},{"rt":680,"stimulus":"\n                    <p><b>Action: <em>avoid</em></b></p>\n                    <p>This is the bee that you just saw.</p>\n                    <img src=\"bees-with-color/bee-B1DM.svg\" width=\"200\">\n                    <p><span class=\"redText\">Bad choice,</span> the bee was friendly.<br>Your bonus pay is unchanged, and remains at $0.58.</p>\n            ","response":0,"trial_type":"html-button-response","trial_index":126,"time_elapsed":359080,"internal_node_id":"0.0-4.0-1.59","subject_id":"6130ee325904e883b9d19cd2","study_id":"6197b3f67c2b5cd3b6d9596a","session_id":"619be7891450b2e45f5ae65d","condition":"full-information","relevant_dimensions":["antennae","wings"],"bee_group":{"antennae":"A","wings":"1","pattern":"X","legs":"X"},"bonus":0.6600000000000009},{"rt":872.5,"stimulus":"bees-with-color/bee-A1DM.svg","response":1,"trial_type":"image-button-response","trial_index":127,"time_elapsed":359954,"internal_node_id":"0.0-4.0-0.60","subject_id":"6130ee325904e883b9d19cd2","study_id":"6197b3f67c2b5cd3b6d9596a","session_id":"619be7891450b2e45f5ae65d","condition":"full-information","relevant_dimensions":["antennae","wings"],"bee_group":{"antennae":"A","wings":"1","pattern":"X","legs":"X"},"action":"avoid","summary":"good-avoid","bonus":0.6600000000000009},{"rt":754.7000000029802,"stimulus":"\n                    <p><b>Action: <em>avoid</em></b></p>\n                    <p>This is the bee that you just saw.</p>\n                    <img src=\"bees-with-color/bee-A1DM.svg\" width=\"200\">\n                    <p><span class=\"greenText\">Good choice!</span>  This bee would have stung you.<br>Your bonus pay is unchanged, and remains at $0.58.</p>\n            ","response":0,"trial_type":"html-button-response","trial_index":128,"time_elapsed":360710,"internal_node_id":"0.0-4.0-1.60","subject_id":"6130ee325904e883b9d19cd2","study_id":"6197b3f67c2b5cd3b6d9596a","session_id":"619be7891450b2e45f5ae65d","condition":"full-information","relevant_dimensions":["antennae","wings"],"bee_group":{"antennae":"A","wings":"1","pattern":"X","legs":"X"},"bonus":0.6600000000000009},{"rt":784.3000000119209,"stimulus":"bees-with-color/bee-B2SF.svg","response":0,"trial_type":"image-button-response","trial_index":129,"time_elapsed":361495,"internal_node_id":"0.0-4.0-0.61","subject_id":"6130ee325904e883b9d19cd2","study_id":"6197b3f67c2b5cd3b6d9596a","session_id":"619be7891450b2e45f5ae65d","condition":"full-information","relevant_dimensions":["antennae","wings"],"bee_group":{"antennae":"A","wings":"1","pattern":"X","legs":"X"},"action":"harvest","summary":"good-harvest","bonus":0.6600000000000009},{"rt":876.5,"stimulus":"\n                    <p><b>Action: <em>harvest</em></b></p>\n                    <p>This is the bee that you just saw.</p>\n                    <img src=\"bees-with-color/bee-B2SF.svg\" width=\"200\">\n                    <p><span class=\"greenText\"><b>Successful harvest!</b></span><br>Your pay has increased by $0.02. Your bonus pay is now $0.60.</p>\n            ","response":0,"trial_type":"html-button-response","trial_index":130,"time_elapsed":362373,"internal_node_id":"0.0-4.0-1.61","subject_id":"6130ee325904e883b9d19cd2","study_id":"6197b3f67c2b5cd3b6d9596a","session_id":"619be7891450b2e45f5ae65d","condition":"full-information","relevant_dimensions":["antennae","wings"],"bee_group":{"antennae":"A","wings":"1","pattern":"X","legs":"X"},"bonus":0.6600000000000009},{"rt":6001.20000000298,"stimulus":"bees-with-color/bee-B1DF.svg","response":1,"trial_type":"image-button-response","trial_index":131,"time_elapsed":368376,"internal_node_id":"0.0-4.0-0.62","subject_id":"6130ee325904e883b9d19cd2","study_id":"6197b3f67c2b5cd3b6d9596a","session_id":"619be7891450b2e45f5ae65d","condition":"full-information","relevant_dimensions":["antennae","wings"],"bee_group":{"antennae":"A","wings":"1","pattern":"X","legs":"X"},"action":"avoid","summary":"bad-avoid","bonus":0.6600000000000009},{"rt":1369.5,"stimulus":"\n                    <p><b>Action: <em>avoid</em></b></p>\n                    <p>This is the bee that you just saw.</p>\n                    <img src=\"bees-with-color/bee-B1DF.svg\" width=\"200\">\n                    <p><span class=\"redText\">Bad choice,</span> the bee was friendly.<br>Your bonus pay is unchanged, and remains at $0.60.</p>\n            ","response":0,"trial_type":"html-button-response","trial_index":132,"time_elapsed":369746,"internal_node_id":"0.0-4.0-1.62","subject_id":"6130ee325904e883b9d19cd2","study_id":"6197b3f67c2b5cd3b6d9596a","session_id":"619be7891450b2e45f5ae65d","condition":"full-information","relevant_dimensions":["antennae","wings"],"bee_group":{"antennae":"A","wings":"1","pattern":"X","legs":"X"},"bonus":0.6600000000000009},{"rt":1774.5,"stimulus":"bees-with-color/bee-B2DM.svg","response":1,"trial_type":"image-button-response","trial_index":133,"time_elapsed":371523,"internal_node_id":"0.0-4.0-0.63","subject_id":"6130ee325904e883b9d19cd2","study_id":"6197b3f67c2b5cd3b6d9596a","session_id":"619be7891450b2e45f5ae65d","condition":"full-information","relevant_dimensions":["antennae","wings"],"bee_group":{"antennae":"A","wings":"1","pattern":"X","legs":"X"},"action":"avoid","summary":"bad-avoid","bonus":0.6600000000000009},{"rt":714.2999999970198,"stimulus":"\n                    <p><b>Action: <em>avoid</em></b></p>\n                    <p>This is the bee that you just saw.</p>\n                    <img src=\"bees-with-color/bee-B2DM.svg\" width=\"200\">\n                    <p><span class=\"redText\">Bad choice,</span> the bee was friendly.<br>Your bonus pay is unchanged, and remains at $0.60.</p>\n            ","response":0,"trial_type":"html-button-response","trial_index":134,"time_elapsed":372238,"internal_node_id":"0.0-4.0-1.63","subject_id":"6130ee325904e883b9d19cd2","study_id":"6197b3f67c2b5cd3b6d9596a","session_id":"619be7891450b2e45f5ae65d","condition":"full-information","relevant_dimensions":["antennae","wings"],"bee_group":{"antennae":"A","wings":"1","pattern":"X","legs":"X"},"bonus":0.6600000000000009},{"rt":9106.39999999106,"stimulus":"You have completed the first part of this experiment.<br><br>You will now begin a shorter second part, in which you will receive no feedback.<br>The same rules regarding bonus pay apply.<br><br>Press any key to begin.","response":"enter","trial_type":"html-keyboard-response","trial_index":135,"time_elapsed":381346,"internal_node_id":"0.0-5.0","subject_id":"6130ee325904e883b9d19cd2","study_id":"6197b3f67c2b5cd3b6d9596a","session_id":"619be7891450b2e45f5ae65d","condition":"full-information","relevant_dimensions":["antennae","wings"],"bee_group":{"antennae":"A","wings":"1","pattern":"X","legs":"X"},"bonus":0.6600000000000009},{"rt":4188.29999999702,"stimulus":"bees-with-color/bee-B2SF.svg","response":0,"trial_type":"image-button-response","trial_index":136,"time_elapsed":385540,"internal_node_id":"0.0-6.0-0.0","subject_id":"6130ee325904e883b9d19cd2","study_id":"6197b3f67c2b5cd3b6d9596a","session_id":"619be7891450b2e45f5ae65d","condition":"full-information","relevant_dimensions":["antennae","wings"],"bee_group":{"antennae":"A","wings":"1","pattern":"X","legs":"X"},"bonus":0.6600000000000009},{"rt":2021,"stimulus":"bees-with-color/bee-A2DM.svg","response":1,"trial_type":"image-button-response","trial_index":137,"time_elapsed":387564,"internal_node_id":"0.0-6.0-0.1","subject_id":"6130ee325904e883b9d19cd2","study_id":"6197b3f67c2b5cd3b6d9596a","session_id":"619be7891450b2e45f5ae65d","condition":"full-information","relevant_dimensions":["antennae","wings"],"bee_group":{"antennae":"A","wings":"1","pattern":"X","legs":"X"},"bonus":0.6600000000000009},{"rt":2529,"stimulus":"bees-with-color/bee-B1DM.svg","response":0,"trial_type":"image-button-response","trial_index":138,"time_elapsed":390094,"internal_node_id":"0.0-6.0-0.2","subject_id":"6130ee325904e883b9d19cd2","study_id":"6197b3f67c2b5cd3b6d9596a","session_id":"619be7891450b2e45f5ae65d","condition":"full-information","relevant_dimensions":["antennae","wings"],"bee_group":{"antennae":"A","wings":"1","pattern":"X","legs":"X"},"bonus":0.6600000000000009},{"rt":1557.5,"stimulus":"bees-with-color/bee-A2SM.svg","response":0,"trial_type":"image-button-response","trial_index":139,"time_elapsed":391654,"internal_node_id":"0.0-6.0-0.3","subject_id":"6130ee325904e883b9d19cd2","study_id":"6197b3f67c2b5cd3b6d9596a","session_id":"619be7891450b2e45f5ae65d","condition":"full-information","relevant_dimensions":["antennae","wings"],"bee_group":{"antennae":"A","wings":"1","pattern":"X","legs":"X"},"bonus":0.6600000000000009},{"rt":938.2000000029802,"stimulus":"bees-with-color/bee-B1SF.svg","response":1,"trial_type":"image-button-response","trial_index":140,"time_elapsed":392594,"internal_node_id":"0.0-6.0-0.4","subject_id":"6130ee325904e883b9d19cd2","study_id":"6197b3f67c2b5cd3b6d9596a","session_id":"619be7891450b2e45f5ae65d","condition":"full-information","relevant_dimensions":["antennae","wings"],"bee_group":{"antennae":"A","wings":"1","pattern":"X","legs":"X"},"bonus":0.6600000000000009},{"rt":929.9000000059605,"stimulus":"bees-with-color/bee-A1DM.svg","response":1,"trial_type":"image-button-response","trial_index":141,"time_elapsed":393525,"internal_node_id":"0.0-6.0-0.5","subject_id":"6130ee325904e883b9d19cd2","study_id":"6197b3f67c2b5cd3b6d9596a","session_id":"619be7891450b2e45f5ae65d","condition":"full-information","relevant_dimensions":["antennae","wings"],"bee_group":{"antennae":"A","wings":"1","pattern":"X","legs":"X"},"bonus":0.6600000000000009},{"rt":1463.7999999970198,"stimulus":"bees-with-color/bee-A1SF.svg","response":1,"trial_type":"image-button-response","trial_index":142,"time_elapsed":394991,"internal_node_id":"0.0-6.0-0.6","subject_id":"6130ee325904e883b9d19cd2","study_id":"6197b3f67c2b5cd3b6d9596a","session_id":"619be7891450b2e45f5ae65d","condition":"full-information","relevant_dimensions":["antennae","wings"],"bee_group":{"antennae":"A","wings":"1","pattern":"X","legs":"X"},"bonus":0.6600000000000009},{"rt":1383.199999988079,"stimulus":"bees-with-color/bee-B2DF.svg","response":0,"trial_type":"image-button-response","trial_index":143,"time_elapsed":396376,"internal_node_id":"0.0-6.0-0.7","subject_id":"6130ee325904e883b9d19cd2","study_id":"6197b3f67c2b5cd3b6d9596a","session_id":"619be7891450b2e45f5ae65d","condition":"full-information","relevant_dimensions":["antennae","wings"],"bee_group":{"antennae":"A","wings":"1","pattern":"X","legs":"X"},"bonus":0.6600000000000009},{"rt":1342.5,"stimulus":"bees-with-color/bee-A1SM.svg","response":1,"trial_type":"image-button-response","trial_index":144,"time_elapsed":397720,"internal_node_id":"0.0-6.0-0.8","subject_id":"6130ee325904e883b9d19cd2","study_id":"6197b3f67c2b5cd3b6d9596a","session_id":"619be7891450b2e45f5ae65d","condition":"full-information","relevant_dimensions":["antennae","wings"],"bee_group":{"antennae":"A","wings":"1","pattern":"X","legs":"X"},"bonus":0.6600000000000009},{"rt":1273.3999999910593,"stimulus":"bees-with-color/bee-A2DF.svg","response":0,"trial_type":"image-button-response","trial_index":145,"time_elapsed":398995,"internal_node_id":"0.0-6.0-0.9","subject_id":"6130ee325904e883b9d19cd2","study_id":"6197b3f67c2b5cd3b6d9596a","session_id":"619be7891450b2e45f5ae65d","condition":"full-information","relevant_dimensions":["antennae","wings"],"bee_group":{"antennae":"A","wings":"1","pattern":"X","legs":"X"},"bonus":0.6600000000000009},{"rt":1702.7999999970198,"stimulus":"bees-with-color/bee-B2SM.svg","response":1,"trial_type":"image-button-response","trial_index":146,"time_elapsed":400700,"internal_node_id":"0.0-6.0-0.10","subject_id":"6130ee325904e883b9d19cd2","study_id":"6197b3f67c2b5cd3b6d9596a","session_id":"619be7891450b2e45f5ae65d","condition":"full-information","relevant_dimensions":["antennae","wings"],"bee_group":{"antennae":"A","wings":"1","pattern":"X","legs":"X"},"bonus":0.6600000000000009},{"rt":2787.2000000029802,"stimulus":"bees-with-color/bee-B1DF.svg","response":0,"trial_type":"image-button-response","trial_index":147,"time_elapsed":403489,"internal_node_id":"0.0-6.0-0.11","subject_id":"6130ee325904e883b9d19cd2","study_id":"6197b3f67c2b5cd3b6d9596a","session_id":"619be7891450b2e45f5ae65d","condition":"full-information","relevant_dimensions":["antennae","wings"],"bee_group":{"antennae":"A","wings":"1","pattern":"X","legs":"X"},"bonus":0.6600000000000009},{"rt":1243.7999999970198,"stimulus":"bees-with-color/bee-A2SF.svg","response":1,"trial_type":"image-button-response","trial_index":148,"time_elapsed":404735,"internal_node_id":"0.0-6.0-0.12","subject_id":"6130ee325904e883b9d19cd2","study_id":"6197b3f67c2b5cd3b6d9596a","session_id":"619be7891450b2e45f5ae65d","condition":"full-information","relevant_dimensions":["antennae","wings"],"bee_group":{"antennae":"A","wings":"1","pattern":"X","legs":"X"},"bonus":0.6600000000000009},{"rt":1559.8999999910593,"stimulus":"bees-with-color/bee-B1SM.svg","response":0,"trial_type":"image-button-response","trial_index":149,"time_elapsed":406298,"internal_node_id":"0.0-6.0-0.13","subject_id":"6130ee325904e883b9d19cd2","study_id":"6197b3f67c2b5cd3b6d9596a","session_id":"619be7891450b2e45f5ae65d","condition":"full-information","relevant_dimensions":["antennae","wings"],"bee_group":{"antennae":"A","wings":"1","pattern":"X","legs":"X"},"bonus":0.6600000000000009},{"rt":2734.9000000059605,"stimulus":"bees-with-color/bee-B2DM.svg","response":1,"trial_type":"image-button-response","trial_index":150,"time_elapsed":409035,"internal_node_id":"0.0-6.0-0.14","subject_id":"6130ee325904e883b9d19cd2","study_id":"6197b3f67c2b5cd3b6d9596a","session_id":"619be7891450b2e45f5ae65d","condition":"full-information","relevant_dimensions":["antennae","wings"],"bee_group":{"antennae":"A","wings":"1","pattern":"X","legs":"X"},"bonus":0.6600000000000009},{"rt":1786.8999999910593,"stimulus":"bees-with-color/bee-A1DF.svg","response":1,"trial_type":"image-button-response","trial_index":151,"time_elapsed":410824,"internal_node_id":"0.0-6.0-0.15","subject_id":"6130ee325904e883b9d19cd2","study_id":"6197b3f67c2b5cd3b6d9596a","session_id":"619be7891450b2e45f5ae65d","condition":"full-information","relevant_dimensions":["antennae","wings"],"bee_group":{"antennae":"A","wings":"1","pattern":"X","legs":"X"},"bonus":0.6600000000000009},{"rt":876.9000000059605,"stimulus":"bees-with-color/bee-A2SF.svg","response":1,"trial_type":"image-button-response","trial_index":152,"time_elapsed":411702,"internal_node_id":"0.0-6.0-0.16","subject_id":"6130ee325904e883b9d19cd2","study_id":"6197b3f67c2b5cd3b6d9596a","session_id":"619be7891450b2e45f5ae65d","condition":"full-information","relevant_dimensions":["antennae","wings"],"bee_group":{"antennae":"A","wings":"1","pattern":"X","legs":"X"},"bonus":0.6600000000000009},{"rt":1261.2999999970198,"stimulus":"bees-with-color/bee-A1SF.svg","response":0,"trial_type":"image-button-response","trial_index":153,"time_elapsed":412965,"internal_node_id":"0.0-6.0-0.17","subject_id":"6130ee325904e883b9d19cd2","study_id":"6197b3f67c2b5cd3b6d9596a","session_id":"619be7891450b2e45f5ae65d","condition":"full-information","relevant_dimensions":["antennae","wings"],"bee_group":{"antennae":"A","wings":"1","pattern":"X","legs":"X"},"bonus":0.6600000000000009},{"rt":1517.5,"stimulus":"bees-with-color/bee-A1DM.svg","response":1,"trial_type":"image-button-response","trial_index":154,"time_elapsed":414485,"internal_node_id":"0.0-6.0-0.18","subject_id":"6130ee325904e883b9d19cd2","study_id":"6197b3f67c2b5cd3b6d9596a","session_id":"619be7891450b2e45f5ae65d","condition":"full-information","relevant_dimensions":["antennae","wings"],"bee_group":{"antennae":"A","wings":"1","pattern":"X","legs":"X"},"bonus":0.6600000000000009},{"rt":889.2999999970198,"stimulus":"bees-with-color/bee-B1DF.svg","response":0,"trial_type":"image-button-response","trial_index":155,"time_elapsed":415375,"internal_node_id":"0.0-6.0-0.19","subject_id":"6130ee325904e883b9d19cd2","study_id":"6197b3f67c2b5cd3b6d9596a","session_id":"619be7891450b2e45f5ae65d","condition":"full-information","relevant_dimensions":["antennae","wings"],"bee_group":{"antennae":"A","wings":"1","pattern":"X","legs":"X"},"bonus":0.6600000000000009},{"rt":1183,"stimulus":"bees-with-color/bee-A2DM.svg","response":0,"trial_type":"image-button-response","trial_index":156,"time_elapsed":416560,"internal_node_id":"0.0-6.0-0.20","subject_id":"6130ee325904e883b9d19cd2","study_id":"6197b3f67c2b5cd3b6d9596a","session_id":"619be7891450b2e45f5ae65d","condition":"full-information","relevant_dimensions":["antennae","wings"],"bee_group":{"antennae":"A","wings":"1","pattern":"X","legs":"X"},"bonus":0.6600000000000009},{"rt":918.4000000059605,"stimulus":"bees-with-color/bee-B2DF.svg","response":1,"trial_type":"image-button-response","trial_index":157,"time_elapsed":417480,"internal_node_id":"0.0-6.0-0.21","subject_id":"6130ee325904e883b9d19cd2","study_id":"6197b3f67c2b5cd3b6d9596a","session_