[{"success":true,"trial_type":"fullscreen","trial_index":0,"time_elapsed":3227,"internal_node_id":"0.0-0.0","subject_id":"5eceef5fa487421604c337ba","study_id":"6197b3f67c2b5cd3b6d9596a","session_id":"6197d817b692674c47022b72","condition":"full-information","relevant_dimensions":["wings","legs"],"bee_group":{"antennae":"X","wings":"1","pattern":"X","legs":"M"},"bonus":1.660000000000001},{"success":true,"timeout":false,"failed_images":[],"failed_audio":[],"failed_video":[],"trial_type":"preload","trial_index":1,"time_elapsed":5336,"internal_node_id":"0.0-1.0","subject_id":"5eceef5fa487421604c337ba","study_id":"6197b3f67c2b5cd3b6d9596a","session_id":"6197d817b692674c47022b72","condition":"full-information","relevant_dimensions":["wings","legs"],"bee_group":{"antennae":"X","wings":"1","pattern":"X","legs":"M"},"bonus":1.660000000000001},{"rt":1540.5,"stimulus":"Welcome! Press any key to begin.","response":" ","trial_type":"html-keyboard-response","trial_index":2,"time_elapsed":6877,"internal_node_id":"0.0-2.0","subject_id":"5eceef5fa487421604c337ba","study_id":"6197b3f67c2b5cd3b6d9596a","session_id":"6197d817b692674c47022b72","condition":"full-information","relevant_dimensions":["wings","legs"],"bee_group":{"antennae":"X","wings":"1","pattern":"X","legs":"M"},"bonus":1.660000000000001},{"view_history":[{"page_index":0,"viewing_time":5270.5},{"page_index":1,"viewing_time":22542.5},{"page_index":2,"viewing_time":9546.899999976158},{"page_index":3,"viewing_time":17797.899999976158},{"page_index":4,"viewing_time":7797.899999976158},{"page_index":5,"viewing_time":12534.399999976158},{"page_index":6,"viewing_time":52740.800000071526},{"page_index":5,"viewing_time":1468.6000000238419},{"page_index":4,"viewing_time":1032.7999999523163},{"page_index":3,"viewing_time":1268},{"page_index":2,"viewing_time":1415.7000000476837},{"page_index":1,"viewing_time":2296.7999999523163},{"page_index":0,"viewing_time":12625.899999976158},{"page_index":1,"viewing_time":12456.600000023842},{"page_index":2,"viewing_time":13250.299999952316},{"page_index":3,"viewing_time":9114.300000071526},{"page_index":4,"viewing_time":5197.5},{"page_index":5,"viewing_time":4568.199999928474},{"page_index":6,"viewing_time":9656.800000071526},{"page_index":7,"viewing_time":9155.399999976158},{"page_index":8,"viewing_time":6905.200000047684},{"page_index":9,"viewing_time":7073.899999976158},{"page_index":10,"viewing_time":4071.1999999284744},{"page_index":11,"viewing_time":8682.400000095367},{"page_index":12,"viewing_time":28230.299999952316},{"page_index":13,"viewing_time":24597.299999952316},{"page_index":14,"viewing_time":2316.2000000476837}],"rt":293614.6999999285,"trial_type":"instructions","trial_index":3,"time_elapsed":300493,"internal_node_id":"0.0-3.0-0.0","subject_id":"5eceef5fa487421604c337ba","study_id":"6197b3f67c2b5cd3b6d9596a","session_id":"6197d817b692674c47022b72","condition":"full-information","relevant_dimensions":["wings","legs"],"bee_group":{"antennae":"X","wings":"1","pattern":"X","legs":"M"},"bonus":1.660000000000001},{"rt":14638.300000071526,"response":{"Q0":["Two or six legs","Stripes or spots on body","Single or double wings","Antennae or no antennae"]},"question_order":[0],"trial_type":"survey-multi-select","trial_index":4,"time_elapsed":315136,"internal_node_id":"0.0-3.0-1.0","subject_id":"5eceef5fa487421604c337ba","study_id":"6197b3f67c2b5cd3b6d9596a","session_id":"6197d817b692674c47022b72","condition":"full-information","relevant_dimensions":["wings","legs"],"bee_group":{"antennae":"X","wings":"1","pattern":"X","legs":"M"},"correct":true,"bonus":1.660000000000001},{"rt":19386.100000023842,"response":{"Q1":"No.","Q2":"Based on the four features of the bee.","Q3":"You learn if it was friendly or dangerous, but do not alter your bonus."},"question_order":[0,1,2],"trial_type":"survey-multi-choice","trial_index":5,"time_elapsed":334524,"internal_node_id":"0.0-3.0-2.0","subject_id":"5eceef5fa487421604c337ba","study_id":"6197b3f67c2b5cd3b6d9596a","session_id":"6197d817b692674c47022b72","condition":"full-information","relevant_dimensions":["wings","legs"],"bee_group":{"antennae":"X","wings":"1","pattern":"X","legs":"M"},"correct":true,"bonus":1.660000000000001},{"rt":12065.299999952316,"stimulus":"<p>Congrats, you got everything right<br>When you're ready, click the button below to continue to the experiment.</p>","response":0,"trial_type":"html-button-response","trial_index":6,"time_elapsed":346591,"internal_node_id":"0.0-3.0-3.0","subject_id":"5eceef5fa487421604c337ba","study_id":"6197b3f67c2b5cd3b6d9596a","session_id":"6197d817b692674c47022b72","condition":"full-information","relevant_dimensions":["wings","legs"],"bee_group":{"antennae":"X","wings":"1","pattern":"X","legs":"M"},"bonus":1.660000000000001},{"rt":18660.400000095367,"stimulus":"bees-with-color/bee-B2SF.svg","response":1,"trial_type":"image-button-response","trial_index":7,"time_elapsed":365254,"internal_node_id":"0.0-4.0-0.0","subject_id":"5eceef5fa487421604c337ba","study_id":"6197b3f67c2b5cd3b6d9596a","session_id":"6197d817b692674c47022b72","condition":"full-information","relevant_dimensions":["wings","legs"],"bee_group":{"antennae":"X","wings":"1","pattern":"X","legs":"M"},"action":"avoid","summary":"bad-avoid","bonus":1.660000000000001},{"rt":9111.699999928474,"stimulus":"\n                    <p><b>Action: <em>avoid</em></b></p>\n                    <p>This is the bee that you just saw.</p>\n                    <img src=\"bees-with-color/bee-B2SF.svg\" width=\"200\">\n                    <p><span class=\"redText\">Bad choice,</span> the bee was friendly.<br>Your bonus pay is unchanged, and remains at $0.54.</p>\n            ","response":0,"trial_type":"html-button-response","trial_index":8,"time_elapsed":374430,"internal_node_id":"0.0-4.0-1.0","subject_id":"5eceef5fa487421604c337ba","study_id":"6197b3f67c2b5cd3b6d9596a","session_id":"6197d817b692674c47022b72","condition":"full-information","relevant_dimensions":["wings","legs"],"bee_group":{"antennae":"X","wings":"1","pattern":"X","legs":"M"},"bonus":1.660000000000001},{"rt":13315.399999976158,"stimulus":"bees-with-color/bee-B1DF.svg","response":1,"trial_type":"image-button-response","trial_index":9,"time_elapsed":387747,"internal_node_id":"0.0-4.0-0.1","subject_id":"5eceef5fa487421604c337ba","study_id":"6197b3f67c2b5cd3b6d9596a","session_id":"6197d817b692674c47022b72","condition":"full-information","relevant_dimensions":["wings","legs"],"bee_group":{"antennae":"X","wings":"1","pattern":"X","legs":"M"},"action":"avoid","summary":"bad-avoid","bonus":1.660000000000001},{"rt":3408.100000023842,"stimulus":"\n                    <p><b>Action: <em>avoid</em></b></p>\n                    <p>This is the bee that you just saw.</p>\n                    <img src=\"bees-with-color/bee-B1DF.svg\" width=\"200\">\n                    <p><span class=\"redText\">Bad choice,</span> the bee was friendly.<br>Your bonus pay is unchanged, and remains at $0.54.</p>\n            ","response":0,"trial_type":"html-button-response","trial_index":10,"time_elapsed":391157,"internal_node_id":"0.0-4.0-1.1","subject_id":"5eceef5fa487421604c337ba","study_id":"6197b3f67c2b5cd3b6d9596a","session_id":"6197d817b692674c47022b72","condition":"full-information","relevant_dimensions":["wings","legs"],"bee_group":{"antennae":"X","wings":"1","pattern":"X","legs":"M"},"bonus":1.660000000000001},{"rt":11970.299999952316,"stimulus":"bees-with-color/bee-A1SM.svg","response":1,"trial_type":"image-button-response","trial_index":11,"time_elapsed":403130,"internal_node_id":"0.0-4.0-0.2","subject_id":"5eceef5fa487421604c337ba","study_id":"6197b3f67c2b5cd3b6d9596a","session_id":"6197d817b692674c47022b72","condition":"full-information","relevant_dimensions":["wings","legs"],"bee_group":{"antennae":"X","wings":"1","pattern":"X","legs":"M"},"action":"avoid","summary":"good-avoid","bonus":1.660000000000001},{"rt":7956,"stimulus":"\n                    <p><b>Action: <em>avoid</em></b></p>\n                    <p>This is the bee that you just saw.</p>\n                    <img src=\"bees-with-color/bee-A1SM.svg\" width=\"200\">\n                    <p><span class=\"greenText\">Good choice!</span>  This bee would have stung you.<br>Your bonus pay is unchanged, and remains at $0.54.</p>\n            ","response":0,"trial_type":"html-button-response","trial_index":12,"time_elapsed":411087,"internal_node_id":"0.0-4.0-1.2","subject_id":"5eceef5fa487421604c337ba","study_id":"6197b3f67c2b5cd3b6d9596a","session_id":"6197d817b692674c47022b72","condition":"full-information","relevant_dimensions":["wings","legs"],"bee_group":{"antennae":"X","wings":"1","pattern":"X","legs":"M"},"bonus":1.660000000000001},{"rt":17327,"stimulus":"bees-with-color/bee-B1DM.svg","response":1,"trial_type":"image-button-response","trial_index":13,"time_elapsed":428416,"internal_node_id":"0.0-4.0-0.3","subject_id":"5eceef5fa487421604c337ba","study_id":"6197b3f67c2b5cd3b6d9596a","session_id":"6197d817b692674c47022b72","condition":"full-information","relevant_dimensions":["wings","legs"],"bee_group":{"antennae":"X","wings":"1","pattern":"X","legs":"M"},"action":"avoid","summary":"good-avoid","bonus":1.660000000000001},{"rt":3295.2999999523163,"stimulus":"\n                    <p><b>Action: <em>avoid</em></b></p>\n                    <p>This is the bee that you just saw.</p>\n                    <img src=\"bees-with-color/bee-B1DM.svg\" width=\"200\">\n                    <p><span class=\"greenText\">Good choice!</span>  This bee would have stung you.<br>Your bonus pay is unchanged, and remains at $0.54.</p>\n            ","response":0,"trial_type":"html-button-response","trial_index":14,"time_elapsed":431713,"internal_node_id":"0.0-4.0-1.3","subject_id":"5eceef5fa487421604c337ba","study_id":"6197b3f67c2b5cd3b6d9596a","session_id":"6197d817b692674c47022b72","condition":"full-information","relevant_dimensions":["wings","legs"],"bee_group":{"antennae":"X","wings":"1","pattern":"X","legs":"M"},"bonus":1.660000000000001},{"rt":15601.600000023842,"stimulus":"bees-with-color/bee-A2SM.svg","response":1,"trial_type":"image-button-response","trial_index":15,"time_elapsed":447316,"internal_node_id":"0.0-4.0-0.4","subject_id":"5eceef5fa487421604c337ba","study_id":"6197b3f67c2b5cd3b6d9596a","session_id":"6197d817b692674c47022b72","condition":"full-information","relevant_dimensions":["wings","legs"],"bee_group":{"antennae":"X","wings":"1","pattern":"X","legs":"M"},"action":"avoid","summary":"bad-avoid","bonus":1.660000000000001},{"rt":13488.700000047684,"stimulus":"\n                    <p><b>Action: <em>avoid</em></b></p>\n                    <p>This is the bee that you just saw.</p>\n                    <img src=\"bees-with-color/bee-A2SM.svg\" width=\"200\">\n                    <p><span class=\"redText\">Bad choice,</span> the bee was friendly.<br>Your bonus pay is unchanged, and remains at $0.54.</p>\n            ","response":0,"trial_type":"html-button-response","trial_index":16,"time_elapsed":460807,"internal_node_id":"0.0-4.0-1.4","subject_id":"5eceef5fa487421604c337ba","study_id":"6197b3f67c2b5cd3b6d9596a","session_id":"6197d817b692674c47022b72","condition":"full-information","relevant_dimensions":["wings","legs"],"bee_group":{"antennae":"X","wings":"1","pattern":"X","legs":"M"},"bonus":1.660000000000001},{"rt":16249.200000047684,"stimulus":"bees-with-color/bee-A2DM.svg","response":1,"trial_type":"image-button-response","trial_index":17,"time_elapsed":477058,"internal_node_id":"0.0-4.0-0.5","subject_id":"5eceef5fa487421604c337ba","study_id":"6197b3f67c2b5cd3b6d9596a","session_id":"6197d817b692674c47022b72","condition":"full-information","relevant_dimensions":["wings","legs"],"bee_group":{"antennae":"X","wings":"1","pattern":"X","legs":"M"},"action":"avoid","summary":"bad-avoid","bonus":1.660000000000001},{"rt":3363.2000000476837,"stimulus":"\n                    <p><b>Action: <em>avoid</em></b></p>\n                    <p>This is the bee that you just saw.</p>\n                    <img src=\"bees-with-color/bee-A2DM.svg\" width=\"200\">\n                    <p><span class=\"redText\">Bad choice,</span> the bee was friendly.<br>Your bonus pay is unchanged, and remains at $0.54.</p>\n            ","response":0,"trial_type":"html-button-response","trial_index":18,"time_elapsed":480422,"internal_node_id":"0.0-4.0-1.5","subject_id":"5eceef5fa487421604c337ba","study_id":"6197b3f67c2b5cd3b6d9596a","session_id":"6197d817b692674c47022b72","condition":"full-information","relevant_dimensions":["wings","legs"],"bee_group":{"antennae":"X","wings":"1","pattern":"X","legs":"M"},"bonus":1.660000000000001},{"rt":19562.100000023842,"stimulus":"bees-with-color/bee-A1SF.svg","response":1,"trial_type":"image-button-response","trial_index":19,"time_elapsed":499987,"internal_node_id":"0.0-4.0-0.6","subject_id":"5eceef5fa487421604c337ba","study_id":"6197b3f67c2b5cd3b6d9596a","session_id":"6197d817b692674c47022b72","condition":"full-information","relevant_dimensions":["wings","legs"],"bee_group":{"antennae":"X","wings":"1","pattern":"X","legs":"M"},"action":"avoid","summary":"bad-avoid","bonus":1.660000000000001},{"rt":3866,"stimulus":"\n                    <p><b>Action: <em>avoid</em></b></p>\n                    <p>This is the bee that you just saw.</p>\n                    <img src=\"bees-with-color/bee-A1SF.svg\" width=\"200\">\n                    <p><span class=\"redText\">Bad choice,</span> the bee was friendly.<br>Your bonus pay is unchanged, and remains at $0.54.</p>\n            ","response":0,"trial_type":"html-button-response","trial_index":20,"time_elapsed":503854,"internal_node_id":"0.0-4.0-1.6","subject_id":"5eceef5fa487421604c337ba","study_id":"6197b3f67c2b5cd3b6d9596a","session_id":"6197d817b692674c47022b72","condition":"full-information","relevant_dimensions":["wings","legs"],"bee_group":{"antennae":"X","wings":"1","pattern":"X","legs":"M"},"bonus":1.660000000000001},{"rt":18011.300000071526,"stimulus":"bees-with-color/bee-A2DF.svg","response":1,"trial_type":"image-button-response","trial_index":21,"time_elapsed":521868,"internal_node_id":"0.0-4.0-0.7","subject_id":"5eceef5fa487421604c337ba","study_id":"6197b3f67c2b5cd3b6d9596a","session_id":"6197d817b692674c47022b72","condition":"full-information","relevant_dimensions":["wings","legs"],"bee_group":{"antennae":"X","wings":"1","pattern":"X","legs":"M"},"action":"avoid","summary":"bad-avoid","bonus":1.660000000000001},{"rt":3936.899999976158,"stimulus":"\n                    <p><b>Action: <em>avoid</em></b></p>\n                    <p>This is the bee that you just saw.</p>\n                    <img src=\"bees-with-color/bee-A2DF.svg\" width=\"200\">\n                    <p><span class=\"redText\">Bad choice,</span> the bee was friendly.<br>Your bonus pay is unchanged, and remains at $0.54.</p>\n            ","response":0,"trial_type":"html-button-response","trial_index":22,"time_elapsed":525806,"internal_node_id":"0.0-4.0-1.7","subject_id":"5eceef5fa487421604c337ba","study_id":"6197b3f67c2b5cd3b6d9596a","session_id":"6197d817b692674c47022b72","condition":"full-information","relevant_dimensions":["wings","legs"],"bee_group":{"antennae":"X","wings":"1","pattern":"X","legs":"M"},"bonus":1.660000000000001},{"rt":19692.100000023842,"stimulus":"bees-with-color/bee-B1SF.svg","response":1,"trial_type":"image-button-response","trial_index":23,"time_elapsed":545500,"internal_node_id":"0.0-4.0-0.8","subject_id":"5eceef5fa487421604c337ba","study_id":"6197b3f67c2b5cd3b6d9596a","session_id":"6197d817b692674c47022b72","condition":"full-information","relevant_dimensions":["wings","legs"],"bee_group":{"antennae":"X","wings":"1","pattern":"X","legs":"M"},"action":"avoid","summary":"bad-avoid","bonus":1.660000000000001},{"rt":3229.8000000715256,"stimulus":"\n                    <p><b>Action: <em>avoid</em></b></p>\n                    <p>This is the bee that you just saw.</p>\n                    <img src=\"bees-with-color/bee-B1SF.svg\" width=\"200\">\n                    <p><span class=\"redText\">Bad choice,</span> the bee was friendly.<br>Your bonus pay is unchanged, and remains at $0.54.</p>\n            ","response":0,"trial_type":"html-button-response","trial_index":24,"time_elapsed":548732,"internal_node_id":"0.0-4.0-1.8","subject_id":"5eceef5fa487421604c337ba","study_id":"6197b3f67c2b5cd3b6d9596a","session_id":"6197d817b692674c47022b72","condition":"full-information","relevant_dimensions":["wings","legs"],"bee_group":{"antennae":"X","wings":"1","pattern":"X","legs":"M"},"bonus":1.660000000000001},{"rt":18095.300000071526,"stimulus":"bees-with-color/bee-A2SF.svg","response":1,"trial_type":"image-button-response","trial_index":25,"time_elapsed":566829,"internal_node_id":"0.0-4.0-0.9","subject_id":"5eceef5fa487421604c337ba","study_id":"6197b3f67c2b5cd3b6d9596a","session_id":"6197d817b692674c47022b72","condition":"full-information","relevant_dimensions":["wings","legs"],"bee_group":{"antennae":"X","wings":"1","pattern":"X","legs":"M"},"action":"avoid","summary":"bad-avoid","bonus":1.660000000000001},{"rt":5323.299999952316,"stimulus":"\n                    <p><b>Action: <em>avoid</em></b></p>\n                    <p>This is the bee that you just saw.</p>\n                    <img src=\"bees-with-color/bee-A2SF.svg\" width=\"200\">\n                    <p><span class=\"redText\">Bad choice,</span> the bee was friendly.<br>Your bonus pay is unchanged, and remains at $0.54.</p>\n            ","response":0,"trial_type":"html-button-response","trial_index":26,"time_elapsed":572153,"internal_node_id":"0.0-4.0-1.9","subject_id":"5eceef5fa487421604c337ba","study_id":"6197b3f67c2b5cd3b6d9596a","session_id":"6197d817b692674c47022b72","condition":"full-information","relevant_dimensions":["wings","legs"],"bee_group":{"antennae":"X","wings":"1","pattern":"X","legs":"M"},"bonus":1.660000000000001},{"rt":13871.799999952316,"stimulus":"bees-with-color/bee-A1DF.svg","response":1,"trial_type":"image-button-response","trial_index":27,"time_elapsed":586027,"internal_node_id":"0.0-4.0-0.10","subject_id":"5eceef5fa487421604c337ba","study_id":"6197b3f67c2b5cd3b6d9596a","session_id":"6197d817b692674c47022b72","condition":"full-information","relevant_dimensions":["wings","legs"],"bee_group":{"antennae":"X","wings":"1","pattern":"X","legs":"M"},"action":"avoid","summary":"bad-avoid","bonus":1.660000000000001},{"rt":15579.100000023842,"stimulus":"\n                    <p><b>Action: <em>avoid</em></b></p>\n                    <p>This is the bee that you just saw.</p>\n                    <img src=\"bees-with-color/bee-A1DF.svg\" width=\"200\">\n                    <p><span class=\"redText\">Bad choice,</span> the bee was friendly.<br>Your bonus pay is unchanged, and remains at $0.54.</p>\n            ","response":0,"trial_type":"html-button-response","trial_index":28,"time_elapsed":601608,"internal_node_id":"0.0-4.0-1.10","subject_id":"5eceef5fa487421604c337ba","study_id":"6197b3f67c2b5cd3b6d9596a","session_id":"6197d817b692674c47022b72","condition":"full-information","relevant_dimensions":["wings","legs"],"bee_group":{"antennae":"X","wings":"1","pattern":"X","legs":"M"},"bonus":1.660000000000001},{"rt":12882,"stimulus":"bees-with-color/bee-B2SM.svg","response":0,"trial_type":"image-button-response","trial_index":29,"time_elapsed":614492,"internal_node_id":"0.0-4.0-0.11","subject_id":"5eceef5fa487421604c337ba","study_id":"6197b3f67c2b5cd3b6d9596a","session_id":"6197d817b692674c47022b72","condition":"full-information","relevant_dimensions":["wings","legs"],"bee_group":{"antennae":"X","wings":"1","pattern":"X","legs":"M"},"action":"harvest","summary":"good-harvest","bonus":1.660000000000001},{"rt":2414.899999976158,"stimulus":"\n                    <p><b>Action: <em>harvest</em></b></p>\n                    <p>This is the bee that you just saw.</p>\n                    <img src=\"bees-with-color/bee-B2SM.svg\" width=\"200\">\n                    <p><span class=\"greenText\"><b>Successful harvest!</b></span><br>Your pay has increased by $0.02. Your bonus pay is now $0.56.</p>\n            ","response":0,"trial_type":"html-button-response","trial_index":30,"time_elapsed":616908,"internal_node_id":"0.0-4.0-1.11","subject_id":"5eceef5fa487421604c337ba","study_id":"6197b3f67c2b5cd3b6d9596a","session_id":"6197d817b692674c47022b72","condition":"full-information","relevant_dimensions":["wings","legs"],"bee_group":{"antennae":"X","wings":"1","pattern":"X","legs":"M"},"bonus":1.660000000000001},{"rt":16220.699999928474,"stimulus":"bees-with-color/bee-B1SM.svg","response":1,"trial_type":"image-button-response","trial_index":31,"time_elapsed":633130,"internal_node_id":"0.0-4.0-0.12","subject_id":"5eceef5fa487421604c337ba","study_id":"6197b3f67c2b5cd3b6d9596a","session_id":"6197d817b692674c47022b72","condition":"full-information","relevant_dimensions":["wings","legs"],"bee_group":{"antennae":"X","wings":"1","pattern":"X","legs":"M"},"action":"avoid","summary":"good-avoid","bonus":1.660000000000001},{"rt":5924.399999976158,"stimulus":"\n                    <p><b>Action: <em>avoid</em></b></p>\n                    <p>This is the bee that you just saw.</p>\n                    <img src=\"bees-with-color/bee-B1SM.svg\" width=\"200\">\n                    <p><span class=\"greenText\">Good choice!</span>  This bee would have stung you.<br>Your bonus pay is unchanged, and remains at $0.56.</p>\n            ","response":0,"trial_type":"html-button-response","trial_index":32,"time_elapsed":639056,"internal_node_id":"0.0-4.0-1.12","subject_id":"5eceef5fa487421604c337ba","study_id":"6197b3f67c2b5cd3b6d9596a","session_id":"6197d817b692674c47022b72","condition":"full-information","relevant_dimensions":["wings","legs"],"bee_group":{"antennae":"X","wings":"1","pattern":"X","legs":"M"},"bonus":1.660000000000001},{"rt":21312.5,"stimulus":"bees-with-color/bee-B2DM.svg","response":1,"trial_type":"image-button-response","trial_index":33,"time_elapsed":660370,"internal_node_id":"0.0-4.0-0.13","subject_id":"5eceef5fa487421604c337ba","study_id":"6197b3f67c2b5cd3b6d9596a","session_id":"6197d817b692674c47022b72","condition":"full-information","relevant_dimensions":["wings","legs"],"bee_group":{"antennae":"X","wings":"1","pattern":"X","legs":"M"},"action":"avoid","summary":"bad-avoid","bonus":1.660000000000001},{"rt":2220.100000023842,"stimulus":"\n                    <p><b>Action: <em>avoid</em></b></p>\n                    <p>This is the bee that you just saw.</p>\n                    <img src=\"bees-with-color/bee-B2DM.svg\" width=\"200\">\n                    <p><span class=\"redText\">Bad choice,</span> the bee was friendly.<br>Your bonus pay is unchanged, and remains at $0.56.</p>\n            ","response":0,"trial_type":"html-button-response","trial_index":34,"time_elapsed":662592,"internal_node_id":"0.0-4.0-1.13","subject_id":"5eceef5fa487421604c337ba","study_id":"6197b3f67c2b5cd3b6d9596a","session_id":"6197d817b692674c47022b72","condition":"full-information","relevant_dimensions":["wings","legs"],"bee_group":{"antennae":"X","wings":"1","pattern":"X","legs":"M"},"bonus":1.660000000000001},{"rt":14489.100000023842,"stimulus":"bees-with-color/bee-B2DF.svg","response":1,"trial_type":"image-button-response","trial_index":35,"time_elapsed":677083,"internal_node_id":"0.0-4.0-0.14","subject_id":"5eceef5fa487421604c337ba","study_id":"6197b3f67c2b5cd3b6d9596a","session_id":"6197d817b692674c47022b72","condition":"full-information","relevant_dimensions":["wings","legs"],"bee_group":{"antennae":"X","wings":"1","pattern":"X","legs":"M"},"action":"avoid","summary":"bad-avoid","bonus":1.660000000000001},{"rt":3550.600000023842,"stimulus":"\n                    <p><b>Action: <em>avoid</em></b></p>\n                    <p>This is the bee that you just saw.</p>\n                    <img src=\"bees-with-color/bee-B2DF.svg\" width=\"200\">\n                    <p><span class=\"redText\">Bad choice,</span> the bee was friendly.<br>Your bonus pay is unchanged, and remains at $0.56.</p>\n            ","response":0,"trial_type":"html-button-response","trial_index":36,"time_elapsed":680634,"internal_node_id":"0.0-4.0-1.14","subject_id":"5eceef5fa487421604c337ba","study_id":"6197b3f67c2b5cd3b6d9596a","session_id":"6197d817b692674c47022b72","condition":"full-information","relevant_dimensions":["wings","legs"],"bee_group":{"antennae":"X","wings":"1","pattern":"X","legs":"M"},"bonus":1.660000000000001},{"rt":16679.399999976158,"stimulus":"bees-with-color/bee-A1DM.svg","response":0,"trial_type":"image-button-response","trial_index":37,"time_elapsed":697316,"internal_node_id":"0.0-4.0-0.15","subject_id":"5eceef5fa487421604c337ba","study_id":"6197b3f67c2b5cd3b6d9596a","session_id":"6197d817b692674c47022b72","condition":"full-information","relevant_dimensions":["wings","legs"],"bee_group":{"antennae":"X","wings":"1","pattern":"X","legs":"M"},"action":"harvest","summary":"bad-harvest","bonus":1.660000000000001},{"rt":7091,"stimulus":"\n                    <p><b>Action: <em>harvest</em></b></p>\n                    <p>This is the bee that you just saw.</p>\n                    <img src=\"bees-with-color/bee-A1DM.svg\" width=\"200\">\n                    <p><span class=\"redText\">Bad choice, the bee was angry.</span><br><b>You have been stung!</b><br>Your pay has been decreased by $0.10. Your bonus pay is now $0.46.</p>\n            ","response":0,"trial_type":"html-button-response","trial_index":38,"time_elapsed":704409,"internal_node_id":"0.0-4.0-1.15","subject_id":"5eceef5fa487421604c337ba","study_id":"6197b3f67c2b5cd3b6d9596a","session_id":"6197d817b692674c47022b72","condition":"full-information","relevant_dimensions":["wings","legs"],"bee_group":{"antennae":"X","wings":"1","pattern":"X","legs":"M"},"bonus":1.660000000000001},{"rt":7786.299999952316,"stimulus":"bees-with-color/bee-B1DF.svg","response":0,"trial_type":"image-button-response","trial_index":39,"time_elapsed":712197,"internal_node_id":"0.0-4.0-0.16","subject_id":"5eceef5fa487421604c337ba","study_id":"6197b3f67c2b5cd3b6d9596a","session_id":"6197d817b692674c47022b72","condition":"full-information","relevant_dimensions":["wings","legs"],"bee_group":{"antennae":"X","wings":"1","pattern":"X","legs":"M"},"action":"harvest","summary":"good-harvest","bonus":1.660000000000001},{"rt":1283.3999999761581,"stimulus":"\n                    <p><b>Action: <em>harvest</em></b></p>\n                    <p>This is the bee that you just saw.</p>\n                    <img src=\"bees-with-color/bee-B1DF.svg\" width=\"200\">\n                    <p><span class=\"greenText\"><b>Successful harvest!</b></span><br>Your pay has increased by $0.02. Your bonus pay is now $0.48.</p>\n            ","response":0,"trial_type":"html-button-response","trial_index":40,"time_elapsed":713481,"internal_node_id":"0.0-4.0-1.16","subject_id":"5eceef5fa487421604c337ba","study_id":"6197b3f67c2b5cd3b6d9596a","session_id":"6197d817b692674c47022b72","condition":"full-information","relevant_dimensions":["wings","legs"],"bee_group":{"antennae":"X","wings":"1","pattern":"X","legs":"M"},"bonus":1.660000000000001},{"rt":10185.299999952316,"stimulus":"bees-with-color/bee-B2DF.svg","response":0,"trial_type":"image-button-response","trial_index":41,"time_elapsed":723668,"internal_node_id":"0.0-4.0-0.17","subject_id":"5eceef5fa487421604c337ba","study_id":"6197b3f67c2b5cd3b6d9596a","session_id":"6197d817b692674c47022b72","condition":"full-information","relevant_dimensions":["wings","legs"],"bee_group":{"antennae":"X","wings":"1","pattern":"X","legs":"M"},"action":"harvest","summary":"good-harvest","bonus":1.660000000000001},{"rt":1125.3999999761581,"stimulus":"\n                    <p><b>Action: <em>harvest</em></b></p>\n                    <p>This is the bee that you just saw.</p>\n                    <img src=\"bees-with-color/bee-B2DF.svg\" width=\"200\">\n                    <p><span class=\"greenText\"><b>Successful harvest!</b></span><br>Your pay has increased by $0.02. Your bonus pay is now $0.50.</p>\n            ","response":0,"trial_type":"html-button-response","trial_index":42,"time_elapsed":724795,"internal_node_id":"0.0-4.0-1.17","subject_id":"5eceef5fa487421604c337ba","study_id":"6197b3f67c2b5cd3b6d9596a","session_id":"6197d817b692674c47022b72","condition":"full-information","relevant_dimensions":["wings","legs"],"bee_group":{"antennae":"X","wings":"1","pattern":"X","legs":"M"},"bonus":1.660000000000001},{"rt":12645.600000023842,"stimulus":"bees-with-color/bee-B2SM.svg","response":0,"trial_type":"image-button-response","trial_index":43,"time_elapsed":737443,"internal_node_id":"0.0-4.0-0.18","subject_id":"5eceef5fa487421604c337ba","study_id":"6197b3f67c2b5cd3b6d9596a","session_id":"6197d817b692674c47022b72","condition":"full-information","relevant_dimensions":["wings","legs"],"bee_group":{"antennae":"X","wings":"1","pattern":"X","legs":"M"},"action":"harvest","summary":"good-harvest","bonus":1.660000000000001},{"rt":8747.300000071526,"stimulus":"\n                    <p><b>Action: <em>harvest</em></b></p>\n                    <p>This is the bee that you just saw.</p>\n                    <img src=\"bees-with-color/bee-B2SM.svg\" width=\"200\">\n                    <p><span class=\"greenText\"><b>Successful harvest!</b></span><br>Your pay has increased by $0.02. Your bonus pay is now $0.52.</p>\n            ","response":0,"trial_type":"html-button-response","trial_index":44,"time_elapsed":746191,"internal_node_id":"0.0-4.0-1.18","subject_id":"5eceef5fa487421604c337ba","study_id":"6197b3f67c2b5cd3b6d9596a","session_id":"6197d817b692674c47022b72","condition":"full-information","relevant_dimensions":["wings","legs"],"bee_group":{"antennae":"X","wings":"1","pattern":"X","legs":"M"},"bonus":1.660000000000001},{"rt":7081.700000047684,"stimulus":"bees-with-color/bee-A1SM.svg","response":1,"trial_type":"image-button-response","trial_index":45,"time_elapsed":753274,"internal_node_id":"0.0-4.0-0.19","subject_id":"5eceef5fa487421604c337ba","study_id":"6197b3f67c2b5cd3b6d9596a","session_id":"6197d817b692674c47022b72","condition":"full-information","relevant_dimensions":["wings","legs"],"bee_group":{"antennae":"X","wings":"1","pattern":"X","legs":"M"},"action":"avoid","summary":"good-avoid","bonus":1.660000000000001},{"rt":1549.5,"stimulus":"\n                    <p><b>Action: <em>avoid</em></b></p>\n                    <p>This is the bee that you just saw.</p>\n                    <img src=\"bees-with-color/bee-A1SM.svg\" width=\"200\">\n                    <p><span class=\"greenText\">Good choice!</span>  This bee would have stung you.<br>Your bonus pay is unchanged, and remains at $0.52.</p>\n            ","response":0,"trial_type":"html-button-response","trial_index":46,"time_elapsed":754825,"internal_node_id":"0.0-4.0-1.19","subject_id":"5eceef5fa487421604c337ba","study_id":"6197b3f67c2b5cd3b6d9596a","session_id":"6197d817b692674c47022b72","condition":"full-information","relevant_dimensions":["wings","legs"],"bee_group":{"antennae":"X","wings":"1","pattern":"X","legs":"M"},"bonus":1.660000000000001},{"rt":8521.700000047684,"stimulus":"bees-with-color/bee-A1DF.svg","response":0,"trial_type":"image-button-response","trial_index":47,"time_elapsed":763349,"internal_node_id":"0.0-4.0-0.20","subject_id":"5eceef5fa487421604c337ba","study_id":"6197b3f67c2b5cd3b6d9596a","session_id":"6197d817b692674c47022b72","condition":"full-information","relevant_dimensions":["wings","legs"],"bee_group":{"antennae":"X","wings":"1","pattern":"X","legs":"M"},"action":"harvest","summary":"good-harvest","bonus":1.660000000000001},{"rt":1074.2000000476837,"stimulus":"\n                    <p><b>Action: <em>harvest</em></b></p>\n                    <p>This is the bee that you just saw.</p>\n                    <img src=\"bees-with-color/bee-A1DF.svg\" width=\"200\">\n                    <p><span class=\"greenText\"><b>Successful harvest!</b></span><br>Your pay has increased by $0.02. Your bonus pay is now $0.54.</p>\n            ","response":0,"trial_type":"html-button-response","trial_index":48,"time_elapsed":764424,"internal_node_id":"0.0-4.0-1.20","subject_id":"5eceef5fa487421604c337ba","study_id":"6197b3f67c2b5cd3b6d9596a","session_id":"6197d817b692674c47022b72","condition":"full-information","relevant_dimensions":["wings","legs"],"bee_group":{"antennae":"X","wings":"1","pattern":"X","legs":"M"},"bonus":1.660000000000001},{"rt":5501.800000071526,"stimulus":"bees-with-color/bee-B2SF.svg","response":0,"trial_type":"image-button-response","trial_index":49,"time_elapsed":769928,"internal_node_id":"0.0-4.0-0.21","subject_id":"5eceef5fa487421604c337ba","study_id":"6197b3f67c2b5cd3b6d9596a","session_id":"6197d817b692674c47022b72","condition":"full-information","relevant_dimensions":["wings","legs"],"bee_group":{"antennae":"X","wings":"1","pattern":"X","legs":"M"},"action":"harvest","summary":"good-harvest","bonus":1.660000000000001},{"rt":1061,"stimulus":"\n                    <p><b>Action: <em>harvest</em></b></p>\n                    <p>This is the bee that you just saw.</p>\n                    <img src=\"bees-with-color/bee-B2SF.svg\" width=\"200\">\n                    <p><span class=\"greenText\"><b>Successful harvest!</b></span><br>Your pay has increased by $0.02. Your bonus pay is now $0.56.</p>\n            ","response":0,"trial_type":"html-button-response","trial_index":50,"time_elapsed":770990,"internal_node_id":"0.0-4.0-1.21","subject_id":"5eceef5fa487421604c337ba","study_id":"6197b3f67c2b5cd3b6d9596a","session_id":"6197d817b692674c47022b72","condition":"full-information","relevant_dimensions":["wings","legs"],"bee_group":{"antennae":"X","wings":"1","pattern":"X","legs":"M"},"bonus":1.660000000000001},{"rt":16312.700000047684,"stimulus":"bees-with-color/bee-B1SM.svg","response":1,"trial_type":"image-button-response","trial_index":51,"time_elapsed":787304,"internal_node_id":"0.0-4.0-0.22","subject_id":"5eceef5fa487421604c337ba","study_id":"6197b3f67c2b5cd3b6d9596a","session_id":"6197d817b692674c47022b72","condition":"full-information","relevant_dimensions":["wings","legs"],"bee_group":{"antennae":"X","wings":"1","pattern":"X","legs":"M"},"action":"avoid","summary":"good-avoid","bonus":1.660000000000001},{"rt":1160.3999999761581,"stimulus":"\n                    <p><b>Action: <em>avoid</em></b></p>\n                    <p>This is the bee that you just saw.</p>\n                    <img src=\"bees-with-color/bee-B1SM.svg\" width=\"200\">\n                    <p><span class=\"greenText\">Good choice!</span>  This bee would have stung you.<br>Your bonus pay is unchanged, and remains at $0.56.</p>\n            ","response":0,"trial_type":"html-button-response","trial_index":52,"time_elapsed":788466,"internal_node_id":"0.0-4.0-1.22","subject_id":"5eceef5fa487421604c337ba","study_id":"6197b3f67c2b5cd3b6d9596a","session_id":"6197d817b692674c47022b72","condition":"full-information","relevant_dimensions":["wings","legs"],"bee_group":{"antennae":"X","wings":"1","pattern":"X","legs":"M"},"bonus":1.660000000000001},{"rt":12352.899999976158,"stimulus":"bees-with-color/bee-A1SF.svg","response":0,"trial_type":"image-button-response","trial_index":53,"time_elapsed":800820,"internal_node_id":"0.0-4.0-0.23","subject_id":"5eceef5fa487421604c337ba","study_id":"6197b3f67c2b5cd3b6d9596a","session_id":"6197d817b692674c47022b72","condition":"full-information","relevant_dimensions":["wings","legs"],"bee_group":{"antennae":"X","wings":"1","pattern":"X","legs":"M"},"action":"harvest","summary":"good-harvest","bonus":1.660000000000001},{"rt":3415.399999976158,"stimulus":"\n                    <p><b>Action: <em>harvest</em></b></p>\n                    <p>This is the bee that you just saw.</p>\n                    <img src=\"bees-with-color/bee-A1SF.svg\" width=\"200\">\n                    <p><span class=\"greenText\"><b>Successful harvest!</b></span><br>Your pay has increased by $0.02. Your bonus pay is now $0.58.</p>\n            ","response":0,"trial_type":"html-button-response","trial_index":54,"time_elapsed":804237,"internal_node_id":"0.0-4.0-1.23","subject_id":"5eceef5fa487421604c337ba","study_id":"6197b3f67c2b5cd3b6d9596a","session_id":"6197d817b692674c47022b72","condition":"full-information","relevant_dimensions":["wings","legs"],"bee_group":{"antennae":"X","wings":"1","pattern":"X","legs":"M"},"bonus":1.660000000000001},{"rt":8647,"stimulus":"bees-with-color/bee-B1DM.svg","response":1,"trial_type":"image-button-response","trial_index":55,"time_elapsed":812886,"internal_node_id":"0.0-4.0-0.24","subject_id":"5eceef5fa487421604c337ba","study_id":"6197b3f67c2b5cd3b6d9596a","session_id":"6197d817b692674c47022b72","condition":"full-information","relevant_dimensions":["wings","legs"],"bee_group":{"antennae":"X","wings":"1","pattern":"X","legs":"M"},"action":"avoid","summary":"good-avoid","bonus":1.660000000000001},{"rt":1015.3999999761581,"stimulus":"\n                    <p><b>Action: <em>avoid</em></b></p>\n                    <p>This is the bee that you just saw.</p>\n                    <img src=\"bees-with-color/bee-B1DM.svg\" width=\"200\">\n                    <p><span class=\"greenText\">Good choice!</span>  This bee would have stung you.<br>Your bonus pay is unchanged, and remains at $0.58.</p>\n            ","response":0,"trial_type":"html-button-response","trial_index":56,"time_elapsed":813903,"internal_node_id":"0.0-4.0-1.24","subject_id":"5eceef5fa487421604c337ba","study_id":"6197b3f67c2b5cd3b6d9596a","session_id":"6197d817b692674c47022b72","condition":"full-information","relevant_dimensions":["wings","legs"],"bee_group":{"antennae":"X","wings":"1","pattern":"X","legs":"M"},"bonus":1.660000000000001},{"rt":10930.699999928474,"stimulus":"bees-with-color/bee-B2DM.svg","response":0,"trial_type":"image-button-response","trial_index":57,"time_elapsed":824835,"internal_node_id":"0.0-4.0-0.25","subject_id":"5eceef5fa487421604c337ba","study_id":"6197b3f67c2b5cd3b6d9596a","session_id":"6197d817b692674c47022b72","condition":"full-information","relevant_dimensions":["wings","legs"],"bee_group":{"antennae":"X","wings":"1","pattern":"X","legs":"M"},"action":"harvest","summary":"good-harvest","bonus":1.660000000000001},{"rt":1063.5,"stimulus":"\n                    <p><b>Action: <em>harvest</em></b></p>\n                    <p>This is the bee that you just saw.</p>\n                    <img src=\"bees-with-color/bee-B2DM.svg\" width=\"200\">\n                    <p><span class=\"greenText\"><b>Successful harvest!</b></span><br>Your pay has increased by $0.02. Your bonus pay is now $0.60.</p>\n            ","response":0,"trial_type":"html-button-response","trial_index":58,"time_elapsed":825900,"internal_node_id":"0.0-4.0-1.25","subject_id":"5eceef5fa487421604c337ba","study_id":"6197b3f67c2b5cd3b6d9596a","session_id":"6197d817b692674c47022b72","condition":"full-information","relevant_dimensions":["wings","legs"],"bee_group":{"antennae":"X","wings":"1","pattern":"X","legs":"M"},"bonus":1.660000000000001},{"rt":7747.300000071526,"stimulus":"bees-with-color/bee-A2SF.svg","response":0,"trial_type":"image-button-response","trial_index":59,"time_elapsed":833649,"internal_node_id":"0.0-4.0-0.26","subject_id":"5eceef5fa487421604c337ba","study_id":"6197b3f67c2b5cd3b6d9596a","session_id":"6197d817b692674c47022b72","condition":"full-information","relevant_dimensions":["wings","legs"],"bee_group":{"antennae":"X","wings":"1","pattern":"X","legs":"M"},"action":"harvest","summary":"good-harvest","bonus":1.660000000000001},{"rt":1199.6000000238419,"stimulus":"\n                    <p><b>Action: <em>harvest</em></b></p>\n                    <p>This is the bee that you just saw.</p>\n                    <img src=\"bees-with-color/bee-A2SF.svg\" width=\"200\">\n                    <p><span class=\"greenText\"><b>Successful harvest!</b></span><br>Your pay has increased by $0.02. Your bonus pay is now $0.62.</p>\n            ","response":0,"trial_type":"html-button-response","trial_index":60,"time_elapsed":834850,"internal_node_id":"0.0-4.0-1.26","subject_id":"5eceef5fa487421604c337ba","study_id":"6197b3f67c2b5cd3b6d9596a","session_id":"6197d817b692674c47022b72","condition":"full-information","relevant_dimensions":["wings","legs"],"bee_group":{"antennae":"X","wings":"1","pattern":"X","legs":"M"},"bonus":1.660000000000001},{"rt":11829.699999928474,"stimulus":"bees-with-color/bee-A2DM.svg","response":0,"trial_type":"image-button-response","trial_index":61,"time_elapsed":846682,"internal_node_id":"0.0-4.0-0.27","subject_id":"5eceef5fa487421604c337ba","study_id":"6197b3f67c2b5cd3b6d9596a","session_id":"6197d817b692674c47022b72","condition":"full-information","relevant_dimensions":["wings","legs"],"bee_group":{"antennae":"X","wings":"1","pattern":"X","legs":"M"},"action":"harvest","summary":"good-harvest","bonus":1.660000000000001},{"rt":5565.899999976158,"stimulus":"\n                    <p><b>Action: <em>harvest</em></b></p>\n                    <p>This is the bee that you just saw.</p>\n                    <img src=\"bees-with-color/bee-A2DM.svg\" width=\"200\">\n                    <p><span class=\"greenText\"><b>Successful harvest!</b></span><br>Your pay has increased by $0.02. Your bonus pay is now $0.64.</p>\n            ","response":0,"trial_type":"html-button-response","trial_index":62,"time_elapsed":852249,"internal_node_id":"0.0-4.0-1.27","subject_id":"5eceef5fa487421604c337ba","study_id":"6197b3f67c2b5cd3b6d9596a","session_id":"6197d817b692674c47022b72","condition":"full-information","relevant_dimensions":["wings","legs"],"bee_group":{"antennae":"X","wings":"1","pattern":"X","legs":"M"},"bonus":1.660000000000001},{"rt":9313.699999928474,"stimulus":"bees-with-color/bee-B1SF.svg","response":0,"trial_type":"image-button-response","trial_index":63,"time_elapsed":861564,"internal_node_id":"0.0-4.0-0.28","subject_id":"5eceef5fa487421604c337ba","study_id":"6197b3f67c2b5cd3b6d9596a","session_id":"6197d817b692674c47022b72","condition":"full-information","relevant_dimensions":["wings","legs"],"bee_group":{"antennae":"X","wings":"1","pattern":"X","legs":"M"},"action":"harvest","summary":"good-harvest","bonus":1.660000000000001},{"rt":980,"stimulus":"\n                    <p><b>Action: <em>harvest</em></b></p>\n                    <p>This is the bee that you just saw.</p>\n                    <img src=\"bees-with-color/bee-B1SF.svg\" width=\"200\">\n                    <p><span class=\"greenText\"><b>Successful harvest!</b></span><br>Your pay has increased by $0.02. Your bonus pay is now $0.66.</p>\n            ","response":0,"trial_type":"html-button-response","trial_index":64,"time_elapsed":862546,"internal_node_id":"0.0-4.0-1.28","subject_id":"5eceef5fa487421604c337ba","study_id":"6197b3f67c2b5cd3b6d9596a","session_id":"6197d817b692674c47022b72","condition":"full-information","relevant_dimensions":["wings","legs"],"bee_group":{"antennae":"X","wings":"1","pattern":"X","legs":"M"},"bonus":1.660000000000001},{"rt":9381.600000023842,"stimulus":"bees-with-color/bee-A1DM.svg","response":1,"trial_type":"image-button-response","trial_index":65,"time_elapsed":871929,"internal_node_id":"0.0-4.0-0.29","subject_id":"5eceef5fa487421604c337ba","study_id":"6197b3f67c2b5cd3b6d9596a","session_id":"6197d817b692674c47022b72","condition":"full-information","relevant_dimensions":["wings","legs"],"bee_group":{"antennae":"X","wings":"1","pattern":"X","legs":"M"},"action":"avoid","summary":"good-avoid","bonus":1.660000000000001},{"rt":1497.6000000238419,"stimulus":"\n                    <p><b>Action: <em>avoid</em></b></p>\n                    <p>This is the bee that you just saw.</p>\n                    <img src=\"bees-with-color/bee-A1DM.svg\" width=\"200\">\n                    <p><span class=\"greenText\">Good choice!</span>  This bee would have stung you.<br>Your bonus pay is unchanged, and remains at $0.66.</p>\n            ","response":0,"trial_type":"html-button-response","trial_index":66,"time_elapsed":873428,"internal_node_id":"0.0-4.0-1.29","subject_id":"5eceef5fa487421604c337ba","study_id":"6197b3f67c2b5cd3b6d9596a","session_id":"6197d817b692674c47022b72","condition":"full-information","relevant_dimensions":["wings","legs"],"bee_group":{"antennae":"X","wings":"1","pattern":"X","legs":"M"},"bonus":1.660000000000001},{"rt":10682.199999928474,"stimulus":"bees-with-color/bee-A2SM.svg","response":0,"trial_type":"image-button-response","trial_index":67,"time_elapsed":884111,"internal_node_id":"0.0-4.0-0.30","subject_id":"5eceef5fa487421604c337ba","study_id":"6197b3f67c2b5cd3b6d9596a","session_id":"6197d817b692674c47022b72","condition":"full-information","relevant_dimensions":["wings","legs"],"bee_group":{"antennae":"X","wings":"1","pattern":"X","legs":"M"},"action":"harvest","summary":"good-harvest","bonus":1.660000000000001},{"rt":915,"stimulus":"\n                    <p><b>Action: <em>harvest</em></b></p>\n                    <p>This is the bee that you just saw.</p>\n                    <img src=\"bees-with-color/bee-A2SM.svg\" width=\"200\">\n                    <p><span class=\"greenText\"><b>Successful harvest!</b></span><br>Your pay has increased by $0.02. Your bonus pay is now $0.68.</p>\n            ","response":0,"trial_type":"html-button-response","trial_index":68,"time_elapsed":885028,"internal_node_id":"0.0-4.0-1.30","subject_id":"5eceef5fa487421604c337ba","study_id":"6197b3f67c2b5cd3b6d9596a","session_id":"6197d817b692674c47022b72","condition":"full-information","relevant_dimensions":["wings","legs"],"bee_group":{"antennae":"X","wings":"1","pattern":"X","legs":"M"},"bonus":1.660000000000001},{"rt":10713.899999976158,"stimulus":"bees-with-color/bee-A2DF.svg","response":0,"trial_type":"image-button-response","trial_index":69,"time_elapsed":895744,"internal_node_id":"0.0-4.0-0.31","subject_id":"5eceef5fa487421604c337ba","study_id":"6197b3f67c2b5cd3b6d9596a","session_id":"6197d817b692674c47022b72","condition":"full-information","relevant_dimensions":["wings","legs"],"bee_group":{"antennae":"X","wings":"1","pattern":"X","legs":"M"},"action":"harvest","summary":"good-harvest","bonus":1.660000000000001},{"rt":1580.2000000476837,"stimulus":"\n                    <p><b>Action: <em>harvest</em></b></p>\n                    <p>This is the bee that you just saw.</p>\n                    <img src=\"bees-with-color/bee-A2DF.svg\" width=\"200\">\n                    <p><span class=\"greenText\"><b>Successful harvest!</b></span><br>Your pay has increased by $0.02. Your bonus pay is now $0.70.</p>\n            ","response":0,"trial_type":"html-button-response","trial_index":70,"time_elapsed":897325,"internal_node_id":"0.0-4.0-1.31","subject_id":"5eceef5fa487421604c337ba","study_id":"6197b3f67c2b5cd3b6d9596a","session_id":"6197d817b692674c47022b72","condition":"full-information","relevant_dimensions":["wings","legs"],"bee_group":{"antennae":"X","wings":"1","pattern":"X","legs":"M"},"bonus":1.660000000000001},{"rt":8964.399999976158,"stimulus":"bees-with-color/bee-A1SF.svg","response":0,"trial_type":"image-button-response","trial_index":71,"time_elapsed":906291,"internal_node_id":"0.0-4.0-0.32","subject_id":"5eceef5fa487421604c337ba","study_id":"6197b3f67c2b5cd3b6d9596a","session_id":"6197d817b692674c47022b72","condition":"full-information","relevant_dimensions":["wings","legs"],"bee_group":{"antennae":"X","wings":"1","pattern":"X","legs":"M"},"action":"harvest","summary":"good-harvest","bonus":1.660000000000001},{"rt":889.2999999523163,"stimulus":"\n                    <p><b>Action: <em>harvest</em></b></p>\n                    <p>This is the bee that you just saw.</p>\n                    <img src=\"bees-with-color/bee-A1SF.svg\" width=\"200\">\n                    <p><span class=\"greenText\"><b>Successful harvest!</b></span><br>Your pay has increased by $0.02. Your bonus pay is now $0.72.</p>\n            ","response":0,"trial_type":"html-button-response","trial_index":72,"time_elapsed":907182,"internal_node_id":"0.0-4.0-1.32","subject_id":"5eceef5fa487421604c337ba","study_id":"6197b3f67c2b5cd3b6d9596a","session_id":"6197d817b692674c47022b72","condition":"full-information","relevant_dimensions":["wings","legs"],"bee_group":{"antennae":"X","wings":"1","pattern":"X","legs":"M"},"bonus":1.660000000000001},{"rt":6889.5,"stimulus":"bees-with-color/bee-A2SF.svg","response":0,"trial_type":"image-button-response","trial_index":73,"time_elapsed":914073,"internal_node_id":"0.0-4.0-0.33","subject_id":"5eceef5fa487421604c337ba","study_id":"6197b3f67c2b5cd3b6d9596a","session_id":"6197d817b692674c47022b72","condition":"full-information","relevant_dimensions":["wings","legs"],"bee_group":{"antennae":"X","wings":"1","pattern":"X","legs":"M"},"action":"harvest","summary":"good-harvest","bonus":1.660000000000001},{"rt":970.6999999284744,"stimulus":"\n                    <p><b>Action: <em>harvest</em></b></p>\n                    <p>This is the bee that you just saw.</p>\n                    <img src=\"bees-with-color/bee-A2SF.svg\" width=\"200\">\n                    <p><span class=\"greenText\"><b>Successful harvest!</b></span><br>Your pay has increased by $0.02. Your bonus pay is now $0.74.</p>\n            ","response":0,"trial_type":"html-button-response","trial_index":74,"time_elapsed":915045,"internal_node_id":"0.0-4.0-1.33","subject_id":"5eceef5fa487421604c337ba","study_id":"6197b3f67c2b5cd3b6d9596a","session_id":"6197d817b692674c47022b72","condition":"full-information","relevant_dimensions":["wings","legs"],"bee_group":{"antennae":"X","wings":"1","pattern":"X","legs":"M"},"bonus":1.660000000000001},{"rt":8587.200000047684,"stimulus":"bees-with-color/bee-A1DF.svg","response":0,"trial_type":"image-button-response","trial_index":75,"time_elapsed":923634,"internal_node_id":"0.0-4.0-0.34","subject_id":"5eceef5fa487421604c337ba","study_id":"6197b3f67c2b5cd3b6d9596a","session_id":"6197d817b692674c47022b72","condition":"full-information","relevant_dimensions":["wings","legs"],"bee_group":{"antennae":"X","wings":"1","pattern":"X","legs":"M"},"action":"harvest","summary":"good-harvest","bonus":1.660000000000001},{"rt":886.3000000715256,"stimulus":"\n                    <p><b>Action: <em>harvest</em></b></p>\n                    <p>This is the bee that you just saw.</p>\n                    <img src=\"bees-with-color/bee-A1DF.svg\" width=\"200\">\n                    <p><span class=\"greenText\"><b>Successful harvest!</b></span><br>Your pay has increased by $0.02. Your bonus pay is now $0.76.</p>\n            ","response":0,"trial_type":"html-button-response","trial_index":76,"time_elapsed":924522,"internal_node_id":"0.0-4.0-1.34","subject_id":"5eceef5fa487421604c337ba","study_id":"6197b3f67c2b5cd3b6d9596a","session_id":"6197d817b692674c47022b72","condition":"full-information","relevant_dimensions":["wings","legs"],"bee_group":{"antennae":"X","wings":"1","pattern":"X","legs":"M"},"bonus":1.660000000000001},{"rt":11802.200000047684,"stimulus":"bees-with-color/bee-B2DM.svg","response":0,"trial_type":"image-button-response","trial_index":77,"time_elapsed":936327,"internal_node_id":"0.0-4.0-0.35","subject_id":"5eceef5fa487421604c337ba","study_id":"6197b3f67c2b5cd3b6d9596a","session_id":"6197d817b692674c47022b72","condition":"full-information","relevant_dimensions":["wings","legs"],"bee_group":{"antennae":"X","wings":"1","pattern":"X","legs":"M"},"action":"harvest","summary":"good-harvest","bonus":1.660000000000001},{"rt":1194.5,"stimulus":"\n                    <p><b>Action: <em>harvest</em></b></p>\n                    <p>This is the bee that you just saw.</p>\n                    <img src=\"bees-with-color/bee-B2DM.svg\" width=\"200\">\n                    <p><span class=\"greenText\"><b>Successful harvest!</b></span><br>Your pay has increased by $0.02. Your bonus pay is now $0.78.</p>\n            ","response":0,"trial_type":"html-button-response","trial_index":78,"time_elapsed":937523,"internal_node_id":"0.0-4.0-1.35","subject_id":"5eceef5fa487421604c337ba","study_id":"6197b3f67c2b5cd3b6d9596a","session_id":"6197d817b692674c47022b72","condition":"full-information","relevant_dimensions":["wings","legs"],"bee_group":{"antennae":"X","wings":"1","pattern":"X","legs":"M"},"bonus":1.660000000000001},{"rt":9746.899999976158,"stimulus":"bees-with-color/bee-B1DM.svg","response":1,"trial_type":"image-button-response","trial_index":79,"time_elapsed":947271,"internal_node_id":"0.0-4.0-0.36","subject_id":"5eceef5fa487421604c337ba","study_id":"6197b3f67c2b5cd3b6d9596a","session_id":"6197d817b692674c47022b72","condition":"full-information","relevant_dimensions":["wings","legs"],"bee_group":{"antennae":"X","wings":"1","pattern":"X","legs":"M"},"action":"avoid","summary":"good-avoid","bonus":1.660000000000001},{"rt":987.8999999761581,"stimulus":"\n                    <p><b>Action: <em>avoid</em></b></p>\n                    <p>This is the bee that you just saw.</p>\n                    <img src=\"bees-with-color/bee-B1DM.svg\" width=\"200\">\n                    <p><span class=\"greenText\">Good choice!</span>  This bee would have stung you.<br>Your bonus pay is unchanged, and remains at $0.78.</p>\n            ","response":0,"trial_type":"html-button-response","trial_index":80,"time_elapsed":948261,"internal_node_id":"0.0-4.0-1.36","subject_id":"5eceef5fa487421604c337ba","study_id":"6197b3f67c2b5cd3b6d9596a","session_id":"6197d817b692674c47022b72","condition":"full-information","relevant_dimensions":["wings","legs"],"bee_group":{"antennae":"X","wings":"1","pattern":"X","legs":"M"},"bonus":1.660000000000001},{"rt":6190.800000071526,"stimulus":"bees-with-color/bee-A2DF.svg","response":0,"trial_type":"image-button-response","trial_index":81,"time_elapsed":954453,"internal_node_id":"0.0-4.0-0.37","subject_id":"5eceef5fa487421604c337ba","study_id":"6197b3f67c2b5cd3b6d9596a","session_id":"6197d817b692674c47022b72","condition":"full-information","relevant_dimensions":["wings","legs"],"bee_group":{"antennae":"X","wings":"1","pattern":"X","legs":"M"},"action":"harvest","summary":"good-harvest","bonus":1.660000000000001},{"rt":913.3999999761581,"stimulus":"\n                    <p><b>Action: <em>harvest</em></b></p>\n                    <p>This is the bee that you just saw.</p>\n                    <img src=\"bees-with-color/bee-A2DF.svg\" width=\"200\">\n                    <p><span class=\"greenText\"><b>Successful harvest!</b></span><br>Your pay has increased by $0.02. Your bonus pay is now $0.80.</p>\n            ","response":0,"trial_type":"html-button-response","trial_index":82,"time_elapsed":955368,"internal_node_id":"0.0-4.0-1.37","subject_id":"5eceef5fa487421604c337ba","study_id":"6197b3f67c2b5cd3b6d9596a","session_id":"6197d817b692674c47022b72","condition":"full-information","relevant_dimensions":["wings","legs"],"bee_group":{"antennae":"X","wings":"1","pattern":"X","legs":"M"},"bonus":1.660000000000001},{"rt":5215.700000047684,"stimulus":"bees-with-color/bee-A1SM.svg","response":1,"trial_type":"image-button-response","trial_index":83,"time_elapsed":960585,"internal_node_id":"0.0-4.0-0.38","subject_id":"5eceef5fa487421604c337ba","study_id":"6197b3f67c2b5cd3b6d9596a","session_id":"6197d817b692674c47022b72","condition":"full-information","relevant_dimensions":["wings","legs"],"bee_group":{"antennae":"X","wings":"1","pattern":"X","legs":"M"},"action":"avoid","summary":"good-avoid","bonus":1.660000000000001},{"rt":981.1000000238419,"stimulus":"\n                    <p><b>Action: <em>avoid</em></b></p>\n                    <p>This is the bee that you just saw.</p>\n                    <img src=\"bees-with-color/bee-A1SM.svg\" width=\"200\">\n                    <p><span class=\"greenText\">Good choice!</span>  This bee would have stung you.<br>Your bonus pay is unchanged, and remains at $0.80.</p>\n            ","response":0,"trial_type":"html-button-response","trial_index":84,"time_elapsed":961567,"internal_node_id":"0.0-4.0-1.38","subject_id":"5eceef5fa487421604c337ba","study_id":"6197b3f67c2b5cd3b6d9596a","session_id":"6197d817b692674c47022b72","condition":"full-information","relevant_dimensions":["wings","legs"],"bee_group":{"antennae":"X","wings":"1","pattern":"X","legs":"M"},"bonus":1.660000000000001},{"rt":8148,"stimulus":"bees-with-color/bee-B2SM.svg","response":0,"trial_type":"image-button-response","trial_index":85,"time_elapsed":969717,"internal_node_id":"0.0-4.0-0.39","subject_id":"5eceef5fa487421604c337ba","study_id":"6197b3f67c2b5cd3b6d9596a","session_id":"6197d817b692674c47022b72","condition":"full-information","relevant_dimensions":["wings","legs"],"bee_group":{"antennae":"X","wings":"1","pattern":"X","legs":"M"},"action":"harvest","summary":"good-harvest","bonus":1.660000000000001},{"rt":1019.3999999761581,"stimulus":"\n                    <p><b>Action: <em>harvest</em></b></p>\n                    <p>This is the bee that you just saw.</p>\n                    <img src=\"bees-with-color/bee-B2SM.svg\" width=\"200\">\n                    <p><span class=\"greenText\"><b>Successful harvest!</b></span><br>Your pay has increased by $0.02. Your bonus pay is now $0.82.</p>\n            ","response":0,"trial_type":"html-button-response","trial_index":86,"time_elapsed":970738,"internal_node_id":"0.0-4.0-1.39","subject_id":"5eceef5fa487421604c337ba","study_id":"6197b3f67c2b5cd3b6d9596a","session_id":"6197d817b692674c47022b72","condition":"full-information","relevant_dimensions":["wings","legs"],"bee_group":{"antennae":"X","wings":"1","pattern":"X","legs":"M"},"bonus":1.660000000000001},{"rt":10377.299999952316,"stimulus":"bees-with-color/bee-A2DM.svg","response":0,"trial_type":"image-button-response","trial_index":87,"time_elapsed":981117,"internal_node_id":"0.0-4.0-0.40","subject_id":"5eceef5fa487421604c337ba","study_id":"6197b3f67c2b5cd3b6d9596a","session_id":"6197d817b692674c47022b72","condition":"full-information","relevant_dimensions":["wings","legs"],"bee_group":{"antennae":"X","wings":"1","pattern":"X","legs":"M"},"action":"harvest","summary":"good-harvest","bonus":1.660000000000001},{"rt":865.6999999284744,"stimulus":"\n                    <p><b>Action: <em>harvest</em></b></p>\n                    <p>This is the bee that you just saw.</p>\n                    <img src=\"bees-with-color/bee-A2DM.svg\" width=\"200\">\n                    <p><span class=\"greenText\"><b>Successful harvest!</b></span><br>Your pay has increased by $0.02. Your bonus pay is now $0.84.</p>\n            ","response":0,"trial_type":"html-button-response","trial_index":88,"time_elapsed":981984,"internal_node_id":"0.0-4.0-1.40","subject_id":"5eceef5fa487421604c337ba","study_id":"6197b3f67c2b5cd3b6d9596a","session_id":"6197d817b692674c47022b72","condition":"full-information","relevant_dimensions":["wings","legs"],"bee_group":{"antennae":"X","wings":"1","pattern":"X","legs":"M"},"bonus":1.660000000000001},{"rt":5664.299999952316,"stimulus":"bees-with-color/bee-B1DF.svg","response":0,"trial_type":"image-button-response","trial_index":89,"time_elapsed":987650,"internal_node_id":"0.0-4.0-0.41","subject_id":"5eceef5fa487421604c337ba","study_id":"6197b3f67c2b5cd3b6d9596a","session_id":"6197d817b692674c47022b72","condition":"full-information","relevant_dimensions":["wings","legs"],"bee_group":{"antennae":"X","wings":"1","pattern":"X","legs":"M"},"action":"harvest","summary":"good-harvest","bonus":1.660000000000001},{"rt":2373.899999976158,"stimulus":"\n                    <p><b>Action: <em>harvest</em></b></p>\n                    <p>This is the bee that you just saw.</p>\n                    <img src=\"bees-with-color/bee-B1DF.svg\" width=\"200\">\n                    <p><span class=\"greenText\"><b>Successful harvest!</b></span><br>Your pay has increased by $0.02. Your bonus pay is now $0.86.</p>\n            ","response":0,"trial_type":"html-button-response","trial_index":90,"time_elapsed":990025,"internal_node_id":"0.0-4.0-1.41","subject_id":"5eceef5fa487421604c337ba","study_id":"6197b3f67c2b5cd3b6d9596a","session_id":"6197d817b692674c47022b72","condition":"full-information","relevant_dimensions":["wings","legs"],"bee_group":{"antennae":"X","wings":"1","pattern":"X","legs":"M"},"bonus":1.660000000000001},{"rt":12188.300000071526,"stimulus":"bees-with-color/bee-A2SM.svg","response":0,"trial_type":"image-button-response","trial_index":91,"time_elapsed":1002215,"internal_node_id":"0.0-4.0-0.42","subject_id":"5eceef5fa487421604c337ba","study_id":"6197b3f67c2b5cd3b6d9596a","session_id":"6197d817b692674c47022b72","condition":"full-information","relevant_dimensions":["wings","legs"],"bee_group":{"antennae":"X","wings":"1","pattern":"X","legs":"M"},"action":"harvest","summary":"good-harvest","bonus":1.660000000000001},{"rt":1047.2999999523163,"stimulus":"\n                    <p><b>Action: <em>harvest</em></b></p>\n                    <p>This is the bee that you just saw.</p>\n                    <img src=\"bees-with-color/bee-A2SM.svg\" width=\"200\">\n                    <p><span class=\"greenText\"><b>Successful harvest!</b></span><br>Your pay has increased by $0.02. Your bonus pay is now $0.88.</p>\n            ","response":0,"trial_type":"html-button-response","trial_index":92,"time_elapsed":1003264,"internal_node_id":"0.0-4.0-1.42","subject_id":"5eceef5fa487421604c337ba","study_id":"6197b3f67c2b5cd3b6d9596a","session_id":"6197d817b692674c47022b72","condition":"full-information","relevant_dimensions":["wings","legs"],"bee_group":{"antennae":"X","wings":"1","pattern":"X","legs":"M"},"bonus":1.660000000000001},{"rt":8768.199999928474,"stimulus":"bees-with-color/bee-B1SM.svg","response":1,"trial_type":"image-button-response","trial_index":93,"time_elapsed":1012034,"internal_node_id":"0.0-4.0-0.43","subject_id":"5eceef5fa487421604c337ba","study_id":"6197b3f67c2b5cd3b6d9596a","session_id":"6197d817b692674c47022b72","condition":"full-information","relevant_dimensions":["wings","legs"],"bee_group":{"antennae":"X","wings":"1","pattern":"X","legs":"M"},"action":"avoid","summary":"good-avoid","bonus":1.660000000000001},{"rt":759.6999999284744,"stimulus":"\n                    <p><b>Action: <em>avoid</em></b></p>\n                    <p>This is the bee that you just saw.</p>\n                    <img src=\"bees-with-color/bee-B1SM.svg\" width=\"200\">\n                    <p><span class=\"greenText\">Good choice!</span>  This bee would have stung you.<br>Your bonus pay is unchanged, and remains at $0.88.</p>\n            ","response":0,"trial_type":"html-button-response","trial_index":94,"time_elapsed":1012795,"internal_node_id":"0.0-4.0-1.43","subject_id":"5eceef5fa487421604c337ba","study_id":"6197b3f67c2b5cd3b6d9596a","session_id":"6197d817b692674c47022b72","condition":"full-information","relevant_dimensions":["wings","legs"],"bee_group":{"antennae":"X","wings":"1","pattern":"X","legs":"M"},"bonus":1.660000000000001},{"rt":9338.100000023842,"stimulus":"bees-with-color/bee-A1DM.svg","response":1,"trial_type":"image-button-response","trial_index":95,"time_elapsed":1022135,"internal_node_id":"0.0-4.0-0.44","subject_id":"5eceef5fa487421604c337ba","study_id":"6197b3f67c2b5cd3b6d9596a","session_id":"6197d817b692674c47022b72","condition":"full-information","relevant_dimensions":["wings","legs"],"bee_group":{"antennae":"X","wings":"1","pattern":"X","legs":"M"},"action":"avoid","summary":"good-avoid","bonus":1.660000000000001},{"rt":622.1000000238419,"stimulus":"\n                    <p><b>Action: <em>avoid</em></b></p>\n                    <p>This is the bee that you just saw.</p>\n                    <img src=\"bees-with-color/bee-A1DM.svg\" width=\"200\">\n                    <p><span class=\"greenText\">Good choice!</span>  This bee would have stung you.<br>Your bonus pay is unchanged, and remains at $0.88.</p>\n            ","response":0,"trial_type":"html-button-response","trial_index":96,"time_elapsed":1022758,"internal_node_id":"0.0-4.0-1.44","subject_id":"5eceef5fa487421604c337ba","study_id":"6197b3f67c2b5cd3b6d9596a","session_id":"6197d817b692674c47022b72","condition":"full-information","relevant_dimensions":["wings","legs"],"bee_group":{"antennae":"X","wings":"1","pattern":"X","legs":"M"},"bonus":1.660000000000001},{"rt":5114,"stimulus":"bees-with-color/bee-B2SF.svg","response":0,"trial_type":"image-button-response","trial_index":97,"time_elapsed":1027874,"internal_node_id":"0.0-4.0-0.45","subject_id":"5eceef5fa487421604c337ba","study_id":"6197b3f67c2b5cd3b6d9596a","session_id":"6197d817b692674c47022b72","condition":"full-information","relevant_dimensions":["wings","legs"],"bee_group":{"antennae":"X","wings":"1","pattern":"X","legs":"M"},"action":"harvest","summary":"good-harvest","bonus":1.660000000000001},{"rt":659,"stimulus":"\n                    <p><b>Action: <em>harvest</em></b></p>\n                    <p>This is the bee that you just saw.</p>\n                    <img src=\"bees-with-color/bee-B2SF.svg\" width=\"200\">\n                    <p><span class=\"greenText\"><b>Successful harvest!</b></span><br>Your pay has increased by $0.02. Your bonus pay is now $0.90.</p>\n            ","response":0,"trial_type":"html-button-response","trial_index":98,"time_elapsed":1028534,"internal_node_id":"0.0-4.0-1.45","subject_id":"5eceef5fa487421604c337ba","study_id":"6197b3f67c2b5cd3b6d9596a","session_id":"6197d817b692674c47022b72","condition":"full-information","relevant_dimensions":["wings","legs"],"bee_group":{"antennae":"X","wings":"1","pattern":"X","legs":"M"},"bonus":1.660000000000001},{"rt":6692.100000023842,"stimulus":"bees-with-color/bee-B1SF.svg","response":0,"trial_type":"image-button-response","trial_index":99,"time_elapsed":1035228,"internal_node_id":"0.0-4.0-0.46","subject_id":"5eceef5fa487421604c337ba","study_id":"6197b3f67c2b5cd3b6d9596a","session_id":"6197d817b692674c47022b72","condition":"full-information","relevant_dimensions":["wings","legs"],"bee_group":{"antennae":"X","wings":"1","pattern":"X","legs":"M"},"action":"harvest","summary":"good-harvest","bonus":1.660000000000001},{"rt":563.8000000715256,"stimulus":"\n                    <p><b>Action: <em>harvest</em></b></p>\n                    <p>This is the bee that you just saw.</p>\n                    <img src=\"bees-with-color/bee-B1SF.svg\" width=\"200\">\n                    <p><span class=\"greenText\"><b>Successful harvest!</b></span><br>Your pay has increased by $0.02. Your bonus pay is now $0.92.</p>\n            ","response":0,"trial_type":"html-button-response","trial_index":100,"time_elapsed":1035793,"internal_node_id":"0.0-4.0-1.46","subject_id":"5eceef5fa487421604c337ba","study_id":"6197b3f67c2b5cd3b6d9596a","session_id":"6197d817b692674c47022b72","condition":"full-information","relevant_dimensions":["wings","legs"],"bee_group":{"antennae":"X","wings":"1","pattern":"X","legs":"M"},"bonus":1.660000000000001},{"rt":8008,"stimulus":"bees-with-color/bee-B2DF.svg","response":0,"trial_type":"image-button-response","trial_index":101,"time_elapsed":1043803,"internal_node_id":"0.0-4.0-0.47","subject_id":"5eceef5fa487421604c337ba","study_id":"6197b3f67c2b5cd3b6d9596a","session_id":"6197d817b692674c47022b72","condition":"full-information","relevant_dimensions":["wings","legs"],"bee_group":{"antennae":"X","wings":"1","pattern":"X","legs":"M"},"action":"harvest","summary":"good-harvest","bonus":1.660000000000001},{"rt":612.6000000238419,"stimulus":"\n                    <p><b>Action: <em>harvest</em></b></p>\n                    <p>This is the bee that you just saw.</p>\n                    <img src=\"bees-with-color/bee-B2DF.svg\" width=\"200\">\n                    <p><span class=\"greenText\"><b>Successful harvest!</b></span><br>Your pay has increased by $0.02. Your bonus pay is now $0.94.</p>\n            ","response":0,"trial_type":"html-button-response","trial_index":102,"time_elapsed":1044417,"internal_node_id":"0.0-4.0-1.47","subject_id":"5eceef5fa487421604c337ba","study_id":"6197b3f67c2b5cd3b6d9596a","session_id":"6197d817b692674c47022b72","condition":"full-information","relevant_dimensions":["wings","legs"],"bee_group":{"antennae":"X","wings":"1","pattern":"X","legs":"M"},"bonus":1.660000000000001},{"rt":5372.200000047684,"stimulus":"bees-with-color/bee-B2SF.svg","response":0,"trial_type":"image-button-response","trial_index":103,"time_elapsed":1049791,"internal_node_id":"0.0-4.0-0.48","subject_id":"5eceef5fa487421604c337ba","study_id":"6197b3f67c2b5cd3b6d9596a","session_id":"6197d817b692674c47022b72","condition":"full-information","relevant_dimensions":["wings","legs"],"bee_group":{"antennae":"X","wings":"1","pattern":"X","legs":"M"},"action":"harvest","summary":"good-harvest","bonus":1.660000000000001},{"rt":642.8000000715256,"stimulus":"\n                    <p><b>Action: <em>harvest</em></b></p>\n                    <p>This is the bee that you just saw.</p>\n                    <img src=\"bees-with-color/bee-B2SF.svg\" width=\"200\">\n                    <p><span class=\"greenText\"><b>Successful harvest!</b></span><br>Your pay has increased by $0.02. Your bonus pay is now $0.96.</p>\n            ","response":0,"trial_type":"html-button-response","trial_index":104,"time_elapsed":1050435,"internal_node_id":"0.0-4.0-1.48","subject_id":"5eceef5fa487421604c337ba","study_id":"6197b3f67c2b5cd3b6d9596a","session_id":"6197d817b692674c47022b72","condition":"full-information","relevant_dimensions":["wings","legs"],"bee_group":{"antennae":"X","wings":"1","pattern":"X","legs":"M"},"bonus":1.660000000000001},{"rt":5687.5,"stimulus":"bees-with-color/bee-A1SM.svg","response":1,"trial_type":"image-button-response","trial_index":105,"time_elapsed":1056124,"internal_node_id":"0.0-4.0-0.49","subject_id":"5eceef5fa487421604c337ba","study_id":"6197b3f67c2b5cd3b6d9596a","session_id":"6197d817b692674c47022b72","condition":"full-information","relevant_dimensions":["wings","legs"],"bee_group":{"antennae":"X","wings":"1","pattern":"X","legs":"M"},"action":"avoid","summary":"good-avoid","bonus":1.660000000000001},{"rt":658,"stimulus":"\n                    <p><b>Action: <em>avoid</em></b></p>\n                    <p>This is the bee that you just saw.</p>\n                    <img src=\"bees-with-color/bee-A1SM.svg\" width=\"200\">\n                    <p><span class=\"greenText\">Good choice!</span>  This bee would have stung you.<br>Your bonus pay is unchanged, and remains at $0.96.</p>\n            ","response":0,"trial_type":"html-button-response","trial_index":106,"time_elapsed":1056784,"internal_node_id":"0.0-4.0-1.49","subject_id":"5eceef5fa487421604c337ba","study_id":"6197b3f67c2b5cd3b6d9596a","session_id":"6197d817b692674c47022b72","condition":"full-information","relevant_dimensions":["wings","legs"],"bee_group":{"antennae":"X","wings":"1","pattern":"X","legs":"M"},"bonus":1.660000000000001},{"rt":9186.800000071526,"stimulus":"bees-with-color/bee-B1DM.svg","response":1,"trial_type":"image-button-response","trial_index":107,"time_elapsed":1065973,"internal_node_id":"0.0-4.0-0.50","subject_id":"5eceef5fa487421604c337ba","study_id":"6197b3f67c2b5cd3b6d9596a","session_id":"6197d817b692674c47022b72","condition":"full-information","relevant_dimensions":["wings","legs"],"bee_group":{"antennae":"X","wings":"1","pattern":"X","legs":"M"},"action":"avoid","summary":"good-avoid","bonus":1.660000000000001},{"rt":614.6000000238419,"stimulus":"\n                    <p><b>Action: <em>avoid</em></b></p>\n                    <p>This is the bee that you just saw.</p>\n                    <img src=\"bees-with-color/bee-B1DM.svg\" width=\"200\">\n                    <p><span class=\"greenText\">Good choice!</span>  This bee would have stung you.<br>Your bonus pay is unchanged, and remains at $0.96.</p>\n            ","response":0,"trial_type":"html-button-response","trial_index":108,"time_elapsed":1066588,"internal_node_id":"0.0-4.0-1.50","subject_id":"5eceef5fa487421604c337ba","study_id":"6197b3f67c2b5cd3b6d9596a","session_id":"6197d817b692674c47022b72","condition":"full-information","relevant_dimensions":["wings","legs"],"bee_group":{"antennae":"X","wings":"1","pattern":"X","legs":"M"},"bonus":1.660000000000001},{"rt":11367,"stimulus":"bees-with-color/bee-A1SF.svg","response":0,"trial_type":"image-button-response","trial_index":109,"time_elapsed":1077957,"internal_node_id":"0.0-4.0-0.51","subject_id":"5eceef5fa487421604c337ba","study_id":"6197b3f67c2b5cd3b6d9596a","session_id":"6197d817b692674c47022b72","condition":"full-information","relevant_dimensions":["wings","legs"],"bee_group":{"antennae":"X","wings":"1","pattern":"X","legs":"M"},"action":"harvest","summary":"good-harvest","bonus":1.660000000000001},{"rt":569.6000000238419,"stimulus":"\n                    <p><b>Action: <em>harvest</em></b></p>\n                    <p>This is the bee that you just saw.</p>\n                    <img src=\"bees-with-color/bee-A1SF.svg\" width=\"200\">\n                    <p><span class=\"greenText\"><b>Successful harvest!</b></span><br>Your pay has increased by $0.02. Your bonus pay is now $0.98.</p>\n            ","response":0,"trial_type":"html-button-response","trial_index":110,"time_elapsed":1078528,"internal_node_id":"0.0-4.0-1.51","subject_id":"5eceef5fa487421604c337ba","study_id":"6197b3f67c2b5cd3b6d9596a","session_id":"6197d817b692674c47022b72","condition":"full-information","relevant_dimensions":["wings","legs"],"bee_group":{"antennae":"X","wings":"1","pattern":"X","legs":"M"},"bonus":1.660000000000001},{"rt":9097.799999952316,"stimulus":"bees-with-color/bee-A2DF.svg","response":0,"trial_type":"image-button-response","trial_index":111,"time_elapsed":1087628,"internal_node_id":"0.0-4.0-0.52","subject_id":"5eceef5fa487421604c337ba","study_id":"6197b3f67c2b5cd3b6d9596a","session_id":"6197d817b692674c47022b72","condition":"full-information","relevant_dimensions":["wings","legs"],"bee_group":{"antennae":"X","wings":"1","pattern":"X","legs":"M"},"action":"harvest","summary":"good-harvest","bonus":1.660000000000001},{"rt":561.8999999761581,"stimulus":"\n                    <p><b>Action: <em>harvest</em></b></p>\n                    <p>This is the bee that you just saw.</p>\n                    <img src=\"bees-with-color/bee-A2DF.svg\" width=\"200\">\n                    <p><span class=\"greenText\"><b>Successful harvest!</b></span><br>Your pay has increased by $0.02. Your bonus pay is now $1.00.</p>\n            ","response":0,"trial_type":"html-button-response","trial_index":112,"time_elapsed":1088191,"internal_node_id":"0.0-4.0-1.52","subject_id":"5eceef5fa487421604c337ba","study_id":"6197b3f67c2b5cd3b6d9596a","session_id":"6197d817b692674c47022b72","condition":"full-information","relevant_dimensions":["wings","legs"],"bee_group":{"antennae":"X","wings":"1","pattern":"X","legs":"M"},"bonus":1.660000000000001},{"rt":7844.400000095367,"stimulus":"bees-with-color/bee-B1SF.svg","response":0,"trial_type":"image-button-response","trial_index":113,"time_elapsed":1096038,"internal_node_id":"0.0-4.0-0.53","subject_id":"5eceef5fa487421604c337ba","study_id":"6197b3f67c2b5cd3b6d9596a","session_id":"6197d817b692674c47022b72","condition":"full-information","relevant_dimensions":["wings","legs"],"bee_group":{"antennae":"X","wings":"1","pattern":"X","legs":"M"},"action":"harvest","summary":"good-harvest","bonus":1.660000000000001},{"rt":582.7000000476837,"stimulus":"\n                    <p><b>Action: <em>harvest</em></b></p>\n                    <p>This is the bee that you just saw.</p>\n                    <img src=\"bees-with-color/bee-B1SF.svg\" width=\"200\">\n                    <p><span class=\"greenText\"><b>Successful harvest!</b></span><br>Your pay has increased by $0.02. Your bonus pay is now $1.02.</p>\n            ","response":0,"trial_type":"html-button-response","trial_index":114,"time_elapsed":1096622,"internal_node_id":"0.0-4.0-1.53","subject_id":"5eceef5fa487421604c337ba","study_id":"6197b3f67c2b5cd3b6d9596a","session_id":"6197d817b692674c47022b72","condition":"full-information","relevant_dimensions":["wings","legs"],"bee_group":{"antennae":"X","wings":"1","pattern":"X","legs":"M"},"bonus":1.660000000000001},{"rt":7535.5,"stimulus":"bees-with-color/bee-A2SF.svg","response":0,"trial_type":"image-button-response","trial_index":115,"time_elapsed":1104160,"internal_node_id":"0.0-4.0-0.54","subject_id":"5eceef5fa487421604c337ba","study_id":"6197b3f67c2b5cd3b6d9596a","session_id":"6197d817b692674c47022b72","condition":"full-information","relevant_dimensions":["wings","legs"],"bee_group":{"antennae":"X","wings":"1","pattern":"X","legs":"M"},"action":"harvest","summary":"good-harvest","bonus":1.660000000000001},{"rt":1208,"stimulus":"\n                    <p><b>Action: <em>harvest</em></b></p>\n                    <p>This is the bee that you just saw.</p>\n                    <img src=\"bees-with-color/bee-A2SF.svg\" width=\"200\">\n                    <p><span class=\"greenText\"><b>Successful harvest!</b></span><br>Your pay has increased by $0.02. Your bonus pay is now $1.04.</p>\n            ","response":0,"trial_type":"html-button-response","trial_index":116,"time_elapsed":1105370,"internal_node_id":"0.0-4.0-1.54","subject_id":"5eceef5fa487421604c337ba","study_id":"6197b3f67c2b5cd3b6d9596a","session_id":"6197d817b692674c47022b72","condition":"full-information","relevant_dimensions":["wings","legs"],"bee_group":{"antennae":"X","wings":"1","pattern":"X","legs":"M"},"bonus":1.660000000000001},{"rt":7344.899999976158,"stimulus":"bees-with-color/bee-A2DM.svg","response":0,"trial_type":"image-button-response","trial_index":117,"time_elapsed":1112717,"internal_node_id":"0.0-4.0-0.55","subject_id":"5eceef5fa487421604c337ba","study_id":"6197b3f67c2b5cd3b6d9596a","session_id":"6197d817b692674c47022b72","condition":"full-information","relevant_dimensions":["wings","legs"],"bee_group":{"antennae":"X","wings":"1","pattern":"X","legs":"M"},"action":"harvest","summary":"good-harvest","bonus":1.660000000000001},{"rt":1140.0999999046326,"stimulus":"\n                    <p><b>Action: <em>harvest</em></b></p>\n                    <p>This is the bee that you just saw.</p>\n                    <img src=\"bees-with-color/bee-A2DM.svg\" width=\"200\">\n                    <p><span class=\"greenText\"><b>Successful harvest!</b></span><br>Your pay has increased by $0.02. Your bonus pay is now $1.06.</p>\n            ","response":0,"trial_type":"html-button-response","trial_index":118,"time_elapsed":1113858,"internal_node_id":"0.0-4.0-1.55","subject_id":"5eceef5fa487421604c337ba","study_id":"6197b3f67c2b5cd3b6d9596a","session_id":"6197d817b692674c47022b72","condition":"full-information","relevant_dimensions":["wings","legs"],"bee_group":{"antennae":"X","wings":"1","pattern":"X","legs":"M"},"bonus":1.660000000000001},{"rt":8195.800000071526,"stimulus":"bees-with-color/bee-A2SM.svg","response":0,"trial_type":"image-button-response","trial_index":119,"time_elapsed":1122056,"internal_node_id":"0.0-4.0-0.56","subject_id":"5eceef5fa487421604c337ba","study_id":"6197b3f67c2b5cd3b6d9596a","session_id":"6197d817b692674c47022b72","condition":"full-information","relevant_dimensions":["wings","legs"],"bee_group":{"antennae":"X","wings":"1","pattern":"X","legs":"M"},"action":"harvest","summary":"good-harvest","bonus":1.660000000000001},{"rt":601,"stimulus":"\n                    <p><b>Action: <em>harvest</em></b></p>\n                    <p>This is the bee that you just saw.</p>\n                    <img src=\"bees-with-color/bee-A2SM.svg\" width=\"200\">\n                    <p><span class=\"greenText\"><b>Successful harvest!</b></span><br>Your pay has increased by $0.02. Your bonus pay is now $1.08.</p>\n            ","response":0,"trial_type":"html-button-response","trial_index":120,"time_elapsed":1122659,"internal_node_id":"0.0-4.0-1.56","subject_id":"5eceef5fa487421604c337ba","study_id":"6197b3f67c2b5cd3b6d9596a","session_id":"6197d817b692674c47022b72","condition":"full-information","relevant_dimensions":["wings","legs"],"bee_group":{"antennae":"X","wings":"1","pattern":"X","legs":"M"},"bonus":1.660000000000001},{"rt":10543.800000071526,"stimulus":"bees-with-color/bee-B1SM.svg","response":1,"trial_type":"image-button-response","trial_index":121,"time_elapsed":1133205,"internal_node_id":"0.0-4.0-0.57","subject_id":"5eceef5fa487421604c337ba","study_id":"6197b3f67c2b5cd3b6d9596a","session_id":"6197d817b692674c47022b72","condition":"full-information","relevant_dimensions":["wings","legs"],"bee_group":{"antennae":"X","wings":"1","pattern":"X","legs":"M"},"action":"avoid","summary":"good-avoid","bonus":1.660000000000001},{"rt":682.2000000476837,"stimulus":"\n                    <p><b>Action: <em>avoid</em></b></p>\n                    <p>This is the bee that you just saw.</p>\n                    <img src=\"bees-with-color/bee-B1SM.svg\" width=\"200\">\n                    <p><span class=\"greenText\">Good choice!</span>  This bee would have stung you.<br>Your bonus pay is unchanged, and remains at $1.08.</p>\n            ","response":0,"trial_type":"html-button-response","trial_index":122,"time_elapsed":1133889,"internal_node_id":"0.0-4.0-1.57","subject_id":"5eceef5fa487421604c337ba","study_id":"6197b3f67c2b5cd3b6d9596a","session_id":"6197d817b692674c47022b72","condition":"full-information","relevant_dimensions":["wings","legs"],"bee_group":{"antennae":"X","wings":"1","pattern":"X","legs":"M"},"bonus":1.660000000000001},{"rt":6616.5,"stimulus":"bees-with-color/bee-A1DF.svg","response":0,"trial_type":"image-button-response","trial_index":123,"time_elapsed":1140508,"internal_node_id":"0.0-4.0-0.58","subject_id":"5eceef5fa487421604c337ba","study_id":"6197b3f67c2b5cd3b6d9596a","session_id":"6197d817b692674c47022b72","condition":"full-information","relevant_dimensions":["wings","legs"],"bee_group":{"antennae":"X","wings":"1","pattern":"X","legs":"M"},"action":"harvest","summary":"good-harvest","bonus":1.660000000000001},{"rt":563,"stimulus":"\n                    <p><b>Action: <em>harvest</em></b></p>\n                    <p>This is the bee that you just saw.</p>\n                    <img src=\"bees-with-color/bee-A1DF.svg\" width=\"200\">\n                    <p><span class=\"greenText\"><b>Successful harvest!</b></span><br>Your pay has increased by $0.02. Your bonus pay is now $1.10.</p>\n            ","response":0,"trial_type":"html-button-response","trial_index":124,"time_elapsed":1141073,"internal_node_id":"0.0-4.0-1.58","subject_id":"5eceef5fa487421604c337ba","study_id":"6197b3f67c2b5cd3b6d9596a","session_id":"6197d817b692674c47022b72","condition":"full-information","relevant_dimensions":["wings","legs"],"bee_group":{"antennae":"X","wings":"1","pattern":"X","legs":"M"},"bonus":1.660000000000001},{"rt":8143,"stimulus":"bees-with-color/bee-B1DF.svg","response":0,"trial_type":"image-button-response","trial_index":125,"time_elapsed":1149218,"internal_node_id":"0.0-4.0-0.59","subject_id":"5eceef5fa487421604c337ba","study_id":"6197b3f67c2b5cd3b6d9596a","session_id":"6197d817b692674c47022b72","condition":"full-information","relevant_dimensions":["wings","legs"],"bee_group":{"antennae":"X","wings":"1","pattern":"X","legs":"M"},"action":"harvest","summary":"good-harvest","bonus":1.660000000000001},{"rt":764.7999999523163,"stimulus":"\n                    <p><b>Action: <em>harvest</em></b></p>\n                    <p>This is the bee that you just saw.</p>\n                    <img src=\"bees-with-color/bee-B1DF.svg\" width=\"200\">\n                    <p><span class=\"greenText\"><b>Successful harvest!</b></span><br>Your pay has increased by $0.02. Your bonus pay is now $1.12.</p>\n            ","response":0,"trial_type":"html-button-response","trial_index":126,"time_elapsed":1149984,"internal_node_id":"0.0-4.0-1.59","subject_id":"5eceef5fa487421604c337ba","study_id":"6197b3f67c2b5cd3b6d9596a","session_id":"6197d817b692674c47022b72","condition":"full-information","relevant_dimensions":["wings","legs"],"bee_group":{"antennae":"X","wings":"1","pattern":"X","legs":"M"},"bonus":1.660000000000001},{"rt":5623.600000023842,"stimulus":"bees-with-color/bee-B2DM.svg","response":0,"trial_type":"image-button-response","trial_index":127,"time_elapsed":1155609,"internal_node_id":"0.0-4.0-0.60","subject_id":"5eceef5fa487421604c337ba","study_id":"6197b3f67c2b5cd3b6d9596a","session_id":"6197d817b692674c47022b72","condition":"full-information","relevant_dimensions":["wings","legs"],"bee_group":{"antennae":"X","wings":"1","pattern":"X","legs":"M"},"action":"harvest","summary":"good-harvest","bonus":1.660000000000001},{"rt":1201.4000000953674,"stimulus":"\n                    <p><b>Action: <em>harvest</em></b></p>\n                    <p>This is the bee that you just saw.</p>\n                    <img src=\"bees-with-color/bee-B2DM.svg\" width=\"200\">\n                    <p><span class=\"greenText\"><b>Successful harvest!</b></span><br>Your pay has increased by $0.02. Your bonus pay is now $1.14.</p>\n            ","response":0,"trial_type":"html-button-response","trial_index":128,"time_elapsed":1156812,"internal_node_id":"0.0-4.0-1.60","subject_id":"5eceef5fa487421604c337ba","study_id":"6197b3f67c2b5cd3b6d9596a","session_id":"6197d817b692674c47022b72","condition":"full-information","relevant_dimensions":["wings","legs"],"bee_group":{"antennae":"X","wings":"1","pattern":"X","legs":"M"},"bonus":1.660000000000001},{"rt":5244.700000047684,"stimulus":"bees-with-color/bee-B2DF.svg","response":0,"trial_type":"image-button-response","trial_index":129,"time_elapsed":1162058,"internal_node_id":"0.0-4.0-0.61","subject_id":"5eceef5fa487421604c337ba","study_id":"6197b3f67c2b5cd3b6d9596a","session_id":"6197d817b692674c47022b72","condition":"full-information","relevant_dimensions":["wings","legs"],"bee_group":{"antennae":"X","wings":"1","pattern":"X","legs":"M"},"action":"harvest","summary":"good-harvest","bonus":1.660000000000001},{"rt":552.7000000476837,"stimulus":"\n                    <p><b>Action: <em>harvest</em></b></p>\n                    <p>This is the bee that you just saw.</p>\n                    <img src=\"bees-with-color/bee-B2DF.svg\" width=\"200\">\n                    <p><span class=\"greenText\"><b>Successful harvest!</b></span><br>Your pay has increased by $0.02. Your bonus pay is now $1.16.</p>\n            ","response":0,"trial_type":"html-button-response","trial_index":130,"time_elapsed":1162612,"internal_node_id":"0.0-4.0-1.61","subject_id":"5eceef5fa487421604c337ba","study_id":"6197b3f67c2b5cd3b6d9596a","session_id":"6197d817b692674c47022b72","condition":"full-information","relevant_dimensions":["wings","legs"],"bee_group":{"antennae":"X","wings":"1","pattern":"X","legs":"M"},"bonus":1.660000000000001},{"rt":8045.899999976158,"stimulus":"bees-with-color/bee-A1DM.svg","response":1,"trial_type":"image-button-response","trial_index":131,"time_elapsed":1170660,"internal_node_id":"0.0-4.0-0.62","subject_id":"5eceef5fa487421604c337ba","study_id":"6197b3f67c2b5cd3b6d9596a","session_id":"6197d817b692674c47022b72","condition":"full-information","relevant_dimensions":["wings","legs"],"bee_group":{"antennae":"X","wings":"1","pattern":"X","legs":"M"},"action":"avoid","summary":"good-avoid","bonus":1.660000000000001},{"rt":721.6000000238419,"stimulus":"\n                    <p><b>Action: <em>avoid</em></b></p>\n                    <p>This is the bee that you just saw.</p>\n                    <img src=\"bees-with-color/bee-A1DM.svg\" width=\"200\">\n                    <p><span class=\"greenText\">Good choice!</span>  This bee would have stung you.<br>Your bonus pay is unchanged, and remains at $1.16.</p>\n            ","response":0,"trial_type":"html-button-response","trial_index":132,"time_elapsed":1171383,"internal_node_id":"0.0-4.0-1.62","subject_id":"5eceef5fa487421604c337ba","study_id":"6197b3f67c2b5cd3b6d9596a","session_id":"6197d817b692674c47022b72","condition":"full-information","relevant_dimensions":["wings","legs"],"bee_group":{"antennae":"X","wings":"1","pattern":"X","legs":"M"},"bonus":1.660000000000001},{"rt":5407.299999952316,"stimulus":"bees-with-color/bee-B2SM.svg","response":0,"trial_type":"image-button-response","trial_index":133,"time_elapsed":1176792,"internal_node_id":"0.0-4.0-0.63","subject_id":"5eceef5fa487421604c337ba","study_id":"6197b3f67c2b5cd3b6d9596a","session_id":"6197d817b692674c47022b72","condition":"full-information","relevant_dimensions":["wings","legs"],"bee_group":{"antennae":"X","wings":"1","pattern":"X","legs":"M"},"action":"harvest","summary":"good-harvest","bonus":1.660000000000001},{"rt":638,"stimulus":"\n                    <p><b>Action: <em>harvest</em></b></p>\n                    <p>This is the bee that you just saw.</p>\n                    <img src=\"bees-with-color/bee-B2SM.svg\" width=\"200\">\n                    <p><span class=\"greenText\"><b>Successful harvest!</b></span><br>Your pay has increased by $0.02. Your bonus pay is now $1.18.</p>\n            ","response":0,"trial_type":"html-button-response","trial_index":134,"time_elapsed":1177431,"internal_node_id":"0.0-4.0-1.63","subject_id":"5eceef5fa487421604c337ba","study_id":"6197b3f67c2b5cd3b6d9596a","session_id":"6197d817b692674c47022b72","condition":"full-information","relevant_dimensions":["wings","legs"],"bee_group":{"antennae":"X","wings":"1","pattern":"X","legs":"M"},"bonus":1.660000000000001},{"rt":10438.100000023842,"stimulus":"You have completed the first part of this experiment.<br><br>You will now begin a shorter second part, in which you will receive no feedback.<br>The same rules regarding bonus pay apply.<br><br>Press any key to begin.","response":" ","trial_type":"html-keyboard-response","trial_index":135,"time_elapsed":1187871,"internal_node_id":"0.0-5.0","subject_id":"5eceef5fa487421604c337ba","study_id":"6197b3f67c2b5cd3b6d9596a","session_id":"6197d817b692674c47022b72","condition":"full-information","relevant_dimensions":["wings","legs"],"bee_group":{"antennae":"X","wings":"1","pattern":"X","legs":"M"},"bonus":1.660000000000001},{"rt":10771.5,"stimulus":"bees-with-color/bee-B1DM.svg","response":1,"trial_type":"image-button-response","trial_index":136,"time_elapsed":1198654,"internal_node_id":"0.0-6.0-0.0","subject_id":"5eceef5fa487421604c337ba","study_id":"6197b3f67c2b5cd3b6d9596a","session_id":"6197d817b692674c47022b72","condition":"full-information","relevant_dimensions":["wings","legs"],"bee_group":{"antennae":"X","wings":"1","pattern":"X","legs":"M"},"bonus":1.660000000000001},{"rt":7502.399999976158,"stimulus":"bees-with-color/bee-A1SM.svg","response":1,"trial_type":"image-button-response","trial_index":137,"time_elapsed":1206159,"internal_node_id":"0.0-6.0-0.1","subject_id":"5eceef5fa487421604c337ba","study_id":"6197b3f67c2b5cd3b6d9596a","session_id":"6197d817b692674c47022b72","condition":"full-information","relevant_dimensions":["wings","legs"],"bee_group":{"antennae":"X","wings":"1","pattern":"X","legs":"M"},"bonus":1.660000000000001},{"rt":5782.899999976158,"stimulus":"bees-with-color/bee-A2DM.svg","response":0,"trial_type":"image-button-response","trial_index":138,"time_elapsed":1211945,"internal_node_id":"0.0-6.0-0.2","subject_id":"5eceef5fa487421604c337ba","study_id":"6197b3f67c2b5cd3b6d9596a","session_id":"6197d817b692674c47022b72","condition":"full-information","relevant_dimensions":["wings","legs"],"bee_group":{"antennae":"X","wings":"1","pattern":"X","legs":"M"},"bonus":1.660000000000001},{"rt":7050.199999928474,"stimulus":"bees-with-color/bee-A1DF.svg","response":0,"trial_type":"image-button-response","trial_index":139,"time_elapsed":1218998,"internal_node_id":"0.0-6.0-0.3","subject_id":"5eceef5fa487421604c337ba","study_id":"6197b3f67c2b5cd3b6d9596a","session_id":"6197d817b692674c47022b72","condition":"full-information","relevant_dimensions":["wings","legs"],"bee_group":{"antennae":"X","wings":"1","pattern":"X","legs":"M"},"bonus":1.660000000000001},{"rt":5556,"stimulus":"bees-with-color/bee-A2SM.svg","response":0,"trial_type":"image-button-response","trial_index":140,"time_elapsed":1224557,"internal_node_id":"0.0-6.0-0.4","subject_id":"5eceef5fa487421604c337ba","study_id":"6197b3f67c2b5cd3b6d9596a","session_id":"6197d817b692674c47022b72","condition":"full-information","relevant_dimensions":["wings","legs"],"bee_group":{"antennae":"X","wings":"1","pattern":"X","legs":"M"},"bonus":1.660000000000001},{"rt":6474.700000047684,"stimulus":"bees-with-color/bee-B1DF.svg","response":0,"trial_type":"image-button-response","trial_index":141,"time_elapsed":1231035,"internal_node_id":"0.0-6.0-0.5","subject_id":"5eceef5fa487421604c337ba","study_id":"6197b3f67c2b5cd3b6d9596a","session_id":"6197d817b692674c47022b72","condition":"full-information","relevant_dimensions":["wings","legs"],"bee_group":{"antennae":"X","wings":"1","pattern":"X","legs":"M"},"bonus":1.660000000000001},{"rt":6593.100000023842,"stimulus":"bees-with-color/bee-B2SM.svg","response":0,"trial_type":"image-button-response","trial_index":142,"time_elapsed":1237631,"internal_node_id":"0.0-6.0-0.6","subject_id":"5eceef5fa487421604c337ba","study_id":"6197b3f67c2b5cd3b6d9596a","session_id":"6197d817b692674c47022b72","condition":"full-information","relevant_dimensions":["wings","legs"],"bee_group":{"antennae":"X","wings":"1","pattern":"X","legs":"M"},"bonus":1.660000000000001},{"rt":7930.899999976158,"stimulus":"bees-with-color/bee-B1SF.svg","response":0,"trial_type":"image-button-response","trial_index":143,"time_elapsed":1245564,"internal_node_id":"0.0-6.0-0.7","subject_id":"5eceef5fa487421604c337ba","study_id":"6197b3f67c2b5cd3b6d9596a","session_id":"6197d817b692674c47022b72","condition":"full-information","relevant_dimensions":["wings","legs"],"bee_group":{"antennae":"X","wings":"1","pattern":"X","legs":"M"},"bonus":1.660000000000001},{"rt":5987.700000047684,"stimulus":"bees-with-color/bee-A1DM.svg","response":1,"trial_type":"image-button-response","trial_index":144,"time_elapsed":1251555,"internal_node_id":"0.0-6.0-0.8","subject_id":"5eceef5fa487421604c337ba","study_id":"6197b3f67c2b5cd3b6d9596a","session_id":"6197d817b692674c47022b72","condition":"full-information","relevant_dimensions":["wings","legs"],"bee_group":{"antennae":"X","wings":"1","pattern":"X","legs":"M"},"bonus":1.660000000000001},{"rt":6405.100000023842,"stimulus":"bees-with-color/bee-B2DM.svg","response":0,"trial_type":"image-button-response","trial_index":145,"time_elapsed":1257962,"internal_node_id":"0.0-6.0-0.9","subject_id":"5eceef5fa487421604c337ba","study_id":"6197b3f67c2b5cd3b6d9596a","session_id":"6197d817b692674c47022b72","condition":"full-information","relevant_dimensions":["wings","legs"],"bee_group":{"antennae":"X","wings":"1","pattern":"X","legs":"M"},"bonus":1.660000000000001},{"rt":4813.700000047684,"stimulus":"bees-with-color/bee-B2SF.svg","response":0,"trial_type":"image-button-response","trial_index":146,"time_elapsed":1262778,"internal_node_id":"0.0-6.0-0.10","subject_id":"5eceef5fa487421604c337ba","study_id":"6197b3f67c2b5cd3b6d9596a","session_id":"6197d817b692674c47022b72","condition":"full-information","relevant_dimensions":["wings","legs"],"bee_group":{"antennae":"X","wings":"1","pattern":"X","legs":"M"},"bonus":1.660000000000001},{"rt":6293.899999976158,"stimulus":"bees-with-color/bee-B1SM.svg","response":1,"trial_type":"image-button-response","trial_index":147,"time_elapsed":1269075,"internal_node_id":"0.0-6.0-0.11","subject_id":"5eceef5fa487421604c337ba","study_id":"6197b3f67c2b5cd3b6d9596a","session_id":"6197d817b692674c47022b72","condition":"full-information","relevant_dimensions":["wings","legs"],"bee_group":{"antennae":"X","wings":"1","pattern":"X","legs":"M"},"bonus":1.660000000000001},{"rt":7864.699999928474,"stimulus":"bees-with-color/bee-A2SF.svg","response":0,"trial_type":"image-button-response","trial_index":148,"time_elapsed":1276942,"internal_node_id":"0.0-6.0-0.12","subject_id":"5eceef5fa487421604c337ba","study_id":"6197b3f67c2b5cd3b6d9596a","session_id":"6197d817b692674c47022b72","condition":"full-information","relevant_dimensions":["wings","legs"],"bee_group":{"antennae":"X","wings":"1","pattern":"X","legs":"M"},"bonus":1.660000000000001},{"rt":4677.199999928474,"stimulus":"bees-with-color/bee-B2DF.svg","response":0,"trial_type":"image-button-response","trial_index":149,"time_elapsed":1281622,"internal_node_id":"0.0-6.0-0.13","subject_id":"5eceef5fa487421604c337ba","study_id":"6197b3f67c2b5cd3b6d9596a","session_id":"6197d817b692674c47022b72","condition":"full-information","relevant_dimensions":["wings","legs"],"bee_group":{"antennae":"X","wings":"1","pattern":"X","legs":"M"},"bonus":1.660000000000001},{"rt":3950.7000000476837,"stimulus":"bees-with-color/bee-A2DF.svg","response":0,"trial_type":"image-button-response","trial_index":150,"time_elapsed":1285576,"internal_node_id":"0.0-6.0-0.14","subject_id":"5eceef5fa487421604c337ba","study_id":"6197b3f67c2b5cd3b6d9596a","session_id":"6197d817b692674c47022b72","condition":"full-information","relevant_dimensions":["wings","legs"],"bee_group":{"antennae":"X","wings":"1","pattern":"X","legs":"M"},"bonus":1.660000000000001},{"rt":6069.399999976158,"stimulus":"bees-with-color/bee-A1SF.svg","response":0,"trial_type":"image-button-response","trial_index":151,"time_elapsed":1291647,"internal_node_id":"0.0-6.0-0.15","subject_id":"5eceef5fa487421604c337ba","study_id":"6197b3f67c2b5cd3b6d9596a","session_id":"6197d817b692674c47022b72","condition":"full-information","relevant_dimensions":["wings","legs"],"bee_group":{"antennae":"X","wings":"1","pattern":"X","legs":"M"},"bonus":1.660000000000001},{"rt":5939.200000047684,"stimulus":"bees-with-color/bee-A2DM.svg","response":0,"trial_type":"image-button-response","trial_index":152,"time_elapsed":1297589,"internal_node_id":"0.0-6.0-0.16","subject_id":"5eceef5fa487421604c337ba","study_id":"6197b3f67c2b5cd3b6d9596a","session_id":"6197d817b692674c47022b72","condition":"full-information","relevant_dimensions":["wings","legs"],"bee_group":{"antennae":"X","wings":"1","pattern":"X","legs":"M"},"bonus":1.660000000000001},{"rt":4597.300000071526,"stimulus":"bees-with-color/bee-B2DF.svg","response":0,"trial_type":"image-button-response","trial_index":153,"time_elapsed":1302189,"internal_node_id":"0.0-6.0-0.17","subject_id":"5eceef5fa487421604c337ba","study_id":"6197b3f67c2b5cd3b6d9596a","session_id":"6197d817b692674c47022b72","condition":"full-information","relevant_dimensions":["wings","legs"],"bee_group":{"antennae":"X","wings":"1","pattern":"X","legs":"M"},"bonus":1.660000000000001},{"rt":6571.299999952316,"stimulus":"bees-with-color/bee-A2SM.svg","response":0,"trial_type":"image-button-response","trial_index":154,"time_elapsed":1308763,"internal_node_id":"0.0-6.0-0.18","subject_id":"5eceef5fa487421604c337ba","study_id":"6197b3f67c2b5cd3b6d9596a","session_id":"6197d817b692674c47022b72","condition":"full-information","relevant_dimensions":["wings","legs"],"bee_group":{"antennae":"X","wings":"1","pattern":"X","legs":"M"},"bonus":1.660000000000001},{"rt":6600,"stimulus":"bees-with-color/bee-B2DM.svg","response":0,"trial_type":"image-button-response","trial_index":155,"time_elapsed":1315365,"internal_node_id":"0.0-6.0-0.19","subject_id":"5eceef5fa487421604c337ba","study_id":"6197b3f67c2b5cd3b6d9596a","session_id":"6197d817b692674c47022b72","condition":"full-information","relevant_dimensions":["wings","legs"],"bee_group":{"antennae":"X","wings":"1","pattern":"X","legs":"M"},"bonus":1.660000000000001},{"rt":5873.899999976158,"stimulus":"bees-with-color/bee-B1SM.svg","response":1,"trial_type":"image-button-response","trial_index":156,"time_elapsed":1321241,"internal_node_id":"0.0-6.0-0.20","subject_id":"5eceef5fa487421604c337ba","study_id":"6197b3f67c2b5cd3b6d9596a","session_id":"6197d817b692674c47022b72","condition":"full-information","relevant_dimensions":["wings","legs"],"bee_group":{"antennae":"X","wings":"1","pattern":"X","legs":"M"},"bonus":1.660000000000001},{"rt":8938.299999952316,"stimulus":"bees-with-color/bee-A1SF.svg","response":0,"trial_type":"image-button-response","trial_index":157,"time_elapsed":1330182,"internal_node_id":"0.0-6.0-0.21","subject_id":"5eceef5fa487421604c337ba","study_id":"6197b3f67c2b5cd3b6d9596a","session_id":"6197d817b692674c47022b72","condition":"full-information","relevant_dimensions":["wings","leg