[{"success":true,"trial_type":"fullscreen","trial_index":0,"time_elapsed":2733,"internal_node_id":"0.0-0.0","subject_id":"5f54c086c8cfea824fed2cc3","study_id":"6197b3f67c2b5cd3b6d9596a","session_id":"619bef06ce4e9678a6c5277c","condition":"contingent","relevant_dimensions":["pattern","legs"],"bee_group":{"antennae":"X","wings":"X","pattern":"D","legs":"M"},"bonus":0.6800000000000013},{"success":true,"timeout":false,"failed_images":[],"failed_audio":[],"failed_video":[],"trial_type":"preload","trial_index":1,"time_elapsed":2808,"internal_node_id":"0.0-1.0","subject_id":"5f54c086c8cfea824fed2cc3","study_id":"6197b3f67c2b5cd3b6d9596a","session_id":"619bef06ce4e9678a6c5277c","condition":"contingent","relevant_dimensions":["pattern","legs"],"bee_group":{"antennae":"X","wings":"X","pattern":"D","legs":"M"},"bonus":0.6800000000000013},{"rt":2074,"stimulus":"Welcome! Press any key to begin.","response":"h","trial_type":"html-keyboard-response","trial_index":2,"time_elapsed":4883,"internal_node_id":"0.0-2.0","subject_id":"5f54c086c8cfea824fed2cc3","study_id":"6197b3f67c2b5cd3b6d9596a","session_id":"619bef06ce4e9678a6c5277c","condition":"contingent","relevant_dimensions":["pattern","legs"],"bee_group":{"antennae":"X","wings":"X","pattern":"D","legs":"M"},"bonus":0.6800000000000013},{"view_history":[{"page_index":0,"viewing_time":6209},{"page_index":1,"viewing_time":18573},{"page_index":2,"viewing_time":22770},{"page_index":3,"viewing_time":34931},{"page_index":4,"viewing_time":11512},{"page_index":5,"viewing_time":26194},{"page_index":6,"viewing_time":17046},{"page_index":7,"viewing_time":3109},{"page_index":8,"viewing_time":2499},{"page_index":9,"viewing_time":4539},{"page_index":10,"viewing_time":3523},{"page_index":11,"viewing_time":163367},{"page_index":12,"viewing_time":38386},{"page_index":13,"viewing_time":3133},{"page_index":14,"viewing_time":1178}],"rt":356969,"trial_type":"instructions","trial_index":3,"time_elapsed":361852,"internal_node_id":"0.0-3.0-0.0","subject_id":"5f54c086c8cfea824fed2cc3","study_id":"6197b3f67c2b5cd3b6d9596a","session_id":"619bef06ce4e9678a6c5277c","condition":"contingent","relevant_dimensions":["pattern","legs"],"bee_group":{"antennae":"X","wings":"X","pattern":"D","legs":"M"},"bonus":0.6800000000000013},{"rt":10077,"response":{"Q0":["Two or six legs","Stripes or spots on body","Single or double wings","Antennae or no antennae"]},"question_order":[0],"trial_type":"survey-multi-select","trial_index":4,"time_elapsed":371937,"internal_node_id":"0.0-3.0-1.0","subject_id":"5f54c086c8cfea824fed2cc3","study_id":"6197b3f67c2b5cd3b6d9596a","session_id":"619bef06ce4e9678a6c5277c","condition":"contingent","relevant_dimensions":["pattern","legs"],"bee_group":{"antennae":"X","wings":"X","pattern":"D","legs":"M"},"correct":true,"bonus":0.6800000000000013},{"rt":34585,"response":{"Q1":"No.","Q2":"Based on the four features of the bee.","Q3":"You do not learn if it was friendly or dangerous, and do not alter your bonus."},"question_order":[0,1,2],"trial_type":"survey-multi-choice","trial_index":5,"time_elapsed":406522,"internal_node_id":"0.0-3.0-2.0","subject_id":"5f54c086c8cfea824fed2cc3","study_id":"6197b3f67c2b5cd3b6d9596a","session_id":"619bef06ce4e9678a6c5277c","condition":"contingent","relevant_dimensions":["pattern","legs"],"bee_group":{"antennae":"X","wings":"X","pattern":"D","legs":"M"},"correct":true,"bonus":0.6800000000000013},{"rt":3238,"stimulus":"<p>Congrats, you got everything right<br>When you're ready, click the button below to continue to the experiment.</p>","response":0,"trial_type":"html-button-response","trial_index":6,"time_elapsed":409764,"internal_node_id":"0.0-3.0-3.0","subject_id":"5f54c086c8cfea824fed2cc3","study_id":"6197b3f67c2b5cd3b6d9596a","session_id":"619bef06ce4e9678a6c5277c","condition":"contingent","relevant_dimensions":["pattern","legs"],"bee_group":{"antennae":"X","wings":"X","pattern":"D","legs":"M"},"bonus":0.6800000000000013},{"rt":9480,"stimulus":"bees-with-color/bee-A2DF.svg","response":0,"trial_type":"image-button-response","trial_index":7,"time_elapsed":419247,"internal_node_id":"0.0-4.0-0.0","subject_id":"5f54c086c8cfea824fed2cc3","study_id":"6197b3f67c2b5cd3b6d9596a","session_id":"619bef06ce4e9678a6c5277c","condition":"contingent","relevant_dimensions":["pattern","legs"],"bee_group":{"antennae":"X","wings":"X","pattern":"D","legs":"M"},"action":"harvest","summary":"good-harvest","bonus":0.6800000000000013},{"rt":19970,"stimulus":"\n                    <p><b>Action: <em>harvest</em></b></p>\n                    <p>This is the bee that you just saw.</p>\n                    <img src=\"bees-with-color/bee-A2DF.svg\" width=\"200\">\n                    <p><span class=\"greenText\"><b>Successful harvest!</b></span><br>Your pay has increased by $0.02. Your bonus pay is now $0.56.</p>\n            ","response":0,"trial_type":"html-button-response","trial_index":8,"time_elapsed":439289,"internal_node_id":"0.0-4.0-1.0","subject_id":"5f54c086c8cfea824fed2cc3","study_id":"6197b3f67c2b5cd3b6d9596a","session_id":"619bef06ce4e9678a6c5277c","condition":"contingent","relevant_dimensions":["pattern","legs"],"bee_group":{"antennae":"X","wings":"X","pattern":"D","legs":"M"},"bonus":0.6800000000000013},{"rt":6566,"stimulus":"bees-with-color/bee-B1SM.svg","response":0,"trial_type":"image-button-response","trial_index":9,"time_elapsed":445858,"internal_node_id":"0.0-4.0-0.1","subject_id":"5f54c086c8cfea824fed2cc3","study_id":"6197b3f67c2b5cd3b6d9596a","session_id":"619bef06ce4e9678a6c5277c","condition":"contingent","relevant_dimensions":["pattern","legs"],"bee_group":{"antennae":"X","wings":"X","pattern":"D","legs":"M"},"action":"harvest","summary":"good-harvest","bonus":0.6800000000000013},{"rt":13135,"stimulus":"\n                    <p><b>Action: <em>harvest</em></b></p>\n                    <p>This is the bee that you just saw.</p>\n                    <img src=\"bees-with-color/bee-B1SM.svg\" width=\"200\">\n                    <p><span class=\"greenText\"><b>Successful harvest!</b></span><br>Your pay has increased by $0.02. Your bonus pay is now $0.58.</p>\n            ","response":0,"trial_type":"html-button-response","trial_index":10,"time_elapsed":458995,"internal_node_id":"0.0-4.0-1.1","subject_id":"5f54c086c8cfea824fed2cc3","study_id":"6197b3f67c2b5cd3b6d9596a","session_id":"619bef06ce4e9678a6c5277c","condition":"contingent","relevant_dimensions":["pattern","legs"],"bee_group":{"antennae":"X","wings":"X","pattern":"D","legs":"M"},"bonus":0.6800000000000013},{"rt":4460,"stimulus":"bees-with-color/bee-B2SF.svg","response":1,"trial_type":"image-button-response","trial_index":11,"time_elapsed":463457,"internal_node_id":"0.0-4.0-0.2","subject_id":"5f54c086c8cfea824fed2cc3","study_id":"6197b3f67c2b5cd3b6d9596a","session_id":"619bef06ce4e9678a6c5277c","condition":"contingent","relevant_dimensions":["pattern","legs"],"bee_group":{"antennae":"X","wings":"X","pattern":"D","legs":"M"},"action":"avoid","summary":"bad-avoid","bonus":0.6800000000000013},{"rt":11471,"stimulus":"\n                    <p><b>Action: <em>avoid</em></b></p>\n                    <p>This is the bee that you just saw.</p>\n                    <img src=\"bees-with-color/bee-B2SF.svg\" width=\"200\">\n                    <p><br>Your bonus pay is unchanged, and remains at $0.58.</p>\n            ","response":0,"trial_type":"html-button-response","trial_index":12,"time_elapsed":474931,"internal_node_id":"0.0-4.0-1.2","subject_id":"5f54c086c8cfea824fed2cc3","study_id":"6197b3f67c2b5cd3b6d9596a","session_id":"619bef06ce4e9678a6c5277c","condition":"contingent","relevant_dimensions":["pattern","legs"],"bee_group":{"antennae":"X","wings":"X","pattern":"D","legs":"M"},"bonus":0.6800000000000013},{"rt":6516,"stimulus":"bees-with-color/bee-B1SF.svg","response":0,"trial_type":"image-button-response","trial_index":13,"time_elapsed":481448,"internal_node_id":"0.0-4.0-0.3","subject_id":"5f54c086c8cfea824fed2cc3","study_id":"6197b3f67c2b5cd3b6d9596a","session_id":"619bef06ce4e9678a6c5277c","condition":"contingent","relevant_dimensions":["pattern","legs"],"bee_group":{"antennae":"X","wings":"X","pattern":"D","legs":"M"},"action":"harvest","summary":"good-harvest","bonus":0.6800000000000013},{"rt":8191,"stimulus":"\n                    <p><b>Action: <em>harvest</em></b></p>\n                    <p>This is the bee that you just saw.</p>\n                    <img src=\"bees-with-color/bee-B1SF.svg\" width=\"200\">\n                    <p><span class=\"greenText\"><b>Successful harvest!</b></span><br>Your pay has increased by $0.02. Your bonus pay is now $0.60.</p>\n            ","response":0,"trial_type":"html-button-response","trial_index":14,"time_elapsed":489642,"internal_node_id":"0.0-4.0-1.3","subject_id":"5f54c086c8cfea824fed2cc3","study_id":"6197b3f67c2b5cd3b6d9596a","session_id":"619bef06ce4e9678a6c5277c","condition":"contingent","relevant_dimensions":["pattern","legs"],"bee_group":{"antennae":"X","wings":"X","pattern":"D","legs":"M"},"bonus":0.6800000000000013},{"rt":2744,"stimulus":"bees-with-color/bee-B2SM.svg","response":1,"trial_type":"image-button-response","trial_index":15,"time_elapsed":492388,"internal_node_id":"0.0-4.0-0.4","subject_id":"5f54c086c8cfea824fed2cc3","study_id":"6197b3f67c2b5cd3b6d9596a","session_id":"619bef06ce4e9678a6c5277c","condition":"contingent","relevant_dimensions":["pattern","legs"],"bee_group":{"antennae":"X","wings":"X","pattern":"D","legs":"M"},"action":"avoid","summary":"bad-avoid","bonus":0.6800000000000013},{"rt":4754,"stimulus":"\n                    <p><b>Action: <em>avoid</em></b></p>\n                    <p>This is the bee that you just saw.</p>\n                    <img src=\"bees-with-color/bee-B2SM.svg\" width=\"200\">\n                    <p><br>Your bonus pay is unchanged, and remains at $0.60.</p>\n            ","response":0,"trial_type":"html-button-response","trial_index":16,"time_elapsed":497143,"internal_node_id":"0.0-4.0-1.4","subject_id":"5f54c086c8cfea824fed2cc3","study_id":"6197b3f67c2b5cd3b6d9596a","session_id":"619bef06ce4e9678a6c5277c","condition":"contingent","relevant_dimensions":["pattern","legs"],"bee_group":{"antennae":"X","wings":"X","pattern":"D","legs":"M"},"bonus":0.6800000000000013},{"rt":3091,"stimulus":"bees-with-color/bee-A1DM.svg","response":1,"trial_type":"image-button-response","trial_index":17,"time_elapsed":500235,"internal_node_id":"0.0-4.0-0.5","subject_id":"5f54c086c8cfea824fed2cc3","study_id":"6197b3f67c2b5cd3b6d9596a","session_id":"619bef06ce4e9678a6c5277c","condition":"contingent","relevant_dimensions":["pattern","legs"],"bee_group":{"antennae":"X","wings":"X","pattern":"D","legs":"M"},"action":"avoid","summary":"good-avoid","bonus":0.6800000000000013},{"rt":8206,"stimulus":"\n                    <p><b>Action: <em>avoid</em></b></p>\n                    <p>This is the bee that you just saw.</p>\n                    <img src=\"bees-with-color/bee-A1DM.svg\" width=\"200\">\n                    <p><br>Your bonus pay is unchanged, and remains at $0.60.</p>\n            ","response":0,"trial_type":"html-button-response","trial_index":18,"time_elapsed":508444,"internal_node_id":"0.0-4.0-1.5","subject_id":"5f54c086c8cfea824fed2cc3","study_id":"6197b3f67c2b5cd3b6d9596a","session_id":"619bef06ce4e9678a6c5277c","condition":"contingent","relevant_dimensions":["pattern","legs"],"bee_group":{"antennae":"X","wings":"X","pattern":"D","legs":"M"},"bonus":0.6800000000000013},{"rt":3923,"stimulus":"bees-with-color/bee-A2SM.svg","response":0,"trial_type":"image-button-response","trial_index":19,"time_elapsed":512368,"internal_node_id":"0.0-4.0-0.6","subject_id":"5f54c086c8cfea824fed2cc3","study_id":"6197b3f67c2b5cd3b6d9596a","session_id":"619bef06ce4e9678a6c5277c","condition":"contingent","relevant_dimensions":["pattern","legs"],"bee_group":{"antennae":"X","wings":"X","pattern":"D","legs":"M"},"action":"harvest","summary":"good-harvest","bonus":0.6800000000000013},{"rt":6093,"stimulus":"\n                    <p><b>Action: <em>harvest</em></b></p>\n                    <p>This is the bee that you just saw.</p>\n                    <img src=\"bees-with-color/bee-A2SM.svg\" width=\"200\">\n                    <p><span class=\"greenText\"><b>Successful harvest!</b></span><br>Your pay has increased by $0.02. Your bonus pay is now $0.62.</p>\n            ","response":0,"trial_type":"html-button-response","trial_index":20,"time_elapsed":518463,"internal_node_id":"0.0-4.0-1.6","subject_id":"5f54c086c8cfea824fed2cc3","study_id":"6197b3f67c2b5cd3b6d9596a","session_id":"619bef06ce4e9678a6c5277c","condition":"contingent","relevant_dimensions":["pattern","legs"],"bee_group":{"antennae":"X","wings":"X","pattern":"D","legs":"M"},"bonus":0.6800000000000013},{"rt":4320,"stimulus":"bees-with-color/bee-A2DM.svg","response":1,"trial_type":"image-button-response","trial_index":21,"time_elapsed":522784,"internal_node_id":"0.0-4.0-0.7","subject_id":"5f54c086c8cfea824fed2cc3","study_id":"6197b3f67c2b5cd3b6d9596a","session_id":"619bef06ce4e9678a6c5277c","condition":"contingent","relevant_dimensions":["pattern","legs"],"bee_group":{"antennae":"X","wings":"X","pattern":"D","legs":"M"},"action":"avoid","summary":"good-avoid","bonus":0.6800000000000013},{"rt":4857,"stimulus":"\n                    <p><b>Action: <em>avoid</em></b></p>\n                    <p>This is the bee that you just saw.</p>\n                    <img src=\"bees-with-color/bee-A2DM.svg\" width=\"200\">\n                    <p><br>Your bonus pay is unchanged, and remains at $0.62.</p>\n            ","response":0,"trial_type":"html-button-response","trial_index":22,"time_elapsed":527643,"internal_node_id":"0.0-4.0-1.7","subject_id":"5f54c086c8cfea824fed2cc3","study_id":"6197b3f67c2b5cd3b6d9596a","session_id":"619bef06ce4e9678a6c5277c","condition":"contingent","relevant_dimensions":["pattern","legs"],"bee_group":{"antennae":"X","wings":"X","pattern":"D","legs":"M"},"bonus":0.6800000000000013},{"rt":3467,"stimulus":"bees-with-color/bee-A1DF.svg","response":0,"trial_type":"image-button-response","trial_index":23,"time_elapsed":531111,"internal_node_id":"0.0-4.0-0.8","subject_id":"5f54c086c8cfea824fed2cc3","study_id":"6197b3f67c2b5cd3b6d9596a","session_id":"619bef06ce4e9678a6c5277c","condition":"contingent","relevant_dimensions":["pattern","legs"],"bee_group":{"antennae":"X","wings":"X","pattern":"D","legs":"M"},"action":"harvest","summary":"good-harvest","bonus":0.6800000000000013},{"rt":3406,"stimulus":"\n                    <p><b>Action: <em>harvest</em></b></p>\n                    <p>This is the bee that you just saw.</p>\n                    <img src=\"bees-with-color/bee-A1DF.svg\" width=\"200\">\n                    <p><span class=\"greenText\"><b>Successful harvest!</b></span><br>Your pay has increased by $0.02. Your bonus pay is now $0.64.</p>\n            ","response":0,"trial_type":"html-button-response","trial_index":24,"time_elapsed":534519,"internal_node_id":"0.0-4.0-1.8","subject_id":"5f54c086c8cfea824fed2cc3","study_id":"6197b3f67c2b5cd3b6d9596a","session_id":"619bef06ce4e9678a6c5277c","condition":"contingent","relevant_dimensions":["pattern","legs"],"bee_group":{"antennae":"X","wings":"X","pattern":"D","legs":"M"},"bonus":0.6800000000000013},{"rt":4475,"stimulus":"bees-with-color/bee-B2DM.svg","response":1,"trial_type":"image-button-response","trial_index":25,"time_elapsed":538995,"internal_node_id":"0.0-4.0-0.9","subject_id":"5f54c086c8cfea824fed2cc3","study_id":"6197b3f67c2b5cd3b6d9596a","session_id":"619bef06ce4e9678a6c5277c","condition":"contingent","relevant_dimensions":["pattern","legs"],"bee_group":{"antennae":"X","wings":"X","pattern":"D","legs":"M"},"action":"avoid","summary":"good-avoid","bonus":0.6800000000000013},{"rt":2333,"stimulus":"\n                    <p><b>Action: <em>avoid</em></b></p>\n                    <p>This is the bee that you just saw.</p>\n                    <img src=\"bees-with-color/bee-B2DM.svg\" width=\"200\">\n                    <p><br>Your bonus pay is unchanged, and remains at $0.64.</p>\n            ","response":0,"trial_type":"html-button-response","trial_index":26,"time_elapsed":541329,"internal_node_id":"0.0-4.0-1.9","subject_id":"5f54c086c8cfea824fed2cc3","study_id":"6197b3f67c2b5cd3b6d9596a","session_id":"619bef06ce4e9678a6c5277c","condition":"contingent","relevant_dimensions":["pattern","legs"],"bee_group":{"antennae":"X","wings":"X","pattern":"D","legs":"M"},"bonus":0.6800000000000013},{"rt":2171,"stimulus":"bees-with-color/bee-A1SF.svg","response":0,"trial_type":"image-button-response","trial_index":27,"time_elapsed":543500,"internal_node_id":"0.0-4.0-0.10","subject_id":"5f54c086c8cfea824fed2cc3","study_id":"6197b3f67c2b5cd3b6d9596a","session_id":"619bef06ce4e9678a6c5277c","condition":"contingent","relevant_dimensions":["pattern","legs"],"bee_group":{"antennae":"X","wings":"X","pattern":"D","legs":"M"},"action":"harvest","summary":"good-harvest","bonus":0.6800000000000013},{"rt":3450,"stimulus":"\n                    <p><b>Action: <em>harvest</em></b></p>\n                    <p>This is the bee that you just saw.</p>\n                    <img src=\"bees-with-color/bee-A1SF.svg\" width=\"200\">\n                    <p><span class=\"greenText\"><b>Successful harvest!</b></span><br>Your pay has increased by $0.02. Your bonus pay is now $0.66.</p>\n            ","response":0,"trial_type":"html-button-response","trial_index":28,"time_elapsed":546952,"internal_node_id":"0.0-4.0-1.10","subject_id":"5f54c086c8cfea824fed2cc3","study_id":"6197b3f67c2b5cd3b6d9596a","session_id":"619bef06ce4e9678a6c5277c","condition":"contingent","relevant_dimensions":["pattern","legs"],"bee_group":{"antennae":"X","wings":"X","pattern":"D","legs":"M"},"bonus":0.6800000000000013},{"rt":2980,"stimulus":"bees-with-color/bee-B2DF.svg","response":0,"trial_type":"image-button-response","trial_index":29,"time_elapsed":549933,"internal_node_id":"0.0-4.0-0.11","subject_id":"5f54c086c8cfea824fed2cc3","study_id":"6197b3f67c2b5cd3b6d9596a","session_id":"619bef06ce4e9678a6c5277c","condition":"contingent","relevant_dimensions":["pattern","legs"],"bee_group":{"antennae":"X","wings":"X","pattern":"D","legs":"M"},"action":"harvest","summary":"good-harvest","bonus":0.6800000000000013},{"rt":2265,"stimulus":"\n                    <p><b>Action: <em>harvest</em></b></p>\n                    <p>This is the bee that you just saw.</p>\n                    <img src=\"bees-with-color/bee-B2DF.svg\" width=\"200\">\n                    <p><span class=\"greenText\"><b>Successful harvest!</b></span><br>Your pay has increased by $0.02. Your bonus pay is now $0.68.</p>\n            ","response":0,"trial_type":"html-button-response","trial_index":30,"time_elapsed":552200,"internal_node_id":"0.0-4.0-1.11","subject_id":"5f54c086c8cfea824fed2cc3","study_id":"6197b3f67c2b5cd3b6d9596a","session_id":"619bef06ce4e9678a6c5277c","condition":"contingent","relevant_dimensions":["pattern","legs"],"bee_group":{"antennae":"X","wings":"X","pattern":"D","legs":"M"},"bonus":0.6800000000000013},{"rt":2266,"stimulus":"bees-with-color/bee-A1SM.svg","response":0,"trial_type":"image-button-response","trial_index":31,"time_elapsed":554467,"internal_node_id":"0.0-4.0-0.12","subject_id":"5f54c086c8cfea824fed2cc3","study_id":"6197b3f67c2b5cd3b6d9596a","session_id":"619bef06ce4e9678a6c5277c","condition":"contingent","relevant_dimensions":["pattern","legs"],"bee_group":{"antennae":"X","wings":"X","pattern":"D","legs":"M"},"action":"harvest","summary":"good-harvest","bonus":0.6800000000000013},{"rt":3407,"stimulus":"\n                    <p><b>Action: <em>harvest</em></b></p>\n                    <p>This is the bee that you just saw.</p>\n                    <img src=\"bees-with-color/bee-A1SM.svg\" width=\"200\">\n                    <p><span class=\"greenText\"><b>Successful harvest!</b></span><br>Your pay has increased by $0.02. Your bonus pay is now $0.70.</p>\n            ","response":0,"trial_type":"html-button-response","trial_index":32,"time_elapsed":557875,"internal_node_id":"0.0-4.0-1.12","subject_id":"5f54c086c8cfea824fed2cc3","study_id":"6197b3f67c2b5cd3b6d9596a","session_id":"619bef06ce4e9678a6c5277c","condition":"contingent","relevant_dimensions":["pattern","legs"],"bee_group":{"antennae":"X","wings":"X","pattern":"D","legs":"M"},"bonus":0.6800000000000013},{"rt":3525,"stimulus":"bees-with-color/bee-A2SF.svg","response":0,"trial_type":"image-button-response","trial_index":33,"time_elapsed":561401,"internal_node_id":"0.0-4.0-0.13","subject_id":"5f54c086c8cfea824fed2cc3","study_id":"6197b3f67c2b5cd3b6d9596a","session_id":"619bef06ce4e9678a6c5277c","condition":"contingent","relevant_dimensions":["pattern","legs"],"bee_group":{"antennae":"X","wings":"X","pattern":"D","legs":"M"},"action":"harvest","summary":"good-harvest","bonus":0.6800000000000013},{"rt":2581,"stimulus":"\n                    <p><b>Action: <em>harvest</em></b></p>\n                    <p>This is the bee that you just saw.</p>\n                    <img src=\"bees-with-color/bee-A2SF.svg\" width=\"200\">\n                    <p><span class=\"greenText\"><b>Successful harvest!</b></span><br>Your pay has increased by $0.02. Your bonus pay is now $0.72.</p>\n            ","response":0,"trial_type":"html-button-response","trial_index":34,"time_elapsed":563984,"internal_node_id":"0.0-4.0-1.13","subject_id":"5f54c086c8cfea824fed2cc3","study_id":"6197b3f67c2b5cd3b6d9596a","session_id":"619bef06ce4e9678a6c5277c","condition":"contingent","relevant_dimensions":["pattern","legs"],"bee_group":{"antennae":"X","wings":"X","pattern":"D","legs":"M"},"bonus":0.6800000000000013},{"rt":2242,"stimulus":"bees-with-color/bee-B1DF.svg","response":1,"trial_type":"image-button-response","trial_index":35,"time_elapsed":566229,"internal_node_id":"0.0-4.0-0.14","subject_id":"5f54c086c8cfea824fed2cc3","study_id":"6197b3f67c2b5cd3b6d9596a","session_id":"619bef06ce4e9678a6c5277c","condition":"contingent","relevant_dimensions":["pattern","legs"],"bee_group":{"antennae":"X","wings":"X","pattern":"D","legs":"M"},"action":"avoid","summary":"bad-avoid","bonus":0.6800000000000013},{"rt":1597,"stimulus":"\n                    <p><b>Action: <em>avoid</em></b></p>\n                    <p>This is the bee that you just saw.</p>\n                    <img src=\"bees-with-color/bee-B1DF.svg\" width=\"200\">\n                    <p><br>Your bonus pay is unchanged, and remains at $0.72.</p>\n            ","response":0,"trial_type":"html-button-response","trial_index":36,"time_elapsed":567827,"internal_node_id":"0.0-4.0-1.14","subject_id":"5f54c086c8cfea824fed2cc3","study_id":"6197b3f67c2b5cd3b6d9596a","session_id":"619bef06ce4e9678a6c5277c","condition":"contingent","relevant_dimensions":["pattern","legs"],"bee_group":{"antennae":"X","wings":"X","pattern":"D","legs":"M"},"bonus":0.6800000000000013},{"rt":1516,"stimulus":"bees-with-color/bee-B1DM.svg","response":0,"trial_type":"image-button-response","trial_index":37,"time_elapsed":569343,"internal_node_id":"0.0-4.0-0.15","subject_id":"5f54c086c8cfea824fed2cc3","study_id":"6197b3f67c2b5cd3b6d9596a","session_id":"619bef06ce4e9678a6c5277c","condition":"contingent","relevant_dimensions":["pattern","legs"],"bee_group":{"antennae":"X","wings":"X","pattern":"D","legs":"M"},"action":"harvest","summary":"bad-harvest","bonus":0.6800000000000013},{"rt":7895,"stimulus":"\n                    <p><b>Action: <em>harvest</em></b></p>\n                    <p>This is the bee that you just saw.</p>\n                    <img src=\"bees-with-color/bee-B1DM.svg\" width=\"200\">\n                    <p><span class=\"redText\">Bad choice, the bee was angry.</span><br><b>You have been stung!</b><br>Your pay has been decreased by $0.10. Your bonus pay is now $0.62.</p>\n            ","response":0,"trial_type":"html-button-response","trial_index":38,"time_elapsed":577238,"internal_node_id":"0.0-4.0-1.15","subject_id":"5f54c086c8cfea824fed2cc3","study_id":"6197b3f67c2b5cd3b6d9596a","session_id":"619bef06ce4e9678a6c5277c","condition":"contingent","relevant_dimensions":["pattern","legs"],"bee_group":{"antennae":"X","wings":"X","pattern":"D","legs":"M"},"bonus":0.6800000000000013},{"rt":1993,"stimulus":"bees-with-color/bee-A1DF.svg","response":0,"trial_type":"image-button-response","trial_index":39,"time_elapsed":579233,"internal_node_id":"0.0-4.0-0.16","subject_id":"5f54c086c8cfea824fed2cc3","study_id":"6197b3f67c2b5cd3b6d9596a","session_id":"619bef06ce4e9678a6c5277c","condition":"contingent","relevant_dimensions":["pattern","legs"],"bee_group":{"antennae":"X","wings":"X","pattern":"D","legs":"M"},"action":"harvest","summary":"good-harvest","bonus":0.6800000000000013},{"rt":2060,"stimulus":"\n                    <p><b>Action: <em>harvest</em></b></p>\n                    <p>This is the bee that you just saw.</p>\n                    <img src=\"bees-with-color/bee-A1DF.svg\" width=\"200\">\n                    <p><span class=\"greenText\"><b>Successful harvest!</b></span><br>Your pay has increased by $0.02. Your bonus pay is now $0.64.</p>\n            ","response":0,"trial_type":"html-button-response","trial_index":40,"time_elapsed":581295,"internal_node_id":"0.0-4.0-1.16","subject_id":"5f54c086c8cfea824fed2cc3","study_id":"6197b3f67c2b5cd3b6d9596a","session_id":"619bef06ce4e9678a6c5277c","condition":"contingent","relevant_dimensions":["pattern","legs"],"bee_group":{"antennae":"X","wings":"X","pattern":"D","legs":"M"},"bonus":0.6800000000000013},{"rt":2898,"stimulus":"bees-with-color/bee-B2SM.svg","response":0,"trial_type":"image-button-response","trial_index":41,"time_elapsed":584195,"internal_node_id":"0.0-4.0-0.17","subject_id":"5f54c086c8cfea824fed2cc3","study_id":"6197b3f67c2b5cd3b6d9596a","session_id":"619bef06ce4e9678a6c5277c","condition":"contingent","relevant_dimensions":["pattern","legs"],"bee_group":{"antennae":"X","wings":"X","pattern":"D","legs":"M"},"action":"harvest","summary":"good-harvest","bonus":0.6800000000000013},{"rt":1641,"stimulus":"\n                    <p><b>Action: <em>harvest</em></b></p>\n                    <p>This is the bee that you just saw.</p>\n                    <img src=\"bees-with-color/bee-B2SM.svg\" width=\"200\">\n                    <p><span class=\"greenText\"><b>Successful harvest!</b></span><br>Your pay has increased by $0.02. Your bonus pay is now $0.66.</p>\n            ","response":0,"trial_type":"html-button-response","trial_index":42,"time_elapsed":585836,"internal_node_id":"0.0-4.0-1.17","subject_id":"5f54c086c8cfea824fed2cc3","study_id":"6197b3f67c2b5cd3b6d9596a","session_id":"619bef06ce4e9678a6c5277c","condition":"contingent","relevant_dimensions":["pattern","legs"],"bee_group":{"antennae":"X","wings":"X","pattern":"D","legs":"M"},"bonus":0.6800000000000013},{"rt":1771,"stimulus":"bees-with-color/bee-A2SM.svg","response":0,"trial_type":"image-button-response","trial_index":43,"time_elapsed":587609,"internal_node_id":"0.0-4.0-0.18","subject_id":"5f54c086c8cfea824fed2cc3","study_id":"6197b3f67c2b5cd3b6d9596a","session_id":"619bef06ce4e9678a6c5277c","condition":"contingent","relevant_dimensions":["pattern","legs"],"bee_group":{"antennae":"X","wings":"X","pattern":"D","legs":"M"},"action":"harvest","summary":"good-harvest","bonus":0.6800000000000013},{"rt":1781,"stimulus":"\n                    <p><b>Action: <em>harvest</em></b></p>\n                    <p>This is the bee that you just saw.</p>\n                    <img src=\"bees-with-color/bee-A2SM.svg\" width=\"200\">\n                    <p><span class=\"greenText\"><b>Successful harvest!</b></span><br>Your pay has increased by $0.02. Your bonus pay is now $0.68.</p>\n            ","response":0,"trial_type":"html-button-response","trial_index":44,"time_elapsed":589390,"internal_node_id":"0.0-4.0-1.18","subject_id":"5f54c086c8cfea824fed2cc3","study_id":"6197b3f67c2b5cd3b6d9596a","session_id":"619bef06ce4e9678a6c5277c","condition":"contingent","relevant_dimensions":["pattern","legs"],"bee_group":{"antennae":"X","wings":"X","pattern":"D","legs":"M"},"bonus":0.6800000000000013},{"rt":3415,"stimulus":"bees-with-color/bee-B2DF.svg","response":1,"trial_type":"image-button-response","trial_index":45,"time_elapsed":592805,"internal_node_id":"0.0-4.0-0.19","subject_id":"5f54c086c8cfea824fed2cc3","study_id":"6197b3f67c2b5cd3b6d9596a","session_id":"619bef06ce4e9678a6c5277c","condition":"contingent","relevant_dimensions":["pattern","legs"],"bee_group":{"antennae":"X","wings":"X","pattern":"D","legs":"M"},"action":"avoid","summary":"bad-avoid","bonus":0.6800000000000013},{"rt":1846,"stimulus":"\n                    <p><b>Action: <em>avoid</em></b></p>\n                    <p>This is the bee that you just saw.</p>\n                    <img src=\"bees-with-color/bee-B2DF.svg\" width=\"200\">\n                    <p><br>Your bonus pay is unchanged, and remains at $0.68.</p>\n            ","response":0,"trial_type":"html-button-response","trial_index":46,"time_elapsed":594654,"internal_node_id":"0.0-4.0-1.19","subject_id":"5f54c086c8cfea824fed2cc3","study_id":"6197b3f67c2b5cd3b6d9596a","session_id":"619bef06ce4e9678a6c5277c","condition":"contingent","relevant_dimensions":["pattern","legs"],"bee_group":{"antennae":"X","wings":"X","pattern":"D","legs":"M"},"bonus":0.6800000000000013},{"rt":2185,"stimulus":"bees-with-color/bee-B1SM.svg","response":0,"trial_type":"image-button-response","trial_index":47,"time_elapsed":596840,"internal_node_id":"0.0-4.0-0.20","subject_id":"5f54c086c8cfea824fed2cc3","study_id":"6197b3f67c2b5cd3b6d9596a","session_id":"619bef06ce4e9678a6c5277c","condition":"contingent","relevant_dimensions":["pattern","legs"],"bee_group":{"antennae":"X","wings":"X","pattern":"D","legs":"M"},"action":"harvest","summary":"good-harvest","bonus":0.6800000000000013},{"rt":1603,"stimulus":"\n                    <p><b>Action: <em>harvest</em></b></p>\n                    <p>This is the bee that you just saw.</p>\n                    <img src=\"bees-with-color/bee-B1SM.svg\" width=\"200\">\n                    <p><span class=\"greenText\"><b>Successful harvest!</b></span><br>Your pay has increased by $0.02. Your bonus pay is now $0.70.</p>\n            ","response":0,"trial_type":"html-button-response","trial_index":48,"time_elapsed":598444,"internal_node_id":"0.0-4.0-1.20","subject_id":"5f54c086c8cfea824fed2cc3","study_id":"6197b3f67c2b5cd3b6d9596a","session_id":"619bef06ce4e9678a6c5277c","condition":"contingent","relevant_dimensions":["pattern","legs"],"bee_group":{"antennae":"X","wings":"X","pattern":"D","legs":"M"},"bonus":0.6800000000000013},{"rt":2316,"stimulus":"bees-with-color/bee-A1DM.svg","response":0,"trial_type":"image-button-response","trial_index":49,"time_elapsed":600763,"internal_node_id":"0.0-4.0-0.21","subject_id":"5f54c086c8cfea824fed2cc3","study_id":"6197b3f67c2b5cd3b6d9596a","session_id":"619bef06ce4e9678a6c5277c","condition":"contingent","relevant_dimensions":["pattern","legs"],"bee_group":{"antennae":"X","wings":"X","pattern":"D","legs":"M"},"action":"harvest","summary":"bad-harvest","bonus":0.6800000000000013},{"rt":1551,"stimulus":"\n                    <p><b>Action: <em>harvest</em></b></p>\n                    <p>This is the bee that you just saw.</p>\n                    <img src=\"bees-with-color/bee-A1DM.svg\" width=\"200\">\n                    <p><span class=\"redText\">Bad choice, the bee was angry.</span><br><b>You have been stung!</b><br>Your pay has been decreased by $0.10. Your bonus pay is now $0.60.</p>\n            ","response":0,"trial_type":"html-button-response","trial_index":50,"time_elapsed":602315,"internal_node_id":"0.0-4.0-1.21","subject_id":"5f54c086c8cfea824fed2cc3","study_id":"6197b3f67c2b5cd3b6d9596a","session_id":"619bef06ce4e9678a6c5277c","condition":"contingent","relevant_dimensions":["pattern","legs"],"bee_group":{"antennae":"X","wings":"X","pattern":"D","legs":"M"},"bonus":0.6800000000000013},{"rt":1934,"stimulus":"bees-with-color/bee-A2DF.svg","response":0,"trial_type":"image-button-response","trial_index":51,"time_elapsed":604252,"internal_node_id":"0.0-4.0-0.22","subject_id":"5f54c086c8cfea824fed2cc3","study_id":"6197b3f67c2b5cd3b6d9596a","session_id":"619bef06ce4e9678a6c5277c","condition":"contingent","relevant_dimensions":["pattern","legs"],"bee_group":{"antennae":"X","wings":"X","pattern":"D","legs":"M"},"action":"harvest","summary":"good-harvest","bonus":0.6800000000000013},{"rt":1478,"stimulus":"\n                    <p><b>Action: <em>harvest</em></b></p>\n                    <p>This is the bee that you just saw.</p>\n                    <img src=\"bees-with-color/bee-A2DF.svg\" width=\"200\">\n                    <p><span class=\"greenText\"><b>Successful harvest!</b></span><br>Your pay has increased by $0.02. Your bonus pay is now $0.62.</p>\n            ","response":0,"trial_type":"html-button-response","trial_index":52,"time_elapsed":605731,"internal_node_id":"0.0-4.0-1.22","subject_id":"5f54c086c8cfea824fed2cc3","study_id":"6197b3f67c2b5cd3b6d9596a","session_id":"619bef06ce4e9678a6c5277c","condition":"contingent","relevant_dimensions":["pattern","legs"],"bee_group":{"antennae":"X","wings":"X","pattern":"D","legs":"M"},"bonus":0.6800000000000013},{"rt":3016,"stimulus":"bees-with-color/bee-B2DM.svg","response":0,"trial_type":"image-button-response","trial_index":53,"time_elapsed":608749,"internal_node_id":"0.0-4.0-0.23","subject_id":"5f54c086c8cfea824fed2cc3","study_id":"6197b3f67c2b5cd3b6d9596a","session_id":"619bef06ce4e9678a6c5277c","condition":"contingent","relevant_dimensions":["pattern","legs"],"bee_group":{"antennae":"X","wings":"X","pattern":"D","legs":"M"},"action":"harvest","summary":"bad-harvest","bonus":0.6800000000000013},{"rt":1521,"stimulus":"\n                    <p><b>Action: <em>harvest</em></b></p>\n                    <p>This is the bee that you just saw.</p>\n                    <img src=\"bees-with-color/bee-B2DM.svg\" width=\"200\">\n                    <p><span class=\"redText\">Bad choice, the bee was angry.</span><br><b>You have been stung!</b><br>Your pay has been decreased by $0.10. Your bonus pay is now $0.52.</p>\n            ","response":0,"trial_type":"html-button-response","trial_index":54,"time_elapsed":610272,"internal_node_id":"0.0-4.0-1.23","subject_id":"5f54c086c8cfea824fed2cc3","study_id":"6197b3f67c2b5cd3b6d9596a","session_id":"619bef06ce4e9678a6c5277c","condition":"contingent","relevant_dimensions":["pattern","legs"],"bee_group":{"antennae":"X","wings":"X","pattern":"D","legs":"M"},"bonus":0.6800000000000013},{"rt":1758,"stimulus":"bees-with-color/bee-A1SM.svg","response":0,"trial_type":"image-button-response","trial_index":55,"time_elapsed":612031,"internal_node_id":"0.0-4.0-0.24","subject_id":"5f54c086c8cfea824fed2cc3","study_id":"6197b3f67c2b5cd3b6d9596a","session_id":"619bef06ce4e9678a6c5277c","condition":"contingent","relevant_dimensions":["pattern","legs"],"bee_group":{"antennae":"X","wings":"X","pattern":"D","legs":"M"},"action":"harvest","summary":"good-harvest","bonus":0.6800000000000013},{"rt":1404,"stimulus":"\n                    <p><b>Action: <em>harvest</em></b></p>\n                    <p>This is the bee that you just saw.</p>\n                    <img src=\"bees-with-color/bee-A1SM.svg\" width=\"200\">\n                    <p><span class=\"greenText\"><b>Successful harvest!</b></span><br>Your pay has increased by $0.02. Your bonus pay is now $0.54.</p>\n            ","response":0,"trial_type":"html-button-response","trial_index":56,"time_elapsed":613437,"internal_node_id":"0.0-4.0-1.24","subject_id":"5f54c086c8cfea824fed2cc3","study_id":"6197b3f67c2b5cd3b6d9596a","session_id":"619bef06ce4e9678a6c5277c","condition":"contingent","relevant_dimensions":["pattern","legs"],"bee_group":{"antennae":"X","wings":"X","pattern":"D","legs":"M"},"bonus":0.6800000000000013},{"rt":1448,"stimulus":"bees-with-color/bee-A2SF.svg","response":0,"trial_type":"image-button-response","trial_index":57,"time_elapsed":614886,"internal_node_id":"0.0-4.0-0.25","subject_id":"5f54c086c8cfea824fed2cc3","study_id":"6197b3f67c2b5cd3b6d9596a","session_id":"619bef06ce4e9678a6c5277c","condition":"contingent","relevant_dimensions":["pattern","legs"],"bee_group":{"antennae":"X","wings":"X","pattern":"D","legs":"M"},"action":"harvest","summary":"good-harvest","bonus":0.6800000000000013},{"rt":1566,"stimulus":"\n                    <p><b>Action: <em>harvest</em></b></p>\n                    <p>This is the bee that you just saw.</p>\n                    <img src=\"bees-with-color/bee-A2SF.svg\" width=\"200\">\n                    <p><span class=\"greenText\"><b>Successful harvest!</b></span><br>Your pay has increased by $0.02. Your bonus pay is now $0.56.</p>\n            ","response":0,"trial_type":"html-button-response","trial_index":58,"time_elapsed":616454,"internal_node_id":"0.0-4.0-1.25","subject_id":"5f54c086c8cfea824fed2cc3","study_id":"6197b3f67c2b5cd3b6d9596a","session_id":"619bef06ce4e9678a6c5277c","condition":"contingent","relevant_dimensions":["pattern","legs"],"bee_group":{"antennae":"X","wings":"X","pattern":"D","legs":"M"},"bonus":0.6800000000000013},{"rt":1492,"stimulus":"bees-with-color/bee-B2SF.svg","response":0,"trial_type":"image-button-response","trial_index":59,"time_elapsed":617946,"internal_node_id":"0.0-4.0-0.26","subject_id":"5f54c086c8cfea824fed2cc3","study_id":"6197b3f67c2b5cd3b6d9596a","session_id":"619bef06ce4e9678a6c5277c","condition":"contingent","relevant_dimensions":["pattern","legs"],"bee_group":{"antennae":"X","wings":"X","pattern":"D","legs":"M"},"action":"harvest","summary":"good-harvest","bonus":0.6800000000000013},{"rt":1457,"stimulus":"\n                    <p><b>Action: <em>harvest</em></b></p>\n                    <p>This is the bee that you just saw.</p>\n                    <img src=\"bees-with-color/bee-B2SF.svg\" width=\"200\">\n                    <p><span class=\"greenText\"><b>Successful harvest!</b></span><br>Your pay has increased by $0.02. Your bonus pay is now $0.58.</p>\n            ","response":0,"trial_type":"html-button-response","trial_index":60,"time_elapsed":619405,"internal_node_id":"0.0-4.0-1.26","subject_id":"5f54c086c8cfea824fed2cc3","study_id":"6197b3f67c2b5cd3b6d9596a","session_id":"619bef06ce4e9678a6c5277c","condition":"contingent","relevant_dimensions":["pattern","legs"],"bee_group":{"antennae":"X","wings":"X","pattern":"D","legs":"M"},"bonus":0.6800000000000013},{"rt":1477,"stimulus":"bees-with-color/bee-A2DM.svg","response":1,"trial_type":"image-button-response","trial_index":61,"time_elapsed":620883,"internal_node_id":"0.0-4.0-0.27","subject_id":"5f54c086c8cfea824fed2cc3","study_id":"6197b3f67c2b5cd3b6d9596a","session_id":"619bef06ce4e9678a6c5277c","condition":"contingent","relevant_dimensions":["pattern","legs"],"bee_group":{"antennae":"X","wings":"X","pattern":"D","legs":"M"},"action":"avoid","summary":"good-avoid","bonus":0.6800000000000013},{"rt":1419,"stimulus":"\n                    <p><b>Action: <em>avoid</em></b></p>\n                    <p>This is the bee that you just saw.</p>\n                    <img src=\"bees-with-color/bee-A2DM.svg\" width=\"200\">\n                    <p><br>Your bonus pay is unchanged, and remains at $0.58.</p>\n            ","response":0,"trial_type":"html-button-response","trial_index":62,"time_elapsed":622304,"internal_node_id":"0.0-4.0-1.27","subject_id":"5f54c086c8cfea824fed2cc3","study_id":"6197b3f67c2b5cd3b6d9596a","session_id":"619bef06ce4e9678a6c5277c","condition":"contingent","relevant_dimensions":["pattern","legs"],"bee_group":{"antennae":"X","wings":"X","pattern":"D","legs":"M"},"bonus":0.6800000000000013},{"rt":1535,"stimulus":"bees-with-color/bee-B1DM.svg","response":1,"trial_type":"image-button-response","trial_index":63,"time_elapsed":623841,"internal_node_id":"0.0-4.0-0.28","subject_id":"5f54c086c8cfea824fed2cc3","study_id":"6197b3f67c2b5cd3b6d9596a","session_id":"619bef06ce4e9678a6c5277c","condition":"contingent","relevant_dimensions":["pattern","legs"],"bee_group":{"antennae":"X","wings":"X","pattern":"D","legs":"M"},"action":"avoid","summary":"good-avoid","bonus":0.6800000000000013},{"rt":1213,"stimulus":"\n                    <p><b>Action: <em>avoid</em></b></p>\n                    <p>This is the bee that you just saw.</p>\n                    <img src=\"bees-with-color/bee-B1DM.svg\" width=\"200\">\n                    <p><br>Your bonus pay is unchanged, and remains at $0.58.</p>\n            ","response":0,"trial_type":"html-button-response","trial_index":64,"time_elapsed":625055,"internal_node_id":"0.0-4.0-1.28","subject_id":"5f54c086c8cfea824fed2cc3","study_id":"6197b3f67c2b5cd3b6d9596a","session_id":"619bef06ce4e9678a6c5277c","condition":"contingent","relevant_dimensions":["pattern","legs"],"bee_group":{"antennae":"X","wings":"X","pattern":"D","legs":"M"},"bonus":0.6800000000000013},{"rt":1404,"stimulus":"bees-with-color/bee-B1SF.svg","response":0,"trial_type":"image-button-response","trial_index":65,"time_elapsed":626461,"internal_node_id":"0.0-4.0-0.29","subject_id":"5f54c086c8cfea824fed2cc3","study_id":"6197b3f67c2b5cd3b6d9596a","session_id":"619bef06ce4e9678a6c5277c","condition":"contingent","relevant_dimensions":["pattern","legs"],"bee_group":{"antennae":"X","wings":"X","pattern":"D","legs":"M"},"action":"harvest","summary":"good-harvest","bonus":0.6800000000000013},{"rt":1471,"stimulus":"\n                    <p><b>Action: <em>harvest</em></b></p>\n                    <p>This is the bee that you just saw.</p>\n                    <img src=\"bees-with-color/bee-B1SF.svg\" width=\"200\">\n                    <p><span class=\"greenText\"><b>Successful harvest!</b></span><br>Your pay has increased by $0.02. Your bonus pay is now $0.60.</p>\n            ","response":0,"trial_type":"html-button-response","trial_index":66,"time_elapsed":627933,"internal_node_id":"0.0-4.0-1.29","subject_id":"5f54c086c8cfea824fed2cc3","study_id":"6197b3f67c2b5cd3b6d9596a","session_id":"619bef06ce4e9678a6c5277c","condition":"contingent","relevant_dimensions":["pattern","legs"],"bee_group":{"antennae":"X","wings":"X","pattern":"D","legs":"M"},"bonus":0.6800000000000013},{"rt":1706,"stimulus":"bees-with-color/bee-B1DF.svg","response":0,"trial_type":"image-button-response","trial_index":67,"time_elapsed":629640,"internal_node_id":"0.0-4.0-0.30","subject_id":"5f54c086c8cfea824fed2cc3","study_id":"6197b3f67c2b5cd3b6d9596a","session_id":"619bef06ce4e9678a6c5277c","condition":"contingent","relevant_dimensions":["pattern","legs"],"bee_group":{"antennae":"X","wings":"X","pattern":"D","legs":"M"},"action":"harvest","summary":"good-harvest","bonus":0.6800000000000013},{"rt":1411,"stimulus":"\n                    <p><b>Action: <em>harvest</em></b></p>\n                    <p>This is the bee that you just saw.</p>\n                    <img src=\"bees-with-color/bee-B1DF.svg\" width=\"200\">\n                    <p><span class=\"greenText\"><b>Successful harvest!</b></span><br>Your pay has increased by $0.02. Your bonus pay is now $0.62.</p>\n            ","response":0,"trial_type":"html-button-response","trial_index":68,"time_elapsed":631053,"internal_node_id":"0.0-4.0-1.30","subject_id":"5f54c086c8cfea824fed2cc3","study_id":"6197b3f67c2b5cd3b6d9596a","session_id":"619bef06ce4e9678a6c5277c","condition":"contingent","relevant_dimensions":["pattern","legs"],"bee_group":{"antennae":"X","wings":"X","pattern":"D","legs":"M"},"bonus":0.6800000000000013},{"rt":1758,"stimulus":"bees-with-color/bee-A1SF.svg","response":0,"trial_type":"image-button-response","trial_index":69,"time_elapsed":632812,"internal_node_id":"0.0-4.0-0.31","subject_id":"5f54c086c8cfea824fed2cc3","study_id":"6197b3f67c2b5cd3b6d9596a","session_id":"619bef06ce4e9678a6c5277c","condition":"contingent","relevant_dimensions":["pattern","legs"],"bee_group":{"antennae":"X","wings":"X","pattern":"D","legs":"M"},"action":"harvest","summary":"good-harvest","bonus":0.6800000000000013},{"rt":1433,"stimulus":"\n                    <p><b>Action: <em>harvest</em></b></p>\n                    <p>This is the bee that you just saw.</p>\n                    <img src=\"bees-with-color/bee-A1SF.svg\" width=\"200\">\n                    <p><span class=\"greenText\"><b>Successful harvest!</b></span><br>Your pay has increased by $0.02. Your bonus pay is now $0.64.</p>\n            ","response":0,"trial_type":"html-button-response","trial_index":70,"time_elapsed":634246,"internal_node_id":"0.0-4.0-1.31","subject_id":"5f54c086c8cfea824fed2cc3","study_id":"6197b3f67c2b5cd3b6d9596a","session_id":"619bef06ce4e9678a6c5277c","condition":"contingent","relevant_dimensions":["pattern","legs"],"bee_group":{"antennae":"X","wings":"X","pattern":"D","legs":"M"},"bonus":0.6800000000000013},{"rt":1742,"stimulus":"bees-with-color/bee-A1DF.svg","response":0,"trial_type":"image-button-response","trial_index":71,"time_elapsed":635990,"internal_node_id":"0.0-4.0-0.32","subject_id":"5f54c086c8cfea824fed2cc3","study_id":"6197b3f67c2b5cd3b6d9596a","session_id":"619bef06ce4e9678a6c5277c","condition":"contingent","relevant_dimensions":["pattern","legs"],"bee_group":{"antennae":"X","wings":"X","pattern":"D","legs":"M"},"action":"harvest","summary":"good-harvest","bonus":0.6800000000000013},{"rt":1500,"stimulus":"\n                    <p><b>Action: <em>harvest</em></b></p>\n                    <p>This is the bee that you just saw.</p>\n                    <img src=\"bees-with-color/bee-A1DF.svg\" width=\"200\">\n                    <p><span class=\"greenText\"><b>Successful harvest!</b></span><br>Your pay has increased by $0.02. Your bonus pay is now $0.66.</p>\n            ","response":0,"trial_type":"html-button-response","trial_index":72,"time_elapsed":637492,"internal_node_id":"0.0-4.0-1.32","subject_id":"5f54c086c8cfea824fed2cc3","study_id":"6197b3f67c2b5cd3b6d9596a","session_id":"619bef06ce4e9678a6c5277c","condition":"contingent","relevant_dimensions":["pattern","legs"],"bee_group":{"antennae":"X","wings":"X","pattern":"D","legs":"M"},"bonus":0.6800000000000013},{"rt":1669,"stimulus":"bees-with-color/bee-A2DM.svg","response":1,"trial_type":"image-button-response","trial_index":73,"time_elapsed":639162,"internal_node_id":"0.0-4.0-0.33","subject_id":"5f54c086c8cfea824fed2cc3","study_id":"6197b3f67c2b5cd3b6d9596a","session_id":"619bef06ce4e9678a6c5277c","condition":"contingent","relevant_dimensions":["pattern","legs"],"bee_group":{"antennae":"X","wings":"X","pattern":"D","legs":"M"},"action":"avoid","summary":"good-avoid","bonus":0.6800000000000013},{"rt":1176,"stimulus":"\n                    <p><b>Action: <em>avoid</em></b></p>\n                    <p>This is the bee that you just saw.</p>\n                    <img src=\"bees-with-color/bee-A2DM.svg\" width=\"200\">\n                    <p><br>Your bonus pay is unchanged, and remains at $0.66.</p>\n            ","response":0,"trial_type":"html-button-response","trial_index":74,"time_elapsed":640339,"internal_node_id":"0.0-4.0-1.33","subject_id":"5f54c086c8cfea824fed2cc3","study_id":"6197b3f67c2b5cd3b6d9596a","session_id":"619bef06ce4e9678a6c5277c","condition":"contingent","relevant_dimensions":["pattern","legs"],"bee_group":{"antennae":"X","wings":"X","pattern":"D","legs":"M"},"bonus":0.6800000000000013},{"rt":2427,"stimulus":"bees-with-color/bee-A2DF.svg","response":1,"trial_type":"image-button-response","trial_index":75,"time_elapsed":642767,"internal_node_id":"0.0-4.0-0.34","subject_id":"5f54c086c8cfea824fed2cc3","study_id":"6197b3f67c2b5cd3b6d9596a","session_id":"619bef06ce4e9678a6c5277c","condition":"contingent","relevant_dimensions":["pattern","legs"],"bee_group":{"antennae":"X","wings":"X","pattern":"D","legs":"M"},"action":"avoid","summary":"bad-avoid","bonus":0.6800000000000013},{"rt":7981,"stimulus":"\n                    <p><b>Action: <em>avoid</em></b></p>\n                    <p>This is the bee that you just saw.</p>\n                    <img src=\"bees-with-color/bee-A2DF.svg\" width=\"200\">\n                    <p><br>Your bonus pay is unchanged, and remains at $0.66.</p>\n            ","response":0,"trial_type":"html-button-response","trial_index":76,"time_elapsed":650750,"internal_node_id":"0.0-4.0-1.34","subject_id":"5f54c086c8cfea824fed2cc3","study_id":"6197b3f67c2b5cd3b6d9596a","session_id":"619bef06ce4e9678a6c5277c","condition":"contingent","relevant_dimensions":["pattern","legs"],"bee_group":{"antennae":"X","wings":"X","pattern":"D","legs":"M"},"bonus":0.6800000000000013},{"rt":2670,"stimulus":"bees-with-color/bee-B2DM.svg","response":1,"trial_type":"image-button-response","trial_index":77,"time_elapsed":653421,"internal_node_id":"0.0-4.0-0.35","subject_id":"5f54c086c8cfea824fed2cc3","study_id":"6197b3f67c2b5cd3b6d9596a","session_id":"619bef06ce4e9678a6c5277c","condition":"contingent","relevant_dimensions":["pattern","legs"],"bee_group":{"antennae":"X","wings":"X","pattern":"D","legs":"M"},"action":"avoid","summary":"good-avoid","bonus":0.6800000000000013},{"rt":1271,"stimulus":"\n                    <p><b>Action: <em>avoid</em></b></p>\n                    <p>This is the bee that you just saw.</p>\n                    <img src=\"bees-with-color/bee-B2DM.svg\" width=\"200\">\n                    <p><br>Your bonus pay is unchanged, and remains at $0.66.</p>\n            ","response":0,"trial_type":"html-button-response","trial_index":78,"time_elapsed":654695,"internal_node_id":"0.0-4.0-1.35","subject_id":"5f54c086c8cfea824fed2cc3","study_id":"6197b3f67c2b5cd3b6d9596a","session_id":"619bef06ce4e9678a6c5277c","condition":"contingent","relevant_dimensions":["pattern","legs"],"bee_group":{"antennae":"X","wings":"X","pattern":"D","legs":"M"},"bonus":0.6800000000000013},{"rt":1978,"stimulus":"bees-with-color/bee-B2DF.svg","response":0,"trial_type":"image-button-response","trial_index":79,"time_elapsed":656675,"internal_node_id":"0.0-4.0-0.36","subject_id":"5f54c086c8cfea824fed2cc3","study_id":"6197b3f67c2b5cd3b6d9596a","session_id":"619bef06ce4e9678a6c5277c","condition":"contingent","relevant_dimensions":["pattern","legs"],"bee_group":{"antennae":"X","wings":"X","pattern":"D","legs":"M"},"action":"harvest","summary":"good-harvest","bonus":0.6800000000000013},{"rt":1558,"stimulus":"\n                    <p><b>Action: <em>harvest</em></b></p>\n                    <p>This is the bee that you just saw.</p>\n                    <img src=\"bees-with-color/bee-B2DF.svg\" width=\"200\">\n                    <p><span class=\"greenText\"><b>Successful harvest!</b></span><br>Your pay has increased by $0.02. Your bonus pay is now $0.68.</p>\n            ","response":0,"trial_type":"html-button-response","trial_index":80,"time_elapsed":658235,"internal_node_id":"0.0-4.0-1.36","subject_id":"5f54c086c8cfea824fed2cc3","study_id":"6197b3f67c2b5cd3b6d9596a","session_id":"619bef06ce4e9678a6c5277c","condition":"contingent","relevant_dimensions":["pattern","legs"],"bee_group":{"antennae":"X","wings":"X","pattern":"D","legs":"M"},"bonus":0.6800000000000013},{"rt":2045,"stimulus":"bees-with-color/bee-A2SM.svg","response":0,"trial_type":"image-button-response","trial_index":81,"time_elapsed":660281,"internal_node_id":"0.0-4.0-0.37","subject_id":"5f54c086c8cfea824fed2cc3","study_id":"6197b3f67c2b5cd3b6d9596a","session_id":"619bef06ce4e9678a6c5277c","condition":"contingent","relevant_dimensions":["pattern","legs"],"bee_group":{"antennae":"X","wings":"X","pattern":"D","legs":"M"},"action":"harvest","summary":"good-harvest","bonus":0.6800000000000013},{"rt":1544,"stimulus":"\n                    <p><b>Action: <em>harvest</em></b></p>\n                    <p>This is the bee that you just saw.</p>\n                    <img src=\"bees-with-color/bee-A2SM.svg\" width=\"200\">\n                    <p><span class=\"greenText\"><b>Successful harvest!</b></span><br>Your pay has increased by $0.02. Your bonus pay is now $0.70.</p>\n            ","response":0,"trial_type":"html-button-response","trial_index":82,"time_elapsed":661826,"internal_node_id":"0.0-4.0-1.37","subject_id":"5f54c086c8cfea824fed2cc3","study_id":"6197b3f67c2b5cd3b6d9596a","session_id":"619bef06ce4e9678a6c5277c","condition":"contingent","relevant_dimensions":["pattern","legs"],"bee_group":{"antennae":"X","wings":"X","pattern":"D","legs":"M"},"bonus":0.6800000000000013},{"rt":1904,"stimulus":"bees-with-color/bee-B1DF.svg","response":0,"trial_type":"image-button-response","trial_index":83,"time_elapsed":663733,"internal_node_id":"0.0-4.0-0.38","subject_id":"5f54c086c8cfea824fed2cc3","study_id":"6197b3f67c2b5cd3b6d9596a","session_id":"619bef06ce4e9678a6c5277c","condition":"contingent","relevant_dimensions":["pattern","legs"],"bee_group":{"antennae":"X","wings":"X","pattern":"D","legs":"M"},"action":"harvest","summary":"good-harvest","bonus":0.6800000000000013},{"rt":1492,"stimulus":"\n                    <p><b>Action: <em>harvest</em></b></p>\n                    <p>This is the bee that you just saw.</p>\n                    <img src=\"bees-with-color/bee-B1DF.svg\" width=\"200\">\n                    <p><span class=\"greenText\"><b>Successful harvest!</b></span><br>Your pay has increased by $0.02. Your bonus pay is now $0.72.</p>\n            ","response":0,"trial_type":"html-button-response","trial_index":84,"time_elapsed":665227,"internal_node_id":"0.0-4.0-1.38","subject_id":"5f54c086c8cfea824fed2cc3","study_id":"6197b3f67c2b5cd3b6d9596a","session_id":"619bef06ce4e9678a6c5277c","condition":"contingent","relevant_dimensions":["pattern","legs"],"bee_group":{"antennae":"X","wings":"X","pattern":"D","legs":"M"},"bonus":0.6800000000000013},{"rt":1662,"stimulus":"bees-with-color/bee-A1SF.svg","response":0,"trial_type":"image-button-response","trial_index":85,"time_elapsed":666889,"internal_node_id":"0.0-4.0-0.39","subject_id":"5f54c086c8cfea824fed2cc3","study_id":"6197b3f67c2b5cd3b6d9596a","session_id":"619bef06ce4e9678a6c5277c","condition":"contingent","relevant_dimensions":["pattern","legs"],"bee_group":{"antennae":"X","wings":"X","pattern":"D","legs":"M"},"action":"harvest","summary":"good-harvest","bonus":0.6800000000000013},{"rt":1499,"stimulus":"\n                    <p><b>Action: <em>harvest</em></b></p>\n                    <p>This is the bee that you just saw.</p>\n                    <img src=\"bees-with-color/bee-A1SF.svg\" width=\"200\">\n                    <p><span class=\"greenText\"><b>Successful harvest!</b></span><br>Your pay has increased by $0.02. Your bonus pay is now $0.74.</p>\n            ","response":0,"trial_type":"html-button-response","trial_index":86,"time_elapsed":668391,"internal_node_id":"0.0-4.0-1.39","subject_id":"5f54c086c8cfea824fed2cc3","study_id":"6197b3f67c2b5cd3b6d9596a","session_id":"619bef06ce4e9678a6c5277c","condition":"contingent","relevant_dimensions":["pattern","legs"],"bee_group":{"antennae":"X","wings":"X","pattern":"D","legs":"M"},"bonus":0.6800000000000013},{"rt":1501,"stimulus":"bees-with-color/bee-A2SF.svg","response":0,"trial_type":"image-button-response","trial_index":87,"time_elapsed":669892,"internal_node_id":"0.0-4.0-0.40","subject_id":"5f54c086c8cfea824fed2cc3","study_id":"6197b3f67c2b5cd3b6d9596a","session_id":"619bef06ce4e9678a6c5277c","condition":"contingent","relevant_dimensions":["pattern","legs"],"bee_group":{"antennae":"X","wings":"X","pattern":"D","legs":"M"},"action":"harvest","summary":"good-harvest","bonus":0.6800000000000013},{"rt":1491,"stimulus":"\n                    <p><b>Action: <em>harvest</em></b></p>\n                    <p>This is the bee that you just saw.</p>\n                    <img src=\"bees-with-color/bee-A2SF.svg\" width=\"200\">\n                    <p><span class=\"greenText\"><b>Successful harvest!</b></span><br>Your pay has increased by $0.02. Your bonus pay is now $0.76.</p>\n            ","response":0,"trial_type":"html-button-response","trial_index":88,"time_elapsed":671386,"internal_node_id":"0.0-4.0-1.40","subject_id":"5f54c086c8cfea824fed2cc3","study_id":"6197b3f67c2b5cd3b6d9596a","session_id":"619bef06ce4e9678a6c5277c","condition":"contingent","relevant_dimensions":["pattern","legs"],"bee_group":{"antennae":"X","wings":"X","pattern":"D","legs":"M"},"bonus":0.6800000000000013},{"rt":1779,"stimulus":"bees-with-color/bee-A1SM.svg","response":0,"trial_type":"image-button-response","trial_index":89,"time_elapsed":673167,"internal_node_id":"0.0-4.0-0.41","subject_id":"5f54c086c8cfea824fed2cc3","study_id":"6197b3f67c2b5cd3b6d9596a","session_id":"619bef06ce4e9678a6c5277c","condition":"contingent","relevant_dimensions":["pattern","legs"],"bee_group":{"antennae":"X","wings":"X","pattern":"D","legs":"M"},"action":"harvest","summary":"good-harvest","bonus":0.6800000000000013},{"rt":1515,"stimulus":"\n                    <p><b>Action: <em>harvest</em></b></p>\n                    <p>This is the bee that you just saw.</p>\n                    <img src=\"bees-with-color/bee-A1SM.svg\" width=\"200\">\n                    <p><span class=\"greenText\"><b>Successful harvest!</b></span><br>Your pay has increased by $0.02. Your bonus pay is now $0.78.</p>\n            ","response":0,"trial_type":"html-button-response","trial_index":90,"time_elapsed":674683,"internal_node_id":"0.0-4.0-1.41","subject_id":"5f54c086c8cfea824fed2cc3","study_id":"6197b3f67c2b5cd3b6d9596a","session_id":"619bef06ce4e9678a6c5277c","condition":"contingent","relevant_dimensions":["pattern","legs"],"bee_group":{"antennae":"X","wings":"X","pattern":"D","legs":"M"},"bonus":0.6800000000000013},{"rt":1588,"stimulus":"bees-with-color/bee-B2SM.svg","response":0,"trial_type":"image-button-response","trial_index":91,"time_elapsed":676273,"internal_node_id":"0.0-4.0-0.42","subject_id":"5f54c086c8cfea824fed2cc3","study_id":"6197b3f67c2b5cd3b6d9596a","session_id":"619bef06ce4e9678a6c5277c","condition":"contingent","relevant_dimensions":["pattern","legs"],"bee_group":{"antennae":"X","wings":"X","pattern":"D","legs":"M"},"action":"harvest","summary":"good-harvest","bonus":0.6800000000000013},{"rt":1339,"stimulus":"\n                    <p><b>Action: <em>harvest</em></b></p>\n                    <p>This is the bee that you just saw.</p>\n                    <img src=\"bees-with-color/bee-B2SM.svg\" width=\"200\">\n                    <p><span class=\"greenText\"><b>Successful harvest!</b></span><br>Your pay has increased by $0.02. Your bonus pay is now $0.80.</p>\n            ","response":0,"trial_type":"html-button-response","trial_index":92,"time_elapsed":677613,"internal_node_id":"0.0-4.0-1.42","subject_id":"5f54c086c8cfea824fed2cc3","study_id":"6197b3f67c2b5cd3b6d9596a","session_id":"619bef06ce4e9678a6c5277c","condition":"contingent","relevant_dimensions":["pattern","legs"],"bee_group":{"antennae":"X","wings":"X","pattern":"D","legs":"M"},"bonus":0.6800000000000013},{"rt":1603,"stimulus":"bees-with-color/bee-B2SF.svg","response":0,"trial_type":"image-button-response","trial_index":93,"time_elapsed":679217,"internal_node_id":"0.0-4.0-0.43","subject_id":"5f54c086c8cfea824fed2cc3","study_id":"6197b3f67c2b5cd3b6d9596a","session_id":"619bef06ce4e9678a6c5277c","condition":"contingent","relevant_dimensions":["pattern","legs"],"bee_group":{"antennae":"X","wings":"X","pattern":"D","legs":"M"},"action":"harvest","summary":"good-harvest","bonus":0.6800000000000013},{"rt":1507,"stimulus":"\n                    <p><b>Action: <em>harvest</em></b></p>\n                    <p>This is the bee that you just saw.</p>\n                    <img src=\"bees-with-color/bee-B2SF.svg\" width=\"200\">\n                    <p><span class=\"greenText\"><b>Successful harvest!</b></span><br>Your pay has increased by $0.02. Your bonus pay is now $0.82.</p>\n            ","response":0,"trial_type":"html-button-response","trial_index":94,"time_elapsed":680726,"internal_node_id":"0.0-4.0-1.43","subject_id":"5f54c086c8cfea824fed2cc3","study_id":"6197b3f67c2b5cd3b6d9596a","session_id":"619bef06ce4e9678a6c5277c","condition":"contingent","relevant_dimensions":["pattern","legs"],"bee_group":{"antennae":"X","wings":"X","pattern":"D","legs":"M"},"bonus":0.6800000000000013},{"rt":1478,"stimulus":"bees-with-color/bee-B1DM.svg","response":1,"trial_type":"image-button-response","trial_index":95,"time_elapsed":682205,"internal_node_id":"0.0-4.0-0.44","subject_id":"5f54c086c8cfea824fed2cc3","study_id":"6197b3f67c2b5cd3b6d9596a","session_id":"619bef06ce4e9678a6c5277c","condition":"contingent","relevant_dimensions":["pattern","legs"],"bee_group":{"antennae":"X","wings":"X","pattern":"D","legs":"M"},"action":"avoid","summary":"good-avoid","bonus":0.6800000000000013},{"rt":1227,"stimulus":"\n                    <p><b>Action: <em>avoid</em></b></p>\n                    <p>This is the bee that you just saw.</p>\n                    <img src=\"bees-with-color/bee-B1DM.svg\" width=\"200\">\n                    <p><br>Your bonus pay is unchanged, and remains at $0.82.</p>\n            ","response":0,"trial_type":"html-button-response","trial_index":96,"time_elapsed":683433,"internal_node_id":"0.0-4.0-1.44","subject_id":"5f54c086c8cfea824fed2cc3","study_id":"6197b3f67c2b5cd3b6d9596a","session_id":"619bef06ce4e9678a6c5277c","condition":"contingent","relevant_dimensions":["pattern","legs"],"bee_group":{"antennae":"X","wings":"X","pattern":"D","legs":"M"},"bonus":0.6800000000000013},{"rt":1625,"stimulus":"bees-with-color/bee-B1SF.svg","response":0,"trial_type":"image-button-response","trial_index":97,"time_elapsed":685060,"internal_node_id":"0.0-4.0-0.45","subject_id":"5f54c086c8cfea824fed2cc3","study_id":"6197b3f67c2b5cd3b6d9596a","session_id":"619bef06ce4e9678a6c5277c","condition":"contingent","relevant_dimensions":["pattern","legs"],"bee_group":{"antennae":"X","wings":"X","pattern":"D","legs":"M"},"action":"harvest","summary":"good-harvest","bonus":0.6800000000000013},{"rt":1500,"stimulus":"\n                    <p><b>Action: <em>harvest</em></b></p>\n                    <p>This is the bee that you just saw.</p>\n                    <img src=\"bees-with-color/bee-B1SF.svg\" width=\"200\">\n                    <p><span class=\"greenText\"><b>Successful harvest!</b></span><br>Your pay has increased by $0.02. Your bonus pay is now $0.84.</p>\n            ","response":0,"trial_type":"html-button-response","trial_index":98,"time_elapsed":686562,"internal_node_id":"0.0-4.0-1.45","subject_id":"5f54c086c8cfea824fed2cc3","study_id":"6197b3f67c2b5cd3b6d9596a","session_id":"619bef06ce4e9678a6c5277c","condition":"contingent","relevant_dimensions":["pattern","legs"],"bee_group":{"antennae":"X","wings":"X","pattern":"D","legs":"M"},"bonus":0.6800000000000013},{"rt":2958,"stimulus":"bees-with-color/bee-B1SM.svg","response":0,"trial_type":"image-button-response","trial_index":99,"time_elapsed":689521,"internal_node_id":"0.0-4.0-0.46","subject_id":"5f54c086c8cfea824fed2cc3","study_id":"6197b3f67c2b5cd3b6d9596a","session_id":"619bef06ce4e9678a6c5277c","condition":"contingent","relevant_dimensions":["pattern","legs"],"bee_group":{"antennae":"X","wings":"X","pattern":"D","legs":"M"},"action":"harvest","summary":"good-harvest","bonus":0.6800000000000013},{"rt":1419,"stimulus":"\n                    <p><b>Action: <em>harvest</em></b></p>\n                    <p>This is the bee that you just saw.</p>\n                    <img src=\"bees-with-color/bee-B1SM.svg\" width=\"200\">\n                    <p><span class=\"greenText\"><b>Successful harvest!</b></span><br>Your pay has increased by $0.02. Your bonus pay is now $0.86.</p>\n            ","response":0,"trial_type":"html-button-response","trial_index":100,"time_elapsed":690941,"internal_node_id":"0.0-4.0-1.46","subject_id":"5f54c086c8cfea824fed2cc3","study_id":"6197b3f67c2b5cd3b6d9596a","session_id":"619bef06ce4e9678a6c5277c","condition":"contingent","relevant_dimensions":["pattern","legs"],"bee_group":{"antennae":"X","wings":"X","pattern":"D","legs":"M"},"bonus":0.6800000000000013},{"rt":1455,"stimulus":"bees-with-color/bee-A1DM.svg","response":1,"trial_type":"image-button-response","trial_index":101,"time_elapsed":692398,"internal_node_id":"0.0-4.0-0.47","subject_id":"5f54c086c8cfea824fed2cc3","study_id":"6197b3f67c2b5cd3b6d9596a","session_id":"619bef06ce4e9678a6c5277c","condition":"contingent","relevant_dimensions":["pattern","legs"],"bee_group":{"antennae":"X","wings":"X","pattern":"D","legs":"M"},"action":"avoid","summary":"good-avoid","bonus":0.6800000000000013},{"rt":1376,"stimulus":"\n                    <p><b>Action: <em>avoid</em></b></p>\n                    <p>This is the bee that you just saw.</p>\n                    <img src=\"bees-with-color/bee-A1DM.svg\" width=\"200\">\n                    <p><br>Your bonus pay is unchanged, and remains at $0.86.</p>\n            ","response":0,"trial_type":"html-button-response","trial_index":102,"time_elapsed":693775,"internal_node_id":"0.0-4.0-1.47","subject_id":"5f54c086c8cfea824fed2cc3","study_id":"6197b3f67c2b5cd3b6d9596a","session_id":"619bef06ce4e9678a6c5277c","condition":"contingent","relevant_dimensions":["pattern","legs"],"bee_group":{"antennae":"X","wings":"X","pattern":"D","legs":"M"},"bonus":0.6800000000000013},{"rt":2090,"stimulus":"bees-with-color/bee-A1DM.svg","response":1,"trial_type":"image-button-response","trial_index":103,"time_elapsed":695866,"internal_node_id":"0.0-4.0-0.48","subject_id":"5f54c086c8cfea824fed2cc3","study_id":"6197b3f67c2b5cd3b6d9596a","session_id":"619bef06ce4e9678a6c5277c","condition":"contingent","relevant_dimensions":["pattern","legs"],"bee_group":{"antennae":"X","wings":"X","pattern":"D","legs":"M"},"action":"avoid","summary":"good-avoid","bonus":0.6800000000000013},{"rt":1316,"stimulus":"\n                    <p><b>Action: <em>avoid</em></b></p>\n                    <p>This is the bee that you just saw.</p>\n                    <img src=\"bees-with-color/bee-A1DM.svg\" width=\"200\">\n                    <p><br>Your bonus pay is unchanged, and remains at $0.86.</p>\n            ","response":0,"trial_type":"html-button-response","trial_index":104,"time_elapsed":697184,"internal_node_id":"0.0-4.0-1.48","subject_id":"5f54c086c8cfea824fed2cc3","study_id":"6197b3f67c2b5cd3b6d9596a","session_id":"619bef06ce4e9678a6c5277c","condition":"contingent","relevant_dimensions":["pattern","legs"],"bee_group":{"antennae":"X","wings":"X","pattern":"D","legs":"M"},"bonus":0.6800000000000013},{"rt":2303,"stimulus":"bees-with-color/bee-A2DM.svg","response":1,"trial_type":"image-button-response","trial_index":105,"time_elapsed":699488,"internal_node_id":"0.0-4.0-0.49","subject_id":"5f54c086c8cfea824fed2cc3","study_id":"6197b3f67c2b5cd3b6d9596a","session_id":"619bef06ce4e9678a6c5277c","condition":"contingent","relevant_dimensions":["pattern","legs"],"bee_group":{"antennae":"X","wings":"X","pattern":"D","legs":"M"},"action":"avoid","summary":"good-avoid","bonus":0.6800000000000013},{"rt":1155,"stimulus":"\n                    <p><b>Action: <em>avoid</em></b></p>\n                    <p>This is the bee that you just saw.</p>\n                    <img src=\"bees-with-color/bee-A2DM.svg\" width=\"200\">\n                    <p><br>Your bonus pay is unchanged, and remains at $0.86.</p>\n            ","response":0,"trial_type":"html-button-response","trial_index":106,"time_elapsed":700644,"internal_node_id":"0.0-4.0-1.49","subject_id":"5f54c086c8cfea824fed2cc3","study_id":"6197b3f67c2b5cd3b6d9596a","session_id":"619bef06ce4e9678a6c5277c","condition":"contingent","relevant_dimensions":["pattern","legs"],"bee_group":{"antennae":"X","wings":"X","pattern":"D","legs":"M"},"bonus":0.6800000000000013},{"rt":1758,"stimulus":"bees-with-color/bee-B2DF.svg","response":0,"trial_type":"image-button-response","trial_index":107,"time_elapsed":702404,"internal_node_id":"0.0-4.0-0.50","subject_id":"5f54c086c8cfea824fed2cc3","study_id":"6197b3f67c2b5cd3b6d9596a","session_id":"619bef06ce4e9678a6c5277c","condition":"contingent","relevant_dimensions":["pattern","legs"],"bee_group":{"antennae":"X","wings":"X","pattern":"D","legs":"M"},"action":"harvest","summary":"good-harvest","bonus":0.6800000000000013},{"rt":1499,"stimulus":"\n                    <p><b>Action: <em>harvest</em></b></p>\n                    <p>This is the bee that you just saw.</p>\n                    <img src=\"bees-with-color/bee-B2DF.svg\" width=\"200\">\n                    <p><span class=\"greenText\"><b>Successful harvest!</b></span><br>Your pay has increased by $0.02. Your bonus pay is now $0.88.</p>\n            ","response":0,"trial_type":"html-button-response","trial_index":108,"time_elapsed":703904,"internal_node_id":"0.0-4.0-1.50","subject_id":"5f54c086c8cfea824fed2cc3","study_id":"6197b3f67c2b5cd3b6d9596a","session_id":"619bef06ce4e9678a6c5277c","condition":"contingent","relevant_dimensions":["pattern","legs"],"bee_group":{"antennae":"X","wings":"X","pattern":"D","legs":"M"},"bonus":0.6800000000000013},{"rt":1713,"stimulus":"bees-with-color/bee-A1DF.svg","response":0,"trial_type":"image-button-response","trial_index":109,"time_elapsed":705619,"internal_node_id":"0.0-4.0-0.51","subject_id":"5f54c086c8cfea824fed2cc3","study_id":"6197b3f67c2b5cd3b6d9596a","session_id":"619bef06ce4e9678a6c5277c","condition":"contingent","relevant_dimensions":["pattern","legs"],"bee_group":{"antennae":"X","wings":"X","pattern":"D","legs":"M"},"action":"harvest","summary":"good-harvest","bonus":0.6800000000000013},{"rt":1345,"stimulus":"\n                    <p><b>Action: <em>harvest</em></b></p>\n                    <p>This is the bee that you just saw.</p>\n                    <img src=\"bees-with-color/bee-A1DF.svg\" width=\"200\">\n                    <p><span class=\"greenText\"><b>Successful harvest!</b></span><br>Your pay has increased by $0.02. Your bonus pay is now $0.90.</p>\n            ","response":0,"trial_type":"html-button-response","trial_index":110,"time_elapsed":706966,"internal_node_id":"0.0-4.0-1.51","subject_id":"5f54c086c8cfea824fed2cc3","study_id":"6197b3f67c2b5cd3b6d9596a","session_id":"619bef06ce4e9678a6c5277c","condition":"contingent","relevant_dimensions":["pattern","legs"],"bee_group":{"antennae":"X","wings":"X","pattern":"D","legs":"M"},"bonus":0.6800000000000013},{"rt":1538,"stimulus":"bees-with-color/bee-A1SF.svg","response":0,"trial_type":"image-button-response","trial_index":111,"time_elapsed":708504,"internal_node_id":"0.0-4.0-0.52","subject_id":"5f54c086c8cfea824fed2cc3","study_id":"6197b3f67c2b5cd3b6d9596a","session_id":"619bef06ce4e9678a6c5277c","condition":"contingent","relevant_dimensions":["pattern","legs"],"bee_group":{"antennae":"X","wings":"X","pattern":"D","legs":"M"},"action":"harvest","summary":"good-harvest","bonus":0.6800000000000013},{"rt":1449,"stimulus":"\n                    <p><b>Action: <em>harvest</em></b></p>\n                    <p>This is the bee that you just saw.</p>\n                    <img src=\"bees-with-color/bee-A1SF.svg\" width=\"200\">\n                    <p><span class=\"greenText\"><b>Successful harvest!</b></span><br>Your pay has increased by $0.02. Your bonus pay is now $0.92.</p>\n            ","response":0,"trial_type":"html-button-response","trial_index":112,"time_elapsed":709954,"internal_node_id":"0.0-4.0-1.52","subject_id":"5f54c086c8cfea824fed2cc3","study_id":"6197b3f67c2b5cd3b6d9596a","session_id":"619bef06ce4e9678a6c5277c","condition":"contingent","relevant_dimensions":["pattern","legs"],"bee_group":{"antennae":"X","wings":"X","pattern":"D","legs":"M"},"bonus":0.6800000000000013},{"rt":1771,"stimulus":"bees-with-color/bee-A2SM.svg","response":0,"trial_type":"image-button-response","trial_index":113,"time_elapsed":711726,"internal_node_id":"0.0-4.0-0.53","subject_id":"5f54c086c8cfea824fed2cc3","study_id":"6197b3f67c2b5cd3b6d9596a","session_id":"619bef06ce4e9678a6c5277c","condition":"contingent","relevant_dimensions":["pattern","legs"],"bee_group":{"antennae":"X","wings":"X","pattern":"D","legs":"M"},"action":"harvest","summary":"good-harvest","bonus":0.6800000000000013},{"rt":1442,"stimulus":"\n                    <p><b>Action: <em>harvest</em></b></p>\n                    <p>This is the bee that you just saw.</p>\n                    <img src=\"bees-with-color/bee-A2SM.svg\" width=\"200\">\n                    <p><span class=\"greenText\"><b>Successful harvest!</b></span><br>Your pay has increased by $0.02. Your bonus pay is now $0.94.</p>\n            ","response":0,"trial_type":"html-button-response","trial_index":114,"time_elapsed":713170,"internal_node_id":"0.0-4.0-1.53","subject_id":"5f54c086c8cfea824fed2cc3","study_id":"6197b3f67c2b5cd3b6d9596a","session_id":"619bef06ce4e9678a6c5277c","condition":"contingent","relevant_dimensions":["pattern","legs"],"bee_group":{"antennae":"X","wings":"X","pattern":"D","legs":"M"},"bonus":0.6800000000000013},{"rt":1779,"stimulus":"bees-with-color/bee-B1DF.svg","response":0,"trial_type":"image-button-response","trial_index":115,"time_elapsed":714951,"internal_node_id":"0.0-4.0-0.54","subject_id":"5f54c086c8cfea824fed2cc3","study_id":"6197b3f67c2b5cd3b6d9596a","session_id":"619bef06ce4e9678a6c5277c","condition":"contingent","relevant_dimensions":["pattern","legs"],"bee_group":{"antennae":"X","wings":"X","pattern":"D","legs":"M"},"action":"harvest","summary":"good-harvest","bonus":0.6800000000000013},{"rt":1419,"stimulus":"\n                    <p><b>Action: <em>harvest</em></b></p>\n                    <p>This is the bee that you just saw.</p>\n                    <img src=\"bees-with-color/bee-B1DF.svg\" width=\"200\">\n                    <p><span class=\"greenText\"><b>Successful harvest!</b></span><br>Your pay has increased by $0.02. Your bonus pay is now $0.96.</p>\n            ","response":0,"trial_type":"html-button-response","trial_index":116,"time_elapsed":716372,"internal_node_id":"0.0-4.0-1.54","subject_id":"5f54c086c8cfea824fed2cc3","study_id":"6197b3f67c2b5cd3b6d9596a","session_id":"619bef06ce4e9678a6c5277c","condition":"contingent","relevant_dimensions":["pattern","legs"],"bee_group":{"antennae":"X","wings":"X","pattern":"D","legs":"M"},"bonus":0.6800000000000013},{"rt":2170,"stimulus":"bees-with-color/bee-A1SM.svg","response":1,"trial_type":"image-button-response","trial_index":117,"time_elapsed":718543,"internal_node_id":"0.0-4.0-0.55","subject_id":"5f54c086c8cfea824fed2cc3","study_id":"6197b3f67c2b5cd3b6d9596a","session_id":"619bef06ce4e9678a6c5277c","condition":"contingent","relevant_dimensions":["pattern","legs"],"bee_group":{"antennae":"X","wings":"X","pattern":"D","legs":"M"},"action":"avoid","summary":"bad-avoid","bonus":0.6800000000000013},{"rt":1066,"stimulus":"\n                    <p><b>Action: <em>avoid</em></b></p>\n                    <p>This is the bee that you just saw.</p>\n                    <img src=\"bees-with-color/bee-A1SM.svg\" width=\"200\">\n                    <p><br>Your bonus pay is unchanged, and remains at $0.96.</p>\n            ","response":0,"trial_type":"html-button-response","trial_index":118,"time_elapsed":719610,"internal_node_id":"0.0-4.0-1.55","subject_id":"5f54c086c8cfea824fed2cc3","study_id":"6197b3f67c2b5cd3b6d9596a","session_id":"619bef06ce4e9678a6c5277c","condition":"contingent","relevant_dimensions":["pattern","legs"],"bee_group":{"antennae":"X","wings":"X","pattern":"D","legs":"M"},"bonus":0.6800000000000013},{"rt":1530,"stimulus":"bees-with-color/bee-B1SF.svg","response":0,"trial_type":"image-button-response","trial_index":119,"time_elapsed":721141,"internal_node_id":"0.0-4.0-0.56","subject_id":"5f54c086c8cfea824fed2cc3","study_id":"6197b3f67c2b5cd3b6d9596a","session_id":"619bef06ce4e9678a6c5277c","condition":"contingent","relevant_dimensions":["pattern","legs"],"bee_group":{"antennae":"X","wings":"X","pattern":"D","legs":"M"},"action":"harvest","summary":"good-harvest","bonus":0.6800000000000013},{"rt":1309,"stimulus":"\n                    <p><b>Action: <em>harvest</em></b></p>\n                    <p>This is the bee that you just saw.</p>\n                    <img src=\"bees-with-color/bee-B1SF.svg\" width=\"200\">\n                    <p><span class=\"greenText\"><b>Successful harvest!</b></span><br>Your pay has increased by $0.02. Your bonus pay is now $0.98.</p>\n            ","response":0,"trial_type":"html-button-response","trial_index":120,"time_elapsed":722451,"internal_node_id":"0.0-4.0-1.56","subject_id":"5f54c086c8cfea824fed2cc3","study_id":"6197b3f67c2b5cd3b6d9596a","session_id":"619bef06ce4e9678a6c5277c","condition":"contingent","relevant_dimensions":["pattern","legs"],"bee_group":{"antennae":"X","wings":"X","pattern":"D","legs":"M"},"bonus":0.6800000000000013},{"rt":1884,"stimulus":"bees-with-color/bee-B2DM.svg","response":0,"trial_type":"image-button-response","trial_index":121,"time_elapsed":724337,"internal_node_id":"0.0-4.0-0.57","subject_id":"5f54c086c8cfea824fed2cc3","study_id":"6197b3f67c2b5cd3b6d9596a","session_id":"619bef06ce4e9678a6c5277c","condition":"contingent","relevant_dimensions":["pattern","legs"],"bee_group":{"antennae":"X","wings":"X","pattern":"D","legs":"M"},"action":"harvest","summary":"bad-harvest","bonus":0.6800000000000013},{"rt":1631,"stimulus":"\n                    <p><b>Action: <em>harvest</em></b></p>\n                    <p>This is the bee that you just saw.</p>\n                    <img src=\"bees-with-color/bee-B2DM.svg\" width=\"200\">\n                    <p><span class=\"redText\">Bad choice, the bee was angry.</span><br><b>You have been stung!</b><br>Your pay has been decreased by $0.10. Your bonus pay is now $0.88.</p>\n            ","response":0,"trial_type":"html-button-response","trial_index":122,"time_elapsed":725969,"internal_node_id":"0.0-4.0-1.57","subject_id":"5f54c086c8cfea824fed2cc3","study_id":"6197b3f67c2b5cd3b6d9596a","session_id":"619bef06ce4e9678a6c5277c","condition":"contingent","relevant_dimensions":["pattern","legs"],"bee_group":{"antennae":"X","wings":"X","pattern":"D","legs":"M"},"bonus":0.6800000000000013},{"rt":1677,"stimulus":"bees-with-color/bee-A2DF.svg","response":0,"trial_type":"image-button-response","trial_index":123,"time_elapsed":727648,"internal_node_id":"0.0-4.0-0.58","subject_id":"5f54c086c8cfea824fed2cc3","study_id":"6197b3f67c2b5cd3b6d9596a","session_id":"619bef06ce4e9678a6c5277c","condition":"contingent","relevant_dimensions":["pattern","legs"],"bee_group":{"antennae":"X","wings":"X","pattern":"D","legs":"M"},"action":"harvest","summary":"good-harvest","bonus":0.6800000000000013},{"rt":1382,"stimulus":"\n                    <p><b>Action: <em>harvest</em></b></p>\n                    <p>This is the bee that you just saw.</p>\n                    <img src=\"bees-with-color/bee-A2DF.svg\" width=\"200\">\n                    <p><span class=\"greenText\"><b>Successful harvest!</b></span><br>Your pay has increased by $0.02. Your bonus pay is now $0.90.</p>\n            ","response":0,"trial_type":"html-button-response","trial_index":124,"time_elapsed":729032,"internal_node_id":"0.0-4.0-1.58","subject_id":"5f54c086c8cfea824fed2cc3","study_id":"6197b3f67c2b5cd3b6d9596a","session_id":"619bef06ce4e9678a6c5277c","condition":"contingent","relevant_dimensions":["pattern","legs"],"bee_group":{"antennae":"X","wings":"X","pattern":"D","legs":"M"},"bonus":0.6800000000000013},{"rt":1507,"stimulus":"bees-with-color/bee-B1SM.svg","response":0,"trial_type":"image-button-response","trial_index":125,"time_elapsed":730541,"internal_node_id":"0.0-4.0-0.59","subject_id":"5f54c086c8cfea824fed2cc3","study_id":"6197b3f67c2b5cd3b6d9596a","session_id":"619bef06ce4e9678a6c5277c","condition":"contingent","relevant_dimensions":["pattern","legs"],"bee_group":{"antennae":"X","wings":"X","pattern":"D","legs":"M"},"action":"harvest","summary":"good-harvest","bonus":0.6800000000000013},{"rt":1301,"stimulus":"\n                    <p><b>Action: <em>harvest</em></b></p>\n                    <p>This is the bee that you just saw.</p>\n                    <img src=\"bees-with-color/bee-B1SM.svg\" width=\"200\">\n                    <p><span class=\"greenText\"><b>Successful harvest!</b></span><br>Your pay has increased by $0.02. Your bonus pay is now $0.92.</p>\n            ","response":0,"trial_type":"html-button-response","trial_index":126,"time_elapsed":731843,"internal_node_id":"0.0-4.0-1.59","subject_id":"5f54c086c8cfea824fed2cc3","study_id":"6197b3f67c2b5cd3b6d9596a","session_id":"619bef06ce4e9678a6c5277c","condition":"contingent","relevant_dimensions":["pattern","legs"],"bee_group":{"antennae":"X","wings":"X","pattern":"D","legs":"M"},"bonus":0.6800000000000013},{"rt":4076,"stimulus":"bees-with-color/bee-B2SM.svg","response":1,"trial_type":"image-button-response","trial_index":127,"time_elapsed":735921,"internal_node_id":"0.0-4.0-0.60","subject_id":"5f54c086c8cfea824fed2cc3","study_id":"6197b3f67c2b5cd3b6d9596a","session_id":"619bef06ce4e9678a6c5277c","condition":"contingent","relevant_dimensions":["pattern","legs"],"bee_group":{"antennae":"X","wings":"X","pattern":"D","legs":"M"},"action":"avoid","summary":"bad-avoid","bonus":0.6800000000000013},{"rt":949,"stimulus":"\n                    <p><b>Action: <em>avoid</em></b></p>\n                    <p>This is the bee that you just saw.</p>\n                    <img src=\"bees-with-color/bee-B2SM.svg\" width=\"200\">\n                    <p><br>Your bonus pay is unchanged, and remains at $0.92.</p>\n            ","response":0,"trial_type":"html-button-response","trial_index":128,"time_elapsed":736870,"internal_node_id":"0.0-4.0-1.60","subject_id":"5f54c086c8cfea824fed2cc3","study_id":"6197b3f67c2b5cd3b6d9596a","session_id":"619bef06ce4e9678a6c5277c","condition":"contingent","relevant_dimensions":["pattern","legs"],"bee_group":{"antennae":"X","wings":"X","pattern":"D","legs":"M"},"bonus":0.6800000000000013},{"rt":1110,"stimulus":"bees-with-color/bee-B2SF.svg","response":0,"trial_type":"image-button-response","trial_index":129,"time_elapsed":737982,"internal_node_id":"0.0-4.0-0.61","subject_id":"5f54c086c8cfea824fed2cc3","study_id":"6197b3f67c2b5cd3b6d9596a","session_id":"619bef06ce4e9678a6c5277c","condition":"contingent","relevant_dimensions":["pattern","legs"],"bee_group":{"antennae":"X","wings":"X","pattern":"D","legs":"M"},"action":"harvest","summary":"good-harvest","bonus":0.6800000000000013},{"rt":1184,"stimulus":"\n                    <p><b>Action: <em>harvest</em></b></p>\n                    <p>This is the bee that you just saw.</p>\n                    <img src=\"bees-with-color/bee-B2SF.svg\" width=\"200\">\n                    <p><span class=\"greenText\"><b>Successful harvest!</b></span><br>Your pay has increased by $0.02. Your bonus pay is now $0.94.</p>\n            ","response":0,"trial_type":"html-button-response","trial_index":130,"time_elapsed":739167,"internal_node_id":"0.0-4.0-1.61","subject_id":"5f54c086c8cfea824fed2cc3","study_id":"6197b3f67c2b5cd3b6d9596a","session_id":"619bef06ce4e9678a6c5277c","condition":"contingent","relevant_dimensions":["pattern","legs"],"bee_group":{"antennae":"X","wings":"X","pattern":"D","legs":"M"},"bonus":0.6800000000000013},{"rt":1154,"stimulus":"bees-with-color/bee-A2SF.svg","response":0,"trial_type":"image-button-response","trial_index":131,"time_elapsed":740322,"internal_node_id":"0.0-4.0-0.62","subject_id":"5f54c086c8cfea824fed2cc3","study_id":"6197b3f67c2b5cd3b6d9596a","session_id":"619bef06ce4e9678a6c5277c","condition":"contingent","relevant_dimensions":["pattern","legs"],"bee_group":{"antennae":"X","wings":"X","pattern":"D","legs":"M"},"action":"harvest","summary":"good-harvest","bonus":0.6800000000000013},{"rt":1138,"stimulus":"\n                    <p><b>Action: <em>harvest</em></b></p>\n                    <p>This is the bee that you just saw.</p>\n                    <img src=\"bees-with-color/bee-A2SF.svg\" width=\"200\">\n                    <p><span class=\"greenText\"><b>Successful harvest!</b></span><br>Your pay has increased by $0.02. Your bonus pay is now $0.96.</p>\n            ","response":0,"trial_type":"html-button-response","trial_index":132,"time_elapsed":741462,"internal_node_id":"0.0-4.0-1.62","subject_id":"5f54c086c8cfea824fed2cc3","study_id":"6197b3f67c2b5cd3b6d9596a","session_id":"619bef06ce4e9678a6c5277c","condition":"contingent","relevant_dimensions":["pattern","legs"],"bee_group":{"antennae":"X","wings":"X","pattern":"D","legs":"M"},"bonus":0.6800000000000013},{"rt":1398,"stimulus":"bees-with-color/bee-B1DM.svg","response":0,"trial_type":"image-button-response","trial_index":133,"time_elapsed":742861,"internal_node_id":"0.0-4.0-0.63","subject_id":"5f54c086c8cfea824fed2cc3","study_id":"6197b3f67c2b5cd3b6d9596a","session_id":"619bef06ce4e9678a6c5277c","condition":"contingent","relevant_dimensions":["pattern","legs"],"bee_group":{"antennae":"X","wings":"X","pattern":"D","legs":"M"},"action":"harvest","summary":"bad-harvest","bonus":0.6800000000000013},{"rt":1705,"stimulus":"\n                    <p><b>Action: <em>harvest</em></b></p>\n                    <p>This is the bee that you just saw.</p>\n                    <img src=\"bees-with-color/bee-B1DM.svg\" width=\"200\">\n                    <p><span class=\"redText\">Bad choice, the bee was angry.</span><br><b>You have been stung!</b><br>Your pay has been decreased by $0.10. Your bonus pay is now $0.86.</p>\n            ","response":0,"trial_type":"html-button-response","trial_index":134,"time_elapsed":744569,"internal_node_id":"0.0-4.0-1.63","subject_id":"5f54c086c8cfea824fed2cc3","study_id":"6197b3f67c2b5cd3b6d9596a","session_id":"619bef06ce4e9678a6c5277c","condition":"contingent","relevant_dimensions":["pattern","legs"],"bee_group":{"antennae":"X","wings":"X","pattern":"D","legs":"M"},"bonus":0.6800000000000013},{"rt":9562,"stimulus":"You have completed the first part of this experiment.<br><br>You will now begin a shorter second part, in which you will receive no feedback.<br>The same rules regarding bonus pay apply.<br><br>Press any key to begin.","response":"h","trial_type":"html-keyboard-response","trial_index":135,"time_elapsed":754133,"internal_node_id":"0.0-5.0","subject_id":"5f54c086c8cfea824fed2cc3","study_id":"6197b3f67c2b5cd3b6d9596a","session_id":"619bef06ce4e9678a6c5277c","condition":"contingent","relevant_dimensions":["pattern","legs"],"bee_group":{"antennae":"X","wings":"X","pattern":"D","legs":"M"},"bonus":0.6800000000000013},{"rt":4357,"stimulus":"bees-with-color/bee-B1DF.svg","response":0,"trial_type":"image-button-response","trial_index":136,"time_elapsed":758491,"internal_node_id":"0.0-6.0-0.0","subject_id":"5f54c086c8cfea824fed2cc3","study_id":"6197b3f67c2b5cd3b6d9596a","session_id":"619bef06ce4e9678a6c5277c","condition":"contingent","relevant_dimensions":["pattern","legs"],"bee_group":{"antennae":"X","wings":"X","pattern":"D","legs":"M"},"bonus":0.6800000000000013},{"rt":4244,"stimulus":"bees-with-color/bee-A2DM.svg","response":0,"trial_type":"image-button-response","trial_index":137,"time_elapsed":762738,"internal_node_id":"0.0-6.0-0.1","subject_id":"5f54c086c8cfea824fed2cc3","study_id":"6197b3f67c2b5cd3b6d9596a","session_id":"619bef06ce4e9678a6c5277c","condition":"contingent","relevant_dimensions":["pattern","legs"],"bee_group":{"antennae":"X","wings":"X","pattern":"D","legs":"M"},"bonus":0.6800000000000013},{"rt":1640,"stimulus":"bees-with-color/bee-B1SF.svg","response":1,"trial_type":"image-button-response","trial_index":138,"time_elapsed":764379,"internal_node_id":"0.0-6.0-0.2","subject_id":"5f54c086c8cfea824fed2cc3","study_id":"6197b3f67c2b5cd3b6d9596a","session_id":"619bef06ce4e9678a6c5277c","condition":"contingent","relevant_dimensions":["pattern","legs"],"bee_group":{"antennae":"X","wings":"X","pattern":"D","legs":"M"},"bonus":0.6800000000000013},{"rt":3324,"stimulus":"bees-with-color/bee-B2SF.svg","response":0,"trial_type":"image-button-response","trial_index":139,"time_elapsed":767705,"internal_node_id":"0.0-6.0-0.3","subject_id":"5f54c086c8cfea824fed2cc3","study_id":"6197b3f67c2b5cd3b6d9596a","session_id":"619bef06ce4e9678a6c5277c","condition":"contingent","relevant_dimensions":["pattern","legs"],"bee_group":{"antennae":"X","wings":"X","pattern":"D","legs":"M"},"bonus":0.6800000000000013},{"rt":4554,"stimulus":"bees-with-color/bee-A1DF.svg","response":0,"trial_type":"image-button-response","trial_index":140,"time_elapsed":772260,"internal_node_id":"0.0-6.0-0.4","subject_id":"5f54c086c8cfea824fed2cc3","study_id":"6197b3f67c2b5cd3b6d9596a","session_id":"619bef06ce4e9678a6c5277c","condition":"contingent","relevant_dimensions":["pattern","legs"],"bee_group":{"antennae":"X","wings":"X","pattern":"D","legs":"M"},"bonus":0.6800000000000013},{"rt":845,"stimulus":"bees-with-color/bee-B1DM.svg","response":0,"trial_type":"image-button-response","trial_index":141,"time_elapsed":773107,"internal_node_id":"0.0-6.0-0.5","subject_id":"5f54c086c8cfea824fed2cc3","study_id":"6197b3f67c2b5cd3b6d9596a","session_id":"619bef06ce4e9678a6c5277c","condition":"contingent","relevant_dimensions":["pattern","legs"],"bee_group":{"antennae":"X","wings":"X","pattern":"D","legs":"M"},"bonus":0.6800000000000013},{"rt":8447,"stimulus":"bees-with-color/bee-A2SF.svg","response":0,"trial_type":"image-button-response","trial_index":142,"time_elapsed":781554,"internal_node_id":"0.0-6.0-0.6","subject_id":"5f54c086c8cfea824fed2cc3","study_id":"6197b3f67c2b5cd3b6d9596a","session_id":"619bef06ce4e9678a6c5277c","condition":"contingent","relevant_dimensions":["pattern","legs"],"bee_group":{"antennae":"X","wings":"X","pattern":"D","legs":"M"},"bonus":0.6800000000000013},{"rt":1338,"stimulus":"bees-with-color/bee-A2SM.svg","response":1,"trial_type":"image-button-response","trial_index":143,"time_elapsed":782895,"internal_node_id":"0.0-6.0-0.7","subject_id":"5f54c086c8cfea824fed2cc3","study_id":"6197b3f67c2b5cd3b6d9596a","session_id":"619bef06ce4e9678a6c5277c","condition":"contingent","relevant_dimensions":["pattern","legs"],"bee_group":{"antennae":"X","wings":"X","pattern":"D","legs":"M"},"bonus":0.6800000000000013},{"rt":24990,"stimulus":"bees-with-color/bee-A1SM.svg","response":0,"trial_type":"image-button-response","trial_index":144,"time_elapsed":807886,"internal_node_id":"0.0-6.0-0.8","subject_id":"5f54c086c8cfea824fed2cc3","study_id":"6197b3f67c2b5cd3b6d9596a","session_id":"619bef06ce4e9678a6c5277c","condition":"contingent","relevant_dimensions":["pattern","legs"],"bee_group":{"antennae":"X","wings":"X","pattern":"D","legs":"M"},"bonus":0.6800000000000013},{"rt":1758,"stimulus":"bees-with-color/bee-B2DM.svg","response":1,"trial_type":"image-button-response","trial_index":145,"time_elapsed":809645,"internal_node_id":"0.0-6.0-0.9","subject_id":"5f54c086c8cfea824fed2cc3","study_id":"6197b3f67c2b5cd3b6d9596a","session_id":"619bef06ce4e9678a6c5277c","condition":"contingent","relevant_dimensions":["pattern","legs"],"bee_group":{"antennae":"X","wings":"X","pattern":"D","legs":"M"},"bonus":0.6800000000000013},{"rt":2757,"stimulus":"bees-with-color/bee-B1SM.svg","response":1,"trial_type":"image-button-response","trial_index":146,"time_elapsed":812404,"internal_node_id":"0.0-6.0-0.10","subject_id":"5f54c086c8cfea824fed2cc3","study_id":"6197b3f67c2b5cd3b6d9596a","session_id":"619bef06ce4e9678a6c5277c","condition":"contingent","relevant_dimensions":["pattern","legs"],"bee_group":{"antennae":"X","wings":"X","pattern":"D","legs":"M"},"bonus":0.6800000000000013},{"rt":1397,"stimulus":"bees-with-color/bee-B2SM.svg","response":0,"trial_type":"image-button-response","trial_index":147,"time_elapsed":813802,"internal_node_id":"0.0-6.0-0.11","subject_id":"5f54c086c8cfea824fed2cc3","study_id":"6197b3f67c2b5cd3b6d9596a","session_id":"619bef06ce4e9678a6c5277c","condition":"contingent","relevant_dimensions":["pattern","legs"],"bee_group":{"antennae":"X","wings":"X","pattern":"D","legs":"M"},"bonus":0.6800000000000013},{"rt":1462,"stimulus":"bees-with-color/bee-B2DF.svg","response":1,"trial_type":"image-button-response","trial_index":148,"time_elapsed":815266,"internal_node_id":"0.0-6.0-0.12","subject_id":"5f54c086c8cfea824fed2cc3","study_id":"6197b3f67c2b5cd3b6d9596a","session_id":"619bef06ce4e9678a6c5277c","condition":"contingent","relevant_dimensions":["pattern","legs"],"bee_group":{"antennae":"X","wings":"X","pattern":"D","legs":"M"},"bonus":0.6800000000000013},{"rt":676,"stimulus":"bees-with-color/bee-A1DM.svg","response":1,"trial_type":"image-button-response","trial_index":149,"time_elapsed":815943,"internal_node_id":"0.0-6.0-0.13","subject_id":"5f54c086c8cfea824fed2cc3","study_id":"6197b3f67c2b5cd3b6d9596a","session_id":"619bef06ce4e9678a6c5277c","condition":"contingent","relevant_dimensions":["pattern","legs"],"bee_group":{"antennae":"X","wings":"X","pattern":"D","legs":"M"},"bonus":0.6800000000000013},{"rt":1029,"stimulus":"bees-with-color/bee-A1SF.svg","response":0,"trial_type":"image-button-response","trial_index":150,"time_elapsed":816974,"internal_node_id":"0.0-6.0-0.14","subject_id":"5f54c086c8cfea824fed2cc3","study_id":"6197b3f67c2b5cd3b6d9596a","session_id":"619bef06ce4e9678a6c5277c","condition":"contingent","relevant_dimensions":["pattern","legs"],"bee_group":{"antennae":"X","wings":"X","pattern":"D","legs":"M"},"bonus":0.6800000000000013},{"rt":124,"stimulus":"bees-with-color/bee-A2DF.svg","response":0,"trial_type":"image-button-response","trial_index":151,"time_elapsed":817099,"internal_node_id":"0.0-6.0-0.15","subject_id":"5f54c086c8cfea824fed2cc3","study_id":"6197b3f67c2b5cd3b6d9596a","session_id":"619bef06ce4e9678a6c5277c","condition":"contingent","relevant_dimensions":["pattern","legs"],"bee_group":{"antennae":"X","wings":"X","pattern":"D","legs":"M"},"bonus":0.6800000000000013},{"rt":212,"stimulus":"bees-with-color/bee-A2SM.svg","response":0,"trial_type":"image-button-response","trial_index":152,"time_elapsed":817312,"internal_node_id":"0.0-6.0-0.16","subject_id":"5f54c086c8cfea824fed2cc3","study_id":"6197b3f67c2b5cd3b6d9596a","session_id":"619bef06ce4e9678a6c5277c","condition":"contingent","relevant_dimensions":["pattern","legs"],"bee_group":{"antennae":"X","wings":"X","pattern":"D","legs":"M"},"bonus":0.6800000000000013},{"rt":661,"stimulus":"bees-with-color/bee-A1DF.svg","response":0,"trial_type":"image-button-response","trial_index":153,"time_elapsed":817974,"internal_node_id":"0.0-6.0-0.17","subject_id":"5f54c086c8cfea824fed2cc3","study_id":"6197b3f67c2b5cd3b6d9596a","session_id":"619bef06ce4e9678a6c5277c","condition":"contingent","relevant_dimensions":["pattern","legs"],"bee_group":{"antennae":"X","wings":"X","pattern":"D","legs":"M"},"bonus":0.6800000000000013},{"rt":1044,"stimulus":"bees-with-color/bee-B2DM.svg","response":1,"trial_type":"image-button-response","trial_index":154,"time_elapsed":819020,"internal_node_id":"0.0-6.0-0.18","subject_id":"5f54c086c8cfea824fed2cc3","study_id":"6197b3f67c2b5cd3b6d9596a","session_id":"619bef06ce4e9678a6c5277c","condition":"contingent","relevant_dimensions":["pattern","legs"],"bee_group":{"antennae":"X","wings":"X","pattern":"D","legs":"M"},"bonus":0.6800000000000013},{"rt":802,"stimulus":"bees-with-color/bee-A1SF.svg","response":0,"trial_type":"image-button-response","trial_index":155,"time_elapsed":819822,"internal_node_id":"0.0-6.0-0.19","subject_id":"5f54c086c8cfea824fed2cc3","study_id":"6197b3f67c2b5cd3b6d9596a","session_id":"619bef06ce4e9678a6c5277c","condition":"contingent","relevant_dimensions":["pattern","legs"],"bee_group":{"antennae":"X","wings":"X","pattern":"D","legs":"M"},"bonus":0.6800000000000013},{"rt":558,"stimulus":"bees-with-color/bee-A1SM.svg","response":0,"trial_type":"image-button-response","trial_index":156,"time_elapsed":820381,"internal_node_id":"0.0-6.0-0.20","subject_id":"5f54c086c8cfea824fed2cc3","study_id":"6197b3f67c2b5cd3b6d9596a","session_id":"619bef06ce4e9678a6c5277c","condition":"contingent","relevant_dimensions":["pattern","legs"],"bee_group":{"antennae":"X","wings":"X","pattern":"D","legs":"M"},"bonus":0.6800000000000013},{"rt":992,"stimulus":"bees-with-color/bee-B1DF.svg","response":1,"trial_type":"image-button-response","trial_index":157,"time_elapsed":821375,"internal_node_id":"0.0-6.0-0.21","subject_id":"5f54c086c8cfea824fed2cc3","study_id":"6197b3f67c2b5cd3b6d9596a","session_id":"619bef06ce4e9678a6c5277c","condition":"contingent","relevant_dimensions":["pattern","legs"],"bee_group":{"antennae":"X","wings":"X","pattern":"D","legs":"M"},"bonus":0.6800000000000013},{"rt":763,"stimulus":"bees-with-color/bee-B2SM.svg","response":0,"trial_type":"image-button-response","trial_index":158,"time_elapsed":822140,"internal_node_id":"0.0-6.0-0.22","subject_id":"5f54c086c8cfea824fed2cc3","study_id":"6197b3f67c2b5cd3b6d9596a","session_id":"619bef06ce4e9678a6c5277c","condition":"contingent","relevant_dimensions":["pattern","legs"],"bee_group":{"antennae":"X","wings":"X","pattern":"D","legs":"M"},"bonus":0.6800000000000013},{"rt":1853,"stimulus":"bees-with-color/bee-B1DM.svg","response":0,"trial_type":"image-button-response","trial_index":159,"time_elapsed":823995,"internal_node_id":"0.0-6.0-0.23","subject_id":"5f54c086c8cfea824fed2cc3","study_id":"6197b3f67c2b5cd3b6d9596a","session_id":"619bef06ce4e9678a6c5277c","condition":"contingent","relevant_dimensions":["pattern","legs"],"bee_group":{"antennae":"X","wings":"X","pattern":"D","legs":"M"},"bonus":0.6800000000000013},{"rt":183,"stimulus":"bees-with-color/bee-A2DM.svg","response":0,"trial_type":"image-button-response","trial_index":160,"time_elapsed":824178,"internal_node_id":"0.0-6.0-0.24","subject_id":"5f54c086c8cfea824fed2cc3","study_id":"6197b3f67c2b5cd3b6d9596a","session_id":"619bef06ce4e9678a6c5277c","condition":"contingent","relevant_dimensions":["pattern","legs"],"bee_group":{"antennae":"X","wings":"X","pattern":"D","legs":"M"},"bonus":0.6800000000000013},{"rt":1213,"stimulus":"bees-with-color/bee-B1SF.svg","response":1,"trial_type":"image-button-response","trial_index":161,"time_elapsed":825393,"internal_node_id":"0.0-6.0-0.25","subject_id":"5f54c086c8cfea824fed2cc3","study_id":"6197b3f67c2b5cd3b6d9596a","session_id":"619bef06ce4e9678a6c5277c","condition":"contingent","relevant_dimensions":["pattern","legs"],"bee_group":{"antennae":"X","wings":"X","pattern":"D","legs":"M"},"bonus":0.6800000000000013},{"rt":838,"stimulus":"bees-with-color/bee-B1SM.svg","response":0,"trial_type":"image-button-response","trial_index":162,"time_elapsed":826232,"internal_node_id":"0.0-6.0-0.26","subject_id":"5f54c086c8cfea824fed2cc3","study_id":"6197b3f67c2b5cd3b6d9596a","session_id":"619bef06ce4e9678a6c5277c","condition":"contingent","relevant_dimensions":["pattern","legs"],"bee_group":{"antennae":"X","wings":"X","pattern":"D","legs":"M"},"bonus":0.6800000000000013},{"rt":183,"stimulus":"bees-with-color/bee-B2SF.svg","response":0,"trial_type":"image-button-response","trial_index":163,"time_elapsed":826416,"internal_node_id":"0.0-6.0-0.27","subject_id":"5f54c086c8cfea824fed2cc3","study_id":"6197b3f67c2b5cd3b6d9596a","session_id":"619bef06ce4e9678a6c5277c","condition":"contingent","relevant_dimensions":["pattern","legs"],"bee_group":{"antennae":"X","wings":"X","pattern":"D","legs":"M"},"bonus":0.6800000000000013},{"rt":1242,"stimulus":"bees-with-color/bee-A2SF.svg","response":1,"trial_type":"image-button-response","trial_index":164,"time_elapsed":827660,"internal_node_id":"0.0-6.0-0.28","subject_id":"5f54c086c8cfea824fed2cc3","study_id":"6197b3f67c2b5cd3b6d9596a","session_id":"619bef06ce4e9678a6c5277c","condition":"contingent","relevant_dimensions":["pattern","legs"],"bee_group":{"antennae":"X","wings":"X","pattern":"D","legs":"M"},"bonus":0.6800000000000013},{"rt":874,"stimulus":"bees-with-color/bee-B2DF.svg","response":0,"trial_type":"image-button-response","trial_index":165,"time_elapsed":828535,"internal_node_id":"0.0-6.0-0.29","subject_id":"5f54c086c8cfea824fed2cc3","study_id":"6197b3f67c2b5cd3b6d9596a","session_id":"619bef06ce4e9678a6c5277c","condition":"contingent","relevant_dimensions":["pattern","legs"],"bee_group":{"antennae":"X","wings":"X","pattern":"D","legs":"M"},"bonus":0.6800000000000013},{"rt":1030,"stimulus":"bees-with-color/bee-A2DF.svg","response":1,"trial_type":"image-button-response","trial_index":166,"time_elapsed":829566,"internal_node_id":"0.0-6.0-0.30","subject_id":"5f54c086c8cfea824fed2cc3","study_id":"6197b3f67c2b5cd3b6d9596a","session_id":"619bef06ce4e9678a6c5277c","condition":"contingent","relevant_dime