[{"success":true,"trial_type":"fullscreen","trial_index":0,"time_elapsed":2788,"internal_node_id":"0.0-0.0","subject_id":"5afdc329fca92600012695ca","study_id":"6197b3f67c2b5cd3b6d9596a","session_id":"619bfbdb55934952f0d622ca","condition":"full-information","relevant_dimensions":["wings","legs"],"bee_group":{"antennae":"X","wings":"2","pattern":"X","legs":"F"},"bonus":1.5600000000000012},{"success":true,"timeout":false,"failed_images":[],"failed_audio":[],"failed_video":[],"trial_type":"preload","trial_index":1,"time_elapsed":4016,"internal_node_id":"0.0-1.0","subject_id":"5afdc329fca92600012695ca","study_id":"6197b3f67c2b5cd3b6d9596a","session_id":"619bfbdb55934952f0d622ca","condition":"full-information","relevant_dimensions":["wings","legs"],"bee_group":{"antennae":"X","wings":"2","pattern":"X","legs":"F"},"bonus":1.5600000000000012},{"rt":1500.9000000059605,"stimulus":"Welcome! Press any key to begin.","response":"h","trial_type":"html-keyboard-response","trial_index":2,"time_elapsed":5517,"internal_node_id":"0.0-2.0","subject_id":"5afdc329fca92600012695ca","study_id":"6197b3f67c2b5cd3b6d9596a","session_id":"619bfbdb55934952f0d622ca","condition":"full-information","relevant_dimensions":["wings","legs"],"bee_group":{"antennae":"X","wings":"2","pattern":"X","legs":"F"},"bonus":1.5600000000000012},{"view_history":[{"page_index":0,"viewing_time":7936.600000023842},{"page_index":1,"viewing_time":20653.899999976158},{"page_index":2,"viewing_time":14224.40000000596},{"page_index":3,"viewing_time":20946.5},{"page_index":4,"viewing_time":8147.800000011921},{"page_index":5,"viewing_time":9233.299999982119},{"page_index":6,"viewing_time":6348.4000000059605},{"page_index":7,"viewing_time":5242.700000017881},{"page_index":8,"viewing_time":4337.899999976158},{"page_index":9,"viewing_time":3976.2000000178814},{"page_index":10,"viewing_time":4716.5},{"page_index":11,"viewing_time":13842.199999988079},{"page_index":12,"viewing_time":9687.700000017881},{"page_index":13,"viewing_time":1395.2999999821186},{"page_index":14,"viewing_time":2245}],"rt":132935.10000002384,"trial_type":"instructions","trial_index":3,"time_elapsed":138453,"internal_node_id":"0.0-3.0-0.0","subject_id":"5afdc329fca92600012695ca","study_id":"6197b3f67c2b5cd3b6d9596a","session_id":"619bfbdb55934952f0d622ca","condition":"full-information","relevant_dimensions":["wings","legs"],"bee_group":{"antennae":"X","wings":"2","pattern":"X","legs":"F"},"bonus":1.5600000000000012},{"rt":18798.5,"response":{"Q0":["Two or six legs","Stripes or spots on body","Single or double wings","Antennae or no antennae"]},"question_order":[0],"trial_type":"survey-multi-select","trial_index":4,"time_elapsed":157257,"internal_node_id":"0.0-3.0-1.0","subject_id":"5afdc329fca92600012695ca","study_id":"6197b3f67c2b5cd3b6d9596a","session_id":"619bfbdb55934952f0d622ca","condition":"full-information","relevant_dimensions":["wings","legs"],"bee_group":{"antennae":"X","wings":"2","pattern":"X","legs":"F"},"correct":true,"bonus":1.5600000000000012},{"rt":15614.90000000596,"response":{"Q1":"No.","Q2":"Based on the four features of the bee.","Q3":"You learn if it was friendly or dangerous, but do not alter your bonus."},"question_order":[0,1,2],"trial_type":"survey-multi-choice","trial_index":5,"time_elapsed":172868,"internal_node_id":"0.0-3.0-2.0","subject_id":"5afdc329fca92600012695ca","study_id":"6197b3f67c2b5cd3b6d9596a","session_id":"619bfbdb55934952f0d622ca","condition":"full-information","relevant_dimensions":["wings","legs"],"bee_group":{"antennae":"X","wings":"2","pattern":"X","legs":"F"},"correct":true,"bonus":1.5600000000000012},{"rt":4779.5999999940395,"stimulus":"<p>Congrats, you got everything right<br>When you're ready, click the button below to continue to the experiment.</p>","response":0,"trial_type":"html-button-response","trial_index":6,"time_elapsed":177651,"internal_node_id":"0.0-3.0-3.0","subject_id":"5afdc329fca92600012695ca","study_id":"6197b3f67c2b5cd3b6d9596a","session_id":"619bfbdb55934952f0d622ca","condition":"full-information","relevant_dimensions":["wings","legs"],"bee_group":{"antennae":"X","wings":"2","pattern":"X","legs":"F"},"bonus":1.5600000000000012},{"rt":9251.40000000596,"stimulus":"bees-with-color/bee-A1DM.svg","response":0,"trial_type":"image-button-response","trial_index":7,"time_elapsed":186905,"internal_node_id":"0.0-4.0-0.0","subject_id":"5afdc329fca92600012695ca","study_id":"6197b3f67c2b5cd3b6d9596a","session_id":"619bfbdb55934952f0d622ca","condition":"full-information","relevant_dimensions":["wings","legs"],"bee_group":{"antennae":"X","wings":"2","pattern":"X","legs":"F"},"action":"harvest","summary":"good-harvest","bonus":1.5600000000000012},{"rt":20790.5,"stimulus":"\n                    <p><b>Action: <em>harvest</em></b></p>\n                    <p>This is the bee that you just saw.</p>\n                    <img src=\"bees-with-color/bee-A1DM.svg\" width=\"200\">\n                    <p><span class=\"greenText\"><b>Successful harvest!</b></span><br>Your pay has increased by $0.02. Your bonus pay is now $0.56.</p>\n            ","response":0,"trial_type":"html-button-response","trial_index":8,"time_elapsed":207701,"internal_node_id":"0.0-4.0-1.0","subject_id":"5afdc329fca92600012695ca","study_id":"6197b3f67c2b5cd3b6d9596a","session_id":"619bfbdb55934952f0d622ca","condition":"full-information","relevant_dimensions":["wings","legs"],"bee_group":{"antennae":"X","wings":"2","pattern":"X","legs":"F"},"bonus":1.5600000000000012},{"rt":5836.9000000059605,"stimulus":"bees-with-color/bee-A2DM.svg","response":1,"trial_type":"image-button-response","trial_index":9,"time_elapsed":213542,"internal_node_id":"0.0-4.0-0.1","subject_id":"5afdc329fca92600012695ca","study_id":"6197b3f67c2b5cd3b6d9596a","session_id":"619bfbdb55934952f0d622ca","condition":"full-information","relevant_dimensions":["wings","legs"],"bee_group":{"antennae":"X","wings":"2","pattern":"X","legs":"F"},"action":"avoid","summary":"bad-avoid","bonus":1.5600000000000012},{"rt":14781.799999982119,"stimulus":"\n                    <p><b>Action: <em>avoid</em></b></p>\n                    <p>This is the bee that you just saw.</p>\n                    <img src=\"bees-with-color/bee-A2DM.svg\" width=\"200\">\n                    <p><span class=\"redText\">Bad choice,</span> the bee was friendly.<br>Your bonus pay is unchanged, and remains at $0.56.</p>\n            ","response":0,"trial_type":"html-button-response","trial_index":10,"time_elapsed":228327,"internal_node_id":"0.0-4.0-1.1","subject_id":"5afdc329fca92600012695ca","study_id":"6197b3f67c2b5cd3b6d9596a","session_id":"619bfbdb55934952f0d622ca","condition":"full-information","relevant_dimensions":["wings","legs"],"bee_group":{"antennae":"X","wings":"2","pattern":"X","legs":"F"},"bonus":1.5600000000000012},{"rt":2663.5999999940395,"stimulus":"bees-with-color/bee-B1SF.svg","response":1,"trial_type":"image-button-response","trial_index":11,"time_elapsed":230994,"internal_node_id":"0.0-4.0-0.2","subject_id":"5afdc329fca92600012695ca","study_id":"6197b3f67c2b5cd3b6d9596a","session_id":"619bfbdb55934952f0d622ca","condition":"full-information","relevant_dimensions":["wings","legs"],"bee_group":{"antennae":"X","wings":"2","pattern":"X","legs":"F"},"action":"avoid","summary":"bad-avoid","bonus":1.5600000000000012},{"rt":23275.5,"stimulus":"\n                    <p><b>Action: <em>avoid</em></b></p>\n                    <p>This is the bee that you just saw.</p>\n                    <img src=\"bees-with-color/bee-B1SF.svg\" width=\"200\">\n                    <p><span class=\"redText\">Bad choice,</span> the bee was friendly.<br>Your bonus pay is unchanged, and remains at $0.56.</p>\n            ","response":0,"trial_type":"html-button-response","trial_index":12,"time_elapsed":254280,"internal_node_id":"0.0-4.0-1.2","subject_id":"5afdc329fca92600012695ca","study_id":"6197b3f67c2b5cd3b6d9596a","session_id":"619bfbdb55934952f0d622ca","condition":"full-information","relevant_dimensions":["wings","legs"],"bee_group":{"antennae":"X","wings":"2","pattern":"X","legs":"F"},"bonus":1.5600000000000012},{"rt":2717.899999976158,"stimulus":"bees-with-color/bee-A2DF.svg","response":1,"trial_type":"image-button-response","trial_index":13,"time_elapsed":257001,"internal_node_id":"0.0-4.0-0.3","subject_id":"5afdc329fca92600012695ca","study_id":"6197b3f67c2b5cd3b6d9596a","session_id":"619bfbdb55934952f0d622ca","condition":"full-information","relevant_dimensions":["wings","legs"],"bee_group":{"antennae":"X","wings":"2","pattern":"X","legs":"F"},"action":"avoid","summary":"good-avoid","bonus":1.5600000000000012},{"rt":18724.30000001192,"stimulus":"\n                    <p><b>Action: <em>avoid</em></b></p>\n                    <p>This is the bee that you just saw.</p>\n                    <img src=\"bees-with-color/bee-A2DF.svg\" width=\"200\">\n                    <p><span class=\"greenText\">Good choice!</span>  This bee would have stung you.<br>Your bonus pay is unchanged, and remains at $0.56.</p>\n            ","response":0,"trial_type":"html-button-response","trial_index":14,"time_elapsed":275727,"internal_node_id":"0.0-4.0-1.3","subject_id":"5afdc329fca92600012695ca","study_id":"6197b3f67c2b5cd3b6d9596a","session_id":"619bfbdb55934952f0d622ca","condition":"full-information","relevant_dimensions":["wings","legs"],"bee_group":{"antennae":"X","wings":"2","pattern":"X","legs":"F"},"bonus":1.5600000000000012},{"rt":4803.9000000059605,"stimulus":"bees-with-color/bee-B2DF.svg","response":0,"trial_type":"image-button-response","trial_index":15,"time_elapsed":280535,"internal_node_id":"0.0-4.0-0.4","subject_id":"5afdc329fca92600012695ca","study_id":"6197b3f67c2b5cd3b6d9596a","session_id":"619bfbdb55934952f0d622ca","condition":"full-information","relevant_dimensions":["wings","legs"],"bee_group":{"antennae":"X","wings":"2","pattern":"X","legs":"F"},"action":"harvest","summary":"bad-harvest","bonus":1.5600000000000012},{"rt":17006.20000001788,"stimulus":"\n                    <p><b>Action: <em>harvest</em></b></p>\n                    <p>This is the bee that you just saw.</p>\n                    <img src=\"bees-with-color/bee-B2DF.svg\" width=\"200\">\n                    <p><span class=\"redText\">Bad choice, the bee was angry.</span><br><b>You have been stung!</b><br>Your pay has been decreased by $0.10. Your bonus pay is now $0.46.</p>\n            ","response":0,"trial_type":"html-button-response","trial_index":16,"time_elapsed":297544,"internal_node_id":"0.0-4.0-1.4","subject_id":"5afdc329fca92600012695ca","study_id":"6197b3f67c2b5cd3b6d9596a","session_id":"619bfbdb55934952f0d622ca","condition":"full-information","relevant_dimensions":["wings","legs"],"bee_group":{"antennae":"X","wings":"2","pattern":"X","legs":"F"},"bonus":1.5600000000000012},{"rt":7727.700000017881,"stimulus":"bees-with-color/bee-A2SM.svg","response":1,"trial_type":"image-button-response","trial_index":17,"time_elapsed":305276,"internal_node_id":"0.0-4.0-0.5","subject_id":"5afdc329fca92600012695ca","study_id":"6197b3f67c2b5cd3b6d9596a","session_id":"619bfbdb55934952f0d622ca","condition":"full-information","relevant_dimensions":["wings","legs"],"bee_group":{"antennae":"X","wings":"2","pattern":"X","legs":"F"},"action":"avoid","summary":"bad-avoid","bonus":1.5600000000000012},{"rt":27949.40000000596,"stimulus":"\n                    <p><b>Action: <em>avoid</em></b></p>\n                    <p>This is the bee that you just saw.</p>\n                    <img src=\"bees-with-color/bee-A2SM.svg\" width=\"200\">\n                    <p><span class=\"redText\">Bad choice,</span> the bee was friendly.<br>Your bonus pay is unchanged, and remains at $0.46.</p>\n            ","response":0,"trial_type":"html-button-response","trial_index":18,"time_elapsed":333229,"internal_node_id":"0.0-4.0-1.5","subject_id":"5afdc329fca92600012695ca","study_id":"6197b3f67c2b5cd3b6d9596a","session_id":"619bfbdb55934952f0d622ca","condition":"full-information","relevant_dimensions":["wings","legs"],"bee_group":{"antennae":"X","wings":"2","pattern":"X","legs":"F"},"bonus":1.5600000000000012},{"rt":6485.799999982119,"stimulus":"bees-with-color/bee-A1SF.svg","response":1,"trial_type":"image-button-response","trial_index":19,"time_elapsed":339717,"internal_node_id":"0.0-4.0-0.6","subject_id":"5afdc329fca92600012695ca","study_id":"6197b3f67c2b5cd3b6d9596a","session_id":"619bfbdb55934952f0d622ca","condition":"full-information","relevant_dimensions":["wings","legs"],"bee_group":{"antennae":"X","wings":"2","pattern":"X","legs":"F"},"action":"avoid","summary":"bad-avoid","bonus":1.5600000000000012},{"rt":13494.59999999404,"stimulus":"\n                    <p><b>Action: <em>avoid</em></b></p>\n                    <p>This is the bee that you just saw.</p>\n                    <img src=\"bees-with-color/bee-A1SF.svg\" width=\"200\">\n                    <p><span class=\"redText\">Bad choice,</span> the bee was friendly.<br>Your bonus pay is unchanged, and remains at $0.46.</p>\n            ","response":0,"trial_type":"html-button-response","trial_index":20,"time_elapsed":353214,"internal_node_id":"0.0-4.0-1.6","subject_id":"5afdc329fca92600012695ca","study_id":"6197b3f67c2b5cd3b6d9596a","session_id":"619bfbdb55934952f0d622ca","condition":"full-information","relevant_dimensions":["wings","legs"],"bee_group":{"antennae":"X","wings":"2","pattern":"X","legs":"F"},"bonus":1.5600000000000012},{"rt":4441.200000017881,"stimulus":"bees-with-color/bee-B2DM.svg","response":1,"trial_type":"image-button-response","trial_index":21,"time_elapsed":357659,"internal_node_id":"0.0-4.0-0.7","subject_id":"5afdc329fca92600012695ca","study_id":"6197b3f67c2b5cd3b6d9596a","session_id":"619bfbdb55934952f0d622ca","condition":"full-information","relevant_dimensions":["wings","legs"],"bee_group":{"antennae":"X","wings":"2","pattern":"X","legs":"F"},"action":"avoid","summary":"bad-avoid","bonus":1.5600000000000012},{"rt":15770.5,"stimulus":"\n                    <p><b>Action: <em>avoid</em></b></p>\n                    <p>This is the bee that you just saw.</p>\n                    <img src=\"bees-with-color/bee-B2DM.svg\" width=\"200\">\n                    <p><span class=\"redText\">Bad choice,</span> the bee was friendly.<br>Your bonus pay is unchanged, and remains at $0.46.</p>\n            ","response":0,"trial_type":"html-button-response","trial_index":22,"time_elapsed":373432,"internal_node_id":"0.0-4.0-1.7","subject_id":"5afdc329fca92600012695ca","study_id":"6197b3f67c2b5cd3b6d9596a","session_id":"619bfbdb55934952f0d622ca","condition":"full-information","relevant_dimensions":["wings","legs"],"bee_group":{"antennae":"X","wings":"2","pattern":"X","legs":"F"},"bonus":1.5600000000000012},{"rt":6682.0999999940395,"stimulus":"bees-with-color/bee-A1SM.svg","response":0,"trial_type":"image-button-response","trial_index":23,"time_elapsed":380117,"internal_node_id":"0.0-4.0-0.8","subject_id":"5afdc329fca92600012695ca","study_id":"6197b3f67c2b5cd3b6d9596a","session_id":"619bfbdb55934952f0d622ca","condition":"full-information","relevant_dimensions":["wings","legs"],"bee_group":{"antennae":"X","wings":"2","pattern":"X","legs":"F"},"action":"harvest","summary":"good-harvest","bonus":1.5600000000000012},{"rt":15684.199999988079,"stimulus":"\n                    <p><b>Action: <em>harvest</em></b></p>\n                    <p>This is the bee that you just saw.</p>\n                    <img src=\"bees-with-color/bee-A1SM.svg\" width=\"200\">\n                    <p><span class=\"greenText\"><b>Successful harvest!</b></span><br>Your pay has increased by $0.02. Your bonus pay is now $0.48.</p>\n            ","response":0,"trial_type":"html-button-response","trial_index":24,"time_elapsed":395803,"internal_node_id":"0.0-4.0-1.8","subject_id":"5afdc329fca92600012695ca","study_id":"6197b3f67c2b5cd3b6d9596a","session_id":"619bfbdb55934952f0d622ca","condition":"full-information","relevant_dimensions":["wings","legs"],"bee_group":{"antennae":"X","wings":"2","pattern":"X","legs":"F"},"bonus":1.5600000000000012},{"rt":9722.59999999404,"stimulus":"bees-with-color/bee-A1DF.svg","response":1,"trial_type":"image-button-response","trial_index":25,"time_elapsed":405528,"internal_node_id":"0.0-4.0-0.9","subject_id":"5afdc329fca92600012695ca","study_id":"6197b3f67c2b5cd3b6d9596a","session_id":"619bfbdb55934952f0d622ca","condition":"full-information","relevant_dimensions":["wings","legs"],"bee_group":{"antennae":"X","wings":"2","pattern":"X","legs":"F"},"action":"avoid","summary":"bad-avoid","bonus":1.5600000000000012},{"rt":14515.300000011921,"stimulus":"\n                    <p><b>Action: <em>avoid</em></b></p>\n                    <p>This is the bee that you just saw.</p>\n                    <img src=\"bees-with-color/bee-A1DF.svg\" width=\"200\">\n                    <p><span class=\"redText\">Bad choice,</span> the bee was friendly.<br>Your bonus pay is unchanged, and remains at $0.48.</p>\n            ","response":0,"trial_type":"html-button-response","trial_index":26,"time_elapsed":420047,"internal_node_id":"0.0-4.0-1.9","subject_id":"5afdc329fca92600012695ca","study_id":"6197b3f67c2b5cd3b6d9596a","session_id":"619bfbdb55934952f0d622ca","condition":"full-information","relevant_dimensions":["wings","legs"],"bee_group":{"antennae":"X","wings":"2","pattern":"X","legs":"F"},"bonus":1.5600000000000012},{"rt":6364.199999988079,"stimulus":"bees-with-color/bee-B2SM.svg","response":0,"trial_type":"image-button-response","trial_index":27,"time_elapsed":426414,"internal_node_id":"0.0-4.0-0.10","subject_id":"5afdc329fca92600012695ca","study_id":"6197b3f67c2b5cd3b6d9596a","session_id":"619bfbdb55934952f0d622ca","condition":"full-information","relevant_dimensions":["wings","legs"],"bee_group":{"antennae":"X","wings":"2","pattern":"X","legs":"F"},"action":"harvest","summary":"good-harvest","bonus":1.5600000000000012},{"rt":17987.79999998212,"stimulus":"\n                    <p><b>Action: <em>harvest</em></b></p>\n                    <p>This is the bee that you just saw.</p>\n                    <img src=\"bees-with-color/bee-B2SM.svg\" width=\"200\">\n                    <p><span class=\"greenText\"><b>Successful harvest!</b></span><br>Your pay has increased by $0.02. Your bonus pay is now $0.50.</p>\n            ","response":0,"trial_type":"html-button-response","trial_index":28,"time_elapsed":444405,"internal_node_id":"0.0-4.0-1.10","subject_id":"5afdc329fca92600012695ca","study_id":"6197b3f67c2b5cd3b6d9596a","session_id":"619bfbdb55934952f0d622ca","condition":"full-information","relevant_dimensions":["wings","legs"],"bee_group":{"antennae":"X","wings":"2","pattern":"X","legs":"F"},"bonus":1.5600000000000012},{"rt":8787.09999999404,"stimulus":"bees-with-color/bee-B1DM.svg","response":0,"trial_type":"image-button-response","trial_index":29,"time_elapsed":453195,"internal_node_id":"0.0-4.0-0.11","subject_id":"5afdc329fca92600012695ca","study_id":"6197b3f67c2b5cd3b6d9596a","session_id":"619bfbdb55934952f0d622ca","condition":"full-information","relevant_dimensions":["wings","legs"],"bee_group":{"antennae":"X","wings":"2","pattern":"X","legs":"F"},"action":"harvest","summary":"good-harvest","bonus":1.5600000000000012},{"rt":15572.699999988079,"stimulus":"\n                    <p><b>Action: <em>harvest</em></b></p>\n                    <p>This is the bee that you just saw.</p>\n                    <img src=\"bees-with-color/bee-B1DM.svg\" width=\"200\">\n                    <p><span class=\"greenText\"><b>Successful harvest!</b></span><br>Your pay has increased by $0.02. Your bonus pay is now $0.52.</p>\n            ","response":0,"trial_type":"html-button-response","trial_index":30,"time_elapsed":468771,"internal_node_id":"0.0-4.0-1.11","subject_id":"5afdc329fca92600012695ca","study_id":"6197b3f67c2b5cd3b6d9596a","session_id":"619bfbdb55934952f0d622ca","condition":"full-information","relevant_dimensions":["wings","legs"],"bee_group":{"antennae":"X","wings":"2","pattern":"X","legs":"F"},"bonus":1.5600000000000012},{"rt":4393.700000017881,"stimulus":"bees-with-color/bee-B2SF.svg","response":1,"trial_type":"image-button-response","trial_index":31,"time_elapsed":473168,"internal_node_id":"0.0-4.0-0.12","subject_id":"5afdc329fca92600012695ca","study_id":"6197b3f67c2b5cd3b6d9596a","session_id":"619bfbdb55934952f0d622ca","condition":"full-information","relevant_dimensions":["wings","legs"],"bee_group":{"antennae":"X","wings":"2","pattern":"X","legs":"F"},"action":"avoid","summary":"good-avoid","bonus":1.5600000000000012},{"rt":1929.699999988079,"stimulus":"\n                    <p><b>Action: <em>avoid</em></b></p>\n                    <p>This is the bee that you just saw.</p>\n                    <img src=\"bees-with-color/bee-B2SF.svg\" width=\"200\">\n                    <p><span class=\"greenText\">Good choice!</span>  This bee would have stung you.<br>Your bonus pay is unchanged, and remains at $0.52.</p>\n            ","response":0,"trial_type":"html-button-response","trial_index":32,"time_elapsed":475100,"internal_node_id":"0.0-4.0-1.12","subject_id":"5afdc329fca92600012695ca","study_id":"6197b3f67c2b5cd3b6d9596a","session_id":"619bfbdb55934952f0d622ca","condition":"full-information","relevant_dimensions":["wings","legs"],"bee_group":{"antennae":"X","wings":"2","pattern":"X","legs":"F"},"bonus":1.5600000000000012},{"rt":4351.299999982119,"stimulus":"bees-with-color/bee-B1SM.svg","response":0,"trial_type":"image-button-response","trial_index":33,"time_elapsed":479453,"internal_node_id":"0.0-4.0-0.13","subject_id":"5afdc329fca92600012695ca","study_id":"6197b3f67c2b5cd3b6d9596a","session_id":"619bfbdb55934952f0d622ca","condition":"full-information","relevant_dimensions":["wings","legs"],"bee_group":{"antennae":"X","wings":"2","pattern":"X","legs":"F"},"action":"harvest","summary":"good-harvest","bonus":1.5600000000000012},{"rt":20108,"stimulus":"\n                    <p><b>Action: <em>harvest</em></b></p>\n                    <p>This is the bee that you just saw.</p>\n                    <img src=\"bees-with-color/bee-B1SM.svg\" width=\"200\">\n                    <p><span class=\"greenText\"><b>Successful harvest!</b></span><br>Your pay has increased by $0.02. Your bonus pay is now $0.54.</p>\n            ","response":0,"trial_type":"html-button-response","trial_index":34,"time_elapsed":499563,"internal_node_id":"0.0-4.0-1.13","subject_id":"5afdc329fca92600012695ca","study_id":"6197b3f67c2b5cd3b6d9596a","session_id":"619bfbdb55934952f0d622ca","condition":"full-information","relevant_dimensions":["wings","legs"],"bee_group":{"antennae":"X","wings":"2","pattern":"X","legs":"F"},"bonus":1.5600000000000012},{"rt":8804,"stimulus":"bees-with-color/bee-B1DF.svg","response":0,"trial_type":"image-button-response","trial_index":35,"time_elapsed":508371,"internal_node_id":"0.0-4.0-0.14","subject_id":"5afdc329fca92600012695ca","study_id":"6197b3f67c2b5cd3b6d9596a","session_id":"619bfbdb55934952f0d622ca","condition":"full-information","relevant_dimensions":["wings","legs"],"bee_group":{"antennae":"X","wings":"2","pattern":"X","legs":"F"},"action":"harvest","summary":"good-harvest","bonus":1.5600000000000012},{"rt":20670.5,"stimulus":"\n                    <p><b>Action: <em>harvest</em></b></p>\n                    <p>This is the bee that you just saw.</p>\n                    <img src=\"bees-with-color/bee-B1DF.svg\" width=\"200\">\n                    <p><span class=\"greenText\"><b>Successful harvest!</b></span><br>Your pay has increased by $0.02. Your bonus pay is now $0.56.</p>\n            ","response":0,"trial_type":"html-button-response","trial_index":36,"time_elapsed":529043,"internal_node_id":"0.0-4.0-1.14","subject_id":"5afdc329fca92600012695ca","study_id":"6197b3f67c2b5cd3b6d9596a","session_id":"619bfbdb55934952f0d622ca","condition":"full-information","relevant_dimensions":["wings","legs"],"bee_group":{"antennae":"X","wings":"2","pattern":"X","legs":"F"},"bonus":1.5600000000000012},{"rt":7263.299999982119,"stimulus":"bees-with-color/bee-A2SF.svg","response":0,"trial_type":"image-button-response","trial_index":37,"time_elapsed":536309,"internal_node_id":"0.0-4.0-0.15","subject_id":"5afdc329fca92600012695ca","study_id":"6197b3f67c2b5cd3b6d9596a","session_id":"619bfbdb55934952f0d622ca","condition":"full-information","relevant_dimensions":["wings","legs"],"bee_group":{"antennae":"X","wings":"2","pattern":"X","legs":"F"},"action":"harvest","summary":"bad-harvest","bonus":1.5600000000000012},{"rt":16693.19999998808,"stimulus":"\n                    <p><b>Action: <em>harvest</em></b></p>\n                    <p>This is the bee that you just saw.</p>\n                    <img src=\"bees-with-color/bee-A2SF.svg\" width=\"200\">\n                    <p><span class=\"redText\">Bad choice, the bee was angry.</span><br><b>You have been stung!</b><br>Your pay has been decreased by $0.10. Your bonus pay is now $0.46.</p>\n            ","response":0,"trial_type":"html-button-response","trial_index":38,"time_elapsed":553006,"internal_node_id":"0.0-4.0-1.15","subject_id":"5afdc329fca92600012695ca","study_id":"6197b3f67c2b5cd3b6d9596a","session_id":"619bfbdb55934952f0d622ca","condition":"full-information","relevant_dimensions":["wings","legs"],"bee_group":{"antennae":"X","wings":"2","pattern":"X","legs":"F"},"bonus":1.5600000000000012},{"rt":8976,"stimulus":"bees-with-color/bee-A2DF.svg","response":1,"trial_type":"image-button-response","trial_index":39,"time_elapsed":561985,"internal_node_id":"0.0-4.0-0.16","subject_id":"5afdc329fca92600012695ca","study_id":"6197b3f67c2b5cd3b6d9596a","session_id":"619bfbdb55934952f0d622ca","condition":"full-information","relevant_dimensions":["wings","legs"],"bee_group":{"antennae":"X","wings":"2","pattern":"X","legs":"F"},"action":"avoid","summary":"good-avoid","bonus":1.5600000000000012},{"rt":1608.0999999940395,"stimulus":"\n                    <p><b>Action: <em>avoid</em></b></p>\n                    <p>This is the bee that you just saw.</p>\n                    <img src=\"bees-with-color/bee-A2DF.svg\" width=\"200\">\n                    <p><span class=\"greenText\">Good choice!</span>  This bee would have stung you.<br>Your bonus pay is unchanged, and remains at $0.46.</p>\n            ","response":0,"trial_type":"html-button-response","trial_index":40,"time_elapsed":563595,"internal_node_id":"0.0-4.0-1.16","subject_id":"5afdc329fca92600012695ca","study_id":"6197b3f67c2b5cd3b6d9596a","session_id":"619bfbdb55934952f0d622ca","condition":"full-information","relevant_dimensions":["wings","legs"],"bee_group":{"antennae":"X","wings":"2","pattern":"X","legs":"F"},"bonus":1.5600000000000012},{"rt":6465.5,"stimulus":"bees-with-color/bee-A2SM.svg","response":0,"trial_type":"image-button-response","trial_index":41,"time_elapsed":570064,"internal_node_id":"0.0-4.0-0.17","subject_id":"5afdc329fca92600012695ca","study_id":"6197b3f67c2b5cd3b6d9596a","session_id":"619bfbdb55934952f0d622ca","condition":"full-information","relevant_dimensions":["wings","legs"],"bee_group":{"antennae":"X","wings":"2","pattern":"X","legs":"F"},"action":"harvest","summary":"good-harvest","bonus":1.5600000000000012},{"rt":1081.9000000059605,"stimulus":"\n                    <p><b>Action: <em>harvest</em></b></p>\n                    <p>This is the bee that you just saw.</p>\n                    <img src=\"bees-with-color/bee-A2SM.svg\" width=\"200\">\n                    <p><span class=\"greenText\"><b>Successful harvest!</b></span><br>Your pay has increased by $0.02. Your bonus pay is now $0.48.</p>\n            ","response":0,"trial_type":"html-button-response","trial_index":42,"time_elapsed":571148,"internal_node_id":"0.0-4.0-1.17","subject_id":"5afdc329fca92600012695ca","study_id":"6197b3f67c2b5cd3b6d9596a","session_id":"619bfbdb55934952f0d622ca","condition":"full-information","relevant_dimensions":["wings","legs"],"bee_group":{"antennae":"X","wings":"2","pattern":"X","legs":"F"},"bonus":1.5600000000000012},{"rt":8418.40000000596,"stimulus":"bees-with-color/bee-A1DM.svg","response":0,"trial_type":"image-button-response","trial_index":43,"time_elapsed":579569,"internal_node_id":"0.0-4.0-0.18","subject_id":"5afdc329fca92600012695ca","study_id":"6197b3f67c2b5cd3b6d9596a","session_id":"619bfbdb55934952f0d622ca","condition":"full-information","relevant_dimensions":["wings","legs"],"bee_group":{"antennae":"X","wings":"2","pattern":"X","legs":"F"},"action":"harvest","summary":"good-harvest","bonus":1.5600000000000012},{"rt":1440.800000011921,"stimulus":"\n                    <p><b>Action: <em>harvest</em></b></p>\n                    <p>This is the bee that you just saw.</p>\n                    <img src=\"bees-with-color/bee-A1DM.svg\" width=\"200\">\n                    <p><span class=\"greenText\"><b>Successful harvest!</b></span><br>Your pay has increased by $0.02. Your bonus pay is now $0.50.</p>\n            ","response":0,"trial_type":"html-button-response","trial_index":44,"time_elapsed":581013,"internal_node_id":"0.0-4.0-1.18","subject_id":"5afdc329fca92600012695ca","study_id":"6197b3f67c2b5cd3b6d9596a","session_id":"619bfbdb55934952f0d622ca","condition":"full-information","relevant_dimensions":["wings","legs"],"bee_group":{"antennae":"X","wings":"2","pattern":"X","legs":"F"},"bonus":1.5600000000000012},{"rt":8594.40000000596,"stimulus":"bees-with-color/bee-B2DM.svg","response":0,"trial_type":"image-button-response","trial_index":45,"time_elapsed":589610,"internal_node_id":"0.0-4.0-0.19","subject_id":"5afdc329fca92600012695ca","study_id":"6197b3f67c2b5cd3b6d9596a","session_id":"619bfbdb55934952f0d622ca","condition":"full-information","relevant_dimensions":["wings","legs"],"bee_group":{"antennae":"X","wings":"2","pattern":"X","legs":"F"},"action":"harvest","summary":"good-harvest","bonus":1.5600000000000012},{"rt":921,"stimulus":"\n                    <p><b>Action: <em>harvest</em></b></p>\n                    <p>This is the bee that you just saw.</p>\n                    <img src=\"bees-with-color/bee-B2DM.svg\" width=\"200\">\n                    <p><span class=\"greenText\"><b>Successful harvest!</b></span><br>Your pay has increased by $0.02. Your bonus pay is now $0.52.</p>\n            ","response":0,"trial_type":"html-button-response","trial_index":46,"time_elapsed":590533,"internal_node_id":"0.0-4.0-1.19","subject_id":"5afdc329fca92600012695ca","study_id":"6197b3f67c2b5cd3b6d9596a","session_id":"619bfbdb55934952f0d622ca","condition":"full-information","relevant_dimensions":["wings","legs"],"bee_group":{"antennae":"X","wings":"2","pattern":"X","legs":"F"},"bonus":1.5600000000000012},{"rt":4724.9000000059605,"stimulus":"bees-with-color/bee-B2SF.svg","response":1,"trial_type":"image-button-response","trial_index":47,"time_elapsed":595262,"internal_node_id":"0.0-4.0-0.20","subject_id":"5afdc329fca92600012695ca","study_id":"6197b3f67c2b5cd3b6d9596a","session_id":"619bfbdb55934952f0d622ca","condition":"full-information","relevant_dimensions":["wings","legs"],"bee_group":{"antennae":"X","wings":"2","pattern":"X","legs":"F"},"action":"avoid","summary":"good-avoid","bonus":1.5600000000000012},{"rt":1057.7999999821186,"stimulus":"\n                    <p><b>Action: <em>avoid</em></b></p>\n                    <p>This is the bee that you just saw.</p>\n                    <img src=\"bees-with-color/bee-B2SF.svg\" width=\"200\">\n                    <p><span class=\"greenText\">Good choice!</span>  This bee would have stung you.<br>Your bonus pay is unchanged, and remains at $0.52.</p>\n            ","response":0,"trial_type":"html-button-response","trial_index":48,"time_elapsed":596322,"internal_node_id":"0.0-4.0-1.20","subject_id":"5afdc329fca92600012695ca","study_id":"6197b3f67c2b5cd3b6d9596a","session_id":"619bfbdb55934952f0d622ca","condition":"full-information","relevant_dimensions":["wings","legs"],"bee_group":{"antennae":"X","wings":"2","pattern":"X","legs":"F"},"bonus":1.5600000000000012},{"rt":4422.899999976158,"stimulus":"bees-with-color/bee-A1SM.svg","response":0,"trial_type":"image-button-response","trial_index":49,"time_elapsed":600747,"internal_node_id":"0.0-4.0-0.21","subject_id":"5afdc329fca92600012695ca","study_id":"6197b3f67c2b5cd3b6d9596a","session_id":"619bfbdb55934952f0d622ca","condition":"full-information","relevant_dimensions":["wings","legs"],"bee_group":{"antennae":"X","wings":"2","pattern":"X","legs":"F"},"action":"harvest","summary":"good-harvest","bonus":1.5600000000000012},{"rt":965.5,"stimulus":"\n                    <p><b>Action: <em>harvest</em></b></p>\n                    <p>This is the bee that you just saw.</p>\n                    <img src=\"bees-with-color/bee-A1SM.svg\" width=\"200\">\n                    <p><span class=\"greenText\"><b>Successful harvest!</b></span><br>Your pay has increased by $0.02. Your bonus pay is now $0.54.</p>\n            ","response":0,"trial_type":"html-button-response","trial_index":50,"time_elapsed":601716,"internal_node_id":"0.0-4.0-1.21","subject_id":"5afdc329fca92600012695ca","study_id":"6197b3f67c2b5cd3b6d9596a","session_id":"619bfbdb55934952f0d622ca","condition":"full-information","relevant_dimensions":["wings","legs"],"bee_group":{"antennae":"X","wings":"2","pattern":"X","legs":"F"},"bonus":1.5600000000000012},{"rt":4991.800000011921,"stimulus":"bees-with-color/bee-A1DF.svg","response":0,"trial_type":"image-button-response","trial_index":51,"time_elapsed":606710,"internal_node_id":"0.0-4.0-0.22","subject_id":"5afdc329fca92600012695ca","study_id":"6197b3f67c2b5cd3b6d9596a","session_id":"619bfbdb55934952f0d622ca","condition":"full-information","relevant_dimensions":["wings","legs"],"bee_group":{"antennae":"X","wings":"2","pattern":"X","legs":"F"},"action":"harvest","summary":"good-harvest","bonus":1.5600000000000012},{"rt":1227,"stimulus":"\n                    <p><b>Action: <em>harvest</em></b></p>\n                    <p>This is the bee that you just saw.</p>\n                    <img src=\"bees-with-color/bee-A1DF.svg\" width=\"200\">\n                    <p><span class=\"greenText\"><b>Successful harvest!</b></span><br>Your pay has increased by $0.02. Your bonus pay is now $0.56.</p>\n            ","response":0,"trial_type":"html-button-response","trial_index":52,"time_elapsed":607941,"internal_node_id":"0.0-4.0-1.22","subject_id":"5afdc329fca92600012695ca","study_id":"6197b3f67c2b5cd3b6d9596a","session_id":"619bfbdb55934952f0d622ca","condition":"full-information","relevant_dimensions":["wings","legs"],"bee_group":{"antennae":"X","wings":"2","pattern":"X","legs":"F"},"bonus":1.5600000000000012},{"rt":5366.5,"stimulus":"bees-with-color/bee-B1SM.svg","response":0,"trial_type":"image-button-response","trial_index":53,"time_elapsed":613310,"internal_node_id":"0.0-4.0-0.23","subject_id":"5afdc329fca92600012695ca","study_id":"6197b3f67c2b5cd3b6d9596a","session_id":"619bfbdb55934952f0d622ca","condition":"full-information","relevant_dimensions":["wings","legs"],"bee_group":{"antennae":"X","wings":"2","pattern":"X","legs":"F"},"action":"harvest","summary":"good-harvest","bonus":1.5600000000000012},{"rt":894.2000000178814,"stimulus":"\n                    <p><b>Action: <em>harvest</em></b></p>\n                    <p>This is the bee that you just saw.</p>\n                    <img src=\"bees-with-color/bee-B1SM.svg\" width=\"200\">\n                    <p><span class=\"greenText\"><b>Successful harvest!</b></span><br>Your pay has increased by $0.02. Your bonus pay is now $0.58.</p>\n            ","response":0,"trial_type":"html-button-response","trial_index":54,"time_elapsed":614207,"internal_node_id":"0.0-4.0-1.23","subject_id":"5afdc329fca92600012695ca","study_id":"6197b3f67c2b5cd3b6d9596a","session_id":"619bfbdb55934952f0d622ca","condition":"full-information","relevant_dimensions":["wings","legs"],"bee_group":{"antennae":"X","wings":"2","pattern":"X","legs":"F"},"bonus":1.5600000000000012},{"rt":4665.199999988079,"stimulus":"bees-with-color/bee-A2SF.svg","response":1,"trial_type":"image-button-response","trial_index":55,"time_elapsed":618876,"internal_node_id":"0.0-4.0-0.24","subject_id":"5afdc329fca92600012695ca","study_id":"6197b3f67c2b5cd3b6d9596a","session_id":"619bfbdb55934952f0d622ca","condition":"full-information","relevant_dimensions":["wings","legs"],"bee_group":{"antennae":"X","wings":"2","pattern":"X","legs":"F"},"action":"avoid","summary":"good-avoid","bonus":1.5600000000000012},{"rt":1071.0999999940395,"stimulus":"\n                    <p><b>Action: <em>avoid</em></b></p>\n                    <p>This is the bee that you just saw.</p>\n                    <img src=\"bees-with-color/bee-A2SF.svg\" width=\"200\">\n                    <p><span class=\"greenText\">Good choice!</span>  This bee would have stung you.<br>Your bonus pay is unchanged, and remains at $0.58.</p>\n            ","response":0,"trial_type":"html-button-response","trial_index":56,"time_elapsed":619948,"internal_node_id":"0.0-4.0-1.24","subject_id":"5afdc329fca92600012695ca","study_id":"6197b3f67c2b5cd3b6d9596a","session_id":"619bfbdb55934952f0d622ca","condition":"full-information","relevant_dimensions":["wings","legs"],"bee_group":{"antennae":"X","wings":"2","pattern":"X","legs":"F"},"bonus":1.5600000000000012},{"rt":5285.5,"stimulus":"bees-with-color/bee-A2DM.svg","response":0,"trial_type":"image-button-response","trial_index":57,"time_elapsed":625238,"internal_node_id":"0.0-4.0-0.25","subject_id":"5afdc329fca92600012695ca","study_id":"6197b3f67c2b5cd3b6d9596a","session_id":"619bfbdb55934952f0d622ca","condition":"full-information","relevant_dimensions":["wings","legs"],"bee_group":{"antennae":"X","wings":"2","pattern":"X","legs":"F"},"action":"harvest","summary":"good-harvest","bonus":1.5600000000000012},{"rt":1151.4000000059605,"stimulus":"\n                    <p><b>Action: <em>harvest</em></b></p>\n                    <p>This is the bee that you just saw.</p>\n                    <img src=\"bees-with-color/bee-A2DM.svg\" width=\"200\">\n                    <p><span class=\"greenText\"><b>Successful harvest!</b></span><br>Your pay has increased by $0.02. Your bonus pay is now $0.60.</p>\n            ","response":0,"trial_type":"html-button-response","trial_index":58,"time_elapsed":626391,"internal_node_id":"0.0-4.0-1.25","subject_id":"5afdc329fca92600012695ca","study_id":"6197b3f67c2b5cd3b6d9596a","session_id":"619bfbdb55934952f0d622ca","condition":"full-information","relevant_dimensions":["wings","legs"],"bee_group":{"antennae":"X","wings":"2","pattern":"X","legs":"F"},"bonus":1.5600000000000012},{"rt":3886.100000023842,"stimulus":"bees-with-color/bee-B1SF.svg","response":0,"trial_type":"image-button-response","trial_index":59,"time_elapsed":630280,"internal_node_id":"0.0-4.0-0.26","subject_id":"5afdc329fca92600012695ca","study_id":"6197b3f67c2b5cd3b6d9596a","session_id":"619bfbdb55934952f0d622ca","condition":"full-information","relevant_dimensions":["wings","legs"],"bee_group":{"antennae":"X","wings":"2","pattern":"X","legs":"F"},"action":"harvest","summary":"good-harvest","bonus":1.5600000000000012},{"rt":1045.5999999940395,"stimulus":"\n                    <p><b>Action: <em>harvest</em></b></p>\n                    <p>This is the bee that you just saw.</p>\n                    <img src=\"bees-with-color/bee-B1SF.svg\" width=\"200\">\n                    <p><span class=\"greenText\"><b>Successful harvest!</b></span><br>Your pay has increased by $0.02. Your bonus pay is now $0.62.</p>\n            ","response":0,"trial_type":"html-button-response","trial_index":60,"time_elapsed":631331,"internal_node_id":"0.0-4.0-1.26","subject_id":"5afdc329fca92600012695ca","study_id":"6197b3f67c2b5cd3b6d9596a","session_id":"619bfbdb55934952f0d622ca","condition":"full-information","relevant_dimensions":["wings","legs"],"bee_group":{"antennae":"X","wings":"2","pattern":"X","legs":"F"},"bonus":1.5600000000000012},{"rt":3306.2000000178814,"stimulus":"bees-with-color/bee-B2DF.svg","response":0,"trial_type":"image-button-response","trial_index":61,"time_elapsed":634641,"internal_node_id":"0.0-4.0-0.27","subject_id":"5afdc329fca92600012695ca","study_id":"6197b3f67c2b5cd3b6d9596a","session_id":"619bfbdb55934952f0d622ca","condition":"full-information","relevant_dimensions":["wings","legs"],"bee_group":{"antennae":"X","wings":"2","pattern":"X","legs":"F"},"action":"harvest","summary":"bad-harvest","bonus":1.5600000000000012},{"rt":13023.09999999404,"stimulus":"\n                    <p><b>Action: <em>harvest</em></b></p>\n                    <p>This is the bee that you just saw.</p>\n                    <img src=\"bees-with-color/bee-B2DF.svg\" width=\"200\">\n                    <p><span class=\"redText\">Bad choice, the bee was angry.</span><br><b>You have been stung!</b><br>Your pay has been decreased by $0.10. Your bonus pay is now $0.52.</p>\n            ","response":0,"trial_type":"html-button-response","trial_index":62,"time_elapsed":647667,"internal_node_id":"0.0-4.0-1.27","subject_id":"5afdc329fca92600012695ca","study_id":"6197b3f67c2b5cd3b6d9596a","session_id":"619bfbdb55934952f0d622ca","condition":"full-information","relevant_dimensions":["wings","legs"],"bee_group":{"antennae":"X","wings":"2","pattern":"X","legs":"F"},"bonus":1.5600000000000012},{"rt":1458,"stimulus":"bees-with-color/bee-B2SM.svg","response":0,"trial_type":"image-button-response","trial_index":63,"time_elapsed":649128,"internal_node_id":"0.0-4.0-0.28","subject_id":"5afdc329fca92600012695ca","study_id":"6197b3f67c2b5cd3b6d9596a","session_id":"619bfbdb55934952f0d622ca","condition":"full-information","relevant_dimensions":["wings","legs"],"bee_group":{"antennae":"X","wings":"2","pattern":"X","legs":"F"},"action":"harvest","summary":"good-harvest","bonus":1.5600000000000012},{"rt":931.2999999821186,"stimulus":"\n                    <p><b>Action: <em>harvest</em></b></p>\n                    <p>This is the bee that you just saw.</p>\n                    <img src=\"bees-with-color/bee-B2SM.svg\" width=\"200\">\n                    <p><span class=\"greenText\"><b>Successful harvest!</b></span><br>Your pay has increased by $0.02. Your bonus pay is now $0.54.</p>\n            ","response":0,"trial_type":"html-button-response","trial_index":64,"time_elapsed":650062,"internal_node_id":"0.0-4.0-1.28","subject_id":"5afdc329fca92600012695ca","study_id":"6197b3f67c2b5cd3b6d9596a","session_id":"619bfbdb55934952f0d622ca","condition":"full-information","relevant_dimensions":["wings","legs"],"bee_group":{"antennae":"X","wings":"2","pattern":"X","legs":"F"},"bonus":1.5600000000000012},{"rt":4844.5999999940395,"stimulus":"bees-with-color/bee-A1SF.svg","response":0,"trial_type":"image-button-response","trial_index":65,"time_elapsed":654909,"internal_node_id":"0.0-4.0-0.29","subject_id":"5afdc329fca92600012695ca","study_id":"6197b3f67c2b5cd3b6d9596a","session_id":"619bfbdb55934952f0d622ca","condition":"full-information","relevant_dimensions":["wings","legs"],"bee_group":{"antennae":"X","wings":"2","pattern":"X","legs":"F"},"action":"harvest","summary":"good-harvest","bonus":1.5600000000000012},{"rt":949.0999999940395,"stimulus":"\n                    <p><b>Action: <em>harvest</em></b></p>\n                    <p>This is the bee that you just saw.</p>\n                    <img src=\"bees-with-color/bee-A1SF.svg\" width=\"200\">\n                    <p><span class=\"greenText\"><b>Successful harvest!</b></span><br>Your pay has increased by $0.02. Your bonus pay is now $0.56.</p>\n            ","response":0,"trial_type":"html-button-response","trial_index":66,"time_elapsed":655861,"internal_node_id":"0.0-4.0-1.29","subject_id":"5afdc329fca92600012695ca","study_id":"6197b3f67c2b5cd3b6d9596a","session_id":"619bfbdb55934952f0d622ca","condition":"full-information","relevant_dimensions":["wings","legs"],"bee_group":{"antennae":"X","wings":"2","pattern":"X","legs":"F"},"bonus":1.5600000000000012},{"rt":2502.9000000059605,"stimulus":"bees-with-color/bee-B1DM.svg","response":0,"trial_type":"image-button-response","trial_index":67,"time_elapsed":658367,"internal_node_id":"0.0-4.0-0.30","subject_id":"5afdc329fca92600012695ca","study_id":"6197b3f67c2b5cd3b6d9596a","session_id":"619bfbdb55934952f0d622ca","condition":"full-information","relevant_dimensions":["wings","legs"],"bee_group":{"antennae":"X","wings":"2","pattern":"X","legs":"F"},"action":"harvest","summary":"good-harvest","bonus":1.5600000000000012},{"rt":915.5999999940395,"stimulus":"\n                    <p><b>Action: <em>harvest</em></b></p>\n                    <p>This is the bee that you just saw.</p>\n                    <img src=\"bees-with-color/bee-B1DM.svg\" width=\"200\">\n                    <p><span class=\"greenText\"><b>Successful harvest!</b></span><br>Your pay has increased by $0.02. Your bonus pay is now $0.58.</p>\n            ","response":0,"trial_type":"html-button-response","trial_index":68,"time_elapsed":659286,"internal_node_id":"0.0-4.0-1.30","subject_id":"5afdc329fca92600012695ca","study_id":"6197b3f67c2b5cd3b6d9596a","session_id":"619bfbdb55934952f0d622ca","condition":"full-information","relevant_dimensions":["wings","legs"],"bee_group":{"antennae":"X","wings":"2","pattern":"X","legs":"F"},"bonus":1.5600000000000012},{"rt":1121.4000000059605,"stimulus":"bees-with-color/bee-B1DF.svg","response":0,"trial_type":"image-button-response","trial_index":69,"time_elapsed":660409,"internal_node_id":"0.0-4.0-0.31","subject_id":"5afdc329fca92600012695ca","study_id":"6197b3f67c2b5cd3b6d9596a","session_id":"619bfbdb55934952f0d622ca","condition":"full-information","relevant_dimensions":["wings","legs"],"bee_group":{"antennae":"X","wings":"2","pattern":"X","legs":"F"},"action":"harvest","summary":"good-harvest","bonus":1.5600000000000012},{"rt":792.2000000178814,"stimulus":"\n                    <p><b>Action: <em>harvest</em></b></p>\n                    <p>This is the bee that you just saw.</p>\n                    <img src=\"bees-with-color/bee-B1DF.svg\" width=\"200\">\n                    <p><span class=\"greenText\"><b>Successful harvest!</b></span><br>Your pay has increased by $0.02. Your bonus pay is now $0.60.</p>\n            ","response":0,"trial_type":"html-button-response","trial_index":70,"time_elapsed":661206,"internal_node_id":"0.0-4.0-1.31","subject_id":"5afdc329fca92600012695ca","study_id":"6197b3f67c2b5cd3b6d9596a","session_id":"619bfbdb55934952f0d622ca","condition":"full-information","relevant_dimensions":["wings","legs"],"bee_group":{"antennae":"X","wings":"2","pattern":"X","legs":"F"},"bonus":1.5600000000000012},{"rt":1283,"stimulus":"bees-with-color/bee-A2DM.svg","response":0,"trial_type":"image-button-response","trial_index":71,"time_elapsed":662491,"internal_node_id":"0.0-4.0-0.32","subject_id":"5afdc329fca92600012695ca","study_id":"6197b3f67c2b5cd3b6d9596a","session_id":"619bfbdb55934952f0d622ca","condition":"full-information","relevant_dimensions":["wings","legs"],"bee_group":{"antennae":"X","wings":"2","pattern":"X","legs":"F"},"action":"harvest","summary":"good-harvest","bonus":1.5600000000000012},{"rt":990.9000000059605,"stimulus":"\n                    <p><b>Action: <em>harvest</em></b></p>\n                    <p>This is the bee that you just saw.</p>\n                    <img src=\"bees-with-color/bee-A2DM.svg\" width=\"200\">\n                    <p><span class=\"greenText\"><b>Successful harvest!</b></span><br>Your pay has increased by $0.02. Your bonus pay is now $0.62.</p>\n            ","response":0,"trial_type":"html-button-response","trial_index":72,"time_elapsed":663484,"internal_node_id":"0.0-4.0-1.32","subject_id":"5afdc329fca92600012695ca","study_id":"6197b3f67c2b5cd3b6d9596a","session_id":"619bfbdb55934952f0d622ca","condition":"full-information","relevant_dimensions":["wings","legs"],"bee_group":{"antennae":"X","wings":"2","pattern":"X","legs":"F"},"bonus":1.5600000000000012},{"rt":1303.9000000059605,"stimulus":"bees-with-color/bee-B1DF.svg","response":0,"trial_type":"image-button-response","trial_index":73,"time_elapsed":664790,"internal_node_id":"0.0-4.0-0.33","subject_id":"5afdc329fca92600012695ca","study_id":"6197b3f67c2b5cd3b6d9596a","session_id":"619bfbdb55934952f0d622ca","condition":"full-information","relevant_dimensions":["wings","legs"],"bee_group":{"antennae":"X","wings":"2","pattern":"X","legs":"F"},"action":"harvest","summary":"good-harvest","bonus":1.5600000000000012},{"rt":962.8000000119209,"stimulus":"\n                    <p><b>Action: <em>harvest</em></b></p>\n                    <p>This is the bee that you just saw.</p>\n                    <img src=\"bees-with-color/bee-B1DF.svg\" width=\"200\">\n                    <p><span class=\"greenText\"><b>Successful harvest!</b></span><br>Your pay has increased by $0.02. Your bonus pay is now $0.64.</p>\n            ","response":0,"trial_type":"html-button-response","trial_index":74,"time_elapsed":665755,"internal_node_id":"0.0-4.0-1.33","subject_id":"5afdc329fca92600012695ca","study_id":"6197b3f67c2b5cd3b6d9596a","session_id":"619bfbdb55934952f0d622ca","condition":"full-information","relevant_dimensions":["wings","legs"],"bee_group":{"antennae":"X","wings":"2","pattern":"X","legs":"F"},"bonus":1.5600000000000012},{"rt":1347.300000011921,"stimulus":"bees-with-color/bee-A1SF.svg","response":0,"trial_type":"image-button-response","trial_index":75,"time_elapsed":667105,"internal_node_id":"0.0-4.0-0.34","subject_id":"5afdc329fca92600012695ca","study_id":"6197b3f67c2b5cd3b6d9596a","session_id":"619bfbdb55934952f0d622ca","condition":"full-information","relevant_dimensions":["wings","legs"],"bee_group":{"antennae":"X","wings":"2","pattern":"X","legs":"F"},"action":"harvest","summary":"good-harvest","bonus":1.5600000000000012},{"rt":659.3000000119209,"stimulus":"\n                    <p><b>Action: <em>harvest</em></b></p>\n                    <p>This is the bee that you just saw.</p>\n                    <img src=\"bees-with-color/bee-A1SF.svg\" width=\"200\">\n                    <p><span class=\"greenText\"><b>Successful harvest!</b></span><br>Your pay has increased by $0.02. Your bonus pay is now $0.66.</p>\n            ","response":0,"trial_type":"html-button-response","trial_index":76,"time_elapsed":667767,"internal_node_id":"0.0-4.0-1.34","subject_id":"5afdc329fca92600012695ca","study_id":"6197b3f67c2b5cd3b6d9596a","session_id":"619bfbdb55934952f0d622ca","condition":"full-information","relevant_dimensions":["wings","legs"],"bee_group":{"antennae":"X","wings":"2","pattern":"X","legs":"F"},"bonus":1.5600000000000012},{"rt":1470.1000000238419,"stimulus":"bees-with-color/bee-B1DM.svg","response":0,"trial_type":"image-button-response","trial_index":77,"time_elapsed":669239,"internal_node_id":"0.0-4.0-0.35","subject_id":"5afdc329fca92600012695ca","study_id":"6197b3f67c2b5cd3b6d9596a","session_id":"619bfbdb55934952f0d622ca","condition":"full-information","relevant_dimensions":["wings","legs"],"bee_group":{"antennae":"X","wings":"2","pattern":"X","legs":"F"},"action":"harvest","summary":"good-harvest","bonus":1.5600000000000012},{"rt":739,"stimulus":"\n                    <p><b>Action: <em>harvest</em></b></p>\n                    <p>This is the bee that you just saw.</p>\n                    <img src=\"bees-with-color/bee-B1DM.svg\" width=\"200\">\n                    <p><span class=\"greenText\"><b>Successful harvest!</b></span><br>Your pay has increased by $0.02. Your bonus pay is now $0.68.</p>\n            ","response":0,"trial_type":"html-button-response","trial_index":78,"time_elapsed":669980,"internal_node_id":"0.0-4.0-1.35","subject_id":"5afdc329fca92600012695ca","study_id":"6197b3f67c2b5cd3b6d9596a","session_id":"619bfbdb55934952f0d622ca","condition":"full-information","relevant_dimensions":["wings","legs"],"bee_group":{"antennae":"X","wings":"2","pattern":"X","legs":"F"},"bonus":1.5600000000000012},{"rt":3281.800000011921,"stimulus":"bees-with-color/bee-A2SF.svg","response":1,"trial_type":"image-button-response","trial_index":79,"time_elapsed":673264,"internal_node_id":"0.0-4.0-0.36","subject_id":"5afdc329fca92600012695ca","study_id":"6197b3f67c2b5cd3b6d9596a","session_id":"619bfbdb55934952f0d622ca","condition":"full-information","relevant_dimensions":["wings","legs"],"bee_group":{"antennae":"X","wings":"2","pattern":"X","legs":"F"},"action":"avoid","summary":"good-avoid","bonus":1.5600000000000012},{"rt":1226.0999999940395,"stimulus":"\n                    <p><b>Action: <em>avoid</em></b></p>\n                    <p>This is the bee that you just saw.</p>\n                    <img src=\"bees-with-color/bee-A2SF.svg\" width=\"200\">\n                    <p><span class=\"greenText\">Good choice!</span>  This bee would have stung you.<br>Your bonus pay is unchanged, and remains at $0.68.</p>\n            ","response":0,"trial_type":"html-button-response","trial_index":80,"time_elapsed":674492,"internal_node_id":"0.0-4.0-1.36","subject_id":"5afdc329fca92600012695ca","study_id":"6197b3f67c2b5cd3b6d9596a","session_id":"619bfbdb55934952f0d622ca","condition":"full-information","relevant_dimensions":["wings","legs"],"bee_group":{"antennae":"X","wings":"2","pattern":"X","legs":"F"},"bonus":1.5600000000000012},{"rt":3044.4000000059605,"stimulus":"bees-with-color/bee-B2DF.svg","response":1,"trial_type":"image-button-response","trial_index":81,"time_elapsed":677540,"internal_node_id":"0.0-4.0-0.37","subject_id":"5afdc329fca92600012695ca","study_id":"6197b3f67c2b5cd3b6d9596a","session_id":"619bfbdb55934952f0d622ca","condition":"full-information","relevant_dimensions":["wings","legs"],"bee_group":{"antennae":"X","wings":"2","pattern":"X","legs":"F"},"action":"avoid","summary":"good-avoid","bonus":1.5600000000000012},{"rt":1047.7999999821186,"stimulus":"\n                    <p><b>Action: <em>avoid</em></b></p>\n                    <p>This is the bee that you just saw.</p>\n                    <img src=\"bees-with-color/bee-B2DF.svg\" width=\"200\">\n                    <p><span class=\"greenText\">Good choice!</span>  This bee would have stung you.<br>Your bonus pay is unchanged, and remains at $0.68.</p>\n            ","response":0,"trial_type":"html-button-response","trial_index":82,"time_elapsed":678590,"internal_node_id":"0.0-4.0-1.37","subject_id":"5afdc329fca92600012695ca","study_id":"6197b3f67c2b5cd3b6d9596a","session_id":"619bfbdb55934952f0d622ca","condition":"full-information","relevant_dimensions":["wings","legs"],"bee_group":{"antennae":"X","wings":"2","pattern":"X","legs":"F"},"bonus":1.5600000000000012},{"rt":1158.5,"stimulus":"bees-with-color/bee-B2DM.svg","response":0,"trial_type":"image-button-response","trial_index":83,"time_elapsed":679752,"internal_node_id":"0.0-4.0-0.38","subject_id":"5afdc329fca92600012695ca","study_id":"6197b3f67c2b5cd3b6d9596a","session_id":"619bfbdb55934952f0d622ca","condition":"full-information","relevant_dimensions":["wings","legs"],"bee_group":{"antennae":"X","wings":"2","pattern":"X","legs":"F"},"action":"harvest","summary":"good-harvest","bonus":1.5600000000000012},{"rt":823.8000000119209,"stimulus":"\n                    <p><b>Action: <em>harvest</em></b></p>\n                    <p>This is the bee that you just saw.</p>\n                    <img src=\"bees-with-color/bee-B2DM.svg\" width=\"200\">\n                    <p><span class=\"greenText\"><b>Successful harvest!</b></span><br>Your pay has increased by $0.02. Your bonus pay is now $0.70.</p>\n            ","response":0,"trial_type":"html-button-response","trial_index":84,"time_elapsed":680578,"internal_node_id":"0.0-4.0-1.38","subject_id":"5afdc329fca92600012695ca","study_id":"6197b3f67c2b5cd3b6d9596a","session_id":"619bfbdb55934952f0d622ca","condition":"full-information","relevant_dimensions":["wings","legs"],"bee_group":{"antennae":"X","wings":"2","pattern":"X","legs":"F"},"bonus":1.5600000000000012},{"rt":1345,"stimulus":"bees-with-color/bee-B1SF.svg","response":0,"trial_type":"image-button-response","trial_index":85,"time_elapsed":681925,"internal_node_id":"0.0-4.0-0.39","subject_id":"5afdc329fca92600012695ca","study_id":"6197b3f67c2b5cd3b6d9596a","session_id":"619bfbdb55934952f0d622ca","condition":"full-information","relevant_dimensions":["wings","legs"],"bee_group":{"antennae":"X","wings":"2","pattern":"X","legs":"F"},"action":"harvest","summary":"good-harvest","bonus":1.5600000000000012},{"rt":706.9000000059605,"stimulus":"\n                    <p><b>Action: <em>harvest</em></b></p>\n                    <p>This is the bee that you just saw.</p>\n                    <img src=\"bees-with-color/bee-B1SF.svg\" width=\"200\">\n                    <p><span class=\"greenText\"><b>Successful harvest!</b></span><br>Your pay has increased by $0.02. Your bonus pay is now $0.72.</p>\n            ","response":0,"trial_type":"html-button-response","trial_index":86,"time_elapsed":682634,"internal_node_id":"0.0-4.0-1.39","subject_id":"5afdc329fca92600012695ca","study_id":"6197b3f67c2b5cd3b6d9596a","session_id":"619bfbdb55934952f0d622ca","condition":"full-information","relevant_dimensions":["wings","legs"],"bee_group":{"antennae":"X","wings":"2","pattern":"X","legs":"F"},"bonus":1.5600000000000012},{"rt":1658,"stimulus":"bees-with-color/bee-B2SM.svg","response":0,"trial_type":"image-button-response","trial_index":87,"time_elapsed":684294,"internal_node_id":"0.0-4.0-0.40","subject_id":"5afdc329fca92600012695ca","study_id":"6197b3f67c2b5cd3b6d9596a","session_id":"619bfbdb55934952f0d622ca","condition":"full-information","relevant_dimensions":["wings","legs"],"bee_group":{"antennae":"X","wings":"2","pattern":"X","legs":"F"},"action":"harvest","summary":"good-harvest","bonus":1.5600000000000012},{"rt":742.5,"stimulus":"\n                    <p><b>Action: <em>harvest</em></b></p>\n                    <p>This is the bee that you just saw.</p>\n                    <img src=\"bees-with-color/bee-B2SM.svg\" width=\"200\">\n                    <p><span class=\"greenText\"><b>Successful harvest!</b></span><br>Your pay has increased by $0.02. Your bonus pay is now $0.74.</p>\n            ","response":0,"trial_type":"html-button-response","trial_index":88,"time_elapsed":685039,"internal_node_id":"0.0-4.0-1.40","subject_id":"5afdc329fca92600012695ca","study_id":"6197b3f67c2b5cd3b6d9596a","session_id":"619bfbdb55934952f0d622ca","condition":"full-information","relevant_dimensions":["wings","legs"],"bee_group":{"antennae":"X","wings":"2","pattern":"X","legs":"F"},"bonus":1.5600000000000012},{"rt":891.2999999821186,"stimulus":"bees-with-color/bee-A1DF.svg","response":0,"trial_type":"image-button-response","trial_index":89,"time_elapsed":685933,"internal_node_id":"0.0-4.0-0.41","subject_id":"5afdc329fca92600012695ca","study_id":"6197b3f67c2b5cd3b6d9596a","session_id":"619bfbdb55934952f0d622ca","condition":"full-information","relevant_dimensions":["wings","legs"],"bee_group":{"antennae":"X","wings":"2","pattern":"X","legs":"F"},"action":"harvest","summary":"good-harvest","bonus":1.5600000000000012},{"rt":735.5999999940395,"stimulus":"\n                    <p><b>Action: <em>harvest</em></b></p>\n                    <p>This is the bee that you just saw.</p>\n                    <img src=\"bees-with-color/bee-A1DF.svg\" width=\"200\">\n                    <p><span class=\"greenText\"><b>Successful harvest!</b></span><br>Your pay has increased by $0.02. Your bonus pay is now $0.76.</p>\n            ","response":0,"trial_type":"html-button-response","trial_index":90,"time_elapsed":686671,"internal_node_id":"0.0-4.0-1.41","subject_id":"5afdc329fca92600012695ca","study_id":"6197b3f67c2b5cd3b6d9596a","session_id":"619bfbdb55934952f0d622ca","condition":"full-information","relevant_dimensions":["wings","legs"],"bee_group":{"antennae":"X","wings":"2","pattern":"X","legs":"F"},"bonus":1.5600000000000012},{"rt":1605.7999999821186,"stimulus":"bees-with-color/bee-A2DF.svg","response":1,"trial_type":"image-button-response","trial_index":91,"time_elapsed":688279,"internal_node_id":"0.0-4.0-0.42","subject_id":"5afdc329fca92600012695ca","study_id":"6197b3f67c2b5cd3b6d9596a","session_id":"619bfbdb55934952f0d622ca","condition":"full-information","relevant_dimensions":["wings","legs"],"bee_group":{"antennae":"X","wings":"2","pattern":"X","legs":"F"},"action":"avoid","summary":"good-avoid","bonus":1.5600000000000012},{"rt":790.2000000178814,"stimulus":"\n                    <p><b>Action: <em>avoid</em></b></p>\n                    <p>This is the bee that you just saw.</p>\n                    <img src=\"bees-with-color/bee-A2DF.svg\" width=\"200\">\n                    <p><span class=\"greenText\">Good choice!</span>  This bee would have stung you.<br>Your bonus pay is unchanged, and remains at $0.76.</p>\n            ","response":0,"trial_type":"html-button-response","trial_index":92,"time_elapsed":689072,"internal_node_id":"0.0-4.0-1.42","subject_id":"5afdc329fca92600012695ca","study_id":"6197b3f67c2b5cd3b6d9596a","session_id":"619bfbdb55934952f0d622ca","condition":"full-information","relevant_dimensions":["wings","legs"],"bee_group":{"antennae":"X","wings":"2","pattern":"X","legs":"F"},"bonus":1.5600000000000012},{"rt":763.1999999880791,"stimulus":"bees-with-color/bee-B1SM.svg","response":0,"trial_type":"image-button-response","trial_index":93,"time_elapsed":689837,"internal_node_id":"0.0-4.0-0.43","subject_id":"5afdc329fca92600012695ca","study_id":"6197b3f67c2b5cd3b6d9596a","session_id":"619bfbdb55934952f0d622ca","condition":"full-information","relevant_dimensions":["wings","legs"],"bee_group":{"antennae":"X","wings":"2","pattern":"X","legs":"F"},"action":"harvest","summary":"good-harvest","bonus":1.5600000000000012},{"rt":1907.4000000059605,"stimulus":"\n                    <p><b>Action: <em>harvest</em></b></p>\n                    <p>This is the bee that you just saw.</p>\n                    <img src=\"bees-with-color/bee-B1SM.svg\" width=\"200\">\n                    <p><span class=\"greenText\"><b>Successful harvest!</b></span><br>Your pay has increased by $0.02. Your bonus pay is now $0.78.</p>\n            ","response":0,"trial_type":"html-button-response","trial_index":94,"time_elapsed":691747,"internal_node_id":"0.0-4.0-1.43","subject_id":"5afdc329fca92600012695ca","study_id":"6197b3f67c2b5cd3b6d9596a","session_id":"619bfbdb55934952f0d622ca","condition":"full-information","relevant_dimensions":["wings","legs"],"bee_group":{"antennae":"X","wings":"2","pattern":"X","legs":"F"},"bonus":1.5600000000000012},{"rt":1822.5999999940395,"stimulus":"bees-with-color/bee-A2SM.svg","response":0,"trial_type":"image-button-response","trial_index":95,"time_elapsed":693571,"internal_node_id":"0.0-4.0-0.44","subject_id":"5afdc329fca92600012695ca","study_id":"6197b3f67c2b5cd3b6d9596a","session_id":"619bfbdb55934952f0d622ca","condition":"full-information","relevant_dimensions":["wings","legs"],"bee_group":{"antennae":"X","wings":"2","pattern":"X","legs":"F"},"action":"harvest","summary":"good-harvest","bonus":1.5600000000000012},{"rt":563.6999999880791,"stimulus":"\n                    <p><b>Action: <em>harvest</em></b></p>\n                    <p>This is the bee that you just saw.</p>\n                    <img src=\"bees-with-color/bee-A2SM.svg\" width=\"200\">\n                    <p><span class=\"greenText\"><b>Successful harvest!</b></span><br>Your pay has increased by $0.02. Your bonus pay is now $0.80.</p>\n            ","response":0,"trial_type":"html-button-response","trial_index":96,"time_elapsed":694138,"internal_node_id":"0.0-4.0-1.44","subject_id":"5afdc329fca92600012695ca","study_id":"6197b3f67c2b5cd3b6d9596a","session_id":"619bfbdb55934952f0d622ca","condition":"full-information","relevant_dimensions":["wings","legs"],"bee_group":{"antennae":"X","wings":"2","pattern":"X","legs":"F"},"bonus":1.5600000000000012},{"rt":1249.699999988079,"stimulus":"bees-with-color/bee-B2SF.svg","response":1,"trial_type":"image-button-response","trial_index":97,"time_elapsed":695391,"internal_node_id":"0.0-4.0-0.45","subject_id":"5afdc329fca92600012695ca","study_id":"6197b3f67c2b5cd3b6d9596a","session_id":"619bfbdb55934952f0d622ca","condition":"full-information","relevant_dimensions":["wings","legs"],"bee_group":{"antennae":"X","wings":"2","pattern":"X","legs":"F"},"action":"avoid","summary":"good-avoid","bonus":1.5600000000000012},{"rt":1101.2000000178814,"stimulus":"\n                    <p><b>Action: <em>avoid</em></b></p>\n                    <p>This is the bee that you just saw.</p>\n                    <img src=\"bees-with-color/bee-B2SF.svg\" width=\"200\">\n                    <p><span class=\"greenText\">Good choice!</span>  This bee would have stung you.<br>Your bonus pay is unchanged, and remains at $0.80.</p>\n            ","response":0,"trial_type":"html-button-response","trial_index":98,"time_elapsed":696494,"internal_node_id":"0.0-4.0-1.45","subject_id":"5afdc329fca92600012695ca","study_id":"6197b3f67c2b5cd3b6d9596a","session_id":"619bfbdb55934952f0d622ca","condition":"full-information","relevant_dimensions":["wings","legs"],"bee_group":{"antennae":"X","wings":"2","pattern":"X","legs":"F"},"bonus":1.5600000000000012},{"rt":958.8999999761581,"stimulus":"bees-with-color/bee-A1DM.svg","response":0,"trial_type":"image-button-response","trial_index":99,"time_elapsed":697457,"internal_node_id":"0.0-4.0-0.46","subject_id":"5afdc329fca92600012695ca","study_id":"6197b3f67c2b5cd3b6d9596a","session_id":"619bfbdb55934952f0d622ca","condition":"full-information","relevant_dimensions":["wings","legs"],"bee_group":{"antennae":"X","wings":"2","pattern":"X","legs":"F"},"action":"harvest","summary":"good-harvest","bonus":1.5600000000000012},{"rt":1504.699999988079,"stimulus":"\n                    <p><b>Action: <em>harvest</em></b></p>\n                    <p>This is the bee that you just saw.</p>\n                    <img src=\"bees-with-color/bee-A1DM.svg\" width=\"200\">\n                    <p><span class=\"greenText\"><b>Successful harvest!</b></span><br>Your pay has increased by $0.02. Your bonus pay is now $0.82.</p>\n            ","response":0,"trial_type":"html-button-response","trial_index":100,"time_elapsed":698964,"internal_node_id":"0.0-4.0-1.46","subject_id":"5afdc329fca92600012695ca","study_id":"6197b3f67c2b5cd3b6d9596a","session_id":"619bfbdb55934952f0d622ca","condition":"full-information","relevant_dimensions":["wings","legs"],"bee_group":{"antennae":"X","wings":"2","pattern":"X","legs":"F"},"bonus":1.5600000000000012},{"rt":846.5,"stimulus":"bees-with-color/bee-A1SM.svg","response":0,"trial_type":"image-button-response","trial_index":101,"time_elapsed":699813,"internal_node_id":"0.0-4.0-0.47","subject_id":"5afdc329fca92600012695ca","study_id":"6197b3f67c2b5cd3b6d9596a","session_id":"619bfbdb55934952f0d622ca","condition":"full-information","relevant_dimensions":["wings","legs"],"bee_group":{"antennae":"X","wings":"2","pattern":"X","legs":"F"},"action":"harvest","summary":"good-harvest","bonus":1.5600000000000012},{"rt":552.1999999880791,"stimulus":"\n                    <p><b>Action: <em>harvest</em></b></p>\n                    <p>This is the bee that you just saw.</p>\n                    <img src=\"bees-with-color/bee-A1SM.svg\" width=\"200\">\n                    <p><span class=\"greenText\"><b>Successful harvest!</b></span><br>Your pay has increased by $0.02. Your bonus pay is now $0.84.</p>\n            ","response":0,"trial_type":"html-button-response","trial_index":102,"time_elapsed":700368,"internal_node_id":"0.0-4.0-1.47","subject_id":"5afdc329fca92600012695ca","study_id":"6197b3f67c2b5cd3b6d9596a","session_id":"619bfbdb55934952f0d622ca","condition":"full-information","relevant_dimensions":["wings","legs"],"bee_group":{"antennae":"X","wings":"2","pattern":"X","legs":"F"},"bonus":1.5600000000000012},{"rt":1156.5,"stimulus":"bees-with-color/bee-A1DF.svg","response":0,"trial_type":"image-button-response","trial_index":103,"time_elapsed":701527,"internal_node_id":"0.0-4.0-0.48","subject_id":"5afdc329fca92600012695ca","study_id":"6197b3f67c2b5cd3b6d9596a","session_id":"619bfbdb55934952f0d622ca","condition":"full-information","relevant_dimensions":["wings","legs"],"bee_group":{"antennae":"X","wings":"2","pattern":"X","legs":"F"},"action":"harvest","summary":"good-harvest","bonus":1.5600000000000012},{"rt":593.1999999880791,"stimulus":"\n                    <p><b>Action: <em>harvest</em></b></p>\n                    <p>This is the bee that you just saw.</p>\n                    <img src=\"bees-with-color/bee-A1DF.svg\" width=\"200\">\n                    <p><span class=\"greenText\"><b>Successful harvest!</b></span><br>Your pay has increased by $0.02. Your bonus pay is now $0.86.</p>\n            ","response":0,"trial_type":"html-button-response","trial_index":104,"time_elapsed":702123,"internal_node_id":"0.0-4.0-1.48","subject_id":"5afdc329fca92600012695ca","study_id":"6197b3f67c2b5cd3b6d9596a","session_id":"619bfbdb55934952f0d622ca","condition":"full-information","relevant_dimensions":["wings","legs"],"bee_group":{"antennae":"X","wings":"2","pattern":"X","legs":"F"},"bonus":1.5600000000000012},{"rt":1045.3999999761581,"stimulus":"bees-with-color/bee-B1DM.svg","response":0,"trial_type":"image-button-response","trial_index":105,"time_elapsed":703170,"internal_node_id":"0.0-4.0-0.49","subject_id":"5afdc329fca92600012695ca","study_id":"6197b3f67c2b5cd3b6d9596a","session_id":"619bfbdb55934952f0d622ca","condition":"full-information","relevant_dimensions":["wings","legs"],"bee_group":{"antennae":"X","wings":"2","pattern":"X","legs":"F"},"action":"harvest","summary":"good-harvest","bonus":1.5600000000000012},{"rt":713.9000000059605,"stimulus":"\n                    <p><b>Action: <em>harvest</em></b></p>\n                    <p>This is the bee that you just saw.</p>\n                    <img src=\"bees-with-color/bee-B1DM.svg\" width=\"200\">\n                    <p><span class=\"greenText\"><b>Successful harvest!</b></span><br>Your pay has increased by $0.02. Your bonus pay is now $0.88.</p>\n            ","response":0,"trial_type":"html-button-response","trial_index":106,"time_elapsed":703888,"internal_node_id":"0.0-4.0-1.49","subject_id":"5afdc329fca92600012695ca","study_id":"6197b3f67c2b5cd3b6d9596a","session_id":"619bfbdb55934952f0d622ca","condition":"full-information","relevant_dimensions":["wings","legs"],"bee_group":{"antennae":"X","wings":"2","pattern":"X","legs":"F"},"bonus":1.5600000000000012},{"rt":1579.7000000178814,"stimulus":"bees-with-color/bee-B2SF.svg","response":1,"trial_type":"image-button-response","trial_index":107,"time_elapsed":705470,"internal_node_id":"0.0-4.0-0.50","subject_id":"5afdc329fca92600012695ca","study_id":"6197b3f67c2b5cd3b6d9596a","session_id":"619bfbdb55934952f0d622ca","condition":"full-information","relevant_dimensions":["wings","legs"],"bee_group":{"antennae":"X","wings":"2","pattern":"X","legs":"F"},"action":"avoid","summary":"good-avoid","bonus":1.5600000000000012},{"rt":828.2999999821186,"stimulus":"\n                    <p><b>Action: <em>avoid</em></b></p>\n                    <p>This is the bee that you just saw.</p>\n                    <img src=\"bees-with-color/bee-B2SF.svg\" width=\"200\">\n                    <p><span class=\"greenText\">Good choice!</span>  This bee would have stung you.<br>Your bonus pay is unchanged, and remains at $0.88.</p>\n            ","response":0,"trial_type":"html-button-response","trial_index":108,"time_elapsed":706300,"internal_node_id":"0.0-4.0-1.50","subject_id":"5afdc329fca92600012695ca","study_id":"6197b3f67c2b5cd3b6d9596a","session_id":"619bfbdb55934952f0d622ca","condition":"full-information","relevant_dimensions":["wings","legs"],"bee_group":{"antennae":"X","wings":"2","pattern":"X","legs":"F"},"bonus":1.5600000000000012},{"rt":982.3999999761581,"stimulus":"bees-with-color/bee-A2SM.svg","response":0,"trial_type":"image-button-response","trial_index":109,"time_elapsed":707285,"internal_node_id":"0.0-4.0-0.51","subject_id":"5afdc329fca92600012695ca","study_id":"6197b3f67c2b5cd3b6d9596a","session_id":"619bfbdb55934952f0d622ca","condition":"full-information","relevant_dimensions":["wings","legs"],"bee_group":{"antennae":"X","wings":"2","pattern":"X","legs":"F"},"action":"harvest","summary":"good-harvest","bonus":1.5600000000000012},{"rt":1016.6000000238419,"stimulus":"\n                    <p><b>Action: <em>harvest</em></b></p>\n                    <p>This is the bee that you just saw.</p>\n                    <img src=\"bees-with-color/bee-A2SM.svg\" width=\"200\">\n                    <p><span class=\"greenText\"><b>Successful harvest!</b></span><br>Your pay has increased by $0.02. Your bonus pay is now $0.90.</p>\n            ","response":0,"trial_type":"html-button-response","trial_index":110,"time_elapsed":708304,"internal_node_id":"0.0-4.0-1.51","subject_id":"5afdc329fca92600012695ca","study_id":"6197b3f67c2b5cd3b6d9596a","session_id":"619bfbdb55934952f0d622ca","condition":"full-information","relevant_dimensions":["wings","legs"],"bee_group":{"antennae":"X","wings":"2","pattern":"X","legs":"F"},"bonus":1.5600000000000012},{"rt":1051.5,"stimulus":"bees-with-color/bee-A1SF.svg","response":0,"trial_type":"image-button-response","trial_index":111,"time_elapsed":709357,"internal_node_id":"0.0-4.0-0.52","subject_id":"5afdc329fca92600012695ca","study_id":"6197b3f67c2b5cd3b6d9596a","session_id":"619bfbdb55934952f0d622ca","condition":"full-information","relevant_dimensions":["wings","legs"],"bee_group":{"antennae":"X","wings":"2","pattern":"X","legs":"F"},"action":"harvest","summary":"good-harvest","bonus":1.5600000000000012},{"rt":904.4000000059605,"stimulus":"\n                    <p><b>Action: <em>harvest</em></b></p>\n                    <p>This is the bee that you just saw.</p>\n                    <img src=\"bees-with-color/bee-A1SF.svg\" width=\"200\">\n                    <p><span class=\"greenText\"><b>Successful harvest!</b></span><br>Your pay has increased by $0.02. Your bonus pay is now $0.92.</p>\n            ","response":0,"trial_type":"html-button-response","trial_index":112,"time_elapsed":710263,"internal_node_id":"0.0-4.0-1.52","subject_id":"5afdc329fca92600012695ca","study_id":"6197b3f67c2b5cd3b6d9596a","session_id":"619bfbdb55934952f0d622ca","condition":"full-information","relevant_dimensions":["wings","legs"],"bee_group":{"antennae":"X","wings":"2","pattern":"X","legs":"F"},"bonus":1.5600000000000012},{"rt":824.7999999821186,"stimulus":"bees-with-color/bee-A1SM.svg","response":0,"trial_type":"image-button-response","trial_index":113,"time_elapsed":711090,"internal_node_id":"0.0-4.0-0.53","subject_id":"5afdc329fca92600012695ca","study_id":"6197b3f67c2b5cd3b6d9596a","session_id":"619bfbdb55934952f0d622ca","condition":"full-information","relevant_dimensions":["wings","legs"],"bee_group":{"antennae":"X","wings":"2","pattern":"X","legs":"F"},"action":"harvest","summary":"good-harvest","bonus":1.5600000000000012},{"rt":649.3000000119209,"stimulus":"\n                    <p><b>Action: <em>harvest</em></b></p>\n                    <p>This is the bee that you just saw.</p>\n                    <img src=\"bees-with-color/bee-A1SM.svg\" width=\"200\">\n                    <p><span class=\"greenText\"><b>Successful harvest!</b></span><br>Your pay has increased by $0.02. Your bonus pay is now $0.94.</p>\n            ","response":0,"trial_type":"html-button-response","trial_index":114,"time_elapsed":711742,"internal_node_id":"0.0-4.0-1.53","subject_id":"5afdc329fca92600012695ca","study_id":"6197b3f67c2b5cd3b6d9596a","session_id":"619bfbdb55934952f0d622ca","condition":"full-information","relevant_dimensions":["wings","legs"],"bee_group":{"antennae":"X","wings":"2","pattern":"X","legs":"F"},"bonus":1.5600000000000012},{"rt":1137.0999999940395,"stimulus":"bees-with-color/bee-B1SF.svg","response":0,"trial_type":"image-button-response","trial_index":115,"time_elapsed":712881,"internal_node_id":"0.0-4.0-0.54","subject_id":"5afdc329fca92600012695ca","study_id":"6197b3f67c2b5cd3b6d9596a","session_id":"619bfbdb55934952f0d622ca","condition":"full-information","relevant_dimensions":["wings","legs"],"bee_group":{"antennae":"X","wings":"2","pattern":"X","legs":"F"},"action":"harvest","summary":"good-harvest","bonus":1.5600000000000012},{"rt":920.4000000059605,"stimulus":"\n                    <p><b>Action: <em>harvest</em></b></p>\n                    <p>This is the bee that you just saw.</p>\n                    <img src=\"bees-with-color/bee-B1SF.svg\" width=\"200\">\n                    <p><span class=\"greenText\"><b>Successful harvest!</b></span><br>Your pay has increased by $0.02. Your bonus pay is now $0.96.</p>\n            ","response":0,"trial_type":"html-button-response","trial_index":116,"time_elapsed":713803,"internal_node_id":"0.0-4.0-1.54","subject_id":"5afdc329fca92600012695ca","study_id":"6197b3f67c2b5cd3b6d9596a","session_id":"619bfbdb55934952f0d622ca","condition":"full-information","relevant_dimensions":["wings","legs"],"bee_group":{"antennae":"X","wings":"2","pattern":"X","legs":"F"},"bonus":1.5600000000000012},{"rt":3565.699999988079,"stimulus":"bees-with-color/bee-B2DF.svg","response":1,"trial_type":"image-button-response","trial_index":117,"time_elapsed":717371,"internal_node_id":"0.0-4.0-0.55","subject_id":"5afdc329fca92600012695ca","study_id":"6197b3f67c2b5cd3b6d9596a","session_id":"619bfbdb55934952f0d622ca","condition":"full-information","relevant_dimensions":["wings","legs"],"bee_group":{"antennae":"X","wings":"2","pattern":"X","legs":"F"},"action":"avoid","summary":"good-avoid","bonus":1.5600000000000012},{"rt":698.2999999821186,"stimulus":"\n                    <p><b>Action: <em>avoid</em></b></p>\n                    <p>This is the bee that you just saw.</p>\n                    <img src=\"bees-with-color/bee-B2DF.svg\" width=\"200\">\n                    <p><span class=\"greenText\">Good choice!</span>  This bee would have stung you.<br>Your bonus pay is unchanged, and remains at $0.96.</p>\n            ","response":0,"trial_type":"html-button-response","trial_index":118,"time_elapsed":718071,"internal_node_id":"0.0-4.0-1.55","subject_id":"5afdc329fca92600012695ca","study_id":"6197b3f67c2b5cd3b6d9596a","session_id":"619bfbdb55934952f0d622ca","condition":"full-information","relevant_dimensions":["wings","legs"],"bee_group":{"antennae":"X","wings":"2","pattern":"X","legs":"F"},"bonus":1.5600000000000012},{"rt":990.1000000238419,"stimulus":"bees-with-color/bee-B1DF.svg","response":0,"trial_type":"image-button-response","trial_index":119,"time_elapsed":719065,"internal_node_id":"0.0-4.0-0.56","subject_id":"5afdc329fca92600012695ca","study_id":"6197b3f67c2b5cd3b6d9596a","session_id":"619bfbdb55934952f0d622ca","condition":"full-information","relevant_dimensions":["wings","legs"],"bee_group":{"antennae":"X","wings":"2","pattern":"X","legs":"F"},"action":"harvest","summary":"good-harvest","bonus":1.5600000000000012},{"rt":723.7999999821186,"stimulus":"\n                    <p><b>Action: <em>harvest</em></b></p>\n                    <p>This is the bee that you just saw.</p>\n                    <img src=\"bees-with-color/bee-B1DF.svg\" width=\"200\">\n                    <p><span class=\"greenText\"><b>Successful harvest!</b></span><br>Your pay has increased by $0.02. Your bonus pay is now $0.98.</p>\n            ","response":0,"trial_type":"html-button-response","trial_index":120,"time_elapsed":719791,"internal_node_id":"0.0-4.0-1.56","subject_id":"5afdc329fca92600012695ca","study_id":"6197b3f67c2b5cd3b6d9596a","session_id":"619bfbdb55934952f0d622ca","condition":"full-information","relevant_dimensions":["wings","legs"],"bee_group":{"antennae":"X","wings":"2","pattern":"X","legs":"F"},"bonus":1.5600000000000012},{"rt":934.7000000178814,"stimulus":"bees-with-color/bee-A2DM.svg","response":0,"trial_type":"image-button-response","trial_index":121,"time_elapsed":720727,"internal_node_id":"0.0-4.0-0.57","subject_id":"5afdc329fca92600012695ca","study_id":"6197b3f67c2b5cd3b6d9596a","session_id":"619bfbdb55934952f0d622ca","condition":"full-information","relevant_dimensions":["wings","legs"],"bee_group":{"antennae":"X","wings":"2","pattern":"X","legs":"F"},"action":"harvest","summary":"good-harvest","bonus":1.5600000000000012},{"rt":659.8000000119209,"stimulus":"\n                    <p><b>Action: <em>harvest</em></b></p>\n                    <p>This is the bee that you just saw.</p>\n                    <img src=\"bees-with-color/bee-A2DM.svg\" width=\"200\">\n                    <p><span class=\"greenText\"><b>Successful harvest!</b></span><br>Your pay has increased by $0.02. Your bonus pay is now $1.00.</p>\n            ","response":0,"trial_type":"html-button-response","trial_index":122,"time_elapsed":721389,"internal_node_id":"0.0-4.0-1.57","subject_id":"5afdc329fca92600012695ca","study_id":"6197b3f67c2b5cd3b6d9596a","session_id":"619bfbdb55934952f0d622ca","condition":"full-information","relevant_dimensions":["wings","legs"],"bee_group":{"antennae":"X","wings":"2","pattern":"X","legs":"F"},"bonus":1.5600000000000012},{"rt":1175.800000011921,"stimulus":"bees-with-color/bee-B1SM.svg","response":0,"trial_type":"image-button-response","trial_index":123,"time_elapsed":722567,"internal_node_id":"0.0-4.0-0.58","subject_id":"5afdc329fca92600012695ca","study_id":"6197b3f67c2b5cd3b6d9596a","session_id":"619bfbdb55934952f0d622ca","condition":"full-information","relevant_dimensions":["wings","legs"],"bee_group":{"antennae":"X","wings":"2","pattern":"X","legs":"F"},"action":"harvest","summary":"good-harvest","bonus":1.5600000000000012},{"rt":761.5999999940395,"stimulus":"\n                    <p><b>Action: <em>harvest</em></b></p>\n                    <p>This is the bee that you just saw.</p>\n                    <img src=\"bees-with-color/bee-B1SM.svg\" width=\"200\">\n                    <p><span class=\"greenText\"><b>Successful harvest!</b></span><br>Your pay has increased by $0.02. Your bonus pay is now $1.02.</p>\n            ","response":0,"trial_type":"html-button-response","trial_index":124,"time_elapsed":723331,"internal_node_id":"0.0-4.0-1.58","subject_id":"5afdc329fca92600012695ca","study_id":"6197b3f67c2b5cd3b6d9596a","session_id":"619bfbdb55934952f0d622ca","condition":"full-information","relevant_dimensions":["wings","legs"],"bee_group":{"antennae":"X","wings":"2","pattern":"X","legs":"F"},"bonus":1.5600000000000012},{"rt":1364.699999988079,"stimulus":"bees-with-color/bee-B2DM.svg","response":0,"trial_type":"image-button-response","trial_index":125,"time_elapsed":724698,"internal_node_id":"0.0-4.0-0.59","subject_id":"5afdc329fca92600012695ca","study_id":"6197b3f67c2b5cd3b6d9596a","session_id":"619bfbdb55934952f0d622ca","condition":"full-information","relevant_dimensions":["wings","legs"],"bee_group":{"antennae":"X","wings":"2","pattern":"X","legs":"F"},"action":"harvest","summary":"good-harvest","bonus":1.5600000000000012},{"rt":584,"stimulus":"\n                    <p><b>Action: <em>harvest</em></b></p>\n                    <p>This is the bee that you just saw.</p>\n                    <img src=\"bees-with-color/bee-B2DM.svg\" width=\"200\">\n                    <p><span class=\"greenText\"><b>Successful harvest!</b></span><br>Your pay has increased by $0.02. Your bonus pay is now $1.04.</p>\n            ","response":0,"trial_type":"html-button-response","trial_index":126,"time_elapsed":725284,"internal_node_id":"0.0-4.0-1.59","subject_id":"5afdc329fca92600012695ca","study_id":"6197b3f67c2b5cd3b6d9596a","session_id":"619bfbdb55934952f0d622ca","condition":"full-information","relevant_dimensions":["wings","legs"],"bee_group":{"antennae":"X","wings":"2","pattern":"X","legs":"F"},"bonus":1.5600000000000012},{"rt":1259,"stimulus":"bees-with-color/bee-A2SF.svg","response":1,"trial_type":"image-button-response","trial_index":127,"time_elapsed":726545,"internal_node_id":"0.0-4.0-0.60","subject_id":"5afdc329fca92600012695ca","study_id":"6197b3f67c2b5cd3b6d9596a","session_id":"619bfbdb55934952f0d622ca","condition":"full-information","relevant_dimensions":["wings","legs"],"bee_group":{"antennae":"X","wings":"2","pattern":"X","legs":"F"},"action":"avoid","summary":"good-avoid","bonus":1.5600000000000012},{"rt":933.6999999880791,"stimulus":"\n                    <p><b>Action: <em>avoid</em></b></p>\n                    <p>This is the bee that you just saw.</p>\n                    <img src=\"bees-with-color/bee-A2SF.svg\" width=\"200\">\n                    <p><span class=\"greenText\">Good choice!</span>  This bee would have stung you.<br>Your bonus pay is unchanged, and remains at $1.04.</p>\n            ","response":0,"trial_type":"html-button-response","trial_index":128,"time_elapsed":727482,"internal_node_id":"0.0-4.0-1.60","subject_id":"5afdc329fca92600012695ca","study_id":"6197b3f67c2b5cd3b6d9596a","session_id":"619bfbdb55934952f0d622ca","condition":"full-information","relevant_dimensions":["wings","legs"],"bee_group":{"antennae":"X","wings":"2","pattern":"X","legs":"F"},"bonus":1.5600000000000012},{"rt":659.4000000059605,"stimulus":"bees-with-color/bee-B2SM.svg","response":0,"trial_type":"image-button-response","trial_index":129,"time_elapsed":728144,"internal_node_id":"0.0-4.0-0.61","subject_id":"5afdc329fca92600012695ca","study_id":"6197b3f67c2b5cd3b6d9596a","session_id":"619bfbdb55934952f0d622ca","condition":"full-information","relevant_dimensions":["wings","legs"],"bee_group":{"antennae":"X","wings":"2","pattern":"X","legs":"F"},"action":"harvest","summary":"good-harvest","bonus":1.5600000000000012},{"rt":903.7999999821186,"stimulus":"\n                    <p><b>Action: <em>harvest</em></b></p>\n                    <p>This is the bee that you just saw.</p>\n                    <img src=\"bees-with-color/bee-B2SM.svg\" width=\"200\">\n                    <p><span class=\"greenText\"><b>Successful harvest!</b></span><br>Your pay has increased by $0.02. Your bonus pay is now $1.06.</p>\n            ","response":0,"trial_type":"html-button-response","trial_index":130,"time_elapsed":729050,"internal_node_id":"0.0-4.0-1.61","subject_id":"5afdc329fca92600012695ca","study_id":"6197b3f67c2b5cd3b6d9596a","session_id":"619bfbdb55934952f0d622ca","condition":"full-information","relevant_dimensions":["wings","legs"],"bee_group":{"antennae":"X","wings":"2","pattern":"X","legs":"F"},"bonus":1.5600000000000012},{"rt":1076.0999999940395,"stimulus":"bees-with-color/bee-A1DM.svg","response":0,"trial_type":"image-button-response","trial_index":131,"time_elapsed":730128,"internal_node_id":"0.0-4.0-0.62","subject_id":"5afdc329fca92600012695ca","study_id":"6197b3f67c2b5cd3b6d9596a","session_id":"619bfbdb55934952f0d622ca","condition":"full-information","relevant_dimensions":["wings","legs"],"bee_group":{"antennae":"X","wings":"2","pattern":"X","legs":"F"},"action":"harvest","summary":"good-harvest","bonus":1.5600000000000012},{"rt":585.5,"stimulus":"\n                    <p><b>Action: <em>harvest</em></b></p>\n                    <p>This is the bee that you just saw.</p>\n                    <img src=\"bees-with-color/bee-A1DM.svg\" width=\"200\">\n                    <p><span class=\"greenText\"><b>Successful harvest!</b></span><br>Your pay has increased by $0.02. Your bonus pay is now $1.08.</p>\n            ","response":0,"trial_type":"html-button-response","trial_index":132,"time_elapsed":730717,"internal_node_id":"0.0-4.0-1.62","subject_id":"5afdc329fca92600012695ca","study_id":"6197b3f67c2b5cd3b6d9596a","session_id":"619bfbdb55934952f0d622ca","condition":"full-information","relevant_dimensions":["wings","legs"],"bee_group":{"antennae":"X","wings":"2","pattern":"X","legs":"F"},"bonus":1.5600000000000012},{"rt":995.0999999940395,"stimulus":"bees-with-color/bee-A2DF.svg","response":1,"trial_type":"image-button-response","trial_index":133,"time_elapsed":731714,"internal_node_id":"0.0-4.0-0.63","subject_id":"5afdc329fca92600012695ca","study_id":"6197b3f67c2b5cd3b6d9596a","session_id":"619bfbdb55934952f0d622ca","condition":"full-information","relevant_dimensions":["wings","legs"],"bee_group":{"antennae":"X","wings":"2","pattern":"X","legs":"F"},"action":"avoid","summary":"good-avoid","bonus":1.5600000000000012},{"rt":719.8000000119209,"stimulus":"\n                    <p><b>Action: <em>avoid</em></b></p>\n                    <p>This is the bee that you just saw.</p>\n                    <img src=\"bees-with-color/bee-A2DF.svg\" width=\"200\">\n                    <p><span class=\"greenText\">Good choice!</span>  This bee would have stung you.<br>Your bonus pay is unchanged, and remains at $1.08.</p>\n            ","response":0,"trial_type":"html-button-response","trial_index":134,"time_elapsed":732436,"internal_node_id":"0.0-4.0-1.63","subject_id":"5afdc329fca92600012695ca","study_id":"6197b3f67c2b5cd3b6d9596a","session_id":"619bfbdb55934952f0d622ca","condition":"full-information","relevant_dimensions":["wings","legs"],"bee_group":{"antennae":"X","wings":"2","pattern":"X","legs":"F"},"bonus":1.5600000000000012},{"rt":5574.600000023842,"stimulus":"You have completed the first part of this experiment.<br><br>You will now begin a shorter second part, in which you will receive no feedback.<br>The same rules regarding bonus pay apply.<br><br>Press any key to begin.","response":" ","trial_type":"html-keyboard-response","trial_index":135,"time_elapsed":738013,"internal_node_id":"0.0-5.0","subject_id":"5afdc329fca92600012695ca","study_id":"6197b3f67c2b5cd3b6d9596a","session_id":"619bfbdb55934952f0d622ca","condition":"full-information","relevant_dimensions":["wings","legs"],"bee_group":{"antennae":"X","wings":"2","pattern":"X","legs":"F"},"bonus":1.5600000000000012},{"rt":2901.5,"stimulus":"bees-with-color/bee-A2DF.svg","response":1,"trial_type":"image-button-response","trial_index":136,"time_elapsed":740928,"internal_node_id":"0.0-6.0-0.0","subject_id":"5afdc329fca92600012695ca","study_id":"6197b3f67c2b5cd3b6d9596a","session_id":"619bfbdb55934952f0d622ca","condition":"full-information","relevant_dimensions":["wings","legs"],"bee_group":{"antennae":"X","wings":"2","pattern":"X","legs":"F"},"bonus":1.5600000000000012},{"rt":1603.199999988079,"stimulus":"bees-with-color/bee-B1SM.svg","response":0,"trial_type":"image-button-response","trial_index":137,"time_elapsed":742536,"internal_node_id":"0.0-6.0-0.1","subject_id":"5afdc329fca92600012695ca","study_id":"6197b3f67c2b5cd3b6d9596a","session_id":"619bfbdb55934952f0d622ca","condition":"full-information","relevant_dimensions":["wings","legs"],"bee_group":{"antennae":"X","wings":"2","pattern":"X","legs":"F"},"bonus":1.5600000000000012},{"rt":1253.6000000238419,"stimulus":"bees-with-color/bee-A2DM.svg","response":0,"trial_type":"image-button-response","trial_index":138,"time_elapsed":743792,"internal_node_id":"0.0-6.0-0.2","subject_id":"5afdc329fca92600012695ca","study_id":"6197b3f67c2b5cd3b6d9596a","session_id":"619bfbdb55934952f0d622ca","condition":"full-information","relevant_dimensions":["wings","legs"],"bee_group":{"antennae":"X","wings":"2","pattern":"X","legs":"F"},"bonus":1.5600000000000012},{"rt":1428.1000000238419,"stimulus":"bees-with-color/bee-B2DF.svg","response":1,"trial_type":"image-button-response","trial_index":139,"time_elapsed":745224,"internal_node_id":"0.0-6.0-0.3","subject_id":"5afdc329fca92600012695ca","study_id":"6197b3f67c2b5cd3b6d9596a","session_id":"619bfbdb55934952f0d622ca","condition":"full-information","relevant_dimensions":["wings","legs"],"bee_group":{"antennae":"X","wings":"2","pattern":"X","legs":"F"},"bonus":1.5600000000000012},{"rt":1125.5,"stimulus":"bees-with-color/bee-B1DM.svg","response":0,"trial_type":"image-button-response","trial_index":140,"time_elapsed":746353,"internal_node_id":"0.0-6.0-0.4","subject_id":"5afdc329fca92600012695ca","study_id":"6197b3f67c2b5cd3b6d9596a","session_id":"619bfbdb55934952f0d622ca","condition":"full-information","relevant_dimensions":["wings","legs"],"bee_group":{"antennae":"X","wings":"2","pattern":"X","legs":"F"},"bonus":1.5600000000000012},{"rt":934.6999999880791,"stimulus":"bees-with-color/bee-A2SM.svg","response":0,"trial_type":"image-button-response","trial_index":141,"time_elapsed":747292,"internal_node_id":"0.0-6.0-0.5","subject_id":"5afdc329fca92600012695ca","study_id":"6197b3f67c2b5cd3b6d9596a","session_id":"619bfbdb55934952f0d622ca","condition":"full-information","relevant_dimensions":["wings","legs"],"bee_group":{"antennae":"X","wings":"2","pattern":"X","legs":"F"},"bonus":1.5600000000000012},{"rt":799.1000000238419,"stimulus":"bees-with-color/bee-A1DM.svg","response":0,"trial_type":"image-button-response","trial_index":142,"time_elapsed":748095,"internal_node_id":"0.0-6.0-0.6","subject_id":"5afdc329fca92600012695ca","study_id":"6197b3f67c2b5cd3b6d9596a","session_id":"619bfbdb55934952f0d622ca","condition":"full-information","relevant_dimensions":["wings","legs"],"bee_group":{"antennae":"X","wings":"2","pattern":"X","legs":"F"},"bonus":1.5600000000000012},{"rt":1161.4000000059605,"stimulus":"bees-with-color/bee-A1DF.svg","response":0,"trial_type":"image-button-response","trial_index":143,"time_elapsed":749260,"internal_node_id":"0.0-6.0-0.7","subject_id":"5afdc329fca92600012695ca","study_id":"6197b3f67c2b5cd3b6d9596a","session_id":"619bfbdb55934952f0d622ca","condition":"full-information","relevant_dimensions":["wings","legs"],"bee_group":{"antennae":"X","wings":"2","pattern":"X","legs":"F"},"bonus":1.5600000000000012},{"rt":985.3999999761581,"stimulus":"bees-with-color/bee-B1SF.svg","response":0,"trial_type":"image-button-response","trial_index":144,"time_elapsed":750249,"internal_node_id":"0.0-6.0-0.8","subject_id":"5afdc329fca92600012695ca","study_id":"6197b3f67c2b5cd3b6d9596a","session_id":"619bfbdb55934952f0d622ca","condition":"full-information","relevant_dimensions":["wings","legs"],"bee_group":{"antennae":"X","wings":"2","pattern":"X","legs":"F"},"bonus":1.5600000000000012},{"rt":1319.4000000059605,"stimulus":"bees-with-color/bee-B2SF.svg","response":1,"trial_type":"image-button-response","trial_index":145,"time_elapsed":751572,"internal_node_id":"0.0-6.0-0.9","subject_id":"5afdc329fca92600012695ca","study_id":"6197b3f67c2b5cd3b6d9596a","session_id":"619bfbdb55934952f0d622ca","condition":"full-information","relevant_dimensions":["wings","legs"],"bee_group":{"antennae":"X","wings":"2","pattern":"X","legs":"F"},"bonus":1.5600000000000012},{"rt":884.0999999940395,"stimulus":"bees-with-color/bee-A1SM.svg","response":0,"trial_type":"image-button-response","trial_index":146,"time_elapsed":752460,"internal_node_id":"0.0-6.0-0.10","subject_id":"5afdc329fca92600012695ca","study_id":"6197b3f67c2b5cd3b6d9596a","session_id":"619bfbdb55934952f0d622ca","condition":"full-information","relevant_dimensions":["wings","legs"],"bee_group":{"antennae":"X","wings":"2","pattern":"X","legs":"F"},"bonus":1.5600000000000012},{"rt":1279.5999999940395,"stimulus":"bees-with-color/bee-B1DF.svg","response":0,"trial_type":"image-button-response","trial_index":147,"time_elapsed":753742,"internal_node_id":"0.0-6.0-0.11","subject_id":"5afdc329fca92600012695ca","study_id":"6197b3f67c2b5cd3b6d9596a","session_id":"619bfbdb55934952f0d622ca","condition":"full-information","relevant_dimensions":["wings","legs"],"bee_group":{"antennae":"X","wings":"2","pattern":"X","legs":"F"},"bonus":1.5600000000000012},{"rt":1203.199999988079,"stimulus":"bees-with-color/bee-A2SF.svg","response":1,"trial_type":"image-button-response","trial_index":148,"time_elapsed":754948,"internal_node_id":"0.0-6.0-0.12","subject_id":"5afdc329fca92600012695ca","study_id":"6197b3f67c2b5cd3b6d9596a","session_id":"619bfbdb55934952f0d622ca","condition":"full-information","relevant_dimensions":["wings","legs"],"bee_group":{"antennae":"X","wings":"2","pattern":"X","legs":"F"},"bonus":1.5600000000000012},{"rt":893.2000000178814,"stimulus":"bees-with-color/bee-A1SF.svg","response":0,"trial_type":"image-button-response","trial_index":149,"time_elapsed":755844,"internal_node_id":"0.0-6.0-0.13","subject_id":"5afdc329fca92600012695ca","study_id":"6197b3f67c2b5cd3b6d9596a","session_id":"619bfbdb55934952f0d622ca","condition":"full-information","relevant_dimensions":["wings","legs"],"bee_group":{"antennae":"X","wings":"2","pattern":"X","legs":"F"},"bonus":1.5600000000000012},{"rt":869.9000000059605,"stimulus":"bees-with-color/bee-B2SM.svg","response":0,"trial_type":"image-button-response","trial_index":150,"time_elapsed":756717,"internal_node_id":"0.0-6.0-0.14","subject_id":"5afdc329fca92600012695ca","study_id":"6197b3f67c2b5cd3b6d9596a","session_id":"619bfbdb55934952f0d622ca","condition":"full-information","relevant_dimensions":["wings","legs"],"bee_group":{"antennae":"X","wings":"2","pattern":"X","legs":"F"},"bonus":1.5600000000000012},{"rt":2080.0999999940395,"stimulus":"bees-with-color/bee-B2DM.svg","response":0,"trial_type":"image-button-response","trial_index":151,"time_elapsed":758801,"internal_node_id":"0.0-6.0-0.15","subject_id":"5afdc329fca92600012695ca","study_id":"6197b3f67c2b5cd3b6d9596a","session_id":"619bfbdb55934952f0d622ca","condition":"full-information","relevant_dimensions":["wings","legs"],"bee_group":{"antennae":"X","wings":"2","pattern":"X","legs":"F"},"bonus":1.5600000000000012},{"rt":1169.1000000238419,"stimulus":"bees-with-color/bee-B1SF.svg","response":0,"trial_type":"image-button-response","trial_index":152,"time_elapsed":759972,"internal_node_id":"0.0-6.0-0.16","subject_id":"5afdc329fca92600012695ca","study_id":"6197b3f67c2b5cd3b6d9596a","session_id":"619bfbdb55934952f0d622ca","condition":"full-information","relevant_dimensions":["wings","legs"],"bee_group":{"antennae":"X","wings":"2","pattern":"X","legs":"F"},"bonus":1.5600000000000012},{"rt":1133.2000000178814,"stimulus":"bees-with-color/bee-A2DF.svg","response":1,"trial_type":"image-button-response","trial_index":153,"time_elapsed":761109,"internal_node_id":"0.0-6.0-0.17","subject_id":"5afdc329fca92600012695ca","study_id":"6197b3f67c2b5cd3b6d9596a","session_id":"619bfbdb55934952f0d622ca","condition":"full-information","relevant_dimensions":["wings","legs"],"bee_group":{"antennae":"X","wings":"2","pattern":"X","legs":"F"},"bonus":1.5600000000000012},{"rt":1499.9000000059605,"stimulus":"bees-with-color/bee-B2SF.svg","response":1,"trial_type":"image-button-response","trial_index":154,"time_elapsed":762612,"internal_node_id":"0.0-6.0-0.18","subject_id":"5afdc329fca92600012695ca","study_id":"6197b3f67c2b5cd3b6d9596a","session_id":"619bfbdb55934952f0d622ca","condition":"full-information","relevant_dimensions":["wings","legs"],"bee_group":{"antennae":"X","wings":"2","pattern":"X","legs":"F"},"bonus":1.5600000000000012},{"rt":854.1999999880791,"stimulus":"bees-with-color/bee-B1SM.svg","response":0,"trial_type":"image-button-response","trial_index":155,"time_elapsed":763469,"internal_node_id":"0.0-6.0-0.19","subject_id":"5afdc329fca92600012695ca","study_id":"6197b3f67c2b5cd3b6d9596a","session_id":"619bfbdb55934952f0d622ca","condition":"full-information","relevant_dimensions":["wings","legs"],"bee_group":{"antennae":"X","wings":"2","pattern":"X","legs":"F"},"bonus":1.5600000000000012},{"rt":801.0999999940395,"stimulus":"bees-with-color/bee-A1SM.svg","response":0,"trial_type":"image-button-response","trial_index":156,"time_elapsed":764273,"internal_node_id":"0.0-6.0-0.20","subject_id":"5afdc329fca92600012695ca","study_id":"6197b3f67c2b5cd3b6d9596a","session_id":"619bfbdb55934952f0d622ca","condition":"full-information","relevant_dimensions":["wings","legs"],"bee_group":{"antennae":"X","wings":"2","pattern":"X","legs":"F"},"bonus":1.5600000000000012},{"rt":958.9000000059605,"stimulus":"bees-with-color/bee-A1SF.svg","response":0,"trial_type":"image-button-response","trial_index":157,"time_elapsed":765235,"internal_node_id":"0.0-6.0-0.21","subject_id":"5afdc329fca92600012695ca","study_id":"6197b3f67c2b5cd3b6d9596a","session_id":"619bfbdb55934952f0d622ca","condition":"full-information","relevant_dimensions":["wings","legs"],"bee_group":{"antennae":"X","wings":"2","pattern":"X","legs":"F"},"bonus":1.5600000000000012},{"rt":1197,"stimulus":"bees-with-color/bee-B2DM.svg","response":0,"trial_type":"image-button-response","trial_index":158,"time_elapsed":766434,"internal_node_id":"0.0-6.0-0.22","subject_id":"5afdc329fca92600012695ca","study_id