[{"success":true,"trial_type":"fullscreen","trial_index":0,"time_elapsed":3939,"internal_node_id":"0.0-0.0","subject_id":"5ce9b0e4be5a6b00163f6870","study_id":"6197b3f67c2b5cd3b6d9596a","session_id":"619c0041401e5658fd5ea221","condition":"contingent","relevant_dimensions":["antennae","pattern"],"bee_group":{"antennae":"B","wings":"X","pattern":"D","legs":"X"},"bonus":1.4000000000000008},{"success":true,"timeout":false,"failed_images":[],"failed_audio":[],"failed_video":[],"trial_type":"preload","trial_index":1,"time_elapsed":5377,"internal_node_id":"0.0-1.0","subject_id":"5ce9b0e4be5a6b00163f6870","study_id":"6197b3f67c2b5cd3b6d9596a","session_id":"619c0041401e5658fd5ea221","condition":"contingent","relevant_dimensions":["antennae","pattern"],"bee_group":{"antennae":"B","wings":"X","pattern":"D","legs":"X"},"bonus":1.4000000000000008},{"rt":3583.100000000006,"stimulus":"Welcome! Press any key to begin.","response":"m","trial_type":"html-keyboard-response","trial_index":2,"time_elapsed":8962,"internal_node_id":"0.0-2.0","subject_id":"5ce9b0e4be5a6b00163f6870","study_id":"6197b3f67c2b5cd3b6d9596a","session_id":"619c0041401e5658fd5ea221","condition":"contingent","relevant_dimensions":["antennae","pattern"],"bee_group":{"antennae":"B","wings":"X","pattern":"D","legs":"X"},"bonus":1.4000000000000008},{"view_history":[{"page_index":0,"viewing_time":7301.699999999997},{"page_index":1,"viewing_time":33907.90000000001},{"page_index":2,"viewing_time":16479.899999999994},{"page_index":3,"viewing_time":28096.70000000001},{"page_index":4,"viewing_time":7331.299999999988},{"page_index":5,"viewing_time":14536},{"page_index":6,"viewing_time":21600.09999999999},{"page_index":7,"viewing_time":12639.900000000023},{"page_index":8,"viewing_time":8679.799999999988},{"page_index":9,"viewing_time":7240.299999999988},{"page_index":10,"viewing_time":8376},{"page_index":11,"viewing_time":8408.100000000035},{"page_index":12,"viewing_time":17792},{"page_index":13,"viewing_time":1736},{"page_index":14,"viewing_time":1527.899999999965}],"rt":195653.90000000002,"trial_type":"instructions","trial_index":3,"time_elapsed":204617,"internal_node_id":"0.0-3.0-0.0","subject_id":"5ce9b0e4be5a6b00163f6870","study_id":"6197b3f67c2b5cd3b6d9596a","session_id":"619c0041401e5658fd5ea221","condition":"contingent","relevant_dimensions":["antennae","pattern"],"bee_group":{"antennae":"B","wings":"X","pattern":"D","legs":"X"},"bonus":1.4000000000000008},{"rt":12549.799999999988,"response":{"Q0":["Two or six legs","Stripes or spots on body","Single or double wings","Antennae or no antennae"]},"question_order":[0],"trial_type":"survey-multi-select","trial_index":4,"time_elapsed":217169,"internal_node_id":"0.0-3.0-1.0","subject_id":"5ce9b0e4be5a6b00163f6870","study_id":"6197b3f67c2b5cd3b6d9596a","session_id":"619c0041401e5658fd5ea221","condition":"contingent","relevant_dimensions":["antennae","pattern"],"bee_group":{"antennae":"B","wings":"X","pattern":"D","legs":"X"},"correct":true,"bonus":1.4000000000000008},{"rt":18430.199999999953,"response":{"Q1":"No.","Q2":"Based on the four features of the bee.","Q3":"You do not learn if it was friendly or dangerous, and do not alter your bonus."},"question_order":[0,1,2],"trial_type":"survey-multi-choice","trial_index":5,"time_elapsed":235601,"internal_node_id":"0.0-3.0-2.0","subject_id":"5ce9b0e4be5a6b00163f6870","study_id":"6197b3f67c2b5cd3b6d9596a","session_id":"619c0041401e5658fd5ea221","condition":"contingent","relevant_dimensions":["antennae","pattern"],"bee_group":{"antennae":"B","wings":"X","pattern":"D","legs":"X"},"correct":true,"bonus":1.4000000000000008},{"rt":3170.399999999965,"stimulus":"<p>Congrats, you got everything right<br>When you're ready, click the button below to continue to the experiment.</p>","response":0,"trial_type":"html-button-response","trial_index":6,"time_elapsed":238773,"internal_node_id":"0.0-3.0-3.0","subject_id":"5ce9b0e4be5a6b00163f6870","study_id":"6197b3f67c2b5cd3b6d9596a","session_id":"619c0041401e5658fd5ea221","condition":"contingent","relevant_dimensions":["antennae","pattern"],"bee_group":{"antennae":"B","wings":"X","pattern":"D","legs":"X"},"bonus":1.4000000000000008},{"rt":7006.200000000012,"stimulus":"bees-with-color/bee-B2SF.svg","response":0,"trial_type":"image-button-response","trial_index":7,"time_elapsed":245781,"internal_node_id":"0.0-4.0-0.0","subject_id":"5ce9b0e4be5a6b00163f6870","study_id":"6197b3f67c2b5cd3b6d9596a","session_id":"619c0041401e5658fd5ea221","condition":"contingent","relevant_dimensions":["antennae","pattern"],"bee_group":{"antennae":"B","wings":"X","pattern":"D","legs":"X"},"action":"harvest","summary":"good-harvest","bonus":1.4000000000000008},{"rt":11065.5,"stimulus":"\n                    <p><b>Action: <em>harvest</em></b></p>\n                    <p>This is the bee that you just saw.</p>\n                    <img src=\"bees-with-color/bee-B2SF.svg\" width=\"200\">\n                    <p><span class=\"greenText\"><b>Successful harvest!</b></span><br>Your pay has increased by $0.02. Your bonus pay is now $0.56.</p>\n            ","response":0,"trial_type":"html-button-response","trial_index":8,"time_elapsed":256849,"internal_node_id":"0.0-4.0-1.0","subject_id":"5ce9b0e4be5a6b00163f6870","study_id":"6197b3f67c2b5cd3b6d9596a","session_id":"619c0041401e5658fd5ea221","condition":"contingent","relevant_dimensions":["antennae","pattern"],"bee_group":{"antennae":"B","wings":"X","pattern":"D","legs":"X"},"bonus":1.4000000000000008},{"rt":6694.400000000023,"stimulus":"bees-with-color/bee-A2DM.svg","response":1,"trial_type":"image-button-response","trial_index":9,"time_elapsed":263545,"internal_node_id":"0.0-4.0-0.1","subject_id":"5ce9b0e4be5a6b00163f6870","study_id":"6197b3f67c2b5cd3b6d9596a","session_id":"619c0041401e5658fd5ea221","condition":"contingent","relevant_dimensions":["antennae","pattern"],"bee_group":{"antennae":"B","wings":"X","pattern":"D","legs":"X"},"action":"avoid","summary":"bad-avoid","bonus":1.4000000000000008},{"rt":4715,"stimulus":"\n                    <p><b>Action: <em>avoid</em></b></p>\n                    <p>This is the bee that you just saw.</p>\n                    <img src=\"bees-with-color/bee-A2DM.svg\" width=\"200\">\n                    <p><br>Your bonus pay is unchanged, and remains at $0.56.</p>\n            ","response":0,"trial_type":"html-button-response","trial_index":10,"time_elapsed":268261,"internal_node_id":"0.0-4.0-1.1","subject_id":"5ce9b0e4be5a6b00163f6870","study_id":"6197b3f67c2b5cd3b6d9596a","session_id":"619c0041401e5658fd5ea221","condition":"contingent","relevant_dimensions":["antennae","pattern"],"bee_group":{"antennae":"B","wings":"X","pattern":"D","legs":"X"},"bonus":1.4000000000000008},{"rt":3862.2000000000116,"stimulus":"bees-with-color/bee-B1SM.svg","response":0,"trial_type":"image-button-response","trial_index":11,"time_elapsed":272125,"internal_node_id":"0.0-4.0-0.2","subject_id":"5ce9b0e4be5a6b00163f6870","study_id":"6197b3f67c2b5cd3b6d9596a","session_id":"619c0041401e5658fd5ea221","condition":"contingent","relevant_dimensions":["antennae","pattern"],"bee_group":{"antennae":"B","wings":"X","pattern":"D","legs":"X"},"action":"harvest","summary":"good-harvest","bonus":1.4000000000000008},{"rt":8662.799999999988,"stimulus":"\n                    <p><b>Action: <em>harvest</em></b></p>\n                    <p>This is the bee that you just saw.</p>\n                    <img src=\"bees-with-color/bee-B1SM.svg\" width=\"200\">\n                    <p><span class=\"greenText\"><b>Successful harvest!</b></span><br>Your pay has increased by $0.02. Your bonus pay is now $0.58.</p>\n            ","response":0,"trial_type":"html-button-response","trial_index":12,"time_elapsed":280789,"internal_node_id":"0.0-4.0-1.2","subject_id":"5ce9b0e4be5a6b00163f6870","study_id":"6197b3f67c2b5cd3b6d9596a","session_id":"619c0041401e5658fd5ea221","condition":"contingent","relevant_dimensions":["antennae","pattern"],"bee_group":{"antennae":"B","wings":"X","pattern":"D","legs":"X"},"bonus":1.4000000000000008},{"rt":2370.5999999999767,"stimulus":"bees-with-color/bee-B1DM.svg","response":0,"trial_type":"image-button-response","trial_index":13,"time_elapsed":283161,"internal_node_id":"0.0-4.0-0.3","subject_id":"5ce9b0e4be5a6b00163f6870","study_id":"6197b3f67c2b5cd3b6d9596a","session_id":"619c0041401e5658fd5ea221","condition":"contingent","relevant_dimensions":["antennae","pattern"],"bee_group":{"antennae":"B","wings":"X","pattern":"D","legs":"X"},"action":"harvest","summary":"bad-harvest","bonus":1.4000000000000008},{"rt":6338.799999999988,"stimulus":"\n                    <p><b>Action: <em>harvest</em></b></p>\n                    <p>This is the bee that you just saw.</p>\n                    <img src=\"bees-with-color/bee-B1DM.svg\" width=\"200\">\n                    <p><span class=\"redText\">Bad choice, the bee was angry.</span><br><b>You have been stung!</b><br>Your pay has been decreased by $0.10. Your bonus pay is now $0.48.</p>\n            ","response":0,"trial_type":"html-button-response","trial_index":14,"time_elapsed":289501,"internal_node_id":"0.0-4.0-1.3","subject_id":"5ce9b0e4be5a6b00163f6870","study_id":"6197b3f67c2b5cd3b6d9596a","session_id":"619c0041401e5658fd5ea221","condition":"contingent","relevant_dimensions":["antennae","pattern"],"bee_group":{"antennae":"B","wings":"X","pattern":"D","legs":"X"},"bonus":1.4000000000000008},{"rt":2646.2000000000116,"stimulus":"bees-with-color/bee-A2SM.svg","response":0,"trial_type":"image-button-response","trial_index":15,"time_elapsed":292148,"internal_node_id":"0.0-4.0-0.4","subject_id":"5ce9b0e4be5a6b00163f6870","study_id":"6197b3f67c2b5cd3b6d9596a","session_id":"619c0041401e5658fd5ea221","condition":"contingent","relevant_dimensions":["antennae","pattern"],"bee_group":{"antennae":"B","wings":"X","pattern":"D","legs":"X"},"action":"harvest","summary":"good-harvest","bonus":1.4000000000000008},{"rt":3551,"stimulus":"\n                    <p><b>Action: <em>harvest</em></b></p>\n                    <p>This is the bee that you just saw.</p>\n                    <img src=\"bees-with-color/bee-A2SM.svg\" width=\"200\">\n                    <p><span class=\"greenText\"><b>Successful harvest!</b></span><br>Your pay has increased by $0.02. Your bonus pay is now $0.50.</p>\n            ","response":0,"trial_type":"html-button-response","trial_index":16,"time_elapsed":295701,"internal_node_id":"0.0-4.0-1.4","subject_id":"5ce9b0e4be5a6b00163f6870","study_id":"6197b3f67c2b5cd3b6d9596a","session_id":"619c0041401e5658fd5ea221","condition":"contingent","relevant_dimensions":["antennae","pattern"],"bee_group":{"antennae":"B","wings":"X","pattern":"D","legs":"X"},"bonus":1.4000000000000008},{"rt":1802.7000000000116,"stimulus":"bees-with-color/bee-A1DM.svg","response":1,"trial_type":"image-button-response","trial_index":17,"time_elapsed":297505,"internal_node_id":"0.0-4.0-0.5","subject_id":"5ce9b0e4be5a6b00163f6870","study_id":"6197b3f67c2b5cd3b6d9596a","session_id":"619c0041401e5658fd5ea221","condition":"contingent","relevant_dimensions":["antennae","pattern"],"bee_group":{"antennae":"B","wings":"X","pattern":"D","legs":"X"},"action":"avoid","summary":"bad-avoid","bonus":1.4000000000000008},{"rt":2271.100000000035,"stimulus":"\n                    <p><b>Action: <em>avoid</em></b></p>\n                    <p>This is the bee that you just saw.</p>\n                    <img src=\"bees-with-color/bee-A1DM.svg\" width=\"200\">\n                    <p><br>Your bonus pay is unchanged, and remains at $0.50.</p>\n            ","response":0,"trial_type":"html-button-response","trial_index":18,"time_elapsed":299777,"internal_node_id":"0.0-4.0-1.5","subject_id":"5ce9b0e4be5a6b00163f6870","study_id":"6197b3f67c2b5cd3b6d9596a","session_id":"619c0041401e5658fd5ea221","condition":"contingent","relevant_dimensions":["antennae","pattern"],"bee_group":{"antennae":"B","wings":"X","pattern":"D","legs":"X"},"bonus":1.4000000000000008},{"rt":2362.4000000000233,"stimulus":"bees-with-color/bee-B2SM.svg","response":0,"trial_type":"image-button-response","trial_index":19,"time_elapsed":302141,"internal_node_id":"0.0-4.0-0.6","subject_id":"5ce9b0e4be5a6b00163f6870","study_id":"6197b3f67c2b5cd3b6d9596a","session_id":"619c0041401e5658fd5ea221","condition":"contingent","relevant_dimensions":["antennae","pattern"],"bee_group":{"antennae":"B","wings":"X","pattern":"D","legs":"X"},"action":"harvest","summary":"good-harvest","bonus":1.4000000000000008},{"rt":1751,"stimulus":"\n                    <p><b>Action: <em>harvest</em></b></p>\n                    <p>This is the bee that you just saw.</p>\n                    <img src=\"bees-with-color/bee-B2SM.svg\" width=\"200\">\n                    <p><span class=\"greenText\"><b>Successful harvest!</b></span><br>Your pay has increased by $0.02. Your bonus pay is now $0.52.</p>\n            ","response":0,"trial_type":"html-button-response","trial_index":20,"time_elapsed":303893,"internal_node_id":"0.0-4.0-1.6","subject_id":"5ce9b0e4be5a6b00163f6870","study_id":"6197b3f67c2b5cd3b6d9596a","session_id":"619c0041401e5658fd5ea221","condition":"contingent","relevant_dimensions":["antennae","pattern"],"bee_group":{"antennae":"B","wings":"X","pattern":"D","legs":"X"},"bonus":1.4000000000000008},{"rt":1982.7999999999884,"stimulus":"bees-with-color/bee-B2DM.svg","response":1,"trial_type":"image-button-response","trial_index":21,"time_elapsed":305877,"internal_node_id":"0.0-4.0-0.7","subject_id":"5ce9b0e4be5a6b00163f6870","study_id":"6197b3f67c2b5cd3b6d9596a","session_id":"619c0041401e5658fd5ea221","condition":"contingent","relevant_dimensions":["antennae","pattern"],"bee_group":{"antennae":"B","wings":"X","pattern":"D","legs":"X"},"action":"avoid","summary":"good-avoid","bonus":1.4000000000000008},{"rt":2214.7000000000116,"stimulus":"\n                    <p><b>Action: <em>avoid</em></b></p>\n                    <p>This is the bee that you just saw.</p>\n                    <img src=\"bees-with-color/bee-B2DM.svg\" width=\"200\">\n                    <p><br>Your bonus pay is unchanged, and remains at $0.52.</p>\n            ","response":0,"trial_type":"html-button-response","trial_index":22,"time_elapsed":308093,"internal_node_id":"0.0-4.0-1.7","subject_id":"5ce9b0e4be5a6b00163f6870","study_id":"6197b3f67c2b5cd3b6d9596a","session_id":"619c0041401e5658fd5ea221","condition":"contingent","relevant_dimensions":["antennae","pattern"],"bee_group":{"antennae":"B","wings":"X","pattern":"D","legs":"X"},"bonus":1.4000000000000008},{"rt":1479.100000000035,"stimulus":"bees-with-color/bee-B1SF.svg","response":0,"trial_type":"image-button-response","trial_index":23,"time_elapsed":309573,"internal_node_id":"0.0-4.0-0.8","subject_id":"5ce9b0e4be5a6b00163f6870","study_id":"6197b3f67c2b5cd3b6d9596a","session_id":"619c0041401e5658fd5ea221","condition":"contingent","relevant_dimensions":["antennae","pattern"],"bee_group":{"antennae":"B","wings":"X","pattern":"D","legs":"X"},"action":"harvest","summary":"good-harvest","bonus":1.4000000000000008},{"rt":2574.7999999999884,"stimulus":"\n                    <p><b>Action: <em>harvest</em></b></p>\n                    <p>This is the bee that you just saw.</p>\n                    <img src=\"bees-with-color/bee-B1SF.svg\" width=\"200\">\n                    <p><span class=\"greenText\"><b>Successful harvest!</b></span><br>Your pay has increased by $0.02. Your bonus pay is now $0.54.</p>\n            ","response":0,"trial_type":"html-button-response","trial_index":24,"time_elapsed":312149,"internal_node_id":"0.0-4.0-1.8","subject_id":"5ce9b0e4be5a6b00163f6870","study_id":"6197b3f67c2b5cd3b6d9596a","session_id":"619c0041401e5658fd5ea221","condition":"contingent","relevant_dimensions":["antennae","pattern"],"bee_group":{"antennae":"B","wings":"X","pattern":"D","legs":"X"},"bonus":1.4000000000000008},{"rt":1454.5,"stimulus":"bees-with-color/bee-B2DF.svg","response":1,"trial_type":"image-button-response","trial_index":25,"time_elapsed":313605,"internal_node_id":"0.0-4.0-0.9","subject_id":"5ce9b0e4be5a6b00163f6870","study_id":"6197b3f67c2b5cd3b6d9596a","session_id":"619c0041401e5658fd5ea221","condition":"contingent","relevant_dimensions":["antennae","pattern"],"bee_group":{"antennae":"B","wings":"X","pattern":"D","legs":"X"},"action":"avoid","summary":"good-avoid","bonus":1.4000000000000008},{"rt":2375.0999999999767,"stimulus":"\n                    <p><b>Action: <em>avoid</em></b></p>\n                    <p>This is the bee that you just saw.</p>\n                    <img src=\"bees-with-color/bee-B2DF.svg\" width=\"200\">\n                    <p><br>Your bonus pay is unchanged, and remains at $0.54.</p>\n            ","response":0,"trial_type":"html-button-response","trial_index":26,"time_elapsed":315981,"internal_node_id":"0.0-4.0-1.9","subject_id":"5ce9b0e4be5a6b00163f6870","study_id":"6197b3f67c2b5cd3b6d9596a","session_id":"619c0041401e5658fd5ea221","condition":"contingent","relevant_dimensions":["antennae","pattern"],"bee_group":{"antennae":"B","wings":"X","pattern":"D","legs":"X"},"bonus":1.4000000000000008},{"rt":1550.7000000000116,"stimulus":"bees-with-color/bee-A2SF.svg","response":0,"trial_type":"image-button-response","trial_index":27,"time_elapsed":317533,"internal_node_id":"0.0-4.0-0.10","subject_id":"5ce9b0e4be5a6b00163f6870","study_id":"6197b3f67c2b5cd3b6d9596a","session_id":"619c0041401e5658fd5ea221","condition":"contingent","relevant_dimensions":["antennae","pattern"],"bee_group":{"antennae":"B","wings":"X","pattern":"D","legs":"X"},"action":"harvest","summary":"good-harvest","bonus":1.4000000000000008},{"rt":2238.7999999999884,"stimulus":"\n                    <p><b>Action: <em>harvest</em></b></p>\n                    <p>This is the bee that you just saw.</p>\n                    <img src=\"bees-with-color/bee-A2SF.svg\" width=\"200\">\n                    <p><span class=\"greenText\"><b>Successful harvest!</b></span><br>Your pay has increased by $0.02. Your bonus pay is now $0.56.</p>\n            ","response":0,"trial_type":"html-button-response","trial_index":28,"time_elapsed":319773,"internal_node_id":"0.0-4.0-1.10","subject_id":"5ce9b0e4be5a6b00163f6870","study_id":"6197b3f67c2b5cd3b6d9596a","session_id":"619c0041401e5658fd5ea221","condition":"contingent","relevant_dimensions":["antennae","pattern"],"bee_group":{"antennae":"B","wings":"X","pattern":"D","legs":"X"},"bonus":1.4000000000000008},{"rt":2190.5,"stimulus":"bees-with-color/bee-A1SM.svg","response":0,"trial_type":"image-button-response","trial_index":29,"time_elapsed":321964,"internal_node_id":"0.0-4.0-0.11","subject_id":"5ce9b0e4be5a6b00163f6870","study_id":"6197b3f67c2b5cd3b6d9596a","session_id":"619c0041401e5658fd5ea221","condition":"contingent","relevant_dimensions":["antennae","pattern"],"bee_group":{"antennae":"B","wings":"X","pattern":"D","legs":"X"},"action":"harvest","summary":"good-harvest","bonus":1.4000000000000008},{"rt":2127,"stimulus":"\n                    <p><b>Action: <em>harvest</em></b></p>\n                    <p>This is the bee that you just saw.</p>\n                    <img src=\"bees-with-color/bee-A1SM.svg\" width=\"200\">\n                    <p><span class=\"greenText\"><b>Successful harvest!</b></span><br>Your pay has increased by $0.02. Your bonus pay is now $0.58.</p>\n            ","response":0,"trial_type":"html-button-response","trial_index":30,"time_elapsed":324093,"internal_node_id":"0.0-4.0-1.11","subject_id":"5ce9b0e4be5a6b00163f6870","study_id":"6197b3f67c2b5cd3b6d9596a","session_id":"619c0041401e5658fd5ea221","condition":"contingent","relevant_dimensions":["antennae","pattern"],"bee_group":{"antennae":"B","wings":"X","pattern":"D","legs":"X"},"bonus":1.4000000000000008},{"rt":1626.600000000035,"stimulus":"bees-with-color/bee-A1DF.svg","response":1,"trial_type":"image-button-response","trial_index":31,"time_elapsed":325721,"internal_node_id":"0.0-4.0-0.12","subject_id":"5ce9b0e4be5a6b00163f6870","study_id":"6197b3f67c2b5cd3b6d9596a","session_id":"619c0041401e5658fd5ea221","condition":"contingent","relevant_dimensions":["antennae","pattern"],"bee_group":{"antennae":"B","wings":"X","pattern":"D","legs":"X"},"action":"avoid","summary":"bad-avoid","bonus":1.4000000000000008},{"rt":1883,"stimulus":"\n                    <p><b>Action: <em>avoid</em></b></p>\n                    <p>This is the bee that you just saw.</p>\n                    <img src=\"bees-with-color/bee-A1DF.svg\" width=\"200\">\n                    <p><br>Your bonus pay is unchanged, and remains at $0.58.</p>\n            ","response":0,"trial_type":"html-button-response","trial_index":32,"time_elapsed":327605,"internal_node_id":"0.0-4.0-1.12","subject_id":"5ce9b0e4be5a6b00163f6870","study_id":"6197b3f67c2b5cd3b6d9596a","session_id":"619c0041401e5658fd5ea221","condition":"contingent","relevant_dimensions":["antennae","pattern"],"bee_group":{"antennae":"B","wings":"X","pattern":"D","legs":"X"},"bonus":1.4000000000000008},{"rt":1694.7999999999884,"stimulus":"bees-with-color/bee-B1DF.svg","response":1,"trial_type":"image-button-response","trial_index":33,"time_elapsed":329301,"internal_node_id":"0.0-4.0-0.13","subject_id":"5ce9b0e4be5a6b00163f6870","study_id":"6197b3f67c2b5cd3b6d9596a","session_id":"619c0041401e5658fd5ea221","condition":"contingent","relevant_dimensions":["antennae","pattern"],"bee_group":{"antennae":"B","wings":"X","pattern":"D","legs":"X"},"action":"avoid","summary":"good-avoid","bonus":1.4000000000000008},{"rt":1790.8000000000466,"stimulus":"\n                    <p><b>Action: <em>avoid</em></b></p>\n                    <p>This is the bee that you just saw.</p>\n                    <img src=\"bees-with-color/bee-B1DF.svg\" width=\"200\">\n                    <p><br>Your bonus pay is unchanged, and remains at $0.58.</p>\n            ","response":0,"trial_type":"html-button-response","trial_index":34,"time_elapsed":331093,"internal_node_id":"0.0-4.0-1.13","subject_id":"5ce9b0e4be5a6b00163f6870","study_id":"6197b3f67c2b5cd3b6d9596a","session_id":"619c0041401e5658fd5ea221","condition":"contingent","relevant_dimensions":["antennae","pattern"],"bee_group":{"antennae":"B","wings":"X","pattern":"D","legs":"X"},"bonus":1.4000000000000008},{"rt":1527.1999999999534,"stimulus":"bees-with-color/bee-A1SF.svg","response":0,"trial_type":"image-button-response","trial_index":35,"time_elapsed":332621,"internal_node_id":"0.0-4.0-0.14","subject_id":"5ce9b0e4be5a6b00163f6870","study_id":"6197b3f67c2b5cd3b6d9596a","session_id":"619c0041401e5658fd5ea221","condition":"contingent","relevant_dimensions":["antennae","pattern"],"bee_group":{"antennae":"B","wings":"X","pattern":"D","legs":"X"},"action":"harvest","summary":"good-harvest","bonus":1.4000000000000008},{"rt":1646.7000000000116,"stimulus":"\n                    <p><b>Action: <em>harvest</em></b></p>\n                    <p>This is the bee that you just saw.</p>\n                    <img src=\"bees-with-color/bee-A1SF.svg\" width=\"200\">\n                    <p><span class=\"greenText\"><b>Successful harvest!</b></span><br>Your pay has increased by $0.02. Your bonus pay is now $0.60.</p>\n            ","response":0,"trial_type":"html-button-response","trial_index":36,"time_elapsed":334269,"internal_node_id":"0.0-4.0-1.14","subject_id":"5ce9b0e4be5a6b00163f6870","study_id":"6197b3f67c2b5cd3b6d9596a","session_id":"619c0041401e5658fd5ea221","condition":"contingent","relevant_dimensions":["antennae","pattern"],"bee_group":{"antennae":"B","wings":"X","pattern":"D","legs":"X"},"bonus":1.4000000000000008},{"rt":1734.9000000000233,"stimulus":"bees-with-color/bee-A2DF.svg","response":1,"trial_type":"image-button-response","trial_index":37,"time_elapsed":336005,"internal_node_id":"0.0-4.0-0.15","subject_id":"5ce9b0e4be5a6b00163f6870","study_id":"6197b3f67c2b5cd3b6d9596a","session_id":"619c0041401e5658fd5ea221","condition":"contingent","relevant_dimensions":["antennae","pattern"],"bee_group":{"antennae":"B","wings":"X","pattern":"D","legs":"X"},"action":"avoid","summary":"bad-avoid","bonus":1.4000000000000008},{"rt":2239.100000000035,"stimulus":"\n                    <p><b>Action: <em>avoid</em></b></p>\n                    <p>This is the bee that you just saw.</p>\n                    <img src=\"bees-with-color/bee-A2DF.svg\" width=\"200\">\n                    <p><br>Your bonus pay is unchanged, and remains at $0.60.</p>\n            ","response":0,"trial_type":"html-button-response","trial_index":38,"time_elapsed":338245,"internal_node_id":"0.0-4.0-1.15","subject_id":"5ce9b0e4be5a6b00163f6870","study_id":"6197b3f67c2b5cd3b6d9596a","session_id":"619c0041401e5658fd5ea221","condition":"contingent","relevant_dimensions":["antennae","pattern"],"bee_group":{"antennae":"B","wings":"X","pattern":"D","legs":"X"},"bonus":1.4000000000000008},{"rt":1462.7000000000116,"stimulus":"bees-with-color/bee-B1SF.svg","response":0,"trial_type":"image-button-response","trial_index":39,"time_elapsed":339708,"internal_node_id":"0.0-4.0-0.16","subject_id":"5ce9b0e4be5a6b00163f6870","study_id":"6197b3f67c2b5cd3b6d9596a","session_id":"619c0041401e5658fd5ea221","condition":"contingent","relevant_dimensions":["antennae","pattern"],"bee_group":{"antennae":"B","wings":"X","pattern":"D","legs":"X"},"action":"harvest","summary":"good-harvest","bonus":1.4000000000000008},{"rt":1791.0999999999767,"stimulus":"\n                    <p><b>Action: <em>harvest</em></b></p>\n                    <p>This is the bee that you just saw.</p>\n                    <img src=\"bees-with-color/bee-B1SF.svg\" width=\"200\">\n                    <p><span class=\"greenText\"><b>Successful harvest!</b></span><br>Your pay has increased by $0.02. Your bonus pay is now $0.62.</p>\n            ","response":0,"trial_type":"html-button-response","trial_index":40,"time_elapsed":341501,"internal_node_id":"0.0-4.0-1.16","subject_id":"5ce9b0e4be5a6b00163f6870","study_id":"6197b3f67c2b5cd3b6d9596a","session_id":"619c0041401e5658fd5ea221","condition":"contingent","relevant_dimensions":["antennae","pattern"],"bee_group":{"antennae":"B","wings":"X","pattern":"D","legs":"X"},"bonus":1.4000000000000008},{"rt":1418.9000000000233,"stimulus":"bees-with-color/bee-A2DM.svg","response":1,"trial_type":"image-button-response","trial_index":41,"time_elapsed":342921,"internal_node_id":"0.0-4.0-0.17","subject_id":"5ce9b0e4be5a6b00163f6870","study_id":"6197b3f67c2b5cd3b6d9596a","session_id":"619c0041401e5658fd5ea221","condition":"contingent","relevant_dimensions":["antennae","pattern"],"bee_group":{"antennae":"B","wings":"X","pattern":"D","legs":"X"},"action":"avoid","summary":"bad-avoid","bonus":1.4000000000000008},{"rt":1619.1999999999534,"stimulus":"\n                    <p><b>Action: <em>avoid</em></b></p>\n                    <p>This is the bee that you just saw.</p>\n                    <img src=\"bees-with-color/bee-A2DM.svg\" width=\"200\">\n                    <p><br>Your bonus pay is unchanged, and remains at $0.62.</p>\n            ","response":0,"trial_type":"html-button-response","trial_index":42,"time_elapsed":344541,"internal_node_id":"0.0-4.0-1.17","subject_id":"5ce9b0e4be5a6b00163f6870","study_id":"6197b3f67c2b5cd3b6d9596a","session_id":"619c0041401e5658fd5ea221","condition":"contingent","relevant_dimensions":["antennae","pattern"],"bee_group":{"antennae":"B","wings":"X","pattern":"D","legs":"X"},"bonus":1.4000000000000008},{"rt":1350.600000000035,"stimulus":"bees-with-color/bee-B2DF.svg","response":1,"trial_type":"image-button-response","trial_index":43,"time_elapsed":345893,"internal_node_id":"0.0-4.0-0.18","subject_id":"5ce9b0e4be5a6b00163f6870","study_id":"6197b3f67c2b5cd3b6d9596a","session_id":"619c0041401e5658fd5ea221","condition":"contingent","relevant_dimensions":["antennae","pattern"],"bee_group":{"antennae":"B","wings":"X","pattern":"D","legs":"X"},"action":"avoid","summary":"good-avoid","bonus":1.4000000000000008},{"rt":1083,"stimulus":"\n                    <p><b>Action: <em>avoid</em></b></p>\n                    <p>This is the bee that you just saw.</p>\n                    <img src=\"bees-with-color/bee-B2DF.svg\" width=\"200\">\n                    <p><br>Your bonus pay is unchanged, and remains at $0.62.</p>\n            ","response":0,"trial_type":"html-button-response","trial_index":44,"time_elapsed":346977,"internal_node_id":"0.0-4.0-1.18","subject_id":"5ce9b0e4be5a6b00163f6870","study_id":"6197b3f67c2b5cd3b6d9596a","session_id":"619c0041401e5658fd5ea221","condition":"contingent","relevant_dimensions":["antennae","pattern"],"bee_group":{"antennae":"B","wings":"X","pattern":"D","legs":"X"},"bonus":1.4000000000000008},{"rt":1487,"stimulus":"bees-with-color/bee-B2SM.svg","response":0,"trial_type":"image-button-response","trial_index":45,"time_elapsed":348465,"internal_node_id":"0.0-4.0-0.19","subject_id":"5ce9b0e4be5a6b00163f6870","study_id":"6197b3f67c2b5cd3b6d9596a","session_id":"619c0041401e5658fd5ea221","condition":"contingent","relevant_dimensions":["antennae","pattern"],"bee_group":{"antennae":"B","wings":"X","pattern":"D","legs":"X"},"action":"harvest","summary":"good-harvest","bonus":1.4000000000000008},{"rt":1470.9000000000233,"stimulus":"\n                    <p><b>Action: <em>harvest</em></b></p>\n                    <p>This is the bee that you just saw.</p>\n                    <img src=\"bees-with-color/bee-B2SM.svg\" width=\"200\">\n                    <p><span class=\"greenText\"><b>Successful harvest!</b></span><br>Your pay has increased by $0.02. Your bonus pay is now $0.64.</p>\n            ","response":0,"trial_type":"html-button-response","trial_index":46,"time_elapsed":349936,"internal_node_id":"0.0-4.0-1.19","subject_id":"5ce9b0e4be5a6b00163f6870","study_id":"6197b3f67c2b5cd3b6d9596a","session_id":"619c0041401e5658fd5ea221","condition":"contingent","relevant_dimensions":["antennae","pattern"],"bee_group":{"antennae":"B","wings":"X","pattern":"D","legs":"X"},"bonus":1.4000000000000008},{"rt":1355,"stimulus":"bees-with-color/bee-B1DF.svg","response":1,"trial_type":"image-button-response","trial_index":47,"time_elapsed":351293,"internal_node_id":"0.0-4.0-0.20","subject_id":"5ce9b0e4be5a6b00163f6870","study_id":"6197b3f67c2b5cd3b6d9596a","session_id":"619c0041401e5658fd5ea221","condition":"contingent","relevant_dimensions":["antennae","pattern"],"bee_group":{"antennae":"B","wings":"X","pattern":"D","legs":"X"},"action":"avoid","summary":"good-avoid","bonus":1.4000000000000008},{"rt":1390.9000000000233,"stimulus":"\n                    <p><b>Action: <em>avoid</em></b></p>\n                    <p>This is the bee that you just saw.</p>\n                    <img src=\"bees-with-color/bee-B1DF.svg\" width=\"200\">\n                    <p><br>Your bonus pay is unchanged, and remains at $0.64.</p>\n            ","response":0,"trial_type":"html-button-response","trial_index":48,"time_elapsed":352685,"internal_node_id":"0.0-4.0-1.20","subject_id":"5ce9b0e4be5a6b00163f6870","study_id":"6197b3f67c2b5cd3b6d9596a","session_id":"619c0041401e5658fd5ea221","condition":"contingent","relevant_dimensions":["antennae","pattern"],"bee_group":{"antennae":"B","wings":"X","pattern":"D","legs":"X"},"bonus":1.4000000000000008},{"rt":1899.0999999999767,"stimulus":"bees-with-color/bee-A2SM.svg","response":0,"trial_type":"image-button-response","trial_index":49,"time_elapsed":354585,"internal_node_id":"0.0-4.0-0.21","subject_id":"5ce9b0e4be5a6b00163f6870","study_id":"6197b3f67c2b5cd3b6d9596a","session_id":"619c0041401e5658fd5ea221","condition":"contingent","relevant_dimensions":["antennae","pattern"],"bee_group":{"antennae":"B","wings":"X","pattern":"D","legs":"X"},"action":"harvest","summary":"good-harvest","bonus":1.4000000000000008},{"rt":1310.7999999999884,"stimulus":"\n                    <p><b>Action: <em>harvest</em></b></p>\n                    <p>This is the bee that you just saw.</p>\n                    <img src=\"bees-with-color/bee-A2SM.svg\" width=\"200\">\n                    <p><span class=\"greenText\"><b>Successful harvest!</b></span><br>Your pay has increased by $0.02. Your bonus pay is now $0.66.</p>\n            ","response":0,"trial_type":"html-button-response","trial_index":50,"time_elapsed":355897,"internal_node_id":"0.0-4.0-1.21","subject_id":"5ce9b0e4be5a6b00163f6870","study_id":"6197b3f67c2b5cd3b6d9596a","session_id":"619c0041401e5658fd5ea221","condition":"contingent","relevant_dimensions":["antennae","pattern"],"bee_group":{"antennae":"B","wings":"X","pattern":"D","legs":"X"},"bonus":1.4000000000000008},{"rt":1622.9000000000233,"stimulus":"bees-with-color/bee-B2SF.svg","response":0,"trial_type":"image-button-response","trial_index":51,"time_elapsed":357521,"internal_node_id":"0.0-4.0-0.22","subject_id":"5ce9b0e4be5a6b00163f6870","study_id":"6197b3f67c2b5cd3b6d9596a","session_id":"619c0041401e5658fd5ea221","condition":"contingent","relevant_dimensions":["antennae","pattern"],"bee_group":{"antennae":"B","wings":"X","pattern":"D","legs":"X"},"action":"harvest","summary":"good-harvest","bonus":1.4000000000000008},{"rt":1279,"stimulus":"\n                    <p><b>Action: <em>harvest</em></b></p>\n                    <p>This is the bee that you just saw.</p>\n                    <img src=\"bees-with-color/bee-B2SF.svg\" width=\"200\">\n                    <p><span class=\"greenText\"><b>Successful harvest!</b></span><br>Your pay has increased by $0.02. Your bonus pay is now $0.68.</p>\n            ","response":0,"trial_type":"html-button-response","trial_index":52,"time_elapsed":358801,"internal_node_id":"0.0-4.0-1.22","subject_id":"5ce9b0e4be5a6b00163f6870","study_id":"6197b3f67c2b5cd3b6d9596a","session_id":"619c0041401e5658fd5ea221","condition":"contingent","relevant_dimensions":["antennae","pattern"],"bee_group":{"antennae":"B","wings":"X","pattern":"D","legs":"X"},"bonus":1.4000000000000008},{"rt":1798.8000000000466,"stimulus":"bees-with-color/bee-A2SF.svg","response":0,"trial_type":"image-button-response","trial_index":53,"time_elapsed":360601,"internal_node_id":"0.0-4.0-0.23","subject_id":"5ce9b0e4be5a6b00163f6870","study_id":"6197b3f67c2b5cd3b6d9596a","session_id":"619c0041401e5658fd5ea221","condition":"contingent","relevant_dimensions":["antennae","pattern"],"bee_group":{"antennae":"B","wings":"X","pattern":"D","legs":"X"},"action":"harvest","summary":"good-harvest","bonus":1.4000000000000008},{"rt":1279.0999999999767,"stimulus":"\n                    <p><b>Action: <em>harvest</em></b></p>\n                    <p>This is the bee that you just saw.</p>\n                    <img src=\"bees-with-color/bee-A2SF.svg\" width=\"200\">\n                    <p><span class=\"greenText\"><b>Successful harvest!</b></span><br>Your pay has increased by $0.02. Your bonus pay is now $0.70.</p>\n            ","response":0,"trial_type":"html-button-response","trial_index":54,"time_elapsed":361881,"internal_node_id":"0.0-4.0-1.23","subject_id":"5ce9b0e4be5a6b00163f6870","study_id":"6197b3f67c2b5cd3b6d9596a","session_id":"619c0041401e5658fd5ea221","condition":"contingent","relevant_dimensions":["antennae","pattern"],"bee_group":{"antennae":"B","wings":"X","pattern":"D","legs":"X"},"bonus":1.4000000000000008},{"rt":1558.7999999999884,"stimulus":"bees-with-color/bee-B1DM.svg","response":1,"trial_type":"image-button-response","trial_index":55,"time_elapsed":363441,"internal_node_id":"0.0-4.0-0.24","subject_id":"5ce9b0e4be5a6b00163f6870","study_id":"6197b3f67c2b5cd3b6d9596a","session_id":"619c0041401e5658fd5ea221","condition":"contingent","relevant_dimensions":["antennae","pattern"],"bee_group":{"antennae":"B","wings":"X","pattern":"D","legs":"X"},"action":"avoid","summary":"good-avoid","bonus":1.4000000000000008},{"rt":950.8999999999651,"stimulus":"\n                    <p><b>Action: <em>avoid</em></b></p>\n                    <p>This is the bee that you just saw.</p>\n                    <img src=\"bees-with-color/bee-B1DM.svg\" width=\"200\">\n                    <p><br>Your bonus pay is unchanged, and remains at $0.70.</p>\n            ","response":0,"trial_type":"html-button-response","trial_index":56,"time_elapsed":364393,"internal_node_id":"0.0-4.0-1.24","subject_id":"5ce9b0e4be5a6b00163f6870","study_id":"6197b3f67c2b5cd3b6d9596a","session_id":"619c0041401e5658fd5ea221","condition":"contingent","relevant_dimensions":["antennae","pattern"],"bee_group":{"antennae":"B","wings":"X","pattern":"D","legs":"X"},"bonus":1.4000000000000008},{"rt":1231,"stimulus":"bees-with-color/bee-B1SM.svg","response":0,"trial_type":"image-button-response","trial_index":57,"time_elapsed":365625,"internal_node_id":"0.0-4.0-0.25","subject_id":"5ce9b0e4be5a6b00163f6870","study_id":"6197b3f67c2b5cd3b6d9596a","session_id":"619c0041401e5658fd5ea221","condition":"contingent","relevant_dimensions":["antennae","pattern"],"bee_group":{"antennae":"B","wings":"X","pattern":"D","legs":"X"},"action":"harvest","summary":"good-harvest","bonus":1.4000000000000008},{"rt":1318.8000000000466,"stimulus":"\n                    <p><b>Action: <em>harvest</em></b></p>\n                    <p>This is the bee that you just saw.</p>\n                    <img src=\"bees-with-color/bee-B1SM.svg\" width=\"200\">\n                    <p><span class=\"greenText\"><b>Successful harvest!</b></span><br>Your pay has increased by $0.02. Your bonus pay is now $0.72.</p>\n            ","response":0,"trial_type":"html-button-response","trial_index":58,"time_elapsed":366945,"internal_node_id":"0.0-4.0-1.25","subject_id":"5ce9b0e4be5a6b00163f6870","study_id":"6197b3f67c2b5cd3b6d9596a","session_id":"619c0041401e5658fd5ea221","condition":"contingent","relevant_dimensions":["antennae","pattern"],"bee_group":{"antennae":"B","wings":"X","pattern":"D","legs":"X"},"bonus":1.4000000000000008},{"rt":1215.2999999999884,"stimulus":"bees-with-color/bee-A1DF.svg","response":1,"trial_type":"image-button-response","trial_index":59,"time_elapsed":368161,"internal_node_id":"0.0-4.0-0.26","subject_id":"5ce9b0e4be5a6b00163f6870","study_id":"6197b3f67c2b5cd3b6d9596a","session_id":"619c0041401e5658fd5ea221","condition":"contingent","relevant_dimensions":["antennae","pattern"],"bee_group":{"antennae":"B","wings":"X","pattern":"D","legs":"X"},"action":"avoid","summary":"bad-avoid","bonus":1.4000000000000008},{"rt":1334.899999999965,"stimulus":"\n                    <p><b>Action: <em>avoid</em></b></p>\n                    <p>This is the bee that you just saw.</p>\n                    <img src=\"bees-with-color/bee-A1DF.svg\" width=\"200\">\n                    <p><br>Your bonus pay is unchanged, and remains at $0.72.</p>\n            ","response":0,"trial_type":"html-button-response","trial_index":60,"time_elapsed":369497,"internal_node_id":"0.0-4.0-1.26","subject_id":"5ce9b0e4be5a6b00163f6870","study_id":"6197b3f67c2b5cd3b6d9596a","session_id":"619c0041401e5658fd5ea221","condition":"contingent","relevant_dimensions":["antennae","pattern"],"bee_group":{"antennae":"B","wings":"X","pattern":"D","legs":"X"},"bonus":1.4000000000000008},{"rt":1230.7999999999884,"stimulus":"bees-with-color/bee-A1SM.svg","response":0,"trial_type":"image-button-response","trial_index":61,"time_elapsed":370729,"internal_node_id":"0.0-4.0-0.27","subject_id":"5ce9b0e4be5a6b00163f6870","study_id":"6197b3f67c2b5cd3b6d9596a","session_id":"619c0041401e5658fd5ea221","condition":"contingent","relevant_dimensions":["antennae","pattern"],"bee_group":{"antennae":"B","wings":"X","pattern":"D","legs":"X"},"action":"harvest","summary":"good-harvest","bonus":1.4000000000000008},{"rt":1262.9000000000233,"stimulus":"\n                    <p><b>Action: <em>harvest</em></b></p>\n                    <p>This is the bee that you just saw.</p>\n                    <img src=\"bees-with-color/bee-A1SM.svg\" width=\"200\">\n                    <p><span class=\"greenText\"><b>Successful harvest!</b></span><br>Your pay has increased by $0.02. Your bonus pay is now $0.74.</p>\n            ","response":0,"trial_type":"html-button-response","trial_index":62,"time_elapsed":371993,"internal_node_id":"0.0-4.0-1.27","subject_id":"5ce9b0e4be5a6b00163f6870","study_id":"6197b3f67c2b5cd3b6d9596a","session_id":"619c0041401e5658fd5ea221","condition":"contingent","relevant_dimensions":["antennae","pattern"],"bee_group":{"antennae":"B","wings":"X","pattern":"D","legs":"X"},"bonus":1.4000000000000008},{"rt":1590.899999999965,"stimulus":"bees-with-color/bee-B2DM.svg","response":1,"trial_type":"image-button-response","trial_index":63,"time_elapsed":373585,"internal_node_id":"0.0-4.0-0.28","subject_id":"5ce9b0e4be5a6b00163f6870","study_id":"6197b3f67c2b5cd3b6d9596a","session_id":"619c0041401e5658fd5ea221","condition":"contingent","relevant_dimensions":["antennae","pattern"],"bee_group":{"antennae":"B","wings":"X","pattern":"D","legs":"X"},"action":"avoid","summary":"good-avoid","bonus":1.4000000000000008},{"rt":1270.7999999999884,"stimulus":"\n                    <p><b>Action: <em>avoid</em></b></p>\n                    <p>This is the bee that you just saw.</p>\n                    <img src=\"bees-with-color/bee-B2DM.svg\" width=\"200\">\n                    <p><br>Your bonus pay is unchanged, and remains at $0.74.</p>\n            ","response":0,"trial_type":"html-button-response","trial_index":64,"time_elapsed":374857,"internal_node_id":"0.0-4.0-1.28","subject_id":"5ce9b0e4be5a6b00163f6870","study_id":"6197b3f67c2b5cd3b6d9596a","session_id":"619c0041401e5658fd5ea221","condition":"contingent","relevant_dimensions":["antennae","pattern"],"bee_group":{"antennae":"B","wings":"X","pattern":"D","legs":"X"},"bonus":1.4000000000000008},{"rt":1919,"stimulus":"bees-with-color/bee-A2DF.svg","response":1,"trial_type":"image-button-response","trial_index":65,"time_elapsed":376777,"internal_node_id":"0.0-4.0-0.29","subject_id":"5ce9b0e4be5a6b00163f6870","study_id":"6197b3f67c2b5cd3b6d9596a","session_id":"619c0041401e5658fd5ea221","condition":"contingent","relevant_dimensions":["antennae","pattern"],"bee_group":{"antennae":"B","wings":"X","pattern":"D","legs":"X"},"action":"avoid","summary":"bad-avoid","bonus":1.4000000000000008},{"rt":1374.899999999965,"stimulus":"\n                    <p><b>Action: <em>avoid</em></b></p>\n                    <p>This is the bee that you just saw.</p>\n                    <img src=\"bees-with-color/bee-A2DF.svg\" width=\"200\">\n                    <p><br>Your bonus pay is unchanged, and remains at $0.74.</p>\n            ","response":0,"trial_type":"html-button-response","trial_index":66,"time_elapsed":378153,"internal_node_id":"0.0-4.0-1.29","subject_id":"5ce9b0e4be5a6b00163f6870","study_id":"6197b3f67c2b5cd3b6d9596a","session_id":"619c0041401e5658fd5ea221","condition":"contingent","relevant_dimensions":["antennae","pattern"],"bee_group":{"antennae":"B","wings":"X","pattern":"D","legs":"X"},"bonus":1.4000000000000008},{"rt":1254.7000000000116,"stimulus":"bees-with-color/bee-A1DM.svg","response":1,"trial_type":"image-button-response","trial_index":67,"time_elapsed":379409,"internal_node_id":"0.0-4.0-0.30","subject_id":"5ce9b0e4be5a6b00163f6870","study_id":"6197b3f67c2b5cd3b6d9596a","session_id":"619c0041401e5658fd5ea221","condition":"contingent","relevant_dimensions":["antennae","pattern"],"bee_group":{"antennae":"B","wings":"X","pattern":"D","legs":"X"},"action":"avoid","summary":"bad-avoid","bonus":1.4000000000000008},{"rt":998.9000000000233,"stimulus":"\n                    <p><b>Action: <em>avoid</em></b></p>\n                    <p>This is the bee that you just saw.</p>\n                    <img src=\"bees-with-color/bee-A1DM.svg\" width=\"200\">\n                    <p><br>Your bonus pay is unchanged, and remains at $0.74.</p>\n            ","response":0,"trial_type":"html-button-response","trial_index":68,"time_elapsed":380409,"internal_node_id":"0.0-4.0-1.30","subject_id":"5ce9b0e4be5a6b00163f6870","study_id":"6197b3f67c2b5cd3b6d9596a","session_id":"619c0041401e5658fd5ea221","condition":"contingent","relevant_dimensions":["antennae","pattern"],"bee_group":{"antennae":"B","wings":"X","pattern":"D","legs":"X"},"bonus":1.4000000000000008},{"rt":1215.0999999999767,"stimulus":"bees-with-color/bee-A1SF.svg","response":0,"trial_type":"image-button-response","trial_index":69,"time_elapsed":381625,"internal_node_id":"0.0-4.0-0.31","subject_id":"5ce9b0e4be5a6b00163f6870","study_id":"6197b3f67c2b5cd3b6d9596a","session_id":"619c0041401e5658fd5ea221","condition":"contingent","relevant_dimensions":["antennae","pattern"],"bee_group":{"antennae":"B","wings":"X","pattern":"D","legs":"X"},"action":"harvest","summary":"good-harvest","bonus":1.4000000000000008},{"rt":1190.8000000000466,"stimulus":"\n                    <p><b>Action: <em>harvest</em></b></p>\n                    <p>This is the bee that you just saw.</p>\n                    <img src=\"bees-with-color/bee-A1SF.svg\" width=\"200\">\n                    <p><span class=\"greenText\"><b>Successful harvest!</b></span><br>Your pay has increased by $0.02. Your bonus pay is now $0.76.</p>\n            ","response":0,"trial_type":"html-button-response","trial_index":70,"time_elapsed":382817,"internal_node_id":"0.0-4.0-1.31","subject_id":"5ce9b0e4be5a6b00163f6870","study_id":"6197b3f67c2b5cd3b6d9596a","session_id":"619c0041401e5658fd5ea221","condition":"contingent","relevant_dimensions":["antennae","pattern"],"bee_group":{"antennae":"B","wings":"X","pattern":"D","legs":"X"},"bonus":1.4000000000000008},{"rt":1343.2000000000116,"stimulus":"bees-with-color/bee-B1DF.svg","response":1,"trial_type":"image-button-response","trial_index":71,"time_elapsed":384161,"internal_node_id":"0.0-4.0-0.32","subject_id":"5ce9b0e4be5a6b00163f6870","study_id":"6197b3f67c2b5cd3b6d9596a","session_id":"619c0041401e5658fd5ea221","condition":"contingent","relevant_dimensions":["antennae","pattern"],"bee_group":{"antennae":"B","wings":"X","pattern":"D","legs":"X"},"action":"avoid","summary":"good-avoid","bonus":1.4000000000000008},{"rt":1199.0999999999767,"stimulus":"\n                    <p><b>Action: <em>avoid</em></b></p>\n                    <p>This is the bee that you just saw.</p>\n                    <img src=\"bees-with-color/bee-B1DF.svg\" width=\"200\">\n                    <p><br>Your bonus pay is unchanged, and remains at $0.76.</p>\n            ","response":0,"trial_type":"html-button-response","trial_index":72,"time_elapsed":385361,"internal_node_id":"0.0-4.0-1.32","subject_id":"5ce9b0e4be5a6b00163f6870","study_id":"6197b3f67c2b5cd3b6d9596a","session_id":"619c0041401e5658fd5ea221","condition":"contingent","relevant_dimensions":["antennae","pattern"],"bee_group":{"antennae":"B","wings":"X","pattern":"D","legs":"X"},"bonus":1.4000000000000008},{"rt":1687,"stimulus":"bees-with-color/bee-A2DF.svg","response":1,"trial_type":"image-button-response","trial_index":73,"time_elapsed":387049,"internal_node_id":"0.0-4.0-0.33","subject_id":"5ce9b0e4be5a6b00163f6870","study_id":"6197b3f67c2b5cd3b6d9596a","session_id":"619c0041401e5658fd5ea221","condition":"contingent","relevant_dimensions":["antennae","pattern"],"bee_group":{"antennae":"B","wings":"X","pattern":"D","legs":"X"},"action":"avoid","summary":"bad-avoid","bonus":1.4000000000000008},{"rt":1178.9000000000233,"stimulus":"\n                    <p><b>Action: <em>avoid</em></b></p>\n                    <p>This is the bee that you just saw.</p>\n                    <img src=\"bees-with-color/bee-A2DF.svg\" width=\"200\">\n                    <p><br>Your bonus pay is unchanged, and remains at $0.76.</p>\n            ","response":0,"trial_type":"html-button-response","trial_index":74,"time_elapsed":388229,"internal_node_id":"0.0-4.0-1.33","subject_id":"5ce9b0e4be5a6b00163f6870","study_id":"6197b3f67c2b5cd3b6d9596a","session_id":"619c0041401e5658fd5ea221","condition":"contingent","relevant_dimensions":["antennae","pattern"],"bee_group":{"antennae":"B","wings":"X","pattern":"D","legs":"X"},"bonus":1.4000000000000008},{"rt":1146.9000000000233,"stimulus":"bees-with-color/bee-B2DM.svg","response":1,"trial_type":"image-button-response","trial_index":75,"time_elapsed":389377,"internal_node_id":"0.0-4.0-0.34","subject_id":"5ce9b0e4be5a6b00163f6870","study_id":"6197b3f67c2b5cd3b6d9596a","session_id":"619c0041401e5658fd5ea221","condition":"contingent","relevant_dimensions":["antennae","pattern"],"bee_group":{"antennae":"B","wings":"X","pattern":"D","legs":"X"},"action":"avoid","summary":"good-avoid","bonus":1.4000000000000008},{"rt":1315,"stimulus":"\n                    <p><b>Action: <em>avoid</em></b></p>\n                    <p>This is the bee that you just saw.</p>\n                    <img src=\"bees-with-color/bee-B2DM.svg\" width=\"200\">\n                    <p><br>Your bonus pay is unchanged, and remains at $0.76.</p>\n            ","response":0,"trial_type":"html-button-response","trial_index":76,"time_elapsed":390693,"internal_node_id":"0.0-4.0-1.34","subject_id":"5ce9b0e4be5a6b00163f6870","study_id":"6197b3f67c2b5cd3b6d9596a","session_id":"619c0041401e5658fd5ea221","condition":"contingent","relevant_dimensions":["antennae","pattern"],"bee_group":{"antennae":"B","wings":"X","pattern":"D","legs":"X"},"bonus":1.4000000000000008},{"rt":1203.2000000000116,"stimulus":"bees-with-color/bee-A1DF.svg","response":1,"trial_type":"image-button-response","trial_index":77,"time_elapsed":391897,"internal_node_id":"0.0-4.0-0.35","subject_id":"5ce9b0e4be5a6b00163f6870","study_id":"6197b3f67c2b5cd3b6d9596a","session_id":"619c0041401e5658fd5ea221","condition":"contingent","relevant_dimensions":["antennae","pattern"],"bee_group":{"antennae":"B","wings":"X","pattern":"D","legs":"X"},"action":"avoid","summary":"bad-avoid","bonus":1.4000000000000008},{"rt":1178.7000000000116,"stimulus":"\n                    <p><b>Action: <em>avoid</em></b></p>\n                    <p>This is the bee that you just saw.</p>\n                    <img src=\"bees-with-color/bee-A1DF.svg\" width=\"200\">\n                    <p><br>Your bonus pay is unchanged, and remains at $0.76.</p>\n            ","response":0,"trial_type":"html-button-response","trial_index":78,"time_elapsed":393077,"internal_node_id":"0.0-4.0-1.35","subject_id":"5ce9b0e4be5a6b00163f6870","study_id":"6197b3f67c2b5cd3b6d9596a","session_id":"619c0041401e5658fd5ea221","condition":"contingent","relevant_dimensions":["antennae","pattern"],"bee_group":{"antennae":"B","wings":"X","pattern":"D","legs":"X"},"bonus":1.4000000000000008},{"rt":1467.0999999999767,"stimulus":"bees-with-color/bee-B2SM.svg","response":0,"trial_type":"image-button-response","trial_index":79,"time_elapsed":394545,"internal_node_id":"0.0-4.0-0.36","subject_id":"5ce9b0e4be5a6b00163f6870","study_id":"6197b3f67c2b5cd3b6d9596a","session_id":"619c0041401e5658fd5ea221","condition":"contingent","relevant_dimensions":["antennae","pattern"],"bee_group":{"antennae":"B","wings":"X","pattern":"D","legs":"X"},"action":"harvest","summary":"good-harvest","bonus":1.4000000000000008},{"rt":1142.899999999965,"stimulus":"\n                    <p><b>Action: <em>harvest</em></b></p>\n                    <p>This is the bee that you just saw.</p>\n                    <img src=\"bees-with-color/bee-B2SM.svg\" width=\"200\">\n                    <p><span class=\"greenText\"><b>Successful harvest!</b></span><br>Your pay has increased by $0.02. Your bonus pay is now $0.78.</p>\n            ","response":0,"trial_type":"html-button-response","trial_index":80,"time_elapsed":395689,"internal_node_id":"0.0-4.0-1.36","subject_id":"5ce9b0e4be5a6b00163f6870","study_id":"6197b3f67c2b5cd3b6d9596a","session_id":"619c0041401e5658fd5ea221","condition":"contingent","relevant_dimensions":["antennae","pattern"],"bee_group":{"antennae":"B","wings":"X","pattern":"D","legs":"X"},"bonus":1.4000000000000008},{"rt":1614.7000000000116,"stimulus":"bees-with-color/bee-A1DM.svg","response":1,"trial_type":"image-button-response","trial_index":81,"time_elapsed":397305,"internal_node_id":"0.0-4.0-0.37","subject_id":"5ce9b0e4be5a6b00163f6870","study_id":"6197b3f67c2b5cd3b6d9596a","session_id":"619c0041401e5658fd5ea221","condition":"contingent","relevant_dimensions":["antennae","pattern"],"bee_group":{"antennae":"B","wings":"X","pattern":"D","legs":"X"},"action":"avoid","summary":"bad-avoid","bonus":1.4000000000000008},{"rt":1191.0999999999767,"stimulus":"\n                    <p><b>Action: <em>avoid</em></b></p>\n                    <p>This is the bee that you just saw.</p>\n                    <img src=\"bees-with-color/bee-A1DM.svg\" width=\"200\">\n                    <p><br>Your bonus pay is unchanged, and remains at $0.78.</p>\n            ","response":0,"trial_type":"html-button-response","trial_index":82,"time_elapsed":398497,"internal_node_id":"0.0-4.0-1.37","subject_id":"5ce9b0e4be5a6b00163f6870","study_id":"6197b3f67c2b5cd3b6d9596a","session_id":"619c0041401e5658fd5ea221","condition":"contingent","relevant_dimensions":["antennae","pattern"],"bee_group":{"antennae":"B","wings":"X","pattern":"D","legs":"X"},"bonus":1.4000000000000008},{"rt":1286.9000000000233,"stimulus":"bees-with-color/bee-B1SF.svg","response":0,"trial_type":"image-button-response","trial_index":83,"time_elapsed":399785,"internal_node_id":"0.0-4.0-0.38","subject_id":"5ce9b0e4be5a6b00163f6870","study_id":"6197b3f67c2b5cd3b6d9596a","session_id":"619c0041401e5658fd5ea221","condition":"contingent","relevant_dimensions":["antennae","pattern"],"bee_group":{"antennae":"B","wings":"X","pattern":"D","legs":"X"},"action":"harvest","summary":"good-harvest","bonus":1.4000000000000008},{"rt":1383.4000000000233,"stimulus":"\n                    <p><b>Action: <em>harvest</em></b></p>\n                    <p>This is the bee that you just saw.</p>\n                    <img src=\"bees-with-color/bee-B1SF.svg\" width=\"200\">\n                    <p><span class=\"greenText\"><b>Successful harvest!</b></span><br>Your pay has increased by $0.02. Your bonus pay is now $0.80.</p>\n            ","response":0,"trial_type":"html-button-response","trial_index":84,"time_elapsed":401169,"internal_node_id":"0.0-4.0-1.38","subject_id":"5ce9b0e4be5a6b00163f6870","study_id":"6197b3f67c2b5cd3b6d9596a","session_id":"619c0041401e5658fd5ea221","condition":"contingent","relevant_dimensions":["antennae","pattern"],"bee_group":{"antennae":"B","wings":"X","pattern":"D","legs":"X"},"bonus":1.4000000000000008},{"rt":2078.600000000035,"stimulus":"bees-with-color/bee-A2SM.svg","response":0,"trial_type":"image-button-response","trial_index":85,"time_elapsed":403249,"internal_node_id":"0.0-4.0-0.39","subject_id":"5ce9b0e4be5a6b00163f6870","study_id":"6197b3f67c2b5cd3b6d9596a","session_id":"619c0041401e5658fd5ea221","condition":"contingent","relevant_dimensions":["antennae","pattern"],"bee_group":{"antennae":"B","wings":"X","pattern":"D","legs":"X"},"action":"harvest","summary":"good-harvest","bonus":1.4000000000000008},{"rt":1174.7999999999884,"stimulus":"\n                    <p><b>Action: <em>harvest</em></b></p>\n                    <p>This is the bee that you just saw.</p>\n                    <img src=\"bees-with-color/bee-A2SM.svg\" width=\"200\">\n                    <p><span class=\"greenText\"><b>Successful harvest!</b></span><br>Your pay has increased by $0.02. Your bonus pay is now $0.82.</p>\n            ","response":0,"trial_type":"html-button-response","trial_index":86,"time_elapsed":404425,"internal_node_id":"0.0-4.0-1.39","subject_id":"5ce9b0e4be5a6b00163f6870","study_id":"6197b3f67c2b5cd3b6d9596a","session_id":"619c0041401e5658fd5ea221","condition":"contingent","relevant_dimensions":["antennae","pattern"],"bee_group":{"antennae":"B","wings":"X","pattern":"D","legs":"X"},"bonus":1.4000000000000008},{"rt":1510.7999999999884,"stimulus":"bees-with-color/bee-A1SM.svg","response":0,"trial_type":"image-button-response","trial_index":87,"time_elapsed":405937,"internal_node_id":"0.0-4.0-0.40","subject_id":"5ce9b0e4be5a6b00163f6870","study_id":"6197b3f67c2b5cd3b6d9596a","session_id":"619c0041401e5658fd5ea221","condition":"contingent","relevant_dimensions":["antennae","pattern"],"bee_group":{"antennae":"B","wings":"X","pattern":"D","legs":"X"},"action":"harvest","summary":"good-harvest","bonus":1.4000000000000008},{"rt":1719,"stimulus":"\n                    <p><b>Action: <em>harvest</em></b></p>\n                    <p>This is the bee that you just saw.</p>\n                    <img src=\"bees-with-color/bee-A1SM.svg\" width=\"200\">\n                    <p><span class=\"greenText\"><b>Successful harvest!</b></span><br>Your pay has increased by $0.02. Your bonus pay is now $0.84.</p>\n            ","response":0,"trial_type":"html-button-response","trial_index":88,"time_elapsed":407657,"internal_node_id":"0.0-4.0-1.40","subject_id":"5ce9b0e4be5a6b00163f6870","study_id":"6197b3f67c2b5cd3b6d9596a","session_id":"619c0041401e5658fd5ea221","condition":"contingent","relevant_dimensions":["antennae","pattern"],"bee_group":{"antennae":"B","wings":"X","pattern":"D","legs":"X"},"bonus":1.4000000000000008},{"rt":1354.7999999999884,"stimulus":"bees-with-color/bee-B1DM.svg","response":1,"trial_type":"image-button-response","trial_index":89,"time_elapsed":409013,"internal_node_id":"0.0-4.0-0.41","subject_id":"5ce9b0e4be5a6b00163f6870","study_id":"6197b3f67c2b5cd3b6d9596a","session_id":"619c0041401e5658fd5ea221","condition":"contingent","relevant_dimensions":["antennae","pattern"],"bee_group":{"antennae":"B","wings":"X","pattern":"D","legs":"X"},"action":"avoid","summary":"good-avoid","bonus":1.4000000000000008},{"rt":1491.2000000000116,"stimulus":"\n                    <p><b>Action: <em>avoid</em></b></p>\n                    <p>This is the bee that you just saw.</p>\n                    <img src=\"bees-with-color/bee-B1DM.svg\" width=\"200\">\n                    <p><br>Your bonus pay is unchanged, and remains at $0.84.</p>\n            ","response":0,"trial_type":"html-button-response","trial_index":90,"time_elapsed":410505,"internal_node_id":"0.0-4.0-1.41","subject_id":"5ce9b0e4be5a6b00163f6870","study_id":"6197b3f67c2b5cd3b6d9596a","session_id":"619c0041401e5658fd5ea221","condition":"contingent","relevant_dimensions":["antennae","pattern"],"bee_group":{"antennae":"B","wings":"X","pattern":"D","legs":"X"},"bonus":1.4000000000000008},{"rt":990.8999999999651,"stimulus":"bees-with-color/bee-B1SM.svg","response":0,"trial_type":"image-button-response","trial_index":91,"time_elapsed":411497,"internal_node_id":"0.0-4.0-0.42","subject_id":"5ce9b0e4be5a6b00163f6870","study_id":"6197b3f67c2b5cd3b6d9596a","session_id":"619c0041401e5658fd5ea221","condition":"contingent","relevant_dimensions":["antennae","pattern"],"bee_group":{"antennae":"B","wings":"X","pattern":"D","legs":"X"},"action":"harvest","summary":"good-harvest","bonus":1.4000000000000008},{"rt":1470.7999999999884,"stimulus":"\n                    <p><b>Action: <em>harvest</em></b></p>\n                    <p>This is the bee that you just saw.</p>\n                    <img src=\"bees-with-color/bee-B1SM.svg\" width=\"200\">\n                    <p><span class=\"greenText\"><b>Successful harvest!</b></span><br>Your pay has increased by $0.02. Your bonus pay is now $0.86.</p>\n            ","response":0,"trial_type":"html-button-response","trial_index":92,"time_elapsed":412969,"internal_node_id":"0.0-4.0-1.42","subject_id":"5ce9b0e4be5a6b00163f6870","study_id":"6197b3f67c2b5cd3b6d9596a","session_id":"619c0041401e5658fd5ea221","condition":"contingent","relevant_dimensions":["antennae","pattern"],"bee_group":{"antennae":"B","wings":"X","pattern":"D","legs":"X"},"bonus":1.4000000000000008},{"rt":1415.2000000000116,"stimulus":"bees-with-color/bee-A2SF.svg","response":0,"trial_type":"image-button-response","trial_index":93,"time_elapsed":414385,"internal_node_id":"0.0-4.0-0.43","subject_id":"5ce9b0e4be5a6b00163f6870","study_id":"6197b3f67c2b5cd3b6d9596a","session_id":"619c0041401e5658fd5ea221","condition":"contingent","relevant_dimensions":["antennae","pattern"],"bee_group":{"antennae":"B","wings":"X","pattern":"D","legs":"X"},"action":"harvest","summary":"good-harvest","bonus":1.4000000000000008},{"rt":1306.5999999999767,"stimulus":"\n                    <p><b>Action: <em>harvest</em></b></p>\n                    <p>This is the bee that you just saw.</p>\n                    <img src=\"bees-with-color/bee-A2SF.svg\" width=\"200\">\n                    <p><span class=\"greenText\"><b>Successful harvest!</b></span><br>Your pay has increased by $0.02. Your bonus pay is now $0.88.</p>\n            ","response":0,"trial_type":"html-button-response","trial_index":94,"time_elapsed":415693,"internal_node_id":"0.0-4.0-1.43","subject_id":"5ce9b0e4be5a6b00163f6870","study_id":"6197b3f67c2b5cd3b6d9596a","session_id":"619c0041401e5658fd5ea221","condition":"contingent","relevant_dimensions":["antennae","pattern"],"bee_group":{"antennae":"B","wings":"X","pattern":"D","legs":"X"},"bonus":1.4000000000000008},{"rt":1386.7999999999884,"stimulus":"bees-with-color/bee-A2DM.svg","response":1,"trial_type":"image-button-response","trial_index":95,"time_elapsed":417081,"internal_node_id":"0.0-4.0-0.44","subject_id":"5ce9b0e4be5a6b00163f6870","study_id":"6197b3f67c2b5cd3b6d9596a","session_id":"619c0041401e5658fd5ea221","condition":"contingent","relevant_dimensions":["antennae","pattern"],"bee_group":{"antennae":"B","wings":"X","pattern":"D","legs":"X"},"action":"avoid","summary":"bad-avoid","bonus":1.4000000000000008},{"rt":1334.8000000000466,"stimulus":"\n                    <p><b>Action: <em>avoid</em></b></p>\n                    <p>This is the bee that you just saw.</p>\n                    <img src=\"bees-with-color/bee-A2DM.svg\" width=\"200\">\n                    <p><br>Your bonus pay is unchanged, and remains at $0.88.</p>\n            ","response":0,"trial_type":"html-button-response","trial_index":96,"time_elapsed":418417,"internal_node_id":"0.0-4.0-1.44","subject_id":"5ce9b0e4be5a6b00163f6870","study_id":"6197b3f67c2b5cd3b6d9596a","session_id":"619c0041401e5658fd5ea221","condition":"contingent","relevant_dimensions":["antennae","pattern"],"bee_group":{"antennae":"B","wings":"X","pattern":"D","legs":"X"},"bonus":1.4000000000000008},{"rt":1007.2999999999884,"stimulus":"bees-with-color/bee-A1SF.svg","response":0,"trial_type":"image-button-response","trial_index":97,"time_elapsed":419425,"internal_node_id":"0.0-4.0-0.45","subject_id":"5ce9b0e4be5a6b00163f6870","study_id":"6197b3f67c2b5cd3b6d9596a","session_id":"619c0041401e5658fd5ea221","condition":"contingent","relevant_dimensions":["antennae","pattern"],"bee_group":{"antennae":"B","wings":"X","pattern":"D","legs":"X"},"action":"harvest","summary":"good-harvest","bonus":1.4000000000000008},{"rt":1362.899999999965,"stimulus":"\n                    <p><b>Action: <em>harvest</em></b></p>\n                    <p>This is the bee that you just saw.</p>\n                    <img src=\"bees-with-color/bee-A1SF.svg\" width=\"200\">\n                    <p><span class=\"greenText\"><b>Successful harvest!</b></span><br>Your pay has increased by $0.02. Your bonus pay is now $0.90.</p>\n            ","response":0,"trial_type":"html-button-response","trial_index":98,"time_elapsed":420789,"internal_node_id":"0.0-4.0-1.45","subject_id":"5ce9b0e4be5a6b00163f6870","study_id":"6197b3f67c2b5cd3b6d9596a","session_id":"619c0041401e5658fd5ea221","condition":"contingent","relevant_dimensions":["antennae","pattern"],"bee_group":{"antennae":"B","wings":"X","pattern":"D","legs":"X"},"bonus":1.4000000000000008},{"rt":1495.0999999999767,"stimulus":"bees-with-color/bee-B2SF.svg","response":0,"trial_type":"image-button-response","trial_index":99,"time_elapsed":422285,"internal_node_id":"0.0-4.0-0.46","subject_id":"5ce9b0e4be5a6b00163f6870","study_id":"6197b3f67c2b5cd3b6d9596a","session_id":"619c0041401e5658fd5ea221","condition":"contingent","relevant_dimensions":["antennae","pattern"],"bee_group":{"antennae":"B","wings":"X","pattern":"D","legs":"X"},"action":"harvest","summary":"good-harvest","bonus":1.4000000000000008},{"rt":1394.7000000000116,"stimulus":"\n                    <p><b>Action: <em>harvest</em></b></p>\n                    <p>This is the bee that you just saw.</p>\n                    <img src=\"bees-with-color/bee-B2SF.svg\" width=\"200\">\n                    <p><span class=\"greenText\"><b>Successful harvest!</b></span><br>Your pay has increased by $0.02. Your bonus pay is now $0.92.</p>\n            ","response":0,"trial_type":"html-button-response","trial_index":100,"time_elapsed":423680,"internal_node_id":"0.0-4.0-1.46","subject_id":"5ce9b0e4be5a6b00163f6870","study_id":"6197b3f67c2b5cd3b6d9596a","session_id":"619c0041401e5658fd5ea221","condition":"contingent","relevant_dimensions":["antennae","pattern"],"bee_group":{"antennae":"B","wings":"X","pattern":"D","legs":"X"},"bonus":1.4000000000000008},{"rt":1782.9000000000233,"stimulus":"bees-with-color/bee-B2DF.svg","response":1,"trial_type":"image-button-response","trial_index":101,"time_elapsed":425465,"internal_node_id":"0.0-4.0-0.47","subject_id":"5ce9b0e4be5a6b00163f6870","study_id":"6197b3f67c2b5cd3b6d9596a","session_id":"619c0041401e5658fd5ea221","condition":"contingent","relevant_dimensions":["antennae","pattern"],"bee_group":{"antennae":"B","wings":"X","pattern":"D","legs":"X"},"action":"avoid","summary":"good-avoid","bonus":1.4000000000000008},{"rt":1234.7000000000116,"stimulus":"\n                    <p><b>Action: <em>avoid</em></b></p>\n                    <p>This is the bee that you just saw.</p>\n                    <img src=\"bees-with-color/bee-B2DF.svg\" width=\"200\">\n                    <p><br>Your bonus pay is unchanged, and remains at $0.92.</p>\n            ","response":0,"trial_type":"html-button-response","trial_index":102,"time_elapsed":426700,"internal_node_id":"0.0-4.0-1.47","subject_id":"5ce9b0e4be5a6b00163f6870","study_id":"6197b3f67c2b5cd3b6d9596a","session_id":"619c0041401e5658fd5ea221","condition":"contingent","relevant_dimensions":["antennae","pattern"],"bee_group":{"antennae":"B","wings":"X","pattern":"D","legs":"X"},"bonus":1.4000000000000008},{"rt":1083.399999999965,"stimulus":"bees-with-color/bee-A2SM.svg","response":0,"trial_type":"image-button-response","trial_index":103,"time_elapsed":427785,"internal_node_id":"0.0-4.0-0.48","subject_id":"5ce9b0e4be5a6b00163f6870","study_id":"6197b3f67c2b5cd3b6d9596a","session_id":"619c0041401e5658fd5ea221","condition":"contingent","relevant_dimensions":["antennae","pattern"],"bee_group":{"antennae":"B","wings":"X","pattern":"D","legs":"X"},"action":"harvest","summary":"good-harvest","bonus":1.4000000000000008},{"rt":1534.7999999999884,"stimulus":"\n                    <p><b>Action: <em>harvest</em></b></p>\n                    <p>This is the bee that you just saw.</p>\n                    <img src=\"bees-with-color/bee-A2SM.svg\" width=\"200\">\n                    <p><span class=\"greenText\"><b>Successful harvest!</b></span><br>Your pay has increased by $0.02. Your bonus pay is now $0.94.</p>\n            ","response":0,"trial_type":"html-button-response","trial_index":104,"time_elapsed":429321,"internal_node_id":"0.0-4.0-1.48","subject_id":"5ce9b0e4be5a6b00163f6870","study_id":"6197b3f67c2b5cd3b6d9596a","session_id":"619c0041401e5658fd5ea221","condition":"contingent","relevant_dimensions":["antennae","pattern"],"bee_group":{"antennae":"B","wings":"X","pattern":"D","legs":"X"},"bonus":1.4000000000000008},{"rt":1486.9000000000233,"stimulus":"bees-with-color/bee-A2SF.svg","response":0,"trial_type":"image-button-response","trial_index":105,"time_elapsed":430809,"internal_node_id":"0.0-4.0-0.49","subject_id":"5ce9b0e4be5a6b00163f6870","study_id":"6197b3f67c2b5cd3b6d9596a","session_id":"619c0041401e5658fd5ea221","condition":"contingent","relevant_dimensions":["antennae","pattern"],"bee_group":{"antennae":"B","wings":"X","pattern":"D","legs":"X"},"action":"harvest","summary":"good-harvest","bonus":1.4000000000000008},{"rt":1639,"stimulus":"\n                    <p><b>Action: <em>harvest</em></b></p>\n                    <p>This is the bee that you just saw.</p>\n                    <img src=\"bees-with-color/bee-A2SF.svg\" width=\"200\">\n                    <p><span class=\"greenText\"><b>Successful harvest!</b></span><br>Your pay has increased by $0.02. Your bonus pay is now $0.96.</p>\n            ","response":0,"trial_type":"html-button-response","trial_index":106,"time_elapsed":432449,"internal_node_id":"0.0-4.0-1.49","subject_id":"5ce9b0e4be5a6b00163f6870","study_id":"6197b3f67c2b5cd3b6d9596a","session_id":"619c0041401e5658fd5ea221","condition":"contingent","relevant_dimensions":["antennae","pattern"],"bee_group":{"antennae":"B","wings":"X","pattern":"D","legs":"X"},"bonus":1.4000000000000008},{"rt":1454.5999999999767,"stimulus":"bees-with-color/bee-A2DF.svg","response":1,"trial_type":"image-button-response","trial_index":107,"time_elapsed":433905,"internal_node_id":"0.0-4.0-0.50","subject_id":"5ce9b0e4be5a6b00163f6870","study_id":"6197b3f67c2b5cd3b6d9596a","session_id":"619c0041401e5658fd5ea221","condition":"contingent","relevant_dimensions":["antennae","pattern"],"bee_group":{"antennae":"B","wings":"X","pattern":"D","legs":"X"},"action":"avoid","summary":"bad-avoid","bonus":1.4000000000000008},{"rt":1330.9000000000233,"stimulus":"\n                    <p><b>Action: <em>avoid</em></b></p>\n                    <p>This is the bee that you just saw.</p>\n                    <img src=\"bees-with-color/bee-A2DF.svg\" width=\"200\">\n                    <p><br>Your bonus pay is unchanged, and remains at $0.96.</p>\n            ","response":0,"trial_type":"html-button-response","trial_index":108,"time_elapsed":435237,"internal_node_id":"0.0-4.0-1.50","subject_id":"5ce9b0e4be5a6b00163f6870","study_id":"6197b3f67c2b5cd3b6d9596a","session_id":"619c0041401e5658fd5ea221","condition":"contingent","relevant_dimensions":["antennae","pattern"],"bee_group":{"antennae":"B","wings":"X","pattern":"D","legs":"X"},"bonus":1.4000000000000008},{"rt":1259,"stimulus":"bees-with-color/bee-A1SF.svg","response":0,"trial_type":"image-button-response","trial_index":109,"time_elapsed":436497,"internal_node_id":"0.0-4.0-0.51","subject_id":"5ce9b0e4be5a6b00163f6870","study_id":"6197b3f67c2b5cd3b6d9596a","session_id":"619c0041401e5658fd5ea221","condition":"contingent","relevant_dimensions":["antennae","pattern"],"bee_group":{"antennae":"B","wings":"X","pattern":"D","legs":"X"},"action":"harvest","summary":"good-harvest","bonus":1.4000000000000008},{"rt":1438.899999999965,"stimulus":"\n                    <p><b>Action: <em>harvest</em></b></p>\n                    <p>This is the bee that you just saw.</p>\n                    <img src=\"bees-with-color/bee-A1SF.svg\" width=\"200\">\n                    <p><span class=\"greenText\"><b>Successful harvest!</b></span><br>Your pay has increased by $0.02. Your bonus pay is now $0.98.</p>\n            ","response":0,"trial_type":"html-button-response","trial_index":110,"time_elapsed":437937,"internal_node_id":"0.0-4.0-1.51","subject_id":"5ce9b0e4be5a6b00163f6870","study_id":"6197b3f67c2b5cd3b6d9596a","session_id":"619c0041401e5658fd5ea221","condition":"contingent","relevant_dimensions":["antennae","pattern"],"bee_group":{"antennae":"B","wings":"X","pattern":"D","legs":"X"},"bonus":1.4000000000000008},{"rt":1306.7000000000116,"stimulus":"bees-with-color/bee-B1SF.svg","response":0,"trial_type":"image-button-response","trial_index":111,"time_elapsed":439245,"internal_node_id":"0.0-4.0-0.52","subject_id":"5ce9b0e4be5a6b00163f6870","study_id":"6197b3f67c2b5cd3b6d9596a","session_id":"619c0041401e5658fd5ea221","condition":"contingent","relevant_dimensions":["antennae","pattern"],"bee_group":{"antennae":"B","wings":"X","pattern":"D","legs":"X"},"action":"harvest","summary":"good-harvest","bonus":1.4000000000000008},{"rt":1299,"stimulus":"\n                    <p><b>Action: <em>harvest</em></b></p>\n                    <p>This is the bee that you just saw.</p>\n                    <img src=\"bees-with-color/bee-B1SF.svg\" width=\"200\">\n                    <p><span class=\"greenText\"><b>Successful harvest!</b></span><br>Your pay has increased by $0.02. Your bonus pay is now $1.00.</p>\n            ","response":0,"trial_type":"html-button-response","trial_index":112,"time_elapsed":440545,"internal_node_id":"0.0-4.0-1.52","subject_id":"5ce9b0e4be5a6b00163f6870","study_id":"6197b3f67c2b5cd3b6d9596a","session_id":"619c0041401e5658fd5ea221","condition":"contingent","relevant_dimensions":["antennae","pattern"],"bee_group":{"antennae":"B","wings":"X","pattern":"D","legs":"X"},"bonus":1.4000000000000008},{"rt":2318.8000000000466,"stimulus":"bees-with-color/bee-B1DM.svg","response":1,"trial_type":"image-button-response","trial_index":113,"time_elapsed":442865,"internal_node_id":"0.0-4.0-0.53","subject_id":"5ce9b0e4be5a6b00163f6870","study_id":"6197b3f67c2b5cd3b6d9596a","session_id":"619c0041401e5658fd5ea221","condition":"contingent","relevant_dimensions":["antennae","pattern"],"bee_group":{"antennae":"B","wings":"X","pattern":"D","legs":"X"},"action":"avoid","summary":"good-avoid","bonus":1.4000000000000008},{"rt":1379.0999999999767,"stimulus":"\n                    <p><b>Action: <em>avoid</em></b></p>\n                    <p>This is the bee that you just saw.</p>\n                    <img src=\"bees-with-color/bee-B1DM.svg\" width=\"200\">\n                    <p><br>Your bonus pay is unchanged, and remains at $1.00.</p>\n            ","response":0,"trial_type":"html-button-response","trial_index":114,"time_elapsed":444244,"internal_node_id":"0.0-4.0-1.53","subject_id":"5ce9b0e4be5a6b00163f6870","study_id":"6197b3f67c2b5cd3b6d9596a","session_id":"619c0041401e5658fd5ea221","condition":"contingent","relevant_dimensions":["antennae","pattern"],"bee_group":{"antennae":"B","wings":"X","pattern":"D","legs":"X"},"bonus":1.4000000000000008},{"rt":1458.9000000000233,"stimulus":"bees-with-color/bee-B1SM.svg","response":0,"trial_type":"image-button-response","trial_index":115,"time_elapsed":445704,"internal_node_id":"0.0-4.0-0.54","subject_id":"5ce9b0e4be5a6b00163f6870","study_id":"6197b3f67c2b5cd3b6d9596a","session_id":"619c0041401e5658fd5ea221","condition":"contingent","relevant_dimensions":["antennae","pattern"],"bee_group":{"antennae":"B","wings":"X","pattern":"D","legs":"X"},"action":"harvest","summary":"good-harvest","bonus":1.4000000000000008},{"rt":1238.899999999965,"stimulus":"\n                    <p><b>Action: <em>harvest</em></b></p>\n                    <p>This is the bee that you just saw.</p>\n                    <img src=\"bees-with-color/bee-B1SM.svg\" width=\"200\">\n                    <p><span class=\"greenText\"><b>Successful harvest!</b></span><br>Your pay has increased by $0.02. Your bonus pay is now $1.02.</p>\n            ","response":0,"trial_type":"html-button-response","trial_index":116,"time_elapsed":446944,"internal_node_id":"0.0-4.0-1.54","subject_id":"5ce9b0e4be5a6b00163f6870","study_id":"6197b3f67c2b5cd3b6d9596a","session_id":"619c0041401e5658fd5ea221","condition":"contingent","relevant_dimensions":["antennae","pattern"],"bee_group":{"antennae":"B","wings":"X","pattern":"D","legs":"X"},"bonus":1.4000000000000008},{"rt":1599.0999999999767,"stimulus":"bees-with-color/bee-B2DF.svg","response":1,"trial_type":"image-button-response","trial_index":117,"time_elapsed":448545,"internal_node_id":"0.0-4.0-0.55","subject_id":"5ce9b0e4be5a6b00163f6870","study_id":"6197b3f67c2b5cd3b6d9596a","session_id":"619c0041401e5658fd5ea221","condition":"contingent","relevant_dimensions":["antennae","pattern"],"bee_group":{"antennae":"B","wings":"X","pattern":"D","legs":"X"},"action":"avoid","summary":"good-avoid","bonus":1.4000000000000008},{"rt":1415.2000000000116,"stimulus":"\n                    <p><b>Action: <em>avoid</em></b></p>\n                    <p>This is the bee that you just saw.</p>\n                    <img src=\"bees-with-color/bee-B2DF.svg\" width=\"200\">\n                    <p><br>Your bonus pay is unchanged, and remains at $1.02.</p>\n            ","response":0,"trial_type":"html-button-response","trial_index":118,"time_elapsed":449961,"internal_node_id":"0.0-4.0-1.55","subject_id":"5ce9b0e4be5a6b00163f6870","study_id":"6197b3f67c2b5cd3b6d9596a","session_id":"619c0041401e5658fd5ea221","condition":"contingent","relevant_dimensions":["antennae","pattern"],"bee_group":{"antennae":"B","wings":"X","pattern":"D","legs":"X"},"bonus":1.4000000000000008},{"rt":1078.5999999999767,"stimulus":"bees-with-color/bee-B2SF.svg","response":0,"trial_type":"image-button-response","trial_index":119,"time_elapsed":451041,"internal_node_id":"0.0-4.0-0.56","subject_id":"5ce9b0e4be5a6b00163f6870","study_id":"6197b3f67c2b5cd3b6d9596a","session_id":"619c0041401e5658fd5ea221","condition":"contingent","relevant_dimensions":["antennae","pattern"],"bee_group":{"antennae":"B","wings":"X","pattern":"D","legs":"X"},"action":"harvest","summary":"good-harvest","bonus":1.4000000000000008},{"rt":1783.0999999999767,"stimulus":"\n                    <p><b>Action: <em>harvest</em></b></p>\n                    <p>This is the bee that you just saw.</p>\n                    <img src=\"bees-with-color/bee-B2SF.svg\" width=\"200\">\n                    <p><span class=\"greenText\"><b>Successful harvest!</b></span><br>Your pay has increased by $0.02. Your bonus pay is now $1.04.</p>\n            ","response":0,"trial_type":"html-button-response","trial_index":120,"time_elapsed":452825,"internal_node_id":"0.0-4.0-1.56","subject_id":"5ce9b0e4be5a6b00163f6870","study_id":"6197b3f67c2b5cd3b6d9596a","session_id":"619c0041401e5658fd5ea221","condition":"contingent","relevant_dimensions":["antennae","pattern"],"bee_group":{"antennae":"B","wings":"X","pattern":"D","legs":"X"},"bonus":1.4000000000000008},{"rt":1335,"stimulus":"bees-with-color/bee-B1DF.svg","response":1,"trial_type":"image-button-response","trial_index":121,"time_elapsed":454161,"internal_node_id":"0.0-4.0-0.57","subject_id":"5ce9b0e4be5a6b00163f6870","study_id":"6197b3f67c2b5cd3b6d9596a","session_id":"619c0041401e5658fd5ea221","condition":"contingent","relevant_dimensions":["antennae","pattern"],"bee_group":{"antennae":"B","wings":"X","pattern":"D","legs":"X"},"action":"avoid","summary":"good-avoid","bonus":1.4000000000000008},{"rt":1030.899999999965,"stimulus":"\n                    <p><b>Action: <em>avoid</em></b></p>\n                    <p>This is the bee that you just saw.</p>\n                    <img src=\"bees-with-color/bee-B1DF.svg\" width=\"200\">\n                    <p><br>Your bonus pay is unchanged, and remains at $1.04.</p>\n            ","response":0,"trial_type":"html-button-response","trial_index":122,"time_elapsed":455193,"internal_node_id":"0.0-4.0-1.57","subject_id":"5ce9b0e4be5a6b00163f6870","study_id":"6197b3f67c2b5cd3b6d9596a","session_id":"619c0041401e5658fd5ea221","condition":"contingent","relevant_dimensions":["antennae","pattern"],"bee_group":{"antennae":"B","wings":"X","pattern":"D","legs":"X"},"bonus":1.4000000000000008},{"rt":1179.0999999999767,"stimulus":"bees-with-color/bee-A1SM.svg","response":0,"trial_type":"image-button-response","trial_index":123,"time_elapsed":456373,"internal_node_id":"0.0-4.0-0.58","subject_id":"5ce9b0e4be5a6b00163f6870","study_id":"6197b3f67c2b5cd3b6d9596a","session_id":"619c0041401e5658fd5ea221","condition":"contingent","relevant_dimensions":["antennae","pattern"],"bee_group":{"antennae":"B","wings":"X","pattern":"D","legs":"X"},"action":"harvest","summary":"good-harvest","bonus":1.4000000000000008},{"rt":1135,"stimulus":"\n                    <p><b>Action: <em>harvest</em></b></p>\n                    <p>This is the bee that you just saw.</p>\n                    <img src=\"bees-with-color/bee-A1SM.svg\" width=\"200\">\n                    <p><span class=\"greenText\"><b>Successful harvest!</b></span><br>Your pay has increased by $0.02. Your bonus pay is now $1.06.</p>\n            ","response":0,"trial_type":"html-button-response","trial_index":124,"time_elapsed":457509,"internal_node_id":"0.0-4.0-1.58","subject_id":"5ce9b0e4be5a6b00163f6870","study_id":"6197b3f67c2b5cd3b6d9596a","session_id":"619c0041401e5658fd5ea221","condition":"contingent","relevant_dimensions":["antennae","pattern"],"bee_group":{"antennae":"B","wings":"X","pattern":"D","legs":"X"},"bonus":1.4000000000000008},{"rt":1371.100000000035,"stimulus":"bees-with-color/bee-A1DF.svg","response":1,"trial_type":"image-button-response","trial_index":125,"time_elapsed":458881,"internal_node_id":"0.0-4.0-0.59","subject_id":"5ce9b0e4be5a6b00163f6870","study_id":"6197b3f67c2b5cd3b6d9596a","session_id":"619c0041401e5658fd5ea221","condition":"contingent","relevant_dimensions":["antennae","pattern"],"bee_group":{"antennae":"B","wings":"X","pattern":"D","legs":"X"},"action":"avoid","summary":"bad-avoid","bonus":1.4000000000000008},{"rt":1183,"stimulus":"\n                    <p><b>Action: <em>avoid</em></b></p>\n                    <p>This is the bee that you just saw.</p>\n                    <img src=\"bees-with-color/bee-A1DF.svg\" width=\"200\">\n                    <p><br>Your bonus pay is unchanged, and remains at $1.06.</p>\n            ","response":0,"trial_type":"html-button-response","trial_index":126,"time_elapsed":460065,"internal_node_id":"0.0-4.0-1.59","subject_id":"5ce9b0e4be5a6b00163f6870","study_id":"6197b3f67c2b5cd3b6d9596a","session_id":"619c0041401e5658fd5ea221","condition":"contingent","relevant_dimensions":["antennae","pattern"],"bee_group":{"antennae":"B","wings":"X","pattern":"D","legs":"X"},"bonus":1.4000000000000008},{"rt":1294.7000000000116,"stimulus":"bees-with-color/bee-A2DM.svg","response":1,"trial_type":"image-button-response","trial_index":127,"time_elapsed":461361,"internal_node_id":"0.0-4.0-0.60","subject_id":"5ce9b0e4be5a6b00163f6870","study_id":"6197b3f67c2b5cd3b6d9596a","session_id":"619c0041401e5658fd5ea221","condition":"contingent","relevant_dimensions":["antennae","pattern"],"bee_group":{"antennae":"B","wings":"X","pattern":"D","legs":"X"},"action":"avoid","summary":"bad-avoid","bonus":1.4000000000000008},{"rt":1347.100000000035,"stimulus":"\n                    <p><b>Action: <em>avoid</em></b></p>\n                    <p>This is the bee that you just saw.</p>\n                    <img src=\"bees-with-color/bee-A2DM.svg\" width=\"200\">\n                    <p><br>Your bonus pay is unchanged, and remains at $1.06.</p>\n            ","response":0,"trial_type":"html-button-response","trial_index":128,"time_elapsed":462709,"internal_node_id":"0.0-4.0-1.60","subject_id":"5ce9b0e4be5a6b00163f6870","study_id":"6197b3f67c2b5cd3b6d9596a","session_id":"619c0041401e5658fd5ea221","condition":"contingent","relevant_dimensions":["antennae","pattern"],"bee_group":{"antennae":"B","wings":"X","pattern":"D","legs":"X"},"bonus":1.4000000000000008},{"rt":1250.7999999999884,"stimulus":"bees-with-color/bee-B2SM.svg","response":0,"trial_type":"image-button-response","trial_index":129,"time_elapsed":463961,"internal_node_id":"0.0-4.0-0.61","subject_id":"5ce9b0e4be5a6b00163f6870","study_id":"6197b3f67c2b5cd3b6d9596a","session_id":"619c0041401e5658fd5ea221","condition":"contingent","relevant_dimensions":["antennae","pattern"],"bee_group":{"antennae":"B","wings":"X","pattern":"D","legs":"X"},"action":"harvest","summary":"good-harvest","bonus":1.4000000000000008},{"rt":1170.9000000000233,"stimulus":"\n                    <p><b>Action: <em>harvest</em></b></p>\n                    <p>This is the bee that you just saw.</p>\n                    <img src=\"bees-with-color/bee-B2SM.svg\" width=\"200\">\n                    <p><span class=\"greenText\"><b>Successful harvest!</b></span><br>Your pay has increased by $0.02. Your bonus pay is now $1.08.</p>\n            ","response":0,"trial_type":"html-button-response","trial_index":130,"time_elapsed":465133,"internal_node_id":"0.0-4.0-1.61","subject_id":"5ce9b0e4be5a6b00163f6870","study_id":"6197b3f67c2b5cd3b6d9596a","session_id":"619c0041401e5658fd5ea221","condition":"contingent","relevant_dimensions":["antennae","pattern"],"bee_group":{"antennae":"B","wings":"X","pattern":"D","legs":"X"},"bonus":1.4000000000000008},{"rt":1311,"stimulus":"bees-with-color/bee-B2DM.svg","response":1,"trial_type":"image-button-response","trial_index":131,"time_elapsed":466445,"internal_node_id":"0.0-4.0-0.62","subject_id":"5ce9b0e4be5a6b00163f6870","study_id":"6197b3f67c2b5cd3b6d9596a","session_id":"619c0041401e5658fd5ea221","condition":"contingent","relevant_dimensions":["antennae","pattern"],"bee_group":{"antennae":"B","wings":"X","pattern":"D","legs":"X"},"action":"avoid","summary":"good-avoid","bonus":1.4000000000000008},{"rt":1014.9000000000233,"stimulus":"\n                    <p><b>Action: <em>avoid</em></b></p>\n                    <p>This is the bee that you just saw.</p>\n                    <img src=\"bees-with-color/bee-B2DM.svg\" width=\"200\">\n                    <p><br>Your bonus pay is unchanged, and remains at $1.08.</p>\n            ","response":0,"trial_type":"html-button-response","trial_index":132,"time_elapsed":467461,"internal_node_id":"0.0-4.0-1.62","subject_id":"5ce9b0e4be5a6b00163f6870","study_id":"6197b3f67c2b5cd3b6d9596a","session_id":"619c0041401e5658fd5ea221","condition":"contingent","relevant_dimensions":["antennae","pattern"],"bee_group":{"antennae":"B","wings":"X","pattern":"D","legs":"X"},"bonus":1.4000000000000008},{"rt":1239.0999999999767,"stimulus":"bees-with-color/bee-A1DM.svg","response":1,"trial_type":"image-button-response","trial_index":133,"time_elapsed":468701,"internal_node_id":"0.0-4.0-0.63","subject_id":"5ce9b0e4be5a6b00163f6870","study_id":"6197b3f67c2b5cd3b6d9596a","session_id":"619c0041401e5658fd5ea221","condition":"contingent","relevant_dimensions":["antennae","pattern"],"bee_group":{"antennae":"B","wings":"X","pattern":"D","legs":"X"},"action":"avoid","summary":"bad-avoid","bonus":1.4000000000000008},{"rt":1366.9000000000233,"stimulus":"\n                    <p><b>Action: <em>avoid</em></b></p>\n                    <p>This is the bee that you just saw.</p>\n                    <img src=\"bees-with-color/bee-A1DM.svg\" width=\"200\">\n                    <p><br>Your bonus pay is unchanged, and remains at $1.08.</p>\n            ","response":0,"trial_type":"html-button-response","trial_index":134,"time_elapsed":470069,"internal_node_id":"0.0-4.0-1.63","subject_id":"5ce9b0e4be5a6b00163f6870","study_id":"6197b3f67c2b5cd3b6d9596a","session_id":"619c0041401e5658fd5ea221","condition":"contingent","relevant_dimensions":["antennae","pattern"],"bee_group":{"antennae":"B","wings":"X","pattern":"D","legs":"X"},"bonus":1.4000000000000008},{"rt":9745.399999999907,"stimulus":"You have completed the first part of this experiment.<br><br>You will now begin a shorter second part, in which you will receive no feedback.<br>The same rules regarding bonus pay apply.<br><br>Press any key to begin.","response":"m","trial_type":"html-keyboard-response","trial_index":135,"time_elapsed":479815,"internal_node_id":"0.0-5.0","subject_id":"5ce9b0e4be5a6b00163f6870","study_id":"6197b3f67c2b5cd3b6d9596a","session_id":"619c0041401e5658fd5ea221","condition":"contingent","relevant_dimensions":["antennae","pattern"],"bee_group":{"antennae":"B","wings":"X","pattern":"D","legs":"X"},"bonus":1.4000000000000008},{"rt":2208.8000000000466,"stimulus":"bees-with-color/bee-A2SF.svg","response":0,"trial_type":"image-button-response","trial_index":136,"time_elapsed":482029,"internal_node_id":"0.0-6.0-0.0","subject_id":"5ce9b0e4be5a6b00163f6870","study_id":"6197b3f67c2b5cd3b6d9596a","session_id":"619c0041401e5658fd5ea221","condition":"contingent","relevant_dimensions":["antennae","pattern"],"bee_group":{"antennae":"B","wings":"X","pattern":"D","legs":"X"},"bonus":1.4000000000000008},{"rt":3254.5,"stimulus":"bees-with-color/bee-A1SM.svg","response":0,"trial_type":"image-button-response","trial_index":137,"time_elapsed":485285,"internal_node_id":"0.0-6.0-0.1","subject_id":"5ce9b0e4be5a6b00163f6870","study_id":"6197b3f67c2b5cd3b6d9596a","session_id":"619c0041401e5658fd5ea221","condition":"contingent","relevant_dimensions":["antennae","pattern"],"bee_group":{"antennae":"B","wings":"X","pattern":"D","legs":"X"},"bonus":1.4000000000000008},{"rt":1222.6999999999534,"stimulus":"bees-with-color/bee-B1SF.svg","response":0,"trial_type":"image-button-response","trial_index":138,"time_elapsed":486509,"internal_node_id":"0.0-6.0-0.2","subject_id":"5ce9b0e4be5a6b00163f6870","study_id":"6197b3f67c2b5cd3b6d9596a","session_id":"619c0041401e5658fd5ea221","condition":"contingent","relevant_dimensions":["antennae","pattern"],"bee_group":{"antennae":"B","wings":"X","pattern":"D","legs":"X"},"bonus":1.4000000000000008},{"rt":1318.6999999999534,"stimulus":"bees-with-color/bee-B2SM.svg","response":0,"trial_type":"image-button-response","trial_index":139,"time_elapsed":487829,"internal_node_id":"0.0-6.0-0.3","subject_id":"5ce9b0e4be5a6b00163f6870","study_id":"6197b3f67c2b5cd3b6d9596a","session_id":"619c0041401e5658fd5ea221","condition":"contingent","relevant_dimensions":["antennae","pattern"],"bee_group":{"antennae":"B","wings":"X","pattern":"D","legs":"X"},"bonus":1.4000000000000008},{"rt":1190.5,"stimulus":"bees-with-color/bee-B2DM.svg","response":1,"trial_type":"image-button-response","trial_index":140,"time_elapsed":489021,"internal_node_id":"0.0-6.0-0.4","subject_id":"5ce9b0e4be5a6b00163f6870","study_id":"6197b3f67c2b5cd3b6d9596a","session_id":"619c0041401e5658fd5ea221","condition":"contingent","relevant_dimensions":["antennae","pattern"],"bee_group":{"antennae":"B","wings":"X","pattern":"D","legs":"X"},"bonus":1.4000000000000008},{"rt":1022.5999999999767,"stimulus":"bees-with-color/bee-A1DF.svg","response":1,"trial_type":"image-button-response","trial_index":141,"time_elapsed":490045,"internal_node_id":"0.0-6.0-0.5","subject_id":"5ce9b0e4be5a6b00163f6870","study_id":"6197b3f67c2b5cd3b6d9596a","session_id":"619c0041401e5658fd5ea221","condition":"contingent","relevant_dimensions":["antennae","pattern"],"bee_group":{"antennae":"B","wings":"X","pattern":"D","legs":"X"},"bonus":1.4000000000000008},{"rt":846.4000000000233,"stimulus":"bees-with-color/bee-B1DF.svg","response":1,"trial_type":"image-button-response","trial_index":142,"time_elapsed":490893,"internal_node_id":"0.0-6.0-0.6","subject_id":"5ce9b0e4be5a6b00163f6870","study_id":"6197b3f67c2b5cd3b6d9596a","session_id":"619c0041401e5658fd5ea221","condition":"contingent","relevant_dimensions":["antennae","pattern"],"bee_group":{"antennae":"B","wings":"X","pattern":"D","legs":"X"},"bonus":1.4000000000000008},{"rt":1214.6999999999534,"stimulus":"bees-with-color/bee-B1SM.svg","response":0,"trial_type":"image-button-response","trial_index":143,"time_elapsed":492109,"internal_node_id":"0.0-6.0-0.7","subject_id":"5ce9b0e4be5a6b00163f6870","study_id":"6197b3f67c2b5cd3b6d9596a","session_id":"619c0041401e5658fd5ea221","condition":"contingent","relevant_dimensions":["antennae","pattern"],"bee_group":{"antennae":"B","wings":"X","pattern":"D","legs":"X"},"bonus":1.4000000000000008},{"rt":1002.3000000000466,"stimulus":"bees-with-color/bee-A1DM.svg","response":1,"trial_type":"image-button-response","trial_index":144,"time_elapsed":493112,"internal_node_id":"0.0-6.0-0.8","subject_id":"5ce9b0e4be5a6b00163f6870","study_id":"6197b3f67c2b5cd3b6d9596a","session_id":"619c0041401e5658fd5ea221","condition":"contingent","relevant_dimensions":["antennae","pattern"],"bee_group":{"antennae":"B","wings":"X","pattern":"D","legs":"X"},"bonus":1.4000000000000008},{"rt":870.8000000000466,"stimulus":"bees-with-color/bee-A2DM.svg","response":1,"trial_type":"image-button-response","trial_index":145,"time_elapsed":493985,"internal_node_id":"0.0-6.0-0.9","subject_id":"5ce9b0e4be5a6b00163f6870","study_id":"6197b3f67c2b5cd3b6d9596a","session_id":"619c0041401e5658fd5ea221","condition":"contingent","relevant_dimensions":["antennae","pattern"],"bee_group":{"antennae":"B","wings":"X","pattern":"D","legs":"X"},"bonus":1.4000000000000008},{"rt":1114.7999999999302,"stimulus":"bees-with-color/bee-A1SF.svg","response":0,"trial_type":"image-button-response","trial_index":146,"time_elapsed":495101,"internal_node_id":"0.0-6.0-0.10","subject_id":"5ce9b0e4be5a6b00163f6870","study_id":"6197b3f67c2b5cd3b6d9596a","session_id":"619c0041401e5658fd5ea221","condition":"contingent","relevant_dimensions":["antennae","pattern"],"bee_group":{"antennae":"B","wings":"X","pattern":"D","legs":"X"},"bonus":1.4000000000000008},{"rt":1062.5,"stimulus":"bees-with-color/bee-B1DM.svg","response":1,"trial_type":"image-button-response","trial_index":147,"time_elapsed":496165,"internal_node_id":"0.0-6.0-0.11","subject_id":"5ce9b0e4be5a6b00163f6870","study_id":"6197b3f67c2b5cd3b6d9596a","session_id":"619c0041401e5658fd5ea221","condition":"contingent","relevant_dimensions":["antennae","pattern"],"bee_group":{"antennae":"B","wings":"X","pattern":"D","legs":"X"},"bonus":1.4000000000000008},{"rt":1246.5999999999767,"stimulus":"bees-with-color/bee-B2SF.svg","response":0,"trial_type":"image-button-response","trial_index":148,"time_elapsed":497413,"internal_node_id":"0.0-6.0-0.12","subject_id":"5ce9b0e4be5a6b00163f6870","study_id":"6197b3f67c2b5cd3b6d9596a","session_id":"619c0041401e5658fd5ea221","condition":"contingent","relevant_dimensions":["antennae","pattern"],"bee_group":{"antennae":"B","wings":"X","pattern":"D","legs":"X"},"bonus":1.4000000000000008},{"rt":1434.5999999999767,"stimulus":"bees-with-color/bee-A2SM.svg","response":0,"trial_type":"image-button-response","trial_index":149,"time_elapsed":498849,"internal_node_id":"0.0-6.0-0.13","subject_id":"5ce9b0e4be5a6b00163f6870","study_id":"6197b3f67c2b5cd3b6d9596a","session_id":"619c0041401e5658fd5ea221","condition":"contingent","relevant_dimensions":["antennae","pattern"],"bee_group":{"antennae":"B","wings":"X","pattern":"D","legs":"X"},"bonus":1.4000000000000008},{"rt":1106.4000000000233,"stimulus":"bees-with-color/bee-A2DF.svg","response":1,"trial_type":"image-button-response","trial_index":150,"time_elapsed":499957,"internal_node_id":"0.0-6.0-0.14","subject_id":"5ce9b0e4be5a6b00163f6870","study_id":"6197b3f67c2b5cd3b6d9596a","session_id":"619c0041401e5658fd5ea221","condition":"contingent","relevant_dimensions":["antennae","pattern"],"bee_group":{"antennae":"B","wings":"X","pattern":"D","legs":"X"},"bonus":1.4000000000000008},{"rt":950.5,"stimulus":"bees-with-color/bee-B2DF.svg","response":1,"trial_type":"image-button-response","trial_index":151,"time_elapsed":500909,"internal_node_id":"0.0-6.0-0.15","subject_id":"5ce9b0e4be5a6b00163f6870","study_id":"6197b3f67c2b5cd3b6d9596a","session_id":"619c0041401e5658fd5ea221","condition":"contingent","relevant_dimensions":["antennae","pattern"],"bee_group":{"antennae":"B","wings":"X","pattern":"D","legs":"X"},"bonus":1.4000000000000008},{"rt":1090.8000000000466,"stimulus":"bees-with-color/bee-A1SM.svg","response":0,"trial_type":"image-button-response","trial_index":152,"time_elapsed":502001,"internal_node_id":"0.0-6.0-0.16","subject_id":"5ce9b0e4be5a6b00163f6870","study_id":"6197b3f67c2b5cd3b6d9596a","session_id":"619c0041401e5658fd5ea221","condition":"contingent","relevant_dimensions":["antennae","pattern"],"bee_group":{"antennae":"B","wings":"X","pattern":"D","legs":"X"},"bonus":1.4000000000000008},{"rt":1018.5999999999767,"stimulus":"bees-with-color/bee-B2SF.svg","response":0,"trial_type":"image-button-response","trial_index":153,"time_elapsed":503021,"internal_node_id":"0.0-6.0-0.17","subject_id":"5ce9b0e4be5a6b00163f6870","study_id":"6197b3f67c2b5cd3b6d9596a","session_id":"619c0041401e5658fd5ea221","condition":"contingent","relevant_dimensions":["antennae","pattern"],"bee_group":{"antennae":"B","wings":"X","pattern":"D","legs":"X"},"bonus":1.4000000000000008},{"rt":990.8000000000466,"stimulus":"bees-with-color/bee-B1SF.svg","response":0,"trial_type":"image-button-response","trial_index":154,"time_elapsed":504013,"internal_node_id":"0.0-6.0-0.18","subject_id":"5ce9b0e4be5a6b00163f6870","study_id":"6197b3f67c2b5cd3b6d9596a","session_id":"619c0041401e5658fd5ea221","condition":"contingent","relevant_dimensions":["antennae","pattern"],"bee_group":{"antennae":"B","wings":"X","pattern":"D","legs":"X"},"bonus":1.4000000000000008},{"rt":1270.6999999999534,"stimulus":"bees-with-color/bee-A2DF.svg","response":1,"trial_type":"image-button-response","trial_index":155,"time_elapsed":505285,"internal_node_id":"0.0-6.0-0.19","subject_id":"5ce9b0e4be5a6b00163f6870","study_id":"6197b3f67c2b5cd3b6d9596a","session_id":"619c0041401e5658fd5ea221","condition":"contingent","relevant_dimensions":["antennae","pattern"],"bee_group":{"antennae":"B","wings":"X","pattern":"D","legs":"X"},"bonus":1.4000000000000008},{"rt":1414.8999999999069,"stimulus":"bees-with-color/bee-B2DM.svg","response":1,"trial_type":"image-button-response","trial_index":156,"time_elapsed":506701,"internal_node_id":"0.0-6.0-0.20","subject_id":"5ce9b0e4be5a6b00163f6870","study_id":"6197b3f67c2b5cd3b6d9596a","session_id":"619c0041401e5658fd5ea221","condition":"contingent","relevant_dimensions":["antennae","pattern"],"bee_group":{"antennae":"B","wings":"X","pattern":"D","legs":"X"},"bonus":1.4000000000000008},{"rt":862.5999999999767,"stimulus":"bees-with-color/bee-B1DF.svg","response":1,"trial_type":"image-button-response","trial_index":157,"time_elapsed":507565,"internal_node_id":"0.0-6.0-0.21","subject_id":"5ce9b0e4be5a6b00163f6870","study_id":"6197b3f67c2b5cd3b6d9596a","session_id":"619c0041401e5658fd5ea221","condition":"contingent","relevant_dimensions":["antennae","pattern"],"bee_group":{"antennae":"B","wings":"X","pattern":"D","legs":"X"},"bonus":1.4000000000000008},{"rt":1103.1999999999534,"stimulus":"bees-with-color/bee-A2SF.svg","response":0,"trial_type":"image-button-response","trial_index":158,"time_elapsed":508669,"internal_node_id":"0.0-6.0-0.22","subject_id":"5ce9b0e4be5a6b00163f6870","study_id":"6197b3f67c2b5cd3b6d9596a","session_id":"619c0041401e5658fd5ea221","condition":"contingent","relevant_dimensions":["antennae","pattern"],"bee_group":{"antennae":"B","wings":"X","pattern":"D","legs":"X"},"bonus":1.4000000000000008},{"rt":818.4000000000233,"stimulus":"bees-with-color/bee-A2SM.svg","response":0,"trial_type":"image-button-response","trial_index":159,"time_elapsed":509489,"internal_node_id":"0.0-6.0-0.23","subject_id":"5ce9b0e4be5a6b00163f6870","study_id":"6197b3f67c2b5cd3b6d9596a","session_id":"619c0041401e5658fd5ea221","condition":"contingent","relevant_dimensions":["antennae","pattern"],"bee_group":{"antennae":"B","wings":"X","pattern":"D","legs":"X"},"bonus":1.4000000000000008},{"rt":754.7999999999302,"stimulus":"bees-with-color/bee-B1SM.svg","response":0,"trial_type":"image-button-response","trial_index":160,"time_elapsed":510245,"internal_node_id":"0.0-6.0-0.24","subject_id":"5ce9b0e4be5a6b00163f6870","study_id":"6197b3f67c2b5cd3b6d9596a","session_id":"619c0041401e5658fd5ea221","condition":"contingent","relevant_dimensions":["antennae","pattern"],"bee_group":{"antennae":"B","wings":"X","pattern":"D","legs":"X"},"bonus":1.4000000000000008},{"rt":1182.7000000000698,"stimulus":"bees-with-color/bee-B2DF.svg","response":1,"trial_type":"image-button-response","trial_index":161,"time_elapsed":511429,"internal_node_id":"0.0-6.0-0.25","subject_id":"5ce9b0e4be5a6b00163f6870","study_id":"6197b3f67c2b5cd3b6d9596a","session_id":"619c0041401e5658fd5ea221","condition":"contingent","relevant_dimensions":["antennae","pattern"],"bee_group":{"antennae":"B","wings":"X","pattern":"D","legs":"X"},"bonus":1.4000000000000008},{"rt":1230.9000000000233,"stimulus":"bees-with-color/bee-A1SF.svg","response":0,"trial_type":"image-button-response","trial_index":162,"time_elapsed":512661,"internal_node_id":"0.0-6.0-0.26","subject_id":"5ce9b0e4be5a6b00163f6870","study_id":"6197b3f67c2b5cd3b6d9596a","session_id":"619c0041401e5658fd5ea221","condition":"contingent","relevant_dimensions":["antennae","pattern"],"bee_group":{"antennae":"B","wings":"X","pattern":"D","legs":"X"},"bonus":1.4000000000000008},{"rt":1030.7999999999302,"stimulus":"bees-with-color/bee-B1DM.svg","response":1,"trial_type":"image-button-response","trial_index":163,"time_elapsed":513693,"internal_node_id":"0.0-6.0-0.27","subject_id":"