[{"success":true,"trial_type":"fullscreen","trial_index":0,"time_elapsed":10686,"internal_node_id":"0.0-0.0","subject_id":"614e50084109bcceada6945c","study_id":"6197b3f67c2b5cd3b6d9596a","session_id":"619be31e137b8894ccdfb286","condition":"contingent","relevant_dimensions":["wings","pattern"],"bee_group":{"antennae":"X","wings":"2","pattern":"D","legs":"X"},"bonus":0.840000000000001},{"success":true,"timeout":false,"failed_images":[],"failed_audio":[],"failed_video":[],"trial_type":"preload","trial_index":1,"time_elapsed":11671,"internal_node_id":"0.0-1.0","subject_id":"614e50084109bcceada6945c","study_id":"6197b3f67c2b5cd3b6d9596a","session_id":"619be31e137b8894ccdfb286","condition":"contingent","relevant_dimensions":["wings","pattern"],"bee_group":{"antennae":"X","wings":"2","pattern":"D","legs":"X"},"bonus":0.840000000000001},{"rt":3811.5999999940395,"stimulus":"Welcome! Press any key to begin.","response":"h","trial_type":"html-keyboard-response","trial_index":2,"time_elapsed":15484,"internal_node_id":"0.0-2.0","subject_id":"614e50084109bcceada6945c","study_id":"6197b3f67c2b5cd3b6d9596a","session_id":"619be31e137b8894ccdfb286","condition":"contingent","relevant_dimensions":["wings","pattern"],"bee_group":{"antennae":"X","wings":"2","pattern":"D","legs":"X"},"bonus":0.840000000000001},{"view_history":[{"page_index":0,"viewing_time":3026.9000000059605},{"page_index":1,"viewing_time":26315},{"page_index":2,"viewing_time":10090.09999999404},{"page_index":3,"viewing_time":10468.5},{"page_index":4,"viewing_time":3858.9000000059605},{"page_index":5,"viewing_time":3523.5999999940395},{"page_index":6,"viewing_time":5674.20000000298},{"page_index":7,"viewing_time":6214.70000000298},{"page_index":8,"viewing_time":5855.899999991059},{"page_index":9,"viewing_time":3638.2999999970198},{"page_index":10,"viewing_time":3046.1000000089407},{"page_index":11,"viewing_time":6187.29999999702},{"page_index":12,"viewing_time":5888.79999999702},{"page_index":13,"viewing_time":1350.2000000029802},{"page_index":14,"viewing_time":1223.0999999940395}],"rt":96362.90000000596,"trial_type":"instructions","trial_index":3,"time_elapsed":111846,"internal_node_id":"0.0-3.0-0.0","subject_id":"614e50084109bcceada6945c","study_id":"6197b3f67c2b5cd3b6d9596a","session_id":"619be31e137b8894ccdfb286","condition":"contingent","relevant_dimensions":["wings","pattern"],"bee_group":{"antennae":"X","wings":"2","pattern":"D","legs":"X"},"bonus":0.840000000000001},{"rt":12866,"response":{"Q0":["Two or six legs","Stripes or spots on body","Single or double wings","Antennae or no antennae"]},"question_order":[0],"trial_type":"survey-multi-select","trial_index":4,"time_elapsed":124720,"internal_node_id":"0.0-3.0-1.0","subject_id":"614e50084109bcceada6945c","study_id":"6197b3f67c2b5cd3b6d9596a","session_id":"619be31e137b8894ccdfb286","condition":"contingent","relevant_dimensions":["wings","pattern"],"bee_group":{"antennae":"X","wings":"2","pattern":"D","legs":"X"},"correct":true,"bonus":0.840000000000001},{"rt":18577.70000000298,"response":{"Q1":"No.","Q2":"Based on the four features of the bee.","Q3":"You do not learn if it was friendly or dangerous, and do not alter your bonus."},"question_order":[0,1,2],"trial_type":"survey-multi-choice","trial_index":5,"time_elapsed":143302,"internal_node_id":"0.0-3.0-2.0","subject_id":"614e50084109bcceada6945c","study_id":"6197b3f67c2b5cd3b6d9596a","session_id":"619be31e137b8894ccdfb286","condition":"contingent","relevant_dimensions":["wings","pattern"],"bee_group":{"antennae":"X","wings":"2","pattern":"D","legs":"X"},"correct":true,"bonus":0.840000000000001},{"rt":2106.2999999970198,"stimulus":"<p>Congrats, you got everything right<br>When you're ready, click the button below to continue to the experiment.</p>","response":0,"trial_type":"html-button-response","trial_index":6,"time_elapsed":145414,"internal_node_id":"0.0-3.0-3.0","subject_id":"614e50084109bcceada6945c","study_id":"6197b3f67c2b5cd3b6d9596a","session_id":"619be31e137b8894ccdfb286","condition":"contingent","relevant_dimensions":["wings","pattern"],"bee_group":{"antennae":"X","wings":"2","pattern":"D","legs":"X"},"bonus":0.840000000000001},{"rt":7334.79999999702,"stimulus":"bees-with-color/bee-A1SM.svg","response":0,"trial_type":"image-button-response","trial_index":7,"time_elapsed":152754,"internal_node_id":"0.0-4.0-0.0","subject_id":"614e50084109bcceada6945c","study_id":"6197b3f67c2b5cd3b6d9596a","session_id":"619be31e137b8894ccdfb286","condition":"contingent","relevant_dimensions":["wings","pattern"],"bee_group":{"antennae":"X","wings":"2","pattern":"D","legs":"X"},"action":"harvest","summary":"good-harvest","bonus":0.840000000000001},{"rt":4048.2999999970198,"stimulus":"\n                    <p><b>Action: <em>harvest</em></b></p>\n                    <p>This is the bee that you just saw.</p>\n                    <img src=\"bees-with-color/bee-A1SM.svg\" width=\"200\">\n                    <p><span class=\"greenText\"><b>Successful harvest!</b></span><br>Your pay has increased by $0.02. Your bonus pay is now $0.56.</p>\n            ","response":0,"trial_type":"html-button-response","trial_index":8,"time_elapsed":156809,"internal_node_id":"0.0-4.0-1.0","subject_id":"614e50084109bcceada6945c","study_id":"6197b3f67c2b5cd3b6d9596a","session_id":"619be31e137b8894ccdfb286","condition":"contingent","relevant_dimensions":["wings","pattern"],"bee_group":{"antennae":"X","wings":"2","pattern":"D","legs":"X"},"bonus":0.840000000000001},{"rt":2706.1000000089407,"stimulus":"bees-with-color/bee-B2SF.svg","response":1,"trial_type":"image-button-response","trial_index":9,"time_elapsed":159521,"internal_node_id":"0.0-4.0-0.1","subject_id":"614e50084109bcceada6945c","study_id":"6197b3f67c2b5cd3b6d9596a","session_id":"619be31e137b8894ccdfb286","condition":"contingent","relevant_dimensions":["wings","pattern"],"bee_group":{"antennae":"X","wings":"2","pattern":"D","legs":"X"},"action":"avoid","summary":"bad-avoid","bonus":0.840000000000001},{"rt":4265.29999999702,"stimulus":"\n                    <p><b>Action: <em>avoid</em></b></p>\n                    <p>This is the bee that you just saw.</p>\n                    <img src=\"bees-with-color/bee-B2SF.svg\" width=\"200\">\n                    <p><br>Your bonus pay is unchanged, and remains at $0.56.</p>\n            ","response":0,"trial_type":"html-button-response","trial_index":10,"time_elapsed":163792,"internal_node_id":"0.0-4.0-1.1","subject_id":"614e50084109bcceada6945c","study_id":"6197b3f67c2b5cd3b6d9596a","session_id":"619be31e137b8894ccdfb286","condition":"contingent","relevant_dimensions":["wings","pattern"],"bee_group":{"antennae":"X","wings":"2","pattern":"D","legs":"X"},"bonus":0.840000000000001},{"rt":3460.2999999970198,"stimulus":"bees-with-color/bee-A1SF.svg","response":0,"trial_type":"image-button-response","trial_index":11,"time_elapsed":167257,"internal_node_id":"0.0-4.0-0.2","subject_id":"614e50084109bcceada6945c","study_id":"6197b3f67c2b5cd3b6d9596a","session_id":"619be31e137b8894ccdfb286","condition":"contingent","relevant_dimensions":["wings","pattern"],"bee_group":{"antennae":"X","wings":"2","pattern":"D","legs":"X"},"action":"harvest","summary":"good-harvest","bonus":0.840000000000001},{"rt":1757.7999999970198,"stimulus":"\n                    <p><b>Action: <em>harvest</em></b></p>\n                    <p>This is the bee that you just saw.</p>\n                    <img src=\"bees-with-color/bee-A1SF.svg\" width=\"200\">\n                    <p><span class=\"greenText\"><b>Successful harvest!</b></span><br>Your pay has increased by $0.02. Your bonus pay is now $0.58.</p>\n            ","response":0,"trial_type":"html-button-response","trial_index":12,"time_elapsed":169019,"internal_node_id":"0.0-4.0-1.2","subject_id":"614e50084109bcceada6945c","study_id":"6197b3f67c2b5cd3b6d9596a","session_id":"619be31e137b8894ccdfb286","condition":"contingent","relevant_dimensions":["wings","pattern"],"bee_group":{"antennae":"X","wings":"2","pattern":"D","legs":"X"},"bonus":0.840000000000001},{"rt":1452.300000011921,"stimulus":"bees-with-color/bee-A1DF.svg","response":1,"trial_type":"image-button-response","trial_index":13,"time_elapsed":170475,"internal_node_id":"0.0-4.0-0.3","subject_id":"614e50084109bcceada6945c","study_id":"6197b3f67c2b5cd3b6d9596a","session_id":"619be31e137b8894ccdfb286","condition":"contingent","relevant_dimensions":["wings","pattern"],"bee_group":{"antennae":"X","wings":"2","pattern":"D","legs":"X"},"action":"avoid","summary":"bad-avoid","bonus":0.840000000000001},{"rt":2318.6000000089407,"stimulus":"\n                    <p><b>Action: <em>avoid</em></b></p>\n                    <p>This is the bee that you just saw.</p>\n                    <img src=\"bees-with-color/bee-A1DF.svg\" width=\"200\">\n                    <p><br>Your bonus pay is unchanged, and remains at $0.58.</p>\n            ","response":0,"trial_type":"html-button-response","trial_index":14,"time_elapsed":172797,"internal_node_id":"0.0-4.0-1.3","subject_id":"614e50084109bcceada6945c","study_id":"6197b3f67c2b5cd3b6d9596a","session_id":"619be31e137b8894ccdfb286","condition":"contingent","relevant_dimensions":["wings","pattern"],"bee_group":{"antennae":"X","wings":"2","pattern":"D","legs":"X"},"bonus":0.840000000000001},{"rt":8531.79999999702,"stimulus":"bees-with-color/bee-B1DF.svg","response":0,"trial_type":"image-button-response","trial_index":15,"time_elapsed":181333,"internal_node_id":"0.0-4.0-0.4","subject_id":"614e50084109bcceada6945c","study_id":"6197b3f67c2b5cd3b6d9596a","session_id":"619be31e137b8894ccdfb286","condition":"contingent","relevant_dimensions":["wings","pattern"],"bee_group":{"antennae":"X","wings":"2","pattern":"D","legs":"X"},"action":"harvest","summary":"good-harvest","bonus":0.840000000000001},{"rt":1626.1000000089407,"stimulus":"\n                    <p><b>Action: <em>harvest</em></b></p>\n                    <p>This is the bee that you just saw.</p>\n                    <img src=\"bees-with-color/bee-B1DF.svg\" width=\"200\">\n                    <p><span class=\"greenText\"><b>Successful harvest!</b></span><br>Your pay has increased by $0.02. Your bonus pay is now $0.60.</p>\n            ","response":0,"trial_type":"html-button-response","trial_index":16,"time_elapsed":182963,"internal_node_id":"0.0-4.0-1.4","subject_id":"614e50084109bcceada6945c","study_id":"6197b3f67c2b5cd3b6d9596a","session_id":"619be31e137b8894ccdfb286","condition":"contingent","relevant_dimensions":["wings","pattern"],"bee_group":{"antennae":"X","wings":"2","pattern":"D","legs":"X"},"bonus":0.840000000000001},{"rt":5155.20000000298,"stimulus":"bees-with-color/bee-A1DM.svg","response":0,"trial_type":"image-button-response","trial_index":17,"time_elapsed":188122,"internal_node_id":"0.0-4.0-0.5","subject_id":"614e50084109bcceada6945c","study_id":"6197b3f67c2b5cd3b6d9596a","session_id":"619be31e137b8894ccdfb286","condition":"contingent","relevant_dimensions":["wings","pattern"],"bee_group":{"antennae":"X","wings":"2","pattern":"D","legs":"X"},"action":"harvest","summary":"good-harvest","bonus":0.840000000000001},{"rt":1456.0999999940395,"stimulus":"\n                    <p><b>Action: <em>harvest</em></b></p>\n                    <p>This is the bee that you just saw.</p>\n                    <img src=\"bees-with-color/bee-A1DM.svg\" width=\"200\">\n                    <p><span class=\"greenText\"><b>Successful harvest!</b></span><br>Your pay has increased by $0.02. Your bonus pay is now $0.62.</p>\n            ","response":0,"trial_type":"html-button-response","trial_index":18,"time_elapsed":189580,"internal_node_id":"0.0-4.0-1.5","subject_id":"614e50084109bcceada6945c","study_id":"6197b3f67c2b5cd3b6d9596a","session_id":"619be31e137b8894ccdfb286","condition":"contingent","relevant_dimensions":["wings","pattern"],"bee_group":{"antennae":"X","wings":"2","pattern":"D","legs":"X"},"bonus":0.840000000000001},{"rt":4554.29999999702,"stimulus":"bees-with-color/bee-B2DM.svg","response":0,"trial_type":"image-button-response","trial_index":19,"time_elapsed":194137,"internal_node_id":"0.0-4.0-0.6","subject_id":"614e50084109bcceada6945c","study_id":"6197b3f67c2b5cd3b6d9596a","session_id":"619be31e137b8894ccdfb286","condition":"contingent","relevant_dimensions":["wings","pattern"],"bee_group":{"antennae":"X","wings":"2","pattern":"D","legs":"X"},"action":"harvest","summary":"bad-harvest","bonus":0.840000000000001},{"rt":6787,"stimulus":"\n                    <p><b>Action: <em>harvest</em></b></p>\n                    <p>This is the bee that you just saw.</p>\n                    <img src=\"bees-with-color/bee-B2DM.svg\" width=\"200\">\n                    <p><span class=\"redText\">Bad choice, the bee was angry.</span><br><b>You have been stung!</b><br>Your pay has been decreased by $0.10. Your bonus pay is now $0.52.</p>\n            ","response":0,"trial_type":"html-button-response","trial_index":20,"time_elapsed":200926,"internal_node_id":"0.0-4.0-1.6","subject_id":"614e50084109bcceada6945c","study_id":"6197b3f67c2b5cd3b6d9596a","session_id":"619be31e137b8894ccdfb286","condition":"contingent","relevant_dimensions":["wings","pattern"],"bee_group":{"antennae":"X","wings":"2","pattern":"D","legs":"X"},"bonus":0.840000000000001},{"rt":2348.7999999970198,"stimulus":"bees-with-color/bee-A2DM.svg","response":1,"trial_type":"image-button-response","trial_index":21,"time_elapsed":203279,"internal_node_id":"0.0-4.0-0.7","subject_id":"614e50084109bcceada6945c","study_id":"6197b3f67c2b5cd3b6d9596a","session_id":"619be31e137b8894ccdfb286","condition":"contingent","relevant_dimensions":["wings","pattern"],"bee_group":{"antennae":"X","wings":"2","pattern":"D","legs":"X"},"action":"avoid","summary":"good-avoid","bonus":0.840000000000001},{"rt":3138.7000000029802,"stimulus":"\n                    <p><b>Action: <em>avoid</em></b></p>\n                    <p>This is the bee that you just saw.</p>\n                    <img src=\"bees-with-color/bee-A2DM.svg\" width=\"200\">\n                    <p><br>Your bonus pay is unchanged, and remains at $0.52.</p>\n            ","response":0,"trial_type":"html-button-response","trial_index":22,"time_elapsed":206421,"internal_node_id":"0.0-4.0-1.7","subject_id":"614e50084109bcceada6945c","study_id":"6197b3f67c2b5cd3b6d9596a","session_id":"619be31e137b8894ccdfb286","condition":"contingent","relevant_dimensions":["wings","pattern"],"bee_group":{"antennae":"X","wings":"2","pattern":"D","legs":"X"},"bonus":0.840000000000001},{"rt":7595.70000000298,"stimulus":"bees-with-color/bee-B1SM.svg","response":0,"trial_type":"image-button-response","trial_index":23,"time_elapsed":214021,"internal_node_id":"0.0-4.0-0.8","subject_id":"614e50084109bcceada6945c","study_id":"6197b3f67c2b5cd3b6d9596a","session_id":"619be31e137b8894ccdfb286","condition":"contingent","relevant_dimensions":["wings","pattern"],"bee_group":{"antennae":"X","wings":"2","pattern":"D","legs":"X"},"action":"harvest","summary":"good-harvest","bonus":0.840000000000001},{"rt":1210.4000000059605,"stimulus":"\n                    <p><b>Action: <em>harvest</em></b></p>\n                    <p>This is the bee that you just saw.</p>\n                    <img src=\"bees-with-color/bee-B1SM.svg\" width=\"200\">\n                    <p><span class=\"greenText\"><b>Successful harvest!</b></span><br>Your pay has increased by $0.02. Your bonus pay is now $0.54.</p>\n            ","response":0,"trial_type":"html-button-response","trial_index":24,"time_elapsed":215234,"internal_node_id":"0.0-4.0-1.8","subject_id":"614e50084109bcceada6945c","study_id":"6197b3f67c2b5cd3b6d9596a","session_id":"619be31e137b8894ccdfb286","condition":"contingent","relevant_dimensions":["wings","pattern"],"bee_group":{"antennae":"X","wings":"2","pattern":"D","legs":"X"},"bonus":0.840000000000001},{"rt":7521.800000011921,"stimulus":"bees-with-color/bee-A2SM.svg","response":0,"trial_type":"image-button-response","trial_index":25,"time_elapsed":222760,"internal_node_id":"0.0-4.0-0.9","subject_id":"614e50084109bcceada6945c","study_id":"6197b3f67c2b5cd3b6d9596a","session_id":"619be31e137b8894ccdfb286","condition":"contingent","relevant_dimensions":["wings","pattern"],"bee_group":{"antennae":"X","wings":"2","pattern":"D","legs":"X"},"action":"harvest","summary":"good-harvest","bonus":0.840000000000001},{"rt":1100.7000000029802,"stimulus":"\n                    <p><b>Action: <em>harvest</em></b></p>\n                    <p>This is the bee that you just saw.</p>\n                    <img src=\"bees-with-color/bee-A2SM.svg\" width=\"200\">\n                    <p><span class=\"greenText\"><b>Successful harvest!</b></span><br>Your pay has increased by $0.02. Your bonus pay is now $0.56.</p>\n            ","response":0,"trial_type":"html-button-response","trial_index":26,"time_elapsed":223865,"internal_node_id":"0.0-4.0-1.9","subject_id":"614e50084109bcceada6945c","study_id":"6197b3f67c2b5cd3b6d9596a","session_id":"619be31e137b8894ccdfb286","condition":"contingent","relevant_dimensions":["wings","pattern"],"bee_group":{"antennae":"X","wings":"2","pattern":"D","legs":"X"},"bonus":0.840000000000001},{"rt":4220.100000008941,"stimulus":"bees-with-color/bee-B1DM.svg","response":1,"trial_type":"image-button-response","trial_index":27,"time_elapsed":228089,"internal_node_id":"0.0-4.0-0.10","subject_id":"614e50084109bcceada6945c","study_id":"6197b3f67c2b5cd3b6d9596a","session_id":"619be31e137b8894ccdfb286","condition":"contingent","relevant_dimensions":["wings","pattern"],"bee_group":{"antennae":"X","wings":"2","pattern":"D","legs":"X"},"action":"avoid","summary":"bad-avoid","bonus":0.840000000000001},{"rt":1462.7000000029802,"stimulus":"\n                    <p><b>Action: <em>avoid</em></b></p>\n                    <p>This is the bee that you just saw.</p>\n                    <img src=\"bees-with-color/bee-B1DM.svg\" width=\"200\">\n                    <p><br>Your bonus pay is unchanged, and remains at $0.56.</p>\n            ","response":0,"trial_type":"html-button-response","trial_index":28,"time_elapsed":229554,"internal_node_id":"0.0-4.0-1.10","subject_id":"614e50084109bcceada6945c","study_id":"6197b3f67c2b5cd3b6d9596a","session_id":"619be31e137b8894ccdfb286","condition":"contingent","relevant_dimensions":["wings","pattern"],"bee_group":{"antennae":"X","wings":"2","pattern":"D","legs":"X"},"bonus":0.840000000000001},{"rt":6654.699999988079,"stimulus":"bees-with-color/bee-B2DF.svg","response":1,"trial_type":"image-button-response","trial_index":29,"time_elapsed":236212,"internal_node_id":"0.0-4.0-0.11","subject_id":"614e50084109bcceada6945c","study_id":"6197b3f67c2b5cd3b6d9596a","session_id":"619be31e137b8894ccdfb286","condition":"contingent","relevant_dimensions":["wings","pattern"],"bee_group":{"antennae":"X","wings":"2","pattern":"D","legs":"X"},"action":"avoid","summary":"good-avoid","bonus":0.840000000000001},{"rt":958.5,"stimulus":"\n                    <p><b>Action: <em>avoid</em></b></p>\n                    <p>This is the bee that you just saw.</p>\n                    <img src=\"bees-with-color/bee-B2DF.svg\" width=\"200\">\n                    <p><br>Your bonus pay is unchanged, and remains at $0.56.</p>\n            ","response":0,"trial_type":"html-button-response","trial_index":30,"time_elapsed":237173,"internal_node_id":"0.0-4.0-1.11","subject_id":"614e50084109bcceada6945c","study_id":"6197b3f67c2b5cd3b6d9596a","session_id":"619be31e137b8894ccdfb286","condition":"contingent","relevant_dimensions":["wings","pattern"],"bee_group":{"antennae":"X","wings":"2","pattern":"D","legs":"X"},"bonus":0.840000000000001},{"rt":4834,"stimulus":"bees-with-color/bee-A2DF.svg","response":0,"trial_type":"image-button-response","trial_index":31,"time_elapsed":242010,"internal_node_id":"0.0-4.0-0.12","subject_id":"614e50084109bcceada6945c","study_id":"6197b3f67c2b5cd3b6d9596a","session_id":"619be31e137b8894ccdfb286","condition":"contingent","relevant_dimensions":["wings","pattern"],"bee_group":{"antennae":"X","wings":"2","pattern":"D","legs":"X"},"action":"harvest","summary":"bad-harvest","bonus":0.840000000000001},{"rt":1712.7000000029802,"stimulus":"\n                    <p><b>Action: <em>harvest</em></b></p>\n                    <p>This is the bee that you just saw.</p>\n                    <img src=\"bees-with-color/bee-A2DF.svg\" width=\"200\">\n                    <p><span class=\"redText\">Bad choice, the bee was angry.</span><br><b>You have been stung!</b><br>Your pay has been decreased by $0.10. Your bonus pay is now $0.46.</p>\n            ","response":0,"trial_type":"html-button-response","trial_index":32,"time_elapsed":243727,"internal_node_id":"0.0-4.0-1.12","subject_id":"614e50084109bcceada6945c","study_id":"6197b3f67c2b5cd3b6d9596a","session_id":"619be31e137b8894ccdfb286","condition":"contingent","relevant_dimensions":["wings","pattern"],"bee_group":{"antennae":"X","wings":"2","pattern":"D","legs":"X"},"bonus":0.840000000000001},{"rt":1318.5999999940395,"stimulus":"bees-with-color/bee-B2SM.svg","response":1,"trial_type":"image-button-response","trial_index":33,"time_elapsed":245051,"internal_node_id":"0.0-4.0-0.13","subject_id":"614e50084109bcceada6945c","study_id":"6197b3f67c2b5cd3b6d9596a","session_id":"619be31e137b8894ccdfb286","condition":"contingent","relevant_dimensions":["wings","pattern"],"bee_group":{"antennae":"X","wings":"2","pattern":"D","legs":"X"},"action":"avoid","summary":"bad-avoid","bonus":0.840000000000001},{"rt":984.5,"stimulus":"\n                    <p><b>Action: <em>avoid</em></b></p>\n                    <p>This is the bee that you just saw.</p>\n                    <img src=\"bees-with-color/bee-B2SM.svg\" width=\"200\">\n                    <p><br>Your bonus pay is unchanged, and remains at $0.46.</p>\n            ","response":0,"trial_type":"html-button-response","trial_index":34,"time_elapsed":246039,"internal_node_id":"0.0-4.0-1.13","subject_id":"614e50084109bcceada6945c","study_id":"6197b3f67c2b5cd3b6d9596a","session_id":"619be31e137b8894ccdfb286","condition":"contingent","relevant_dimensions":["wings","pattern"],"bee_group":{"antennae":"X","wings":"2","pattern":"D","legs":"X"},"bonus":0.840000000000001},{"rt":1034.0999999940395,"stimulus":"bees-with-color/bee-B1SF.svg","response":0,"trial_type":"image-button-response","trial_index":35,"time_elapsed":247077,"internal_node_id":"0.0-4.0-0.14","subject_id":"614e50084109bcceada6945c","study_id":"6197b3f67c2b5cd3b6d9596a","session_id":"619be31e137b8894ccdfb286","condition":"contingent","relevant_dimensions":["wings","pattern"],"bee_group":{"antennae":"X","wings":"2","pattern":"D","legs":"X"},"action":"harvest","summary":"good-harvest","bonus":0.840000000000001},{"rt":1318.800000011921,"stimulus":"\n                    <p><b>Action: <em>harvest</em></b></p>\n                    <p>This is the bee that you just saw.</p>\n                    <img src=\"bees-with-color/bee-B1SF.svg\" width=\"200\">\n                    <p><span class=\"greenText\"><b>Successful harvest!</b></span><br>Your pay has increased by $0.02. Your bonus pay is now $0.48.</p>\n            ","response":0,"trial_type":"html-button-response","trial_index":36,"time_elapsed":248400,"internal_node_id":"0.0-4.0-1.14","subject_id":"614e50084109bcceada6945c","study_id":"6197b3f67c2b5cd3b6d9596a","session_id":"619be31e137b8894ccdfb286","condition":"contingent","relevant_dimensions":["wings","pattern"],"bee_group":{"antennae":"X","wings":"2","pattern":"D","legs":"X"},"bonus":0.840000000000001},{"rt":2886.2000000029802,"stimulus":"bees-with-color/bee-A2SF.svg","response":0,"trial_type":"image-button-response","trial_index":37,"time_elapsed":251291,"internal_node_id":"0.0-4.0-0.15","subject_id":"614e50084109bcceada6945c","study_id":"6197b3f67c2b5cd3b6d9596a","session_id":"619be31e137b8894ccdfb286","condition":"contingent","relevant_dimensions":["wings","pattern"],"bee_group":{"antennae":"X","wings":"2","pattern":"D","legs":"X"},"action":"harvest","summary":"good-harvest","bonus":0.840000000000001},{"rt":1136.8999999910593,"stimulus":"\n                    <p><b>Action: <em>harvest</em></b></p>\n                    <p>This is the bee that you just saw.</p>\n                    <img src=\"bees-with-color/bee-A2SF.svg\" width=\"200\">\n                    <p><span class=\"greenText\"><b>Successful harvest!</b></span><br>Your pay has increased by $0.02. Your bonus pay is now $0.50.</p>\n            ","response":0,"trial_type":"html-button-response","trial_index":38,"time_elapsed":252432,"internal_node_id":"0.0-4.0-1.15","subject_id":"614e50084109bcceada6945c","study_id":"6197b3f67c2b5cd3b6d9596a","session_id":"619be31e137b8894ccdfb286","condition":"contingent","relevant_dimensions":["wings","pattern"],"bee_group":{"antennae":"X","wings":"2","pattern":"D","legs":"X"},"bonus":0.840000000000001},{"rt":6549.5,"stimulus":"bees-with-color/bee-A2SM.svg","response":0,"trial_type":"image-button-response","trial_index":39,"time_elapsed":258986,"internal_node_id":"0.0-4.0-0.16","subject_id":"614e50084109bcceada6945c","study_id":"6197b3f67c2b5cd3b6d9596a","session_id":"619be31e137b8894ccdfb286","condition":"contingent","relevant_dimensions":["wings","pattern"],"bee_group":{"antennae":"X","wings":"2","pattern":"D","legs":"X"},"action":"harvest","summary":"good-harvest","bonus":0.840000000000001},{"rt":1141.0999999940395,"stimulus":"\n                    <p><b>Action: <em>harvest</em></b></p>\n                    <p>This is the bee that you just saw.</p>\n                    <img src=\"bees-with-color/bee-A2SM.svg\" width=\"200\">\n                    <p><span class=\"greenText\"><b>Successful harvest!</b></span><br>Your pay has increased by $0.02. Your bonus pay is now $0.52.</p>\n            ","response":0,"trial_type":"html-button-response","trial_index":40,"time_elapsed":260130,"internal_node_id":"0.0-4.0-1.16","subject_id":"614e50084109bcceada6945c","study_id":"6197b3f67c2b5cd3b6d9596a","session_id":"619be31e137b8894ccdfb286","condition":"contingent","relevant_dimensions":["wings","pattern"],"bee_group":{"antennae":"X","wings":"2","pattern":"D","legs":"X"},"bonus":0.840000000000001},{"rt":2738.2999999970198,"stimulus":"bees-with-color/bee-B1DM.svg","response":1,"trial_type":"image-button-response","trial_index":41,"time_elapsed":262870,"internal_node_id":"0.0-4.0-0.17","subject_id":"614e50084109bcceada6945c","study_id":"6197b3f67c2b5cd3b6d9596a","session_id":"619be31e137b8894ccdfb286","condition":"contingent","relevant_dimensions":["wings","pattern"],"bee_group":{"antennae":"X","wings":"2","pattern":"D","legs":"X"},"action":"avoid","summary":"bad-avoid","bonus":0.840000000000001},{"rt":778.3999999910593,"stimulus":"\n                    <p><b>Action: <em>avoid</em></b></p>\n                    <p>This is the bee that you just saw.</p>\n                    <img src=\"bees-with-color/bee-B1DM.svg\" width=\"200\">\n                    <p><br>Your bonus pay is unchanged, and remains at $0.52.</p>\n            ","response":0,"trial_type":"html-button-response","trial_index":42,"time_elapsed":263652,"internal_node_id":"0.0-4.0-1.17","subject_id":"614e50084109bcceada6945c","study_id":"6197b3f67c2b5cd3b6d9596a","session_id":"619be31e137b8894ccdfb286","condition":"contingent","relevant_dimensions":["wings","pattern"],"bee_group":{"antennae":"X","wings":"2","pattern":"D","legs":"X"},"bonus":0.840000000000001},{"rt":5060,"stimulus":"bees-with-color/bee-A2DM.svg","response":0,"trial_type":"image-button-response","trial_index":43,"time_elapsed":268716,"internal_node_id":"0.0-4.0-0.18","subject_id":"614e50084109bcceada6945c","study_id":"6197b3f67c2b5cd3b6d9596a","session_id":"619be31e137b8894ccdfb286","condition":"contingent","relevant_dimensions":["wings","pattern"],"bee_group":{"antennae":"X","wings":"2","pattern":"D","legs":"X"},"action":"harvest","summary":"bad-harvest","bonus":0.840000000000001},{"rt":1469.3999999910593,"stimulus":"\n                    <p><b>Action: <em>harvest</em></b></p>\n                    <p>This is the bee that you just saw.</p>\n                    <img src=\"bees-with-color/bee-A2DM.svg\" width=\"200\">\n                    <p><span class=\"redText\">Bad choice, the bee was angry.</span><br><b>You have been stung!</b><br>Your pay has been decreased by $0.10. Your bonus pay is now $0.42.</p>\n            ","response":0,"trial_type":"html-button-response","trial_index":44,"time_elapsed":270188,"internal_node_id":"0.0-4.0-1.18","subject_id":"614e50084109bcceada6945c","study_id":"6197b3f67c2b5cd3b6d9596a","session_id":"619be31e137b8894ccdfb286","condition":"contingent","relevant_dimensions":["wings","pattern"],"bee_group":{"antennae":"X","wings":"2","pattern":"D","legs":"X"},"bonus":0.840000000000001},{"rt":2046.9000000059605,"stimulus":"bees-with-color/bee-A1SM.svg","response":0,"trial_type":"image-button-response","trial_index":45,"time_elapsed":272236,"internal_node_id":"0.0-4.0-0.19","subject_id":"614e50084109bcceada6945c","study_id":"6197b3f67c2b5cd3b6d9596a","session_id":"619be31e137b8894ccdfb286","condition":"contingent","relevant_dimensions":["wings","pattern"],"bee_group":{"antennae":"X","wings":"2","pattern":"D","legs":"X"},"action":"harvest","summary":"good-harvest","bonus":0.840000000000001},{"rt":1022.4000000059605,"stimulus":"\n                    <p><b>Action: <em>harvest</em></b></p>\n                    <p>This is the bee that you just saw.</p>\n                    <img src=\"bees-with-color/bee-A1SM.svg\" width=\"200\">\n                    <p><span class=\"greenText\"><b>Successful harvest!</b></span><br>Your pay has increased by $0.02. Your bonus pay is now $0.44.</p>\n            ","response":0,"trial_type":"html-button-response","trial_index":46,"time_elapsed":273261,"internal_node_id":"0.0-4.0-1.19","subject_id":"614e50084109bcceada6945c","study_id":"6197b3f67c2b5cd3b6d9596a","session_id":"619be31e137b8894ccdfb286","condition":"contingent","relevant_dimensions":["wings","pattern"],"bee_group":{"antennae":"X","wings":"2","pattern":"D","legs":"X"},"bonus":0.840000000000001},{"rt":1326.5,"stimulus":"bees-with-color/bee-B2DM.svg","response":0,"trial_type":"image-button-response","trial_index":47,"time_elapsed":274590,"internal_node_id":"0.0-4.0-0.20","subject_id":"614e50084109bcceada6945c","study_id":"6197b3f67c2b5cd3b6d9596a","session_id":"619be31e137b8894ccdfb286","condition":"contingent","relevant_dimensions":["wings","pattern"],"bee_group":{"antennae":"X","wings":"2","pattern":"D","legs":"X"},"action":"harvest","summary":"bad-harvest","bonus":0.840000000000001},{"rt":1012.6999999880791,"stimulus":"\n                    <p><b>Action: <em>harvest</em></b></p>\n                    <p>This is the bee that you just saw.</p>\n                    <img src=\"bees-with-color/bee-B2DM.svg\" width=\"200\">\n                    <p><span class=\"redText\">Bad choice, the bee was angry.</span><br><b>You have been stung!</b><br>Your pay has been decreased by $0.10. Your bonus pay is now $0.34.</p>\n            ","response":0,"trial_type":"html-button-response","trial_index":48,"time_elapsed":275607,"internal_node_id":"0.0-4.0-1.20","subject_id":"614e50084109bcceada6945c","study_id":"6197b3f67c2b5cd3b6d9596a","session_id":"619be31e137b8894ccdfb286","condition":"contingent","relevant_dimensions":["wings","pattern"],"bee_group":{"antennae":"X","wings":"2","pattern":"D","legs":"X"},"bonus":0.840000000000001},{"rt":1359.2999999970198,"stimulus":"bees-with-color/bee-A1DM.svg","response":1,"trial_type":"image-button-response","trial_index":49,"time_elapsed":276970,"internal_node_id":"0.0-4.0-0.21","subject_id":"614e50084109bcceada6945c","study_id":"6197b3f67c2b5cd3b6d9596a","session_id":"619be31e137b8894ccdfb286","condition":"contingent","relevant_dimensions":["wings","pattern"],"bee_group":{"antennae":"X","wings":"2","pattern":"D","legs":"X"},"action":"avoid","summary":"bad-avoid","bonus":0.840000000000001},{"rt":1428.2000000029802,"stimulus":"\n                    <p><b>Action: <em>avoid</em></b></p>\n                    <p>This is the bee that you just saw.</p>\n                    <img src=\"bees-with-color/bee-A1DM.svg\" width=\"200\">\n                    <p><br>Your bonus pay is unchanged, and remains at $0.34.</p>\n            ","response":0,"trial_type":"html-button-response","trial_index":50,"time_elapsed":278403,"internal_node_id":"0.0-4.0-1.21","subject_id":"614e50084109bcceada6945c","study_id":"6197b3f67c2b5cd3b6d9596a","session_id":"619be31e137b8894ccdfb286","condition":"contingent","relevant_dimensions":["wings","pattern"],"bee_group":{"antennae":"X","wings":"2","pattern":"D","legs":"X"},"bonus":0.840000000000001},{"rt":1666.2999999970198,"stimulus":"bees-with-color/bee-B2SM.svg","response":0,"trial_type":"image-button-response","trial_index":51,"time_elapsed":280072,"internal_node_id":"0.0-4.0-0.22","subject_id":"614e50084109bcceada6945c","study_id":"6197b3f67c2b5cd3b6d9596a","session_id":"619be31e137b8894ccdfb286","condition":"contingent","relevant_dimensions":["wings","pattern"],"bee_group":{"antennae":"X","wings":"2","pattern":"D","legs":"X"},"action":"harvest","summary":"good-harvest","bonus":0.840000000000001},{"rt":1013.8999999910593,"stimulus":"\n                    <p><b>Action: <em>harvest</em></b></p>\n                    <p>This is the bee that you just saw.</p>\n                    <img src=\"bees-with-color/bee-B2SM.svg\" width=\"200\">\n                    <p><span class=\"greenText\"><b>Successful harvest!</b></span><br>Your pay has increased by $0.02. Your bonus pay is now $0.36.</p>\n            ","response":0,"trial_type":"html-button-response","trial_index":52,"time_elapsed":281088,"internal_node_id":"0.0-4.0-1.22","subject_id":"614e50084109bcceada6945c","study_id":"6197b3f67c2b5cd3b6d9596a","session_id":"619be31e137b8894ccdfb286","condition":"contingent","relevant_dimensions":["wings","pattern"],"bee_group":{"antennae":"X","wings":"2","pattern":"D","legs":"X"},"bonus":0.840000000000001},{"rt":879.6000000089407,"stimulus":"bees-with-color/bee-A1DF.svg","response":1,"trial_type":"image-button-response","trial_index":53,"time_elapsed":281970,"internal_node_id":"0.0-4.0-0.23","subject_id":"614e50084109bcceada6945c","study_id":"6197b3f67c2b5cd3b6d9596a","session_id":"619be31e137b8894ccdfb286","condition":"contingent","relevant_dimensions":["wings","pattern"],"bee_group":{"antennae":"X","wings":"2","pattern":"D","legs":"X"},"action":"avoid","summary":"bad-avoid","bonus":0.840000000000001},{"rt":825.7999999970198,"stimulus":"\n                    <p><b>Action: <em>avoid</em></b></p>\n                    <p>This is the bee that you just saw.</p>\n                    <img src=\"bees-with-color/bee-A1DF.svg\" width=\"200\">\n                    <p><br>Your bonus pay is unchanged, and remains at $0.36.</p>\n            ","response":0,"trial_type":"html-button-response","trial_index":54,"time_elapsed":282799,"internal_node_id":"0.0-4.0-1.23","subject_id":"614e50084109bcceada6945c","study_id":"6197b3f67c2b5cd3b6d9596a","session_id":"619be31e137b8894ccdfb286","condition":"contingent","relevant_dimensions":["wings","pattern"],"bee_group":{"antennae":"X","wings":"2","pattern":"D","legs":"X"},"bonus":0.840000000000001},{"rt":941.5,"stimulus":"bees-with-color/bee-B1DF.svg","response":1,"trial_type":"image-button-response","trial_index":55,"time_elapsed":283744,"internal_node_id":"0.0-4.0-0.24","subject_id":"614e50084109bcceada6945c","study_id":"6197b3f67c2b5cd3b6d9596a","session_id":"619be31e137b8894ccdfb286","condition":"contingent","relevant_dimensions":["wings","pattern"],"bee_group":{"antennae":"X","wings":"2","pattern":"D","legs":"X"},"action":"avoid","summary":"bad-avoid","bonus":0.840000000000001},{"rt":708.2000000029802,"stimulus":"\n                    <p><b>Action: <em>avoid</em></b></p>\n                    <p>This is the bee that you just saw.</p>\n                    <img src=\"bees-with-color/bee-B1DF.svg\" width=\"200\">\n                    <p><br>Your bonus pay is unchanged, and remains at $0.36.</p>\n            ","response":0,"trial_type":"html-button-response","trial_index":56,"time_elapsed":284457,"internal_node_id":"0.0-4.0-1.24","subject_id":"614e50084109bcceada6945c","study_id":"6197b3f67c2b5cd3b6d9596a","session_id":"619be31e137b8894ccdfb286","condition":"contingent","relevant_dimensions":["wings","pattern"],"bee_group":{"antennae":"X","wings":"2","pattern":"D","legs":"X"},"bonus":0.840000000000001},{"rt":1171.3999999910593,"stimulus":"bees-with-color/bee-B1SM.svg","response":0,"trial_type":"image-button-response","trial_index":57,"time_elapsed":285632,"internal_node_id":"0.0-4.0-0.25","subject_id":"614e50084109bcceada6945c","study_id":"6197b3f67c2b5cd3b6d9596a","session_id":"619be31e137b8894ccdfb286","condition":"contingent","relevant_dimensions":["wings","pattern"],"bee_group":{"antennae":"X","wings":"2","pattern":"D","legs":"X"},"action":"harvest","summary":"good-harvest","bonus":0.840000000000001},{"rt":1004.7999999970198,"stimulus":"\n                    <p><b>Action: <em>harvest</em></b></p>\n                    <p>This is the bee that you just saw.</p>\n                    <img src=\"bees-with-color/bee-B1SM.svg\" width=\"200\">\n                    <p><span class=\"greenText\"><b>Successful harvest!</b></span><br>Your pay has increased by $0.02. Your bonus pay is now $0.38.</p>\n            ","response":0,"trial_type":"html-button-response","trial_index":58,"time_elapsed":286641,"internal_node_id":"0.0-4.0-1.25","subject_id":"614e50084109bcceada6945c","study_id":"6197b3f67c2b5cd3b6d9596a","session_id":"619be31e137b8894ccdfb286","condition":"contingent","relevant_dimensions":["wings","pattern"],"bee_group":{"antennae":"X","wings":"2","pattern":"D","legs":"X"},"bonus":0.840000000000001},{"rt":1087.4000000059605,"stimulus":"bees-with-color/bee-A2SF.svg","response":0,"trial_type":"image-button-response","trial_index":59,"time_elapsed":287732,"internal_node_id":"0.0-4.0-0.26","subject_id":"614e50084109bcceada6945c","study_id":"6197b3f67c2b5cd3b6d9596a","session_id":"619be31e137b8894ccdfb286","condition":"contingent","relevant_dimensions":["wings","pattern"],"bee_group":{"antennae":"X","wings":"2","pattern":"D","legs":"X"},"action":"harvest","summary":"good-harvest","bonus":0.840000000000001},{"rt":817.8999999910593,"stimulus":"\n                    <p><b>Action: <em>harvest</em></b></p>\n                    <p>This is the bee that you just saw.</p>\n                    <img src=\"bees-with-color/bee-A2SF.svg\" width=\"200\">\n                    <p><span class=\"greenText\"><b>Successful harvest!</b></span><br>Your pay has increased by $0.02. Your bonus pay is now $0.40.</p>\n            ","response":0,"trial_type":"html-button-response","trial_index":60,"time_elapsed":288554,"internal_node_id":"0.0-4.0-1.26","subject_id":"614e50084109bcceada6945c","study_id":"6197b3f67c2b5cd3b6d9596a","session_id":"619be31e137b8894ccdfb286","condition":"contingent","relevant_dimensions":["wings","pattern"],"bee_group":{"antennae":"X","wings":"2","pattern":"D","legs":"X"},"bonus":0.840000000000001},{"rt":1004.6000000089407,"stimulus":"bees-with-color/bee-B1SF.svg","response":0,"trial_type":"image-button-response","trial_index":61,"time_elapsed":289562,"internal_node_id":"0.0-4.0-0.27","subject_id":"614e50084109bcceada6945c","study_id":"6197b3f67c2b5cd3b6d9596a","session_id":"619be31e137b8894ccdfb286","condition":"contingent","relevant_dimensions":["wings","pattern"],"bee_group":{"antennae":"X","wings":"2","pattern":"D","legs":"X"},"action":"harvest","summary":"good-harvest","bonus":0.840000000000001},{"rt":884.5999999940395,"stimulus":"\n                    <p><b>Action: <em>harvest</em></b></p>\n                    <p>This is the bee that you just saw.</p>\n                    <img src=\"bees-with-color/bee-B1SF.svg\" width=\"200\">\n                    <p><span class=\"greenText\"><b>Successful harvest!</b></span><br>Your pay has increased by $0.02. Your bonus pay is now $0.42.</p>\n            ","response":0,"trial_type":"html-button-response","trial_index":62,"time_elapsed":290451,"internal_node_id":"0.0-4.0-1.27","subject_id":"614e50084109bcceada6945c","study_id":"6197b3f67c2b5cd3b6d9596a","session_id":"619be31e137b8894ccdfb286","condition":"contingent","relevant_dimensions":["wings","pattern"],"bee_group":{"antennae":"X","wings":"2","pattern":"D","legs":"X"},"bonus":0.840000000000001},{"rt":1072,"stimulus":"bees-with-color/bee-B2DF.svg","response":1,"trial_type":"image-button-response","trial_index":63,"time_elapsed":291526,"internal_node_id":"0.0-4.0-0.28","subject_id":"614e50084109bcceada6945c","study_id":"6197b3f67c2b5cd3b6d9596a","session_id":"619be31e137b8894ccdfb286","condition":"contingent","relevant_dimensions":["wings","pattern"],"bee_group":{"antennae":"X","wings":"2","pattern":"D","legs":"X"},"action":"avoid","summary":"good-avoid","bonus":0.840000000000001},{"rt":798.7000000029802,"stimulus":"\n                    <p><b>Action: <em>avoid</em></b></p>\n                    <p>This is the bee that you just saw.</p>\n                    <img src=\"bees-with-color/bee-B2DF.svg\" width=\"200\">\n                    <p><br>Your bonus pay is unchanged, and remains at $0.42.</p>\n            ","response":0,"trial_type":"html-button-response","trial_index":64,"time_elapsed":292329,"internal_node_id":"0.0-4.0-1.28","subject_id":"614e50084109bcceada6945c","study_id":"6197b3f67c2b5cd3b6d9596a","session_id":"619be31e137b8894ccdfb286","condition":"contingent","relevant_dimensions":["wings","pattern"],"bee_group":{"antennae":"X","wings":"2","pattern":"D","legs":"X"},"bonus":0.840000000000001},{"rt":1117.7000000029802,"stimulus":"bees-with-color/bee-A2DF.svg","response":1,"trial_type":"image-button-response","trial_index":65,"time_elapsed":293451,"internal_node_id":"0.0-4.0-0.29","subject_id":"614e50084109bcceada6945c","study_id":"6197b3f67c2b5cd3b6d9596a","session_id":"619be31e137b8894ccdfb286","condition":"contingent","relevant_dimensions":["wings","pattern"],"bee_group":{"antennae":"X","wings":"2","pattern":"D","legs":"X"},"action":"avoid","summary":"good-avoid","bonus":0.840000000000001},{"rt":681.7000000029802,"stimulus":"\n                    <p><b>Action: <em>avoid</em></b></p>\n                    <p>This is the bee that you just saw.</p>\n                    <img src=\"bees-with-color/bee-A2DF.svg\" width=\"200\">\n                    <p><br>Your bonus pay is unchanged, and remains at $0.42.</p>\n            ","response":0,"trial_type":"html-button-response","trial_index":66,"time_elapsed":294136,"internal_node_id":"0.0-4.0-1.29","subject_id":"614e50084109bcceada6945c","study_id":"6197b3f67c2b5cd3b6d9596a","session_id":"619be31e137b8894ccdfb286","condition":"contingent","relevant_dimensions":["wings","pattern"],"bee_group":{"antennae":"X","wings":"2","pattern":"D","legs":"X"},"bonus":0.840000000000001},{"rt":1286.4000000059605,"stimulus":"bees-with-color/bee-B2SF.svg","response":0,"trial_type":"image-button-response","trial_index":67,"time_elapsed":295425,"internal_node_id":"0.0-4.0-0.30","subject_id":"614e50084109bcceada6945c","study_id":"6197b3f67c2b5cd3b6d9596a","session_id":"619be31e137b8894ccdfb286","condition":"contingent","relevant_dimensions":["wings","pattern"],"bee_group":{"antennae":"X","wings":"2","pattern":"D","legs":"X"},"action":"harvest","summary":"good-harvest","bonus":0.840000000000001},{"rt":772.5,"stimulus":"\n                    <p><b>Action: <em>harvest</em></b></p>\n                    <p>This is the bee that you just saw.</p>\n                    <img src=\"bees-with-color/bee-B2SF.svg\" width=\"200\">\n                    <p><span class=\"greenText\"><b>Successful harvest!</b></span><br>Your pay has increased by $0.02. Your bonus pay is now $0.44.</p>\n            ","response":0,"trial_type":"html-button-response","trial_index":68,"time_elapsed":296201,"internal_node_id":"0.0-4.0-1.30","subject_id":"614e50084109bcceada6945c","study_id":"6197b3f67c2b5cd3b6d9596a","session_id":"619be31e137b8894ccdfb286","condition":"contingent","relevant_dimensions":["wings","pattern"],"bee_group":{"antennae":"X","wings":"2","pattern":"D","legs":"X"},"bonus":0.840000000000001},{"rt":742,"stimulus":"bees-with-color/bee-A1SF.svg","response":0,"trial_type":"image-button-response","trial_index":69,"time_elapsed":296945,"internal_node_id":"0.0-4.0-0.31","subject_id":"614e50084109bcceada6945c","study_id":"6197b3f67c2b5cd3b6d9596a","session_id":"619be31e137b8894ccdfb286","condition":"contingent","relevant_dimensions":["wings","pattern"],"bee_group":{"antennae":"X","wings":"2","pattern":"D","legs":"X"},"action":"harvest","summary":"good-harvest","bonus":0.840000000000001},{"rt":695,"stimulus":"\n                    <p><b>Action: <em>harvest</em></b></p>\n                    <p>This is the bee that you just saw.</p>\n                    <img src=\"bees-with-color/bee-A1SF.svg\" width=\"200\">\n                    <p><span class=\"greenText\"><b>Successful harvest!</b></span><br>Your pay has increased by $0.02. Your bonus pay is now $0.46.</p>\n            ","response":0,"trial_type":"html-button-response","trial_index":70,"time_elapsed":297645,"internal_node_id":"0.0-4.0-1.31","subject_id":"614e50084109bcceada6945c","study_id":"6197b3f67c2b5cd3b6d9596a","session_id":"619be31e137b8894ccdfb286","condition":"contingent","relevant_dimensions":["wings","pattern"],"bee_group":{"antennae":"X","wings":"2","pattern":"D","legs":"X"},"bonus":0.840000000000001},{"rt":1028,"stimulus":"bees-with-color/bee-B2DM.svg","response":1,"trial_type":"image-button-response","trial_index":71,"time_elapsed":298677,"internal_node_id":"0.0-4.0-0.32","subject_id":"614e50084109bcceada6945c","study_id":"6197b3f67c2b5cd3b6d9596a","session_id":"619be31e137b8894ccdfb286","condition":"contingent","relevant_dimensions":["wings","pattern"],"bee_group":{"antennae":"X","wings":"2","pattern":"D","legs":"X"},"action":"avoid","summary":"good-avoid","bonus":0.840000000000001},{"rt":711.9000000059605,"stimulus":"\n                    <p><b>Action: <em>avoid</em></b></p>\n                    <p>This is the bee that you just saw.</p>\n                    <img src=\"bees-with-color/bee-B2DM.svg\" width=\"200\">\n                    <p><br>Your bonus pay is unchanged, and remains at $0.46.</p>\n            ","response":0,"trial_type":"html-button-response","trial_index":72,"time_elapsed":299394,"internal_node_id":"0.0-4.0-1.32","subject_id":"614e50084109bcceada6945c","study_id":"6197b3f67c2b5cd3b6d9596a","session_id":"619be31e137b8894ccdfb286","condition":"contingent","relevant_dimensions":["wings","pattern"],"bee_group":{"antennae":"X","wings":"2","pattern":"D","legs":"X"},"bonus":0.840000000000001},{"rt":737.6000000089407,"stimulus":"bees-with-color/bee-B1SM.svg","response":1,"trial_type":"image-button-response","trial_index":73,"time_elapsed":300135,"internal_node_id":"0.0-4.0-0.33","subject_id":"614e50084109bcceada6945c","study_id":"6197b3f67c2b5cd3b6d9596a","session_id":"619be31e137b8894ccdfb286","condition":"contingent","relevant_dimensions":["wings","pattern"],"bee_group":{"antennae":"X","wings":"2","pattern":"D","legs":"X"},"action":"avoid","summary":"bad-avoid","bonus":0.840000000000001},{"rt":769.5,"stimulus":"\n                    <p><b>Action: <em>avoid</em></b></p>\n                    <p>This is the bee that you just saw.</p>\n                    <img src=\"bees-with-color/bee-B1SM.svg\" width=\"200\">\n                    <p><br>Your bonus pay is unchanged, and remains at $0.46.</p>\n            ","response":0,"trial_type":"html-button-response","trial_index":74,"time_elapsed":300906,"internal_node_id":"0.0-4.0-1.33","subject_id":"614e50084109bcceada6945c","study_id":"6197b3f67c2b5cd3b6d9596a","session_id":"619be31e137b8894ccdfb286","condition":"contingent","relevant_dimensions":["wings","pattern"],"bee_group":{"antennae":"X","wings":"2","pattern":"D","legs":"X"},"bonus":0.840000000000001},{"rt":1327.800000011921,"stimulus":"bees-with-color/bee-B2SF.svg","response":1,"trial_type":"image-button-response","trial_index":75,"time_elapsed":302237,"internal_node_id":"0.0-4.0-0.34","subject_id":"614e50084109bcceada6945c","study_id":"6197b3f67c2b5cd3b6d9596a","session_id":"619be31e137b8894ccdfb286","condition":"contingent","relevant_dimensions":["wings","pattern"],"bee_group":{"antennae":"X","wings":"2","pattern":"D","legs":"X"},"action":"avoid","summary":"bad-avoid","bonus":0.840000000000001},{"rt":597.4000000059605,"stimulus":"\n                    <p><b>Action: <em>avoid</em></b></p>\n                    <p>This is the bee that you just saw.</p>\n                    <img src=\"bees-with-color/bee-B2SF.svg\" width=\"200\">\n                    <p><br>Your bonus pay is unchanged, and remains at $0.46.</p>\n            ","response":0,"trial_type":"html-button-response","trial_index":76,"time_elapsed":302836,"internal_node_id":"0.0-4.0-1.34","subject_id":"614e50084109bcceada6945c","study_id":"6197b3f67c2b5cd3b6d9596a","session_id":"619be31e137b8894ccdfb286","condition":"contingent","relevant_dimensions":["wings","pattern"],"bee_group":{"antennae":"X","wings":"2","pattern":"D","legs":"X"},"bonus":0.840000000000001},{"rt":1838.7000000029802,"stimulus":"bees-with-color/bee-B1DM.svg","response":1,"trial_type":"image-button-response","trial_index":77,"time_elapsed":304679,"internal_node_id":"0.0-4.0-0.35","subject_id":"614e50084109bcceada6945c","study_id":"6197b3f67c2b5cd3b6d9596a","session_id":"619be31e137b8894ccdfb286","condition":"contingent","relevant_dimensions":["wings","pattern"],"bee_group":{"antennae":"X","wings":"2","pattern":"D","legs":"X"},"action":"avoid","summary":"bad-avoid","bonus":0.840000000000001},{"rt":667.9000000059605,"stimulus":"\n                    <p><b>Action: <em>avoid</em></b></p>\n                    <p>This is the bee that you just saw.</p>\n                    <img src=\"bees-with-color/bee-B1DM.svg\" width=\"200\">\n                    <p><br>Your bonus pay is unchanged, and remains at $0.46.</p>\n            ","response":0,"trial_type":"html-button-response","trial_index":78,"time_elapsed":305351,"internal_node_id":"0.0-4.0-1.35","subject_id":"614e50084109bcceada6945c","study_id":"6197b3f67c2b5cd3b6d9596a","session_id":"619be31e137b8894ccdfb286","condition":"contingent","relevant_dimensions":["wings","pattern"],"bee_group":{"antennae":"X","wings":"2","pattern":"D","legs":"X"},"bonus":0.840000000000001},{"rt":949.5999999940395,"stimulus":"bees-with-color/bee-A2SM.svg","response":0,"trial_type":"image-button-response","trial_index":79,"time_elapsed":306304,"internal_node_id":"0.0-4.0-0.36","subject_id":"614e50084109bcceada6945c","study_id":"6197b3f67c2b5cd3b6d9596a","session_id":"619be31e137b8894ccdfb286","condition":"contingent","relevant_dimensions":["wings","pattern"],"bee_group":{"antennae":"X","wings":"2","pattern":"D","legs":"X"},"action":"harvest","summary":"good-harvest","bonus":0.840000000000001},{"rt":884.2999999970198,"stimulus":"\n                    <p><b>Action: <em>harvest</em></b></p>\n                    <p>This is the bee that you just saw.</p>\n                    <img src=\"bees-with-color/bee-A2SM.svg\" width=\"200\">\n                    <p><span class=\"greenText\"><b>Successful harvest!</b></span><br>Your pay has increased by $0.02. Your bonus pay is now $0.48.</p>\n            ","response":0,"trial_type":"html-button-response","trial_index":80,"time_elapsed":307193,"internal_node_id":"0.0-4.0-1.36","subject_id":"614e50084109bcceada6945c","study_id":"6197b3f67c2b5cd3b6d9596a","session_id":"619be31e137b8894ccdfb286","condition":"contingent","relevant_dimensions":["wings","pattern"],"bee_group":{"antennae":"X","wings":"2","pattern":"D","legs":"X"},"bonus":0.840000000000001},{"rt":668,"stimulus":"bees-with-color/bee-B1SF.svg","response":0,"trial_type":"image-button-response","trial_index":81,"time_elapsed":307864,"internal_node_id":"0.0-4.0-0.37","subject_id":"614e50084109bcceada6945c","study_id":"6197b3f67c2b5cd3b6d9596a","session_id":"619be31e137b8894ccdfb286","condition":"contingent","relevant_dimensions":["wings","pattern"],"bee_group":{"antennae":"X","wings":"2","pattern":"D","legs":"X"},"action":"harvest","summary":"good-harvest","bonus":0.840000000000001},{"rt":664.2000000029802,"stimulus":"\n                    <p><b>Action: <em>harvest</em></b></p>\n                    <p>This is the bee that you just saw.</p>\n                    <img src=\"bees-with-color/bee-B1SF.svg\" width=\"200\">\n                    <p><span class=\"greenText\"><b>Successful harvest!</b></span><br>Your pay has increased by $0.02. Your bonus pay is now $0.50.</p>\n            ","response":0,"trial_type":"html-button-response","trial_index":82,"time_elapsed":308533,"internal_node_id":"0.0-4.0-1.37","subject_id":"614e50084109bcceada6945c","study_id":"6197b3f67c2b5cd3b6d9596a","session_id":"619be31e137b8894ccdfb286","condition":"contingent","relevant_dimensions":["wings","pattern"],"bee_group":{"antennae":"X","wings":"2","pattern":"D","legs":"X"},"bonus":0.840000000000001},{"rt":622.9000000059605,"stimulus":"bees-with-color/bee-A1DM.svg","response":0,"trial_type":"image-button-response","trial_index":83,"time_elapsed":309159,"internal_node_id":"0.0-4.0-0.38","subject_id":"614e50084109bcceada6945c","study_id":"6197b3f67c2b5cd3b6d9596a","session_id":"619be31e137b8894ccdfb286","condition":"contingent","relevant_dimensions":["wings","pattern"],"bee_group":{"antennae":"X","wings":"2","pattern":"D","legs":"X"},"action":"harvest","summary":"good-harvest","bonus":0.840000000000001},{"rt":1202.2999999970198,"stimulus":"\n                    <p><b>Action: <em>harvest</em></b></p>\n                    <p>This is the bee that you just saw.</p>\n                    <img src=\"bees-with-color/bee-A1DM.svg\" width=\"200\">\n                    <p><span class=\"greenText\"><b>Successful harvest!</b></span><br>Your pay has increased by $0.02. Your bonus pay is now $0.52.</p>\n            ","response":0,"trial_type":"html-button-response","trial_index":84,"time_elapsed":310364,"internal_node_id":"0.0-4.0-1.38","subject_id":"614e50084109bcceada6945c","study_id":"6197b3f67c2b5cd3b6d9596a","session_id":"619be31e137b8894ccdfb286","condition":"contingent","relevant_dimensions":["wings","pattern"],"bee_group":{"antennae":"X","wings":"2","pattern":"D","legs":"X"},"bonus":0.840000000000001},{"rt":902.2999999970198,"stimulus":"bees-with-color/bee-A2DF.svg","response":1,"trial_type":"image-button-response","trial_index":85,"time_elapsed":311269,"internal_node_id":"0.0-4.0-0.39","subject_id":"614e50084109bcceada6945c","study_id":"6197b3f67c2b5cd3b6d9596a","session_id":"619be31e137b8894ccdfb286","condition":"contingent","relevant_dimensions":["wings","pattern"],"bee_group":{"antennae":"X","wings":"2","pattern":"D","legs":"X"},"action":"avoid","summary":"good-avoid","bonus":0.840000000000001},{"rt":677.8999999910593,"stimulus":"\n                    <p><b>Action: <em>avoid</em></b></p>\n                    <p>This is the bee that you just saw.</p>\n                    <img src=\"bees-with-color/bee-A2DF.svg\" width=\"200\">\n                    <p><br>Your bonus pay is unchanged, and remains at $0.52.</p>\n            ","response":0,"trial_type":"html-button-response","trial_index":86,"time_elapsed":311951,"internal_node_id":"0.0-4.0-1.39","subject_id":"614e50084109bcceada6945c","study_id":"6197b3f67c2b5cd3b6d9596a","session_id":"619be31e137b8894ccdfb286","condition":"contingent","relevant_dimensions":["wings","pattern"],"bee_group":{"antennae":"X","wings":"2","pattern":"D","legs":"X"},"bonus":0.840000000000001},{"rt":1888.0999999940395,"stimulus":"bees-with-color/bee-A2SF.svg","response":0,"trial_type":"image-button-response","trial_index":87,"time_elapsed":313843,"internal_node_id":"0.0-4.0-0.40","subject_id":"614e50084109bcceada6945c","study_id":"6197b3f67c2b5cd3b6d9596a","session_id":"619be31e137b8894ccdfb286","condition":"contingent","relevant_dimensions":["wings","pattern"],"bee_group":{"antennae":"X","wings":"2","pattern":"D","legs":"X"},"action":"harvest","summary":"good-harvest","bonus":0.840000000000001},{"rt":592.4000000059605,"stimulus":"\n                    <p><b>Action: <em>harvest</em></b></p>\n                    <p>This is the bee that you just saw.</p>\n                    <img src=\"bees-with-color/bee-A2SF.svg\" width=\"200\">\n                    <p><span class=\"greenText\"><b>Successful harvest!</b></span><br>Your pay has increased by $0.02. Your bonus pay is now $0.54.</p>\n            ","response":0,"trial_type":"html-button-response","trial_index":88,"time_elapsed":314439,"internal_node_id":"0.0-4.0-1.40","subject_id":"614e50084109bcceada6945c","study_id":"6197b3f67c2b5cd3b6d9596a","session_id":"619be31e137b8894ccdfb286","condition":"contingent","relevant_dimensions":["wings","pattern"],"bee_group":{"antennae":"X","wings":"2","pattern":"D","legs":"X"},"bonus":0.840000000000001},{"rt":1027.5,"stimulus":"bees-with-color/bee-A1SF.svg","response":0,"trial_type":"image-button-response","trial_index":89,"time_elapsed":315469,"internal_node_id":"0.0-4.0-0.41","subject_id":"614e50084109bcceada6945c","study_id":"6197b3f67c2b5cd3b6d9596a","session_id":"619be31e137b8894ccdfb286","condition":"contingent","relevant_dimensions":["wings","pattern"],"bee_group":{"antennae":"X","wings":"2","pattern":"D","legs":"X"},"action":"harvest","summary":"good-harvest","bonus":0.840000000000001},{"rt":602.2000000029802,"stimulus":"\n                    <p><b>Action: <em>harvest</em></b></p>\n                    <p>This is the bee that you just saw.</p>\n                    <img src=\"bees-with-color/bee-A1SF.svg\" width=\"200\">\n                    <p><span class=\"greenText\"><b>Successful harvest!</b></span><br>Your pay has increased by $0.02. Your bonus pay is now $0.56.</p>\n            ","response":0,"trial_type":"html-button-response","trial_index":90,"time_elapsed":316075,"internal_node_id":"0.0-4.0-1.41","subject_id":"614e50084109bcceada6945c","study_id":"6197b3f67c2b5cd3b6d9596a","session_id":"619be31e137b8894ccdfb286","condition":"contingent","relevant_dimensions":["wings","pattern"],"bee_group":{"antennae":"X","wings":"2","pattern":"D","legs":"X"},"bonus":0.840000000000001},{"rt":1502.4000000059605,"stimulus":"bees-with-color/bee-B2DF.svg","response":1,"trial_type":"image-button-response","trial_index":91,"time_elapsed":317581,"internal_node_id":"0.0-4.0-0.42","subject_id":"614e50084109bcceada6945c","study_id":"6197b3f67c2b5cd3b6d9596a","session_id":"619be31e137b8894ccdfb286","condition":"contingent","relevant_dimensions":["wings","pattern"],"bee_group":{"antennae":"X","wings":"2","pattern":"D","legs":"X"},"action":"avoid","summary":"good-avoid","bonus":0.840000000000001},{"rt":572,"stimulus":"\n                    <p><b>Action: <em>avoid</em></b></p>\n                    <p>This is the bee that you just saw.</p>\n                    <img src=\"bees-with-color/bee-B2DF.svg\" width=\"200\">\n                    <p><br>Your bonus pay is unchanged, and remains at $0.56.</p>\n            ","response":0,"trial_type":"html-button-response","trial_index":92,"time_elapsed":318157,"internal_node_id":"0.0-4.0-1.42","subject_id":"614e50084109bcceada6945c","study_id":"6197b3f67c2b5cd3b6d9596a","session_id":"619be31e137b8894ccdfb286","condition":"contingent","relevant_dimensions":["wings","pattern"],"bee_group":{"antennae":"X","wings":"2","pattern":"D","legs":"X"},"bonus":0.840000000000001},{"rt":1887.7999999970198,"stimulus":"bees-with-color/bee-B1DF.svg","response":1,"trial_type":"image-button-response","trial_index":93,"time_elapsed":320049,"internal_node_id":"0.0-4.0-0.43","subject_id":"614e50084109bcceada6945c","study_id":"6197b3f67c2b5cd3b6d9596a","session_id":"619be31e137b8894ccdfb286","condition":"contingent","relevant_dimensions":["wings","pattern"],"bee_group":{"antennae":"X","wings":"2","pattern":"D","legs":"X"},"action":"avoid","summary":"bad-avoid","bonus":0.840000000000001},{"rt":910.2000000029802,"stimulus":"\n                    <p><b>Action: <em>avoid</em></b></p>\n                    <p>This is the bee that you just saw.</p>\n                    <img src=\"bees-with-color/bee-B1DF.svg\" width=\"200\">\n                    <p><br>Your bonus pay is unchanged, and remains at $0.56.</p>\n            ","response":0,"trial_type":"html-button-response","trial_index":94,"time_elapsed":320963,"internal_node_id":"0.0-4.0-1.43","subject_id":"614e50084109bcceada6945c","study_id":"6197b3f67c2b5cd3b6d9596a","session_id":"619be31e137b8894ccdfb286","condition":"contingent","relevant_dimensions":["wings","pattern"],"bee_group":{"antennae":"X","wings":"2","pattern":"D","legs":"X"},"bonus":0.840000000000001},{"rt":2230.7000000029802,"stimulus":"bees-with-color/bee-A2DM.svg","response":0,"trial_type":"image-button-response","trial_index":95,"time_elapsed":323198,"internal_node_id":"0.0-4.0-0.44","subject_id":"614e50084109bcceada6945c","study_id":"6197b3f67c2b5cd3b6d9596a","session_id":"619be31e137b8894ccdfb286","condition":"contingent","relevant_dimensions":["wings","pattern"],"bee_group":{"antennae":"X","wings":"2","pattern":"D","legs":"X"},"action":"harvest","summary":"bad-harvest","bonus":0.840000000000001},{"rt":964,"stimulus":"\n                    <p><b>Action: <em>harvest</em></b></p>\n                    <p>This is the bee that you just saw.</p>\n                    <img src=\"bees-with-color/bee-A2DM.svg\" width=\"200\">\n                    <p><span class=\"redText\">Bad choice, the bee was angry.</span><br><b>You have been stung!</b><br>Your pay has been decreased by $0.10. Your bonus pay is now $0.46.</p>\n            ","response":0,"trial_type":"html-button-response","trial_index":96,"time_elapsed":324165,"internal_node_id":"0.0-4.0-1.44","subject_id":"614e50084109bcceada6945c","study_id":"6197b3f67c2b5cd3b6d9596a","session_id":"619be31e137b8894ccdfb286","condition":"contingent","relevant_dimensions":["wings","pattern"],"bee_group":{"antennae":"X","wings":"2","pattern":"D","legs":"X"},"bonus":0.840000000000001},{"rt":1627.2000000029802,"stimulus":"bees-with-color/bee-B2SM.svg","response":0,"trial_type":"image-button-response","trial_index":97,"time_elapsed":325796,"internal_node_id":"0.0-4.0-0.45","subject_id":"614e50084109bcceada6945c","study_id":"6197b3f67c2b5cd3b6d9596a","session_id":"619be31e137b8894ccdfb286","condition":"contingent","relevant_dimensions":["wings","pattern"],"bee_group":{"antennae":"X","wings":"2","pattern":"D","legs":"X"},"action":"harvest","summary":"good-harvest","bonus":0.840000000000001},{"rt":749.5999999940395,"stimulus":"\n                    <p><b>Action: <em>harvest</em></b></p>\n                    <p>This is the bee that you just saw.</p>\n                    <img src=\"bees-with-color/bee-B2SM.svg\" width=\"200\">\n                    <p><span class=\"greenText\"><b>Successful harvest!</b></span><br>Your pay has increased by $0.02. Your bonus pay is now $0.48.</p>\n            ","response":0,"trial_type":"html-button-response","trial_index":98,"time_elapsed":326550,"internal_node_id":"0.0-4.0-1.45","subject_id":"614e50084109bcceada6945c","study_id":"6197b3f67c2b5cd3b6d9596a","session_id":"619be31e137b8894ccdfb286","condition":"contingent","relevant_dimensions":["wings","pattern"],"bee_group":{"antennae":"X","wings":"2","pattern":"D","legs":"X"},"bonus":0.840000000000001},{"rt":1223.5999999940395,"stimulus":"bees-with-color/bee-A1DF.svg","response":1,"trial_type":"image-button-response","trial_index":99,"time_elapsed":327777,"internal_node_id":"0.0-4.0-0.46","subject_id":"614e50084109bcceada6945c","study_id":"6197b3f67c2b5cd3b6d9596a","session_id":"619be31e137b8894ccdfb286","condition":"contingent","relevant_dimensions":["wings","pattern"],"bee_group":{"antennae":"X","wings":"2","pattern":"D","legs":"X"},"action":"avoid","summary":"bad-avoid","bonus":0.840000000000001},{"rt":759.5999999940395,"stimulus":"\n                    <p><b>Action: <em>avoid</em></b></p>\n                    <p>This is the bee that you just saw.</p>\n                    <img src=\"bees-with-color/bee-A1DF.svg\" width=\"200\">\n                    <p><br>Your bonus pay is unchanged, and remains at $0.48.</p>\n            ","response":0,"trial_type":"html-button-response","trial_index":100,"time_elapsed":328541,"internal_node_id":"0.0-4.0-1.46","subject_id":"614e50084109bcceada6945c","study_id":"6197b3f67c2b5cd3b6d9596a","session_id":"619be31e137b8894ccdfb286","condition":"contingent","relevant_dimensions":["wings","pattern"],"bee_group":{"antennae":"X","wings":"2","pattern":"D","legs":"X"},"bonus":0.840000000000001},{"rt":1023.9000000059605,"stimulus":"bees-with-color/bee-A1SM.svg","response":0,"trial_type":"image-button-response","trial_index":101,"time_elapsed":329569,"internal_node_id":"0.0-4.0-0.47","subject_id":"614e50084109bcceada6945c","study_id":"6197b3f67c2b5cd3b6d9596a","session_id":"619be31e137b8894ccdfb286","condition":"contingent","relevant_dimensions":["wings","pattern"],"bee_group":{"antennae":"X","wings":"2","pattern":"D","legs":"X"},"action":"harvest","summary":"good-harvest","bonus":0.840000000000001},{"rt":688.6999999880791,"stimulus":"\n                    <p><b>Action: <em>harvest</em></b></p>\n                    <p>This is the bee that you just saw.</p>\n                    <img src=\"bees-with-color/bee-A1SM.svg\" width=\"200\">\n                    <p><span class=\"greenText\"><b>Successful harvest!</b></span><br>Your pay has increased by $0.02. Your bonus pay is now $0.50.</p>\n            ","response":0,"trial_type":"html-button-response","trial_index":102,"time_elapsed":330261,"internal_node_id":"0.0-4.0-1.47","subject_id":"614e50084109bcceada6945c","study_id":"6197b3f67c2b5cd3b6d9596a","session_id":"619be31e137b8894ccdfb286","condition":"contingent","relevant_dimensions":["wings","pattern"],"bee_group":{"antennae":"X","wings":"2","pattern":"D","legs":"X"},"bonus":0.840000000000001},{"rt":1001.6000000089407,"stimulus":"bees-with-color/bee-A1DM.svg","response":1,"trial_type":"image-button-response","trial_index":103,"time_elapsed":331265,"internal_node_id":"0.0-4.0-0.48","subject_id":"614e50084109bcceada6945c","study_id":"6197b3f67c2b5cd3b6d9596a","session_id":"619be31e137b8894ccdfb286","condition":"contingent","relevant_dimensions":["wings","pattern"],"bee_group":{"antennae":"X","wings":"2","pattern":"D","legs":"X"},"action":"avoid","summary":"bad-avoid","bonus":0.840000000000001},{"rt":621.5999999940395,"stimulus":"\n                    <p><b>Action: <em>avoid</em></b></p>\n                    <p>This is the bee that you just saw.</p>\n                    <img src=\"bees-with-color/bee-A1DM.svg\" width=\"200\">\n                    <p><br>Your bonus pay is unchanged, and remains at $0.50.</p>\n            ","response":0,"trial_type":"html-button-response","trial_index":104,"time_elapsed":331892,"internal_node_id":"0.0-4.0-1.48","subject_id":"614e50084109bcceada6945c","study_id":"6197b3f67c2b5cd3b6d9596a","session_id":"619be31e137b8894ccdfb286","condition":"contingent","relevant_dimensions":["wings","pattern"],"bee_group":{"antennae":"X","wings":"2","pattern":"D","legs":"X"},"bonus":0.840000000000001},{"rt":976.7000000029802,"stimulus":"bees-with-color/bee-A2DM.svg","response":1,"trial_type":"image-button-response","trial_index":105,"time_elapsed":332873,"internal_node_id":"0.0-4.0-0.49","subject_id":"614e50084109bcceada6945c","study_id":"6197b3f67c2b5cd3b6d9596a","session_id":"619be31e137b8894ccdfb286","condition":"contingent","relevant_dimensions":["wings","pattern"],"bee_group":{"antennae":"X","wings":"2","pattern":"D","legs":"X"},"action":"avoid","summary":"good-avoid","bonus":0.840000000000001},{"rt":582.8999999910593,"stimulus":"\n                    <p><b>Action: <em>avoid</em></b></p>\n                    <p>This is the bee that you just saw.</p>\n                    <img src=\"bees-with-color/bee-A2DM.svg\" width=\"200\">\n                    <p><br>Your bonus pay is unchanged, and remains at $0.50.</p>\n            ","response":0,"trial_type":"html-button-response","trial_index":106,"time_elapsed":333460,"internal_node_id":"0.0-4.0-1.49","subject_id":"614e50084109bcceada6945c","study_id":"6197b3f67c2b5cd3b6d9596a","session_id":"619be31e137b8894ccdfb286","condition":"contingent","relevant_dimensions":["wings","pattern"],"bee_group":{"antennae":"X","wings":"2","pattern":"D","legs":"X"},"bonus":0.840000000000001},{"rt":887.1000000089407,"stimulus":"bees-with-color/bee-B1SF.svg","response":0,"trial_type":"image-button-response","trial_index":107,"time_elapsed":334349,"internal_node_id":"0.0-4.0-0.50","subject_id":"614e50084109bcceada6945c","study_id":"6197b3f67c2b5cd3b6d9596a","session_id":"619be31e137b8894ccdfb286","condition":"contingent","relevant_dimensions":["wings","pattern"],"bee_group":{"antennae":"X","wings":"2","pattern":"D","legs":"X"},"action":"harvest","summary":"good-harvest","bonus":0.840000000000001},{"rt":790.2999999970198,"stimulus":"\n                    <p><b>Action: <em>harvest</em></b></p>\n                    <p>This is the bee that you just saw.</p>\n                    <img src=\"bees-with-color/bee-B1SF.svg\" width=\"200\">\n                    <p><span class=\"greenText\"><b>Successful harvest!</b></span><br>Your pay has increased by $0.02. Your bonus pay is now $0.52.</p>\n            ","response":0,"trial_type":"html-button-response","trial_index":108,"time_elapsed":335141,"internal_node_id":"0.0-4.0-1.50","subject_id":"614e50084109bcceada6945c","study_id":"6197b3f67c2b5cd3b6d9596a","session_id":"619be31e137b8894ccdfb286","condition":"contingent","relevant_dimensions":["wings","pattern"],"bee_group":{"antennae":"X","wings":"2","pattern":"D","legs":"X"},"bonus":0.840000000000001},{"rt":1132.8999999910593,"stimulus":"bees-with-color/bee-A1SF.svg","response":0,"trial_type":"image-button-response","trial_index":109,"time_elapsed":336277,"internal_node_id":"0.0-4.0-0.51","subject_id":"614e50084109bcceada6945c","study_id":"6197b3f67c2b5cd3b6d9596a","session_id":"619be31e137b8894ccdfb286","condition":"contingent","relevant_dimensions":["wings","pattern"],"bee_group":{"antennae":"X","wings":"2","pattern":"D","legs":"X"},"action":"harvest","summary":"good-harvest","bonus":0.840000000000001},{"rt":754.7999999970198,"stimulus":"\n                    <p><b>Action: <em>harvest</em></b></p>\n                    <p>This is the bee that you just saw.</p>\n                    <img src=\"bees-with-color/bee-A1SF.svg\" width=\"200\">\n                    <p><span class=\"greenText\"><b>Successful harvest!</b></span><br>Your pay has increased by $0.02. Your bonus pay is now $0.54.</p>\n            ","response":0,"trial_type":"html-button-response","trial_index":110,"time_elapsed":337033,"internal_node_id":"0.0-4.0-1.51","subject_id":"614e50084109bcceada6945c","study_id":"6197b3f67c2b5cd3b6d9596a","session_id":"619be31e137b8894ccdfb286","condition":"contingent","relevant_dimensions":["wings","pattern"],"bee_group":{"antennae":"X","wings":"2","pattern":"D","legs":"X"},"bonus":0.840000000000001},{"rt":974,"stimulus":"bees-with-color/bee-B2DF.svg","response":1,"trial_type":"image-button-response","trial_index":111,"time_elapsed":338011,"internal_node_id":"0.0-4.0-0.52","subject_id":"614e50084109bcceada6945c","study_id":"6197b3f67c2b5cd3b6d9596a","session_id":"619be31e137b8894ccdfb286","condition":"contingent","relevant_dimensions":["wings","pattern"],"bee_group":{"antennae":"X","wings":"2","pattern":"D","legs":"X"},"action":"avoid","summary":"good-avoid","bonus":0.840000000000001},{"rt":750.7000000029802,"stimulus":"\n                    <p><b>Action: <em>avoid</em></b></p>\n                    <p>This is the bee that you just saw.</p>\n                    <img src=\"bees-with-color/bee-B2DF.svg\" width=\"200\">\n                    <p><br>Your bonus pay is unchanged, and remains at $0.54.</p>\n            ","response":0,"trial_type":"html-button-response","trial_index":112,"time_elapsed":338765,"internal_node_id":"0.0-4.0-1.52","subject_id":"614e50084109bcceada6945c","study_id":"6197b3f67c2b5cd3b6d9596a","session_id":"619be31e137b8894ccdfb286","condition":"contingent","relevant_dimensions":["wings","pattern"],"bee_group":{"antennae":"X","wings":"2","pattern":"D","legs":"X"},"bonus":0.840000000000001},{"rt":1169.8999999910593,"stimulus":"bees-with-color/bee-B1DF.svg","response":1,"trial_type":"image-button-response","trial_index":113,"time_elapsed":339939,"internal_node_id":"0.0-4.0-0.53","subject_id":"614e50084109bcceada6945c","study_id":"6197b3f67c2b5cd3b6d9596a","session_id":"619be31e137b8894ccdfb286","condition":"contingent","relevant_dimensions":["wings","pattern"],"bee_group":{"antennae":"X","wings":"2","pattern":"D","legs":"X"},"action":"avoid","summary":"bad-avoid","bonus":0.840000000000001},{"rt":876.4000000059605,"stimulus":"\n                    <p><b>Action: <em>avoid</em></b></p>\n                    <p>This is the bee that you just saw.</p>\n                    <img src=\"bees-with-color/bee-B1DF.svg\" width=\"200\">\n                    <p><br>Your bonus pay is unchanged, and remains at $0.54.</p>\n            ","response":0,"trial_type":"html-button-response","trial_index":114,"time_elapsed":340820,"internal_node_id":"0.0-4.0-1.53","subject_id":"614e50084109bcceada6945c","study_id":"6197b3f67c2b5cd3b6d9596a","session_id":"619be31e137b8894ccdfb286","condition":"contingent","relevant_dimensions":["wings","pattern"],"bee_group":{"antennae":"X","wings":"2","pattern":"D","legs":"X"},"bonus":0.840000000000001},{"rt":2944.7000000029802,"stimulus":"bees-with-color/bee-B1SM.svg","response":0,"trial_type":"image-button-response","trial_index":115,"time_elapsed":343768,"internal_node_id":"0.0-4.0-0.54","subject_id":"614e50084109bcceada6945c","study_id":"6197b3f67c2b5cd3b6d9596a","session_id":"619be31e137b8894ccdfb286","condition":"contingent","relevant_dimensions":["wings","pattern"],"bee_group":{"antennae":"X","wings":"2","pattern":"D","legs":"X"},"action":"harvest","summary":"good-harvest","bonus":0.840000000000001},{"rt":1028.2999999970198,"stimulus":"\n                    <p><b>Action: <em>harvest</em></b></p>\n                    <p>This is the bee that you just saw.</p>\n                    <img src=\"bees-with-color/bee-B1SM.svg\" width=\"200\">\n                    <p><span class=\"greenText\"><b>Successful harvest!</b></span><br>Your pay has increased by $0.02. Your bonus pay is now $0.56.</p>\n            ","response":0,"trial_type":"html-button-response","trial_index":116,"time_elapsed":344800,"internal_node_id":"0.0-4.0-1.54","subject_id":"614e50084109bcceada6945c","study_id":"6197b3f67c2b5cd3b6d9596a","session_id":"619be31e137b8894ccdfb286","condition":"contingent","relevant_dimensions":["wings","pattern"],"bee_group":{"antennae":"X","wings":"2","pattern":"D","legs":"X"},"bonus":0.840000000000001},{"rt":1300.7999999970198,"stimulus":"bees-with-color/bee-A1SM.svg","response":0,"trial_type":"image-button-response","trial_index":117,"time_elapsed":346105,"internal_node_id":"0.0-4.0-0.55","subject_id":"614e50084109bcceada6945c","study_id":"6197b3f67c2b5cd3b6d9596a","session_id":"619be31e137b8894ccdfb286","condition":"contingent","relevant_dimensions":["wings","pattern"],"bee_group":{"antennae":"X","wings":"2","pattern":"D","legs":"X"},"action":"harvest","summary":"good-harvest","bonus":0.840000000000001},{"rt":683.9000000059605,"stimulus":"\n                    <p><b>Action: <em>harvest</em></b></p>\n                    <p>This is the bee that you just saw.</p>\n                    <img src=\"bees-with-color/bee-A1SM.svg\" width=\"200\">\n                    <p><span class=\"greenText\"><b>Successful harvest!</b></span><br>Your pay has increased by $0.02. Your bonus pay is now $0.58.</p>\n            ","response":0,"trial_type":"html-button-response","trial_index":118,"time_elapsed":346793,"internal_node_id":"0.0-4.0-1.55","subject_id":"614e50084109bcceada6945c","study_id":"6197b3f67c2b5cd3b6d9596a","session_id":"619be31e137b8894ccdfb286","condition":"contingent","relevant_dimensions":["wings","pattern"],"bee_group":{"antennae":"X","wings":"2","pattern":"D","legs":"X"},"bonus":0.840000000000001},{"rt":2610.0999999940395,"stimulus":"bees-with-color/bee-B2DM.svg","response":0,"trial_type":"image-button-response","trial_index":119,"time_elapsed":349407,"internal_node_id":"0.0-4.0-0.56","subject_id":"614e50084109bcceada6945c","study_id":"6197b3f67c2b5cd3b6d9596a","session_id":"619be31e137b8894ccdfb286","condition":"contingent","relevant_dimensions":["wings","pattern"],"bee_group":{"antennae":"X","wings":"2","pattern":"D","legs":"X"},"action":"harvest","summary":"bad-harvest","bonus":0.840000000000001},{"rt":2526.1000000089407,"stimulus":"\n                    <p><b>Action: <em>harvest</em></b></p>\n                    <p>This is the bee that you just saw.</p>\n                    <img src=\"bees-with-color/bee-B2DM.svg\" width=\"200\">\n                    <p><span class=\"redText\">Bad choice, the bee was angry.</span><br><b>You have been stung!</b><br>Your pay has been decreased by $0.10. Your bonus pay is now $0.48.</p>\n            ","response":0,"trial_type":"html-button-response","trial_index":120,"time_elapsed":351937,"internal_node_id":"0.0-4.0-1.56","subject_id":"614e50084109bcceada6945c","study_id":"6197b3f67c2b5cd3b6d9596a","session_id":"619be31e137b8894ccdfb286","condition":"contingent","relevant_dimensions":["wings","pattern"],"bee_group":{"antennae":"X","wings":"2","pattern":"D","legs":"X"},"bonus":0.840000000000001},{"rt":1903.7000000029802,"stimulus":"bees-with-color/bee-B2SM.svg","response":0,"trial_type":"image-button-response","trial_index":121,"time_elapsed":353845,"internal_node_id":"0.0-4.0-0.57","subject_id":"614e50084109bcceada6945c","study_id":"6197b3f67c2b5cd3b6d9596a","session_id":"619be31e137b8894ccdfb286","condition":"contingent","relevant_dimensions":["wings","pattern"],"bee_group":{"antennae":"X","wings":"2","pattern":"D","legs":"X"},"action":"harvest","summary":"good-harvest","bonus":0.840000000000001},{"rt":872.3000000119209,"stimulus":"\n                    <p><b>Action: <em>harvest</em></b></p>\n                    <p>This is the bee that you just saw.</p>\n                    <img src=\"bees-with-color/bee-B2SM.svg\" width=\"200\">\n                    <p><span class=\"greenText\"><b>Successful harvest!</b></span><br>Your pay has increased by $0.02. Your bonus pay is now $0.50.</p>\n            ","response":0,"trial_type":"html-button-response","trial_index":122,"time_elapsed":354722,"internal_node_id":"0.0-4.0-1.57","subject_id":"614e50084109bcceada6945c","study_id":"6197b3f67c2b5cd3b6d9596a","session_id":"619be31e137b8894ccdfb286","condition":"contingent","relevant_dimensions":["wings","pattern"],"bee_group":{"antennae":"X","wings":"2","pattern":"D","legs":"X"},"bonus":0.840000000000001},{"rt":1286.2999999970198,"stimulus":"bees-with-color/bee-A1DF.svg","response":1,"trial_type":"image-button-response","trial_index":123,"time_elapsed":356012,"internal_node_id":"0.0-4.0-0.58","subject_id":"614e50084109bcceada6945c","study_id":"6197b3f67c2b5cd3b6d9596a","session_id":"619be31e137b8894ccdfb286","condition":"contingent","relevant_dimensions":["wings","pattern"],"bee_group":{"antennae":"X","wings":"2","pattern":"D","legs":"X"},"action":"avoid","summary":"bad-avoid","bonus":0.840000000000001},{"rt":952.7000000029802,"stimulus":"\n                    <p><b>Action: <em>avoid</em></b></p>\n                    <p>This is the bee that you just saw.</p>\n                    <img src=\"bees-with-color/bee-A1DF.svg\" width=\"200\">\n                    <p><br>Your bonus pay is unchanged, and remains at $0.50.</p>\n            ","response":0,"trial_type":"html-button-response","trial_index":124,"time_elapsed":356969,"internal_node_id":"0.0-4.0-1.58","subject_id":"614e50084109bcceada6945c","study_id":"6197b3f67c2b5cd3b6d9596a","session_id":"619be31e137b8894ccdfb286","condition":"contingent","relevant_dimensions":["wings","pattern"],"bee_group":{"antennae":"X","wings":"2","pattern":"D","legs":"X"},"bonus":0.840000000000001},{"rt":1232.7000000029802,"stimulus":"bees-with-color/bee-B2SF.svg","response":0,"trial_type":"image-button-response","trial_index":125,"time_elapsed":358206,"internal_node_id":"0.0-4.0-0.59","subject_id":"614e50084109bcceada6945c","study_id":"6197b3f67c2b5cd3b6d9596a","session_id":"619be31e137b8894ccdfb286","condition":"contingent","relevant_dimensions":["wings","pattern"],"bee_group":{"antennae":"X","wings":"2","pattern":"D","legs":"X"},"action":"harvest","summary":"good-harvest","bonus":0.840000000000001},{"rt":723.7000000029802,"stimulus":"\n                    <p><b>Action: <em>harvest</em></b></p>\n                    <p>This is the bee that you just saw.</p>\n                    <img src=\"bees-with-color/bee-B2SF.svg\" width=\"200\">\n                    <p><span class=\"greenText\"><b>Successful harvest!</b></span><br>Your pay has increased by $0.02. Your bonus pay is now $0.52.</p>\n            ","response":0,"trial_type":"html-button-response","trial_index":126,"time_elapsed":358934,"internal_node_id":"0.0-4.0-1.59","subject_id":"614e50084109bcceada6945c","study_id":"6197b3f67c2b5cd3b6d9596a","session_id":"619be31e137b8894ccdfb286","condition":"contingent","relevant_dimensions":["wings","pattern"],"bee_group":{"antennae":"X","wings":"2","pattern":"D","legs":"X"},"bonus":0.840000000000001},{"rt":1033.7000000029802,"stimulus":"bees-with-color/bee-A2DF.svg","response":1,"trial_type":"image-button-response","trial_index":127,"time_elapsed":359972,"internal_node_id":"0.0-4.0-0.60","subject_id":"614e50084109bcceada6945c","study_id":"6197b3f67c2b5cd3b6d9596a","session_id":"619be31e137b8894ccdfb286","condition":"contingent","relevant_dimensions":["wings","pattern"],"bee_group":{"antennae":"X","wings":"2","pattern":"D","legs":"X"},"action":"avoid","summary":"good-avoid","bonus":0.840000000000001},{"rt":679.5,"stimulus":"\n                    <p><b>Action: <em>avoid</em></b></p>\n                    <p>This is the bee that you just saw.</p>\n                    <img src=\"bees-with-color/bee-A2DF.svg\" width=\"200\">\n                    <p><br>Your bonus pay is unchanged, and remains at $0.52.</p>\n            ","response":0,"trial_type":"html-button-response","trial_index":128,"time_elapsed":360656,"internal_node_id":"0.0-4.0-1.60","subject_id":"614e50084109bcceada6945c","study_id":"6197b3f67c2b5cd3b6d9596a","session_id":"619be31e137b8894ccdfb286","condition":"contingent","relevant_dimensions":["wings","pattern"],"bee_group":{"antennae":"X","wings":"2","pattern":"D","legs":"X"},"bonus":0.840000000000001},{"rt":822.5,"stimulus":"bees-with-color/bee-A2SM.svg","response":0,"trial_type":"image-button-response","trial_index":129,"time_elapsed":361483,"internal_node_id":"0.0-4.0-0.61","subject_id":"614e50084109bcceada6945c","study_id":"6197b3f67c2b5cd3b6d9596a","session_id":"619be31e137b8894ccdfb286","condition":"contingent","relevant_dimensions":["wings","pattern"],"bee_group":{"antennae":"X","wings":"2","pattern":"D","legs":"X"},"action":"harvest","summary":"good-harvest","bonus":0.840000000000001},{"rt":663,"stimulus":"\n                    <p><b>Action: <em>harvest</em></b></p>\n                    <p>This is the bee that you just saw.</p>\n                    <img src=\"bees-with-color/bee-A2SM.svg\" width=\"200\">\n                    <p><span class=\"greenText\"><b>Successful harvest!</b></span><br>Your pay has increased by $0.02. Your bonus pay is now $0.54.</p>\n            ","response":0,"trial_type":"html-button-response","trial_index":130,"time_elapsed":362150,"internal_node_id":"0.0-4.0-1.61","subject_id":"614e50084109bcceada6945c","study_id":"6197b3f67c2b5cd3b6d9596a","session_id":"619be31e137b8894ccdfb286","condition":"contingent","relevant_dimensions":["wings","pattern"],"bee_group":{"antennae":"X","wings":"2","pattern":"D","legs":"X"},"bonus":0.840000000000001},{"rt":1220.5,"stimulus":"bees-with-color/bee-A2SF.svg","response":0,"trial_type":"image-button-response","trial_index":131,"time_elapsed":363374,"internal_node_id":"0.0-4.0-0.62","subject_id":"614e50084109bcceada6945c","study_id":"6197b3f67c2b5cd3b6d9596a","session_id":"619be31e137b8894ccdfb286","condition":"contingent","relevant_dimensions":["wings","pattern"],"bee_group":{"antennae":"X","wings":"2","pattern":"D","legs":"X"},"action":"harvest","summary":"good-harvest","bonus":0.840000000000001},{"rt":713.4000000059605,"stimulus":"\n                    <p><b>Action: <em>harvest</em></b></p>\n                    <p>This is the bee that you just saw.</p>\n                    <img src=\"bees-with-color/bee-A2SF.svg\" width=\"200\">\n                    <p><span class=\"greenText\"><b>Successful harvest!</b></span><br>Your pay has increased by $0.02. Your bonus pay is now $0.56.</p>\n            ","response":0,"trial_type":"html-button-response","trial_index":132,"time_elapsed":364092,"internal_node_id":"0.0-4.0-1.62","subject_id":"614e50084109bcceada6945c","study_id":"6197b3f67c2b5cd3b6d9596a","session_id":"619be31e137b8894ccdfb286","condition":"contingent","relevant_dimensions":["wings","pattern"],"bee_group":{"antennae":"X","wings":"2","pattern":"D","legs":"X"},"bonus":0.840000000000001},{"rt":1048.1000000089407,"stimulus":"bees-with-color/bee-B1DM.svg","response":1,"trial_type":"image-button-response","trial_index":133,"time_elapsed":365144,"internal_node_id":"0.0-4.0-0.63","subject_id":"614e50084109bcceada6945c","study_id":"6197b3f67c2b5cd3b6d9596a","session_id":"619be31e137b8894ccdfb286","condition":"contingent","relevant_dimensions":["wings","pattern"],"bee_group":{"antennae":"X","wings":"2","pattern":"D","legs":"X"},"action":"avoid","summary":"bad-avoid","bonus":0.840000000000001},{"rt":661.1999999880791,"stimulus":"\n                    <p><b>Action: <em>avoid</em></b></p>\n                    <p>This is the bee that you just saw.</p>\n                    <img src=\"bees-with-color/bee-B1DM.svg\" width=\"200\">\n                    <p><br>Your bonus pay is unchanged, and remains at $0.56.</p>\n            ","response":0,"trial_type":"html-button-response","trial_index":134,"time_elapsed":365810,"internal_node_id":"0.0-4.0-1.63","subject_id":"614e50084109bcceada6945c","study_id":"6197b3f67c2b5cd3b6d9596a","session_id":"619be31e137b8894ccdfb286","condition":"contingent","relevant_dimensions":["wings","pattern"],"bee_group":{"antennae":"X","wings":"2","pattern":"D","legs":"X"},"bonus":0.840000000000001},{"rt":4280.800000011921,"stimulus":"You have completed the first part of this experiment.<br><br>You will now begin a shorter second part, in which you will receive no feedback.<br>The same rules regarding bonus pay apply.<br><br>Press any key to begin.","response":"g","trial_type":"html-keyboard-response","trial_index":135,"time_elapsed":370095,"internal_node_id":"0.0-5.0","subject_id":"614e50084109bcceada6945c","study_id":"6197b3f67c2b5cd3b6d9596a","session_id":"619be31e137b8894ccdfb286","condition":"contingent","relevant_dimensions":["wings","pattern"],"bee_group":{"antennae":"X","wings":"2","pattern":"D","legs":"X"},"bonus":0.840000000000001},{"rt":4489.70000000298,"stimulus":"bees-with-color/bee-A2SF.svg","response":0,"trial_type":"image-button-response","trial_index":136,"time_elapsed":374595,"internal_node_id":"0.0-6.0-0.0","subject_id":"614e50084109bcceada6945c","study_id":"6197b3f67c2b5cd3b6d9596a","session_id":"619be31e137b8894ccdfb286","condition":"contingent","relevant_dimensions":["wings","pattern"],"bee_group":{"antennae":"X","wings":"2","pattern":"D","legs":"X"},"bonus":0.840000000000001},{"rt":3251.7000000029802,"stimulus":"bees-with-color/bee-B1SM.svg","response":1,"trial_type":"image-button-response","trial_index":137,"time_elapsed":377852,"internal_node_id":"0.0-6.0-0.1","subject_id":"614e50084109bcceada6945c","study_id":"6197b3f67c2b5cd3b6d9596a","session_id":"619be31e137b8894ccdfb286","condition":"contingent","relevant_dimensions":["wings","pattern"],"bee_group":{"antennae":"X","wings":"2","pattern":"D","legs":"X"},"bonus":0.840000000000001},{"rt":1589.0999999940395,"stimulus":"bees-with-color/bee-B2SF.svg","response":0,"trial_type":"image-button-response","trial_index":138,"time_elapsed":379446,"internal_node_id":"0.0-6.0-0.2","subject_id":"614e50084109bcceada6945c","study_id":"6197b3f67c2b5cd3b6d9596a","session_id":"619be31e137b8894ccdfb286","condition":"contingent","relevant_dimensions":["wings","pattern"],"bee_group":{"antennae":"X","wings":"2","pattern":"D","legs":"X"},"bonus":0.840000000000001},{"rt":991.6000000089407,"stimulus":"bees-with-color/bee-A1DM.svg","response":1,"trial_type":"image-button-response","trial_index":139,"time_elapsed":380442,"internal_node_id":"0.0-6.0-0.3","subject_id":"614e50084109bcceada6945c","study_id":"6197b3f67c2b5cd3b6d9596a","session_id":"619be31e137b8894ccdfb286","condition":"contingent","relevant_dimensions":["wings","pattern"],"bee_group":{"antennae":"X","wings":"2","pattern":"D","legs":"X"},"bonus":0.840000000000001},{"rt":707.9000000059605,"stimulus":"bees-with-color/bee-A1DF.svg","response":1,"trial_type":"image-button-response","trial_index":140,"time_elapsed":381152,"internal_node_id":"0.0-6.0-0.4","subject_id":"614e50084109bcceada6945c","study_id":"6197b3f67c2b5cd3b6d9596a","session_id":"619be31e137b8894ccdfb286","condition":"contingent","relevant_dimensions":["wings","pattern"],"bee_group":{"antennae":"X","wings":"2","pattern":"D","legs":"X"},"bonus":0.840000000000001},{"rt":706.4000000059605,"stimulus":"bees-with-color/bee-A2DF.svg","response":1,"trial_type":"image-button-response","trial_index":141,"time_elapsed":381863,"internal_node_id":"0.0-6.0-0.5","subject_id":"614e50084109bcceada6945c","study_id":"6197b3f67c2b5cd3b6d9596a","session_id":"619be31e137b8894ccdfb286","condition":"contingent","relevant_dimensions":["wings","pattern"],"bee_group":{"antennae":"X","wings":"2","pattern":"D","legs":"X"},"bonus":0.840000000000001},{"rt":971.5,"stimulus":"bees-with-color/bee-A2SM.svg","response":0,"trial_type":"image-button-response","trial_index":142,"time_elapsed":382840,"internal_node_id":"0.0-6.0-0.6","subject_id":"614e50084109bcceada6945c","study_id":"6197b3f67c2b5cd3b6d9596a","session_id":"619be31e137b8894ccdfb286","condition":"contingent","relevant_dimensions":["wings","pattern"],"bee_group":{"antennae":"X","wings":"2","pattern":"D","legs":"X"},"bonus":0.840000000000001},{"rt":796.9000000059605,"stimulus":"bees-with-color/bee-A2DM.svg","response":1,"trial_type":"image-button-response","trial_index":143,"time_elapsed":383641,"internal_node_id":"0.0-6.0-0.7","subject_id":"614e50084109bcceada6945c","study_id":"6197b3f67c2b5cd3b6d9596a","session_id":"619be31e137b8894ccdfb286","condition":"contingent","relevant_dimensions":["wings","pattern"],"bee_group":{"antennae":"X","wings":"2","pattern":"D","legs":"X"},"bonus":0.840000000000001},{"rt":2131.7999999970198,"stimulus":"bees-with-color/bee-B1SF.svg","response":1,"trial_type":"image-button-response","trial_index":144,"time_elapsed":385777,"internal_node_id":"0.0-6.0-0.8","subject_id":"614e50084109bcceada6945c","study_id":"6197b3f67c2b5cd3b6d9596a","session_id":"619be31e137b8894ccdfb286","condition":"contingent","relevant_dimensions":["wings","pattern"],"bee_group":{"antennae":"X","wings":"2","pattern":"D","legs":"X"},"bonus":0.840000000000001},{"rt":1077.7000000029802,"stimulus":"bees-with-color/bee-B1DF.svg","response":1,"trial_type":"image-button-response","trial_index":145,"time_elapsed":386860,"internal_node_id":"0.0-6.0-0.9","subject_id":"614e50084109bcceada6945c","study_id":"6197b3f67c2b5cd3b6d9596a","session_id":"619be31e137b8894ccdfb286","condition":"contingent","relevant_dimensions":["wings","pattern"],"bee_group":{"antennae":"X","wings":"2","pattern":"D","legs":"X"},"bonus":0.840000000000001},{"rt":1664.6000000089407,"stimulus":"bees-with-color/bee-B2DF.svg","response":1,"trial_type":"image-button-response","trial_index":146,"time_elapsed":388530,"internal_node_id":"0.0-6.0-0.10","subject_id":"614e50084109bcceada6945c","study_id":"6197b3f67c2b5cd3b6d9596a","session_id":"619be31e137b8894ccdfb286","condition":"contingent","relevant_dimensions":["wings","pattern"],"bee_group":{"antennae":"X","wings":"2","pattern":"D","legs":"X"},"bonus":0.840000000000001},{"rt":1436.7999999970198,"stimulus":"bees-with-color/bee-B1DM.svg","response":1,"trial_type":"image-button-response","trial_index":147,"time_elapsed":389970,"internal_node_id":"0.0-6.0-0.11","subject_id":"614e50084109bcceada6945c","study_id":"6197b3f67c2b5cd3b6d9596a","session_id":"619be31e137b8894ccdfb286","condition":"contingent","relevant_dimensions":["wings","pattern"],"bee_group":{"antennae":"X","wings":"2","pattern":"D","legs":"X"},"bonus":0.840000000000001},{"rt":1064.4000000059605,"stimulus":"bees-with-color/bee-B2DM.svg","response":1,"trial_type":"image-button-response","trial_index":148,"time_elapsed":391040,"internal_node_id":"0.0-6.0-0.12","subject_id":"614e50084109bcceada6945c","study_id":"6197b3f67c2b5cd3b6d9596a","session_id":"619be31e137b8894ccdfb286","condition":"contingent","relevant_dimensions":["wings","pattern"],"bee_group":{"antennae":"X","wings":"2","pattern":"D","legs":"X"},"bonus":0.840000000000001},{"rt":944.7999999970198,"stimulus":"bees-with-color/bee-B2SM.svg","response":0,"trial_type":"image-button-response","trial_index":149,"time_elapsed":391990,"internal_node_id":"0.0-6.0-0.13","subject_id":"614e50084109bcceada6945c","study_id":"6197b3f67c2b5cd3b6d9596a","session_id":"619be31e137b8894ccdfb286","condition":"contingent","relevant_dimensions":["wings","pattern"],"bee_group":{"antennae":"X","wings":"2","pattern":"D","legs":"X"},"bonus":0.840000000000001},{"rt":1152.2999999970198,"stimulus":"bees-with-color/bee-A1SM.svg","response":0,"trial_type":"image-button-response","trial_index":150,"time_elapsed":393147,"internal_node_id":"0.0-6.0-0.14","subject_id":"614e50084109bcceada6945c","study_id":"6197b3f67c2b5cd3b6d9596a","session_id":"619be31e137b8894ccdfb286","condition":"contingent","relevant_dimensions":["wings","pattern"],"bee_group":{"antennae":"X","wings":"2","pattern":"D","legs":"X"},"bonus":0.840000000000001},{"rt":1471.2000000029802,"stimulus":"bees-with-color/bee-A1SF.svg","response":0,"trial_type":"image-button-response","trial_index":151,"time_elapsed":394622,"internal_node_id":"0.0-6.0-0.15","subject_id":"614e50084109bcceada6945c","study_id":"6197b3f67c2b5cd3b6d9596a","session_id":"619be31e137b8894ccdfb286","condition":"contingent","relevant_dimensions":["wings","pattern"],"bee_group":{"antennae":"X","wings":"2","pattern":"D","legs":"X"},"bonus":0.840000000000001},{"rt":863,"stimulus":"bees-with-color/bee-A2SF.svg","response":0,"trial_type":"image-button-response","trial_index":152,"time_elapsed":395490,"internal_node_id":"0.0-6.0-0.16","subject_id":"614e50084109bcceada6945c","study_id":"6197b3f67c2b5cd3b6d9596a","session_id":"619be31e137b8894ccdfb286","condition":"contingent","relevant_dimensions":["wings","pattern"],"bee_group":{"antennae":"X","wings":"2","pattern":"D","legs":"X"},"bonus":0.840000000000001},{"rt":1137.300000011921,"stimulus":"bees-with-color/bee-A1DM.svg","response":1,"trial_type":"image-button-response","trial_index":153,"time_elapsed":396633,"internal_node_id":"0.0-6.0-0.17","subject_id":"614e50084109bcceada6945c","study_id":"6197b3f67c2b5cd3b6d9596a","session_id":"619be31e137b8894ccdfb286","condition":"contingent","relevant_dimensions":["wings","pattern"],"bee_group":{"antennae":"X","wings":"2","pattern":"D","legs":"X"},"bonus":0.840000000000001},{"rt":811.5999999940395,"stimulus":"bees-with-color/bee-A1SF.svg","response":0,"trial_type":"image-button-response","trial_index":154,"time_elapsed":397449,"internal_node_id":"0.0-6.0-0.18","subject_id":"614e50084109bcceada6945c","study_id":"6197b3f67c2b5cd3b6d9596a","session_id":"619be31e137b8894ccdfb286","condition":"contingent","relevant_dimensions":["wings","pattern"],"bee_group":{"antennae":"X","wings":"2","pattern":"D","legs":"X"},"bonus":0.840000000000001},{"rt":1206.7000000029802,"stimulus":"bees-with-color/bee-A2SM.svg","response":0,"trial_type":"image-button-response","trial_index":155,"time_elapsed":398660,"internal_node_id":"0.0-6.0-0.19","subject_id":"614e50084109bcceada6945c","study_id":"6197b3f67c2b5cd3b6d9596a","session_id":"619be31e137b8894ccdfb286","condition":"contingent","relevant_dimensions":["wings","pattern"],"bee_group":{"antennae":"X","wings":"2","pattern":"D","legs":"X"},"bonus":0.840000000000001},{"rt":1399.2000000029802,"stimulus":"bees-with-color/bee-B1SM.svg","response":0,"trial_type":"image-button-response","trial_index":156,"time_elapsed":400063,"internal_node_id":"0.0-6.0-0.20","subject_id":"614e50084109bcceada6945c","study_id":"6197b3f67c2b5cd3b6d9596a","session_id":"619be31e137b8894ccdfb286","condition":"contingent","relevant_dimensions":["wings","pattern"],"bee_group":{"antennae":"X","wings":"2","pattern":"D","legs":"X"},"bonus":0.840000000000001},{"rt":840,"stimulus":"bees-with-color/bee-A2DM.svg","response":1,"trial_type":"image-button-response","trial_index":157,"time_elapsed":400908,"internal_node_id":"0.0-6.0-0.21","subject_id":"614e50084109bcceada6945c","study_id":"6197b3f67c2b5cd3b6d9596a","session_id":"619be31e137b8894ccdfb286","condition":"contingent","relevant_dimensions":["wings","pattern"],"bee_group":{"antennae":"X","wings":"2","pattern":"D","legs":"X"},"bonus":0.840000000000001},{"rt":867.6000000089407,"stimulus":"bees-with-color/bee-B2SM.svg","response":0,"trial_type":"image-button-response","trial_index":158,"time_elapsed":401780,"internal_node_id":"0.0-6.0-0.22","subject_id":"614e50084109bcceada6945c","study_id":"6197b3f67c2b5cd3b6d9596a","session_id":"619be31e137b8894ccdfb286","condition":"contingent","relevant_dimensions":["wings","pattern"],"bee_group":{"antennae":"X","wings":"2","pattern":"D","legs":"X"},"bonus":0.840000000000001},{"rt":814.2000000029802,"stimulus":"bees-with-color/bee-A2DF.svg","response":1,"trial_type":"image-button-response","trial_index":159,"time_elapsed":402599,"internal_node_id":"0.0-6.0-0.23","subject_id":"614e50084109bcceada6945c","study_id":"6197b3f67c2b5cd3b6d9596a","session_id":"619be31e137b8894ccdfb286","condition":"contingent","relevant_dimensions":["wings","pattern"],"bee_group":{"antennae":"X","wings":"2","pattern":"D","legs":"X"},"bonus":0.840000000000001},{"rt":1186.7000000029802,"stimulus":"bees-with-color/bee-B1SF.svg","response":0,"trial_type":"image-button-response","trial_index":160,"time_elapsed":403790,"internal_node_id":"0.0-6.0-0.24","subject_id":"614e50084109bcceada6945c","study_id":"6197b3f67c2b5cd3b6d9596a","session_id":"619be31e137b8894ccdfb286","condition":"contingent","relevant_dimensions":["wings","pattern"],"bee_group":{"antennae":"X","wings":"2","pattern":"D","legs":"X"},"bonus":0.840000000000001},{"rt":934.5,"stimulus":"bees-with-color/bee-B1DF.svg","response":1,"trial_type":"image-button-response","trial_index":161,"time_elapsed":404728,"internal_node_id":"0.0-6.0-0.25","subject_id":"614e50084109bcceada6945c","study_id":"6197b3f67c2b5cd3b6d9596a","session_id":"619be31e137b8894ccdfb286","condition":"contingent","relevant_dimensions":["wings","pattern"],"bee_group":{"antennae":"X","wings":"2","pattern":"D","legs":"X"},"bonus":0.840000000000001},{"rt":769.7999999970198,"stimulus":"bees-with-color/bee-B1DM.svg","response":1,"trial_type":"image-button-response","trial_index":162,"time_elapsed":405503,"internal_node_id":"0.0-6.0-0.26","subject_id":"614e50084109bcceada6945c","study_id":"6197b3f67c2b5cd3b6d9596a","session_id":"619be31e137b8894ccdfb286","condition":"contingent","relevant_dimensions":["wings","pattern"],"bee_group":{"antennae":"X","wings":"2","pattern":"D","legs":"X"},"bonus":0.840000000000001},{"rt":894,"stimulus":"bees-with-color/bee-B2SF.svg","response":0,"trial_type":"image-button-response","trial_index":163,"time_elapsed":406400,"internal_node_id":"0.0-6.0-0.27","subject_id":"614e50084109bcceada6945c","study_id":"6197b3f67c2b5cd3b6d9596a","session_id":"619be31e137b8894ccdfb286","condition":"contingent","relevant_dimensions":["wings","pattern"],"bee_group":{"anten