[{"success":true,"trial_type":"fullscreen","trial_index":0,"time_elapsed":13766,"internal_node_id":"0.0-0.0","subject_id":"616a61f7ce03fb543086316f","study_id":"6197b3f67c2b5cd3b6d9596a","session_id":"6197b9e96f054380b61d078e","condition":"contingent","relevant_dimensions":["antennae","wings"],"bee_group":{"antennae":"A","wings":"1","pattern":"X","legs":"X"},"bonus":0.5000000000000003},{"success":true,"timeout":false,"failed_images":[],"failed_audio":[],"failed_video":[],"trial_type":"preload","trial_index":1,"time_elapsed":22086,"internal_node_id":"0.0-1.0","subject_id":"616a61f7ce03fb543086316f","study_id":"6197b3f67c2b5cd3b6d9596a","session_id":"6197b9e96f054380b61d078e","condition":"contingent","relevant_dimensions":["antennae","wings"],"bee_group":{"antennae":"A","wings":"1","pattern":"X","legs":"X"},"bonus":0.5000000000000003},{"rt":2869.7000000029802,"stimulus":"Welcome! Press any key to begin.","response":"f","trial_type":"html-keyboard-response","trial_index":2,"time_elapsed":24959,"internal_node_id":"0.0-2.0","subject_id":"616a61f7ce03fb543086316f","study_id":"6197b3f67c2b5cd3b6d9596a","session_id":"6197b9e96f054380b61d078e","condition":"contingent","relevant_dimensions":["antennae","wings"],"bee_group":{"antennae":"A","wings":"1","pattern":"X","legs":"X"},"bonus":0.5000000000000003},{"view_history":[{"page_index":0,"viewing_time":16526.60000000894},{"page_index":1,"viewing_time":54148.59999999404},{"page_index":2,"viewing_time":63701.79999999702},{"page_index":3,"viewing_time":36858},{"page_index":4,"viewing_time":17211.30000001192},{"page_index":5,"viewing_time":11995},{"page_index":6,"viewing_time":29672.89999999106},{"page_index":7,"viewing_time":52729},{"page_index":8,"viewing_time":72728.5},{"page_index":9,"viewing_time":46396.5},{"page_index":10,"viewing_time":7191.9000000059605},{"page_index":11,"viewing_time":38941.59999999404},{"page_index":12,"viewing_time":39045},{"page_index":13,"viewing_time":2114.5},{"page_index":14,"viewing_time":5220.100000008941}],"rt":494483.60000000894,"trial_type":"instructions","trial_index":3,"time_elapsed":519444,"internal_node_id":"0.0-3.0-0.0","subject_id":"616a61f7ce03fb543086316f","study_id":"6197b3f67c2b5cd3b6d9596a","session_id":"6197b9e96f054380b61d078e","condition":"contingent","relevant_dimensions":["antennae","wings"],"bee_group":{"antennae":"A","wings":"1","pattern":"X","legs":"X"},"bonus":0.5000000000000003},{"rt":63598.5,"response":{"Q0":["Two or six legs","Stripes or spots on body","Single or double wings"]},"question_order":[0],"trial_type":"survey-multi-select","trial_index":4,"time_elapsed":583089,"internal_node_id":"0.0-3.0-1.0","subject_id":"616a61f7ce03fb543086316f","study_id":"6197b3f67c2b5cd3b6d9596a","session_id":"6197b9e96f054380b61d078e","condition":"contingent","relevant_dimensions":["antennae","wings"],"bee_group":{"antennae":"A","wings":"1","pattern":"X","legs":"X"},"correct":false,"bonus":0.5000000000000003},{"rt":91788,"response":{"Q1":"No.","Q2":"Based on the four features of the bee.","Q3":"You do not learn if it was friendly or dangerous, and do not alter your bonus."},"question_order":[0,1,2],"trial_type":"survey-multi-choice","trial_index":5,"time_elapsed":674885,"internal_node_id":"0.0-3.0-2.0","subject_id":"616a61f7ce03fb543086316f","study_id":"6197b3f67c2b5cd3b6d9596a","session_id":"6197b9e96f054380b61d078e","condition":"contingent","relevant_dimensions":["antennae","wings"],"bee_group":{"antennae":"A","wings":"1","pattern":"X","legs":"X"},"correct":true,"bonus":0.5000000000000003},{"rt":7225.79999999702,"stimulus":"<p>You did not answer all comprehension questions correctly.<br>Press <b>continue</b> to review the instructions again.</p>","response":0,"trial_type":"html-button-response","trial_index":6,"time_elapsed":682119,"internal_node_id":"0.0-3.0-3.0","subject_id":"616a61f7ce03fb543086316f","study_id":"6197b3f67c2b5cd3b6d9596a","session_id":"6197b9e96f054380b61d078e","condition":"contingent","relevant_dimensions":["antennae","wings"],"bee_group":{"antennae":"A","wings":"1","pattern":"X","legs":"X"},"bonus":0.5000000000000003},{"view_history":[{"page_index":0,"viewing_time":7956.70000000298},{"page_index":1,"viewing_time":40312.59999999404},{"page_index":2,"viewing_time":14280.60000000894},{"page_index":3,"viewing_time":23714.19999998808},{"page_index":4,"viewing_time":49276.40000000596},{"page_index":5,"viewing_time":62763.5},{"page_index":6,"viewing_time":15942.70000000298},{"page_index":7,"viewing_time":1852},{"page_index":8,"viewing_time":1487.7999999970198},{"page_index":9,"viewing_time":821.7999999970198},{"page_index":10,"viewing_time":641.1000000089407},{"page_index":11,"viewing_time":19034.79999999702},{"page_index":10,"viewing_time":54408},{"page_index":11,"viewing_time":3482.3999999910593},{"page_index":12,"viewing_time":2661.4000000059605},{"page_index":13,"viewing_time":1276.5},{"page_index":14,"viewing_time":1148.5999999940395}],"rt":301063.5,"trial_type":"instructions","trial_index":7,"time_elapsed":983186,"internal_node_id":"0.0-3.0-4.0-0.0","subject_id":"616a61f7ce03fb543086316f","study_id":"6197b3f67c2b5cd3b6d9596a","session_id":"6197b9e96f054380b61d078e","condition":"contingent","relevant_dimensions":["antennae","wings"],"bee_group":{"antennae":"A","wings":"1","pattern":"X","legs":"X"},"bonus":0.5000000000000003},{"rt":51740,"response":{"Q0":["Two or six legs","Stripes or spots on body","Single or double wings","Antennae or no antennae"]},"question_order":[0],"trial_type":"survey-multi-select","trial_index":8,"time_elapsed":1034933,"internal_node_id":"0.0-3.0-4.0-1.0","subject_id":"616a61f7ce03fb543086316f","study_id":"6197b3f67c2b5cd3b6d9596a","session_id":"6197b9e96f054380b61d078e","condition":"contingent","relevant_dimensions":["antennae","wings"],"bee_group":{"antennae":"A","wings":"1","pattern":"X","legs":"X"},"correct":true,"bonus":0.5000000000000003},{"rt":55870.29999999702,"response":{"Q1":"No.","Q2":"Based on the four features of the bee.","Q3":"You do not learn if it was friendly or dangerous, and do not alter your bonus."},"question_order":[0,1,2],"trial_type":"survey-multi-choice","trial_index":9,"time_elapsed":1090813,"internal_node_id":"0.0-3.0-4.0-2.0","subject_id":"616a61f7ce03fb543086316f","study_id":"6197b3f67c2b5cd3b6d9596a","session_id":"6197b9e96f054380b61d078e","condition":"contingent","relevant_dimensions":["antennae","wings"],"bee_group":{"antennae":"A","wings":"1","pattern":"X","legs":"X"},"correct":true,"bonus":0.5000000000000003},{"rt":6804.20000000298,"stimulus":"<p>Congrats, you got everything right<br>When you're ready, click the button below to continue to the experiment.</p>","response":0,"trial_type":"html-button-response","trial_index":10,"time_elapsed":1097630,"internal_node_id":"0.0-3.0-4.0-3.0","subject_id":"616a61f7ce03fb543086316f","study_id":"6197b3f67c2b5cd3b6d9596a","session_id":"6197b9e96f054380b61d078e","condition":"contingent","relevant_dimensions":["antennae","wings"],"bee_group":{"antennae":"A","wings":"1","pattern":"X","legs":"X"},"bonus":0.5000000000000003},{"rt":7965.199999988079,"stimulus":"bees-with-color/bee-A2SF.svg","response":0,"trial_type":"image-button-response","trial_index":11,"time_elapsed":1105607,"internal_node_id":"0.0-4.0-0.0","subject_id":"616a61f7ce03fb543086316f","study_id":"6197b3f67c2b5cd3b6d9596a","session_id":"6197b9e96f054380b61d078e","condition":"contingent","relevant_dimensions":["antennae","wings"],"bee_group":{"antennae":"A","wings":"1","pattern":"X","legs":"X"},"action":"harvest","summary":"good-harvest","bonus":0.5000000000000003},{"rt":45414.79999999702,"stimulus":"\n                    <p><b>Action: <em>harvest</em></b></p>\n                    <p>This is the bee that you just saw.</p>\n                    <img src=\"bees-with-color/bee-A2SF.svg\" width=\"200\">\n                    <p><span class=\"greenText\"><b>Successful harvest!</b></span><br>Your pay has increased by $0.02. Your bonus pay is now $0.56.</p>\n            ","response":0,"trial_type":"html-button-response","trial_index":12,"time_elapsed":1151071,"internal_node_id":"0.0-4.0-1.0","subject_id":"616a61f7ce03fb543086316f","study_id":"6197b3f67c2b5cd3b6d9596a","session_id":"6197b9e96f054380b61d078e","condition":"contingent","relevant_dimensions":["antennae","wings"],"bee_group":{"antennae":"A","wings":"1","pattern":"X","legs":"X"},"bonus":0.5000000000000003},{"rt":53420.90000000596,"stimulus":"bees-with-color/bee-A1DM.svg","response":0,"trial_type":"image-button-response","trial_index":13,"time_elapsed":1204502,"internal_node_id":"0.0-4.0-0.1","subject_id":"616a61f7ce03fb543086316f","study_id":"6197b3f67c2b5cd3b6d9596a","session_id":"6197b9e96f054380b61d078e","condition":"contingent","relevant_dimensions":["antennae","wings"],"bee_group":{"antennae":"A","wings":"1","pattern":"X","legs":"X"},"action":"harvest","summary":"bad-harvest","bonus":0.5000000000000003},{"rt":14649.20000000298,"stimulus":"\n                    <p><b>Action: <em>harvest</em></b></p>\n                    <p>This is the bee that you just saw.</p>\n                    <img src=\"bees-with-color/bee-A1DM.svg\" width=\"200\">\n                    <p><span class=\"redText\">Bad choice, the bee was angry.</span><br><b>You have been stung!</b><br>Your pay has been decreased by $0.10. Your bonus pay is now $0.46.</p>\n            ","response":0,"trial_type":"html-button-response","trial_index":14,"time_elapsed":1219158,"internal_node_id":"0.0-4.0-1.1","subject_id":"616a61f7ce03fb543086316f","study_id":"6197b3f67c2b5cd3b6d9596a","session_id":"6197b9e96f054380b61d078e","condition":"contingent","relevant_dimensions":["antennae","wings"],"bee_group":{"antennae":"A","wings":"1","pattern":"X","legs":"X"},"bonus":0.5000000000000003},{"rt":5100.70000000298,"stimulus":"bees-with-color/bee-A2DM.svg","response":1,"trial_type":"image-button-response","trial_index":15,"time_elapsed":1224266,"internal_node_id":"0.0-4.0-0.2","subject_id":"616a61f7ce03fb543086316f","study_id":"6197b3f67c2b5cd3b6d9596a","session_id":"6197b9e96f054380b61d078e","condition":"contingent","relevant_dimensions":["antennae","wings"],"bee_group":{"antennae":"A","wings":"1","pattern":"X","legs":"X"},"action":"avoid","summary":"bad-avoid","bonus":0.5000000000000003},{"rt":7590.70000000298,"stimulus":"\n                    <p><b>Action: <em>avoid</em></b></p>\n                    <p>This is the bee that you just saw.</p>\n                    <img src=\"bees-with-color/bee-A2DM.svg\" width=\"200\">\n                    <p><br>Your bonus pay is unchanged, and remains at $0.46.</p>\n            ","response":0,"trial_type":"html-button-response","trial_index":16,"time_elapsed":1231866,"internal_node_id":"0.0-4.0-1.2","subject_id":"616a61f7ce03fb543086316f","study_id":"6197b3f67c2b5cd3b6d9596a","session_id":"6197b9e96f054380b61d078e","condition":"contingent","relevant_dimensions":["antennae","wings"],"bee_group":{"antennae":"A","wings":"1","pattern":"X","legs":"X"},"bonus":0.5000000000000003},{"rt":14061.70000000298,"stimulus":"bees-with-color/bee-B1SF.svg","response":1,"trial_type":"image-button-response","trial_index":17,"time_elapsed":1245941,"internal_node_id":"0.0-4.0-0.3","subject_id":"616a61f7ce03fb543086316f","study_id":"6197b3f67c2b5cd3b6d9596a","session_id":"6197b9e96f054380b61d078e","condition":"contingent","relevant_dimensions":["antennae","wings"],"bee_group":{"antennae":"A","wings":"1","pattern":"X","legs":"X"},"action":"avoid","summary":"bad-avoid","bonus":0.5000000000000003},{"rt":3089.2000000029802,"stimulus":"\n                    <p><b>Action: <em>avoid</em></b></p>\n                    <p>This is the bee that you just saw.</p>\n                    <img src=\"bees-with-color/bee-B1SF.svg\" width=\"200\">\n                    <p><br>Your bonus pay is unchanged, and remains at $0.46.</p>\n            ","response":0,"trial_type":"html-button-response","trial_index":18,"time_elapsed":1249038,"internal_node_id":"0.0-4.0-1.3","subject_id":"616a61f7ce03fb543086316f","study_id":"6197b3f67c2b5cd3b6d9596a","session_id":"6197b9e96f054380b61d078e","condition":"contingent","relevant_dimensions":["antennae","wings"],"bee_group":{"antennae":"A","wings":"1","pattern":"X","legs":"X"},"bonus":0.5000000000000003},{"rt":16273.699999988079,"stimulus":"bees-with-color/bee-B1DF.svg","response":0,"trial_type":"image-button-response","trial_index":19,"time_elapsed":1265321,"internal_node_id":"0.0-4.0-0.4","subject_id":"616a61f7ce03fb543086316f","study_id":"6197b3f67c2b5cd3b6d9596a","session_id":"6197b9e96f054380b61d078e","condition":"contingent","relevant_dimensions":["antennae","wings"],"bee_group":{"antennae":"A","wings":"1","pattern":"X","legs":"X"},"action":"harvest","summary":"good-harvest","bonus":0.5000000000000003},{"rt":10255.89999999106,"stimulus":"\n                    <p><b>Action: <em>harvest</em></b></p>\n                    <p>This is the bee that you just saw.</p>\n                    <img src=\"bees-with-color/bee-B1DF.svg\" width=\"200\">\n                    <p><span class=\"greenText\"><b>Successful harvest!</b></span><br>Your pay has increased by $0.02. Your bonus pay is now $0.48.</p>\n            ","response":0,"trial_type":"html-button-response","trial_index":20,"time_elapsed":1275586,"internal_node_id":"0.0-4.0-1.4","subject_id":"616a61f7ce03fb543086316f","study_id":"6197b3f67c2b5cd3b6d9596a","session_id":"6197b9e96f054380b61d078e","condition":"contingent","relevant_dimensions":["antennae","wings"],"bee_group":{"antennae":"A","wings":"1","pattern":"X","legs":"X"},"bonus":0.5000000000000003},{"rt":7170.70000000298,"stimulus":"bees-with-color/bee-A1DF.svg","response":0,"trial_type":"image-button-response","trial_index":21,"time_elapsed":1282765,"internal_node_id":"0.0-4.0-0.5","subject_id":"616a61f7ce03fb543086316f","study_id":"6197b3f67c2b5cd3b6d9596a","session_id":"6197b9e96f054380b61d078e","condition":"contingent","relevant_dimensions":["antennae","wings"],"bee_group":{"antennae":"A","wings":"1","pattern":"X","legs":"X"},"action":"harvest","summary":"bad-harvest","bonus":0.5000000000000003},{"rt":12882.90000000596,"stimulus":"\n                    <p><b>Action: <em>harvest</em></b></p>\n                    <p>This is the bee that you just saw.</p>\n                    <img src=\"bees-with-color/bee-A1DF.svg\" width=\"200\">\n                    <p><span class=\"redText\">Bad choice, the bee was angry.</span><br><b>You have been stung!</b><br>Your pay has been decreased by $0.10. Your bonus pay is now $0.38.</p>\n            ","response":0,"trial_type":"html-button-response","trial_index":22,"time_elapsed":1295655,"internal_node_id":"0.0-4.0-1.5","subject_id":"616a61f7ce03fb543086316f","study_id":"6197b3f67c2b5cd3b6d9596a","session_id":"6197b9e96f054380b61d078e","condition":"contingent","relevant_dimensions":["antennae","wings"],"bee_group":{"antennae":"A","wings":"1","pattern":"X","legs":"X"},"bonus":0.5000000000000003},{"rt":13950.59999999404,"stimulus":"bees-with-color/bee-B2SF.svg","response":0,"trial_type":"image-button-response","trial_index":23,"time_elapsed":1309617,"internal_node_id":"0.0-4.0-0.6","subject_id":"616a61f7ce03fb543086316f","study_id":"6197b3f67c2b5cd3b6d9596a","session_id":"6197b9e96f054380b61d078e","condition":"contingent","relevant_dimensions":["antennae","wings"],"bee_group":{"antennae":"A","wings":"1","pattern":"X","legs":"X"},"action":"harvest","summary":"good-harvest","bonus":0.5000000000000003},{"rt":1222.0999999940395,"stimulus":"\n                    <p><b>Action: <em>harvest</em></b></p>\n                    <p>This is the bee that you just saw.</p>\n                    <img src=\"bees-with-color/bee-B2SF.svg\" width=\"200\">\n                    <p><span class=\"greenText\"><b>Successful harvest!</b></span><br>Your pay has increased by $0.02. Your bonus pay is now $0.40.</p>\n            ","response":0,"trial_type":"html-button-response","trial_index":24,"time_elapsed":1310844,"internal_node_id":"0.0-4.0-1.6","subject_id":"616a61f7ce03fb543086316f","study_id":"6197b3f67c2b5cd3b6d9596a","session_id":"6197b9e96f054380b61d078e","condition":"contingent","relevant_dimensions":["antennae","wings"],"bee_group":{"antennae":"A","wings":"1","pattern":"X","legs":"X"},"bonus":0.5000000000000003},{"rt":8335.70000000298,"stimulus":"bees-with-color/bee-B2DF.svg","response":0,"trial_type":"image-button-response","trial_index":25,"time_elapsed":1319186,"internal_node_id":"0.0-4.0-0.7","subject_id":"616a61f7ce03fb543086316f","study_id":"6197b3f67c2b5cd3b6d9596a","session_id":"6197b9e96f054380b61d078e","condition":"contingent","relevant_dimensions":["antennae","wings"],"bee_group":{"antennae":"A","wings":"1","pattern":"X","legs":"X"},"action":"harvest","summary":"good-harvest","bonus":0.5000000000000003},{"rt":931.7000000029802,"stimulus":"\n                    <p><b>Action: <em>harvest</em></b></p>\n                    <p>This is the bee that you just saw.</p>\n                    <img src=\"bees-with-color/bee-B2DF.svg\" width=\"200\">\n                    <p><span class=\"greenText\"><b>Successful harvest!</b></span><br>Your pay has increased by $0.02. Your bonus pay is now $0.42.</p>\n            ","response":0,"trial_type":"html-button-response","trial_index":26,"time_elapsed":1320127,"internal_node_id":"0.0-4.0-1.7","subject_id":"616a61f7ce03fb543086316f","study_id":"6197b3f67c2b5cd3b6d9596a","session_id":"6197b9e96f054380b61d078e","condition":"contingent","relevant_dimensions":["antennae","wings"],"bee_group":{"antennae":"A","wings":"1","pattern":"X","legs":"X"},"bonus":0.5000000000000003},{"rt":22755.20000000298,"stimulus":"bees-with-color/bee-A1SM.svg","response":0,"trial_type":"image-button-response","trial_index":27,"time_elapsed":1342889,"internal_node_id":"0.0-4.0-0.8","subject_id":"616a61f7ce03fb543086316f","study_id":"6197b3f67c2b5cd3b6d9596a","session_id":"6197b9e96f054380b61d078e","condition":"contingent","relevant_dimensions":["antennae","wings"],"bee_group":{"antennae":"A","wings":"1","pattern":"X","legs":"X"},"action":"harvest","summary":"bad-harvest","bonus":0.5000000000000003},{"rt":12076.09999999404,"stimulus":"\n                    <p><b>Action: <em>harvest</em></b></p>\n                    <p>This is the bee that you just saw.</p>\n                    <img src=\"bees-with-color/bee-A1SM.svg\" width=\"200\">\n                    <p><span class=\"redText\">Bad choice, the bee was angry.</span><br><b>You have been stung!</b><br>Your pay has been decreased by $0.10. Your bonus pay is now $0.32.</p>\n            ","response":0,"trial_type":"html-button-response","trial_index":28,"time_elapsed":1354973,"internal_node_id":"0.0-4.0-1.8","subject_id":"616a61f7ce03fb543086316f","study_id":"6197b3f67c2b5cd3b6d9596a","session_id":"6197b9e96f054380b61d078e","condition":"contingent","relevant_dimensions":["antennae","wings"],"bee_group":{"antennae":"A","wings":"1","pattern":"X","legs":"X"},"bonus":0.5000000000000003},{"rt":12530.89999999106,"stimulus":"bees-with-color/bee-B1SM.svg","response":1,"trial_type":"image-button-response","trial_index":29,"time_elapsed":1367506,"internal_node_id":"0.0-4.0-0.9","subject_id":"616a61f7ce03fb543086316f","study_id":"6197b3f67c2b5cd3b6d9596a","session_id":"6197b9e96f054380b61d078e","condition":"contingent","relevant_dimensions":["antennae","wings"],"bee_group":{"antennae":"A","wings":"1","pattern":"X","legs":"X"},"action":"avoid","summary":"bad-avoid","bonus":0.5000000000000003},{"rt":2368.5999999940395,"stimulus":"\n                    <p><b>Action: <em>avoid</em></b></p>\n                    <p>This is the bee that you just saw.</p>\n                    <img src=\"bees-with-color/bee-B1SM.svg\" width=\"200\">\n                    <p><br>Your bonus pay is unchanged, and remains at $0.32.</p>\n            ","response":0,"trial_type":"html-button-response","trial_index":30,"time_elapsed":1369881,"internal_node_id":"0.0-4.0-1.9","subject_id":"616a61f7ce03fb543086316f","study_id":"6197b3f67c2b5cd3b6d9596a","session_id":"6197b9e96f054380b61d078e","condition":"contingent","relevant_dimensions":["antennae","wings"],"bee_group":{"antennae":"A","wings":"1","pattern":"X","legs":"X"},"bonus":0.5000000000000003},{"rt":12502,"stimulus":"bees-with-color/bee-B2DM.svg","response":1,"trial_type":"image-button-response","trial_index":31,"time_elapsed":1382389,"internal_node_id":"0.0-4.0-0.10","subject_id":"616a61f7ce03fb543086316f","study_id":"6197b3f67c2b5cd3b6d9596a","session_id":"6197b9e96f054380b61d078e","condition":"contingent","relevant_dimensions":["antennae","wings"],"bee_group":{"antennae":"A","wings":"1","pattern":"X","legs":"X"},"action":"avoid","summary":"bad-avoid","bonus":0.5000000000000003},{"rt":2278.699999988079,"stimulus":"\n                    <p><b>Action: <em>avoid</em></b></p>\n                    <p>This is the bee that you just saw.</p>\n                    <img src=\"bees-with-color/bee-B2DM.svg\" width=\"200\">\n                    <p><br>Your bonus pay is unchanged, and remains at $0.32.</p>\n            ","response":0,"trial_type":"html-button-response","trial_index":32,"time_elapsed":1384673,"internal_node_id":"0.0-4.0-1.10","subject_id":"616a61f7ce03fb543086316f","study_id":"6197b3f67c2b5cd3b6d9596a","session_id":"6197b9e96f054380b61d078e","condition":"contingent","relevant_dimensions":["antennae","wings"],"bee_group":{"antennae":"A","wings":"1","pattern":"X","legs":"X"},"bonus":0.5000000000000003},{"rt":3760.199999988079,"stimulus":"bees-with-color/bee-B1DM.svg","response":1,"trial_type":"image-button-response","trial_index":33,"time_elapsed":1388440,"internal_node_id":"0.0-4.0-0.11","subject_id":"616a61f7ce03fb543086316f","study_id":"6197b3f67c2b5cd3b6d9596a","session_id":"6197b9e96f054380b61d078e","condition":"contingent","relevant_dimensions":["antennae","wings"],"bee_group":{"antennae":"A","wings":"1","pattern":"X","legs":"X"},"action":"avoid","summary":"bad-avoid","bonus":0.5000000000000003},{"rt":1010.7000000029802,"stimulus":"\n                    <p><b>Action: <em>avoid</em></b></p>\n                    <p>This is the bee that you just saw.</p>\n                    <img src=\"bees-with-color/bee-B1DM.svg\" width=\"200\">\n                    <p><br>Your bonus pay is unchanged, and remains at $0.32.</p>\n            ","response":0,"trial_type":"html-button-response","trial_index":34,"time_elapsed":1389456,"internal_node_id":"0.0-4.0-1.11","subject_id":"616a61f7ce03fb543086316f","study_id":"6197b3f67c2b5cd3b6d9596a","session_id":"6197b9e96f054380b61d078e","condition":"contingent","relevant_dimensions":["antennae","wings"],"bee_group":{"antennae":"A","wings":"1","pattern":"X","legs":"X"},"bonus":0.5000000000000003},{"rt":8974,"stimulus":"bees-with-color/bee-A2DF.svg","response":1,"trial_type":"image-button-response","trial_index":35,"time_elapsed":1398436,"internal_node_id":"0.0-4.0-0.12","subject_id":"616a61f7ce03fb543086316f","study_id":"6197b3f67c2b5cd3b6d9596a","session_id":"6197b9e96f054380b61d078e","condition":"contingent","relevant_dimensions":["antennae","wings"],"bee_group":{"antennae":"A","wings":"1","pattern":"X","legs":"X"},"action":"avoid","summary":"bad-avoid","bonus":0.5000000000000003},{"rt":2622.1000000089407,"stimulus":"\n                    <p><b>Action: <em>avoid</em></b></p>\n                    <p>This is the bee that you just saw.</p>\n                    <img src=\"bees-with-color/bee-A2DF.svg\" width=\"200\">\n                    <p><br>Your bonus pay is unchanged, and remains at $0.32.</p>\n            ","response":0,"trial_type":"html-button-response","trial_index":36,"time_elapsed":1401065,"internal_node_id":"0.0-4.0-1.12","subject_id":"616a61f7ce03fb543086316f","study_id":"6197b3f67c2b5cd3b6d9596a","session_id":"6197b9e96f054380b61d078e","condition":"contingent","relevant_dimensions":["antennae","wings"],"bee_group":{"antennae":"A","wings":"1","pattern":"X","legs":"X"},"bonus":0.5000000000000003},{"rt":7167.5,"stimulus":"bees-with-color/bee-A2SM.svg","response":1,"trial_type":"image-button-response","trial_index":37,"time_elapsed":1408242,"internal_node_id":"0.0-4.0-0.13","subject_id":"616a61f7ce03fb543086316f","study_id":"6197b3f67c2b5cd3b6d9596a","session_id":"6197b9e96f054380b61d078e","condition":"contingent","relevant_dimensions":["antennae","wings"],"bee_group":{"antennae":"A","wings":"1","pattern":"X","legs":"X"},"action":"avoid","summary":"bad-avoid","bonus":0.5000000000000003},{"rt":1022.7999999970198,"stimulus":"\n                    <p><b>Action: <em>avoid</em></b></p>\n                    <p>This is the bee that you just saw.</p>\n                    <img src=\"bees-with-color/bee-A2SM.svg\" width=\"200\">\n                    <p><br>Your bonus pay is unchanged, and remains at $0.32.</p>\n            ","response":0,"trial_type":"html-button-response","trial_index":38,"time_elapsed":1409275,"internal_node_id":"0.0-4.0-1.13","subject_id":"616a61f7ce03fb543086316f","study_id":"6197b3f67c2b5cd3b6d9596a","session_id":"6197b9e96f054380b61d078e","condition":"contingent","relevant_dimensions":["antennae","wings"],"bee_group":{"antennae":"A","wings":"1","pattern":"X","legs":"X"},"bonus":0.5000000000000003},{"rt":8280.5,"stimulus":"bees-with-color/bee-B2SM.svg","response":1,"trial_type":"image-button-response","trial_index":39,"time_elapsed":1417563,"internal_node_id":"0.0-4.0-0.14","subject_id":"616a61f7ce03fb543086316f","study_id":"6197b3f67c2b5cd3b6d9596a","session_id":"6197b9e96f054380b61d078e","condition":"contingent","relevant_dimensions":["antennae","wings"],"bee_group":{"antennae":"A","wings":"1","pattern":"X","legs":"X"},"action":"avoid","summary":"bad-avoid","bonus":0.5000000000000003},{"rt":1078.1000000089407,"stimulus":"\n                    <p><b>Action: <em>avoid</em></b></p>\n                    <p>This is the bee that you just saw.</p>\n                    <img src=\"bees-with-color/bee-B2SM.svg\" width=\"200\">\n                    <p><br>Your bonus pay is unchanged, and remains at $0.32.</p>\n            ","response":0,"trial_type":"html-button-response","trial_index":40,"time_elapsed":1418647,"internal_node_id":"0.0-4.0-1.14","subject_id":"616a61f7ce03fb543086316f","study_id":"6197b3f67c2b5cd3b6d9596a","session_id":"6197b9e96f054380b61d078e","condition":"contingent","relevant_dimensions":["antennae","wings"],"bee_group":{"antennae":"A","wings":"1","pattern":"X","legs":"X"},"bonus":0.5000000000000003},{"rt":14484.70000000298,"stimulus":"bees-with-color/bee-A1SF.svg","response":1,"trial_type":"image-button-response","trial_index":41,"time_elapsed":1433145,"internal_node_id":"0.0-4.0-0.15","subject_id":"616a61f7ce03fb543086316f","study_id":"6197b3f67c2b5cd3b6d9596a","session_id":"6197b9e96f054380b61d078e","condition":"contingent","relevant_dimensions":["antennae","wings"],"bee_group":{"antennae":"A","wings":"1","pattern":"X","legs":"X"},"action":"avoid","summary":"good-avoid","bonus":0.5000000000000003},{"rt":1065,"stimulus":"\n                    <p><b>Action: <em>avoid</em></b></p>\n                    <p>This is the bee that you just saw.</p>\n                    <img src=\"bees-with-color/bee-A1SF.svg\" width=\"200\">\n                    <p><br>Your bonus pay is unchanged, and remains at $0.32.</p>\n            ","response":0,"trial_type":"html-button-response","trial_index":42,"time_elapsed":1434217,"internal_node_id":"0.0-4.0-1.15","subject_id":"616a61f7ce03fb543086316f","study_id":"6197b3f67c2b5cd3b6d9596a","session_id":"6197b9e96f054380b61d078e","condition":"contingent","relevant_dimensions":["antennae","wings"],"bee_group":{"antennae":"A","wings":"1","pattern":"X","legs":"X"},"bonus":0.5000000000000003},{"rt":13304.40000000596,"stimulus":"bees-with-color/bee-A1SM.svg","response":0,"trial_type":"image-button-response","trial_index":43,"time_elapsed":1447531,"internal_node_id":"0.0-4.0-0.16","subject_id":"616a61f7ce03fb543086316f","study_id":"6197b3f67c2b5cd3b6d9596a","session_id":"6197b9e96f054380b61d078e","condition":"contingent","relevant_dimensions":["antennae","wings"],"bee_group":{"antennae":"A","wings":"1","pattern":"X","legs":"X"},"action":"harvest","summary":"bad-harvest","bonus":0.5000000000000003},{"rt":3723.5999999940395,"stimulus":"\n                    <p><b>Action: <em>harvest</em></b></p>\n                    <p>This is the bee that you just saw.</p>\n                    <img src=\"bees-with-color/bee-A1SM.svg\" width=\"200\">\n                    <p><span class=\"redText\">Bad choice, the bee was angry.</span><br><b>You have been stung!</b><br>Your pay has been decreased by $0.10. Your bonus pay is now $0.22.</p>\n            ","response":0,"trial_type":"html-button-response","trial_index":44,"time_elapsed":1451262,"internal_node_id":"0.0-4.0-1.16","subject_id":"616a61f7ce03fb543086316f","study_id":"6197b3f67c2b5cd3b6d9596a","session_id":"6197b9e96f054380b61d078e","condition":"contingent","relevant_dimensions":["antennae","wings"],"bee_group":{"antennae":"A","wings":"1","pattern":"X","legs":"X"},"bonus":0.5000000000000003},{"rt":30198.10000000894,"stimulus":"bees-with-color/bee-B2SF.svg","response":0,"trial_type":"image-button-response","trial_index":45,"time_elapsed":1481469,"internal_node_id":"0.0-4.0-0.17","subject_id":"616a61f7ce03fb543086316f","study_id":"6197b3f67c2b5cd3b6d9596a","session_id":"6197b9e96f054380b61d078e","condition":"contingent","relevant_dimensions":["antennae","wings"],"bee_group":{"antennae":"A","wings":"1","pattern":"X","legs":"X"},"action":"harvest","summary":"good-harvest","bonus":0.5000000000000003},{"rt":1995.6000000089407,"stimulus":"\n                    <p><b>Action: <em>harvest</em></b></p>\n                    <p>This is the bee that you just saw.</p>\n                    <img src=\"bees-with-color/bee-B2SF.svg\" width=\"200\">\n                    <p><span class=\"greenText\"><b>Successful harvest!</b></span><br>Your pay has increased by $0.02. Your bonus pay is now $0.24.</p>\n            ","response":0,"trial_type":"html-button-response","trial_index":46,"time_elapsed":1483470,"internal_node_id":"0.0-4.0-1.17","subject_id":"616a61f7ce03fb543086316f","study_id":"6197b3f67c2b5cd3b6d9596a","session_id":"6197b9e96f054380b61d078e","condition":"contingent","relevant_dimensions":["antennae","wings"],"bee_group":{"antennae":"A","wings":"1","pattern":"X","legs":"X"},"bonus":0.5000000000000003},{"rt":7415.9000000059605,"stimulus":"bees-with-color/bee-A2DF.svg","response":1,"trial_type":"image-button-response","trial_index":47,"time_elapsed":1490893,"internal_node_id":"0.0-4.0-0.18","subject_id":"616a61f7ce03fb543086316f","study_id":"6197b3f67c2b5cd3b6d9596a","session_id":"6197b9e96f054380b61d078e","condition":"contingent","relevant_dimensions":["antennae","wings"],"bee_group":{"antennae":"A","wings":"1","pattern":"X","legs":"X"},"action":"avoid","summary":"bad-avoid","bonus":0.5000000000000003},{"rt":889.2999999970198,"stimulus":"\n                    <p><b>Action: <em>avoid</em></b></p>\n                    <p>This is the bee that you just saw.</p>\n                    <img src=\"bees-with-color/bee-A2DF.svg\" width=\"200\">\n                    <p><br>Your bonus pay is unchanged, and remains at $0.24.</p>\n            ","response":0,"trial_type":"html-button-response","trial_index":48,"time_elapsed":1491789,"internal_node_id":"0.0-4.0-1.18","subject_id":"616a61f7ce03fb543086316f","study_id":"6197b3f67c2b5cd3b6d9596a","session_id":"6197b9e96f054380b61d078e","condition":"contingent","relevant_dimensions":["antennae","wings"],"bee_group":{"antennae":"A","wings":"1","pattern":"X","legs":"X"},"bonus":0.5000000000000003},{"rt":24343.89999999106,"stimulus":"bees-with-color/bee-B1SM.svg","response":1,"trial_type":"image-button-response","trial_index":49,"time_elapsed":1516141,"internal_node_id":"0.0-4.0-0.19","subject_id":"616a61f7ce03fb543086316f","study_id":"6197b3f67c2b5cd3b6d9596a","session_id":"6197b9e96f054380b61d078e","condition":"contingent","relevant_dimensions":["antennae","wings"],"bee_group":{"antennae":"A","wings":"1","pattern":"X","legs":"X"},"action":"avoid","summary":"bad-avoid","bonus":0.5000000000000003},{"rt":1139,"stimulus":"\n                    <p><b>Action: <em>avoid</em></b></p>\n                    <p>This is the bee that you just saw.</p>\n                    <img src=\"bees-with-color/bee-B1SM.svg\" width=\"200\">\n                    <p><br>Your bonus pay is unchanged, and remains at $0.24.</p>\n            ","response":0,"trial_type":"html-button-response","trial_index":50,"time_elapsed":1517287,"internal_node_id":"0.0-4.0-1.19","subject_id":"616a61f7ce03fb543086316f","study_id":"6197b3f67c2b5cd3b6d9596a","session_id":"6197b9e96f054380b61d078e","condition":"contingent","relevant_dimensions":["antennae","wings"],"bee_group":{"antennae":"A","wings":"1","pattern":"X","legs":"X"},"bonus":0.5000000000000003},{"rt":14609.10000000894,"stimulus":"bees-with-color/bee-A1DF.svg","response":1,"trial_type":"image-button-response","trial_index":51,"time_elapsed":1531904,"internal_node_id":"0.0-4.0-0.20","subject_id":"616a61f7ce03fb543086316f","study_id":"6197b3f67c2b5cd3b6d9596a","session_id":"6197b9e96f054380b61d078e","condition":"contingent","relevant_dimensions":["antennae","wings"],"bee_group":{"antennae":"A","wings":"1","pattern":"X","legs":"X"},"action":"avoid","summary":"good-avoid","bonus":0.5000000000000003},{"rt":1541.300000011921,"stimulus":"\n                    <p><b>Action: <em>avoid</em></b></p>\n                    <p>This is the bee that you just saw.</p>\n                    <img src=\"bees-with-color/bee-A1DF.svg\" width=\"200\">\n                    <p><br>Your bonus pay is unchanged, and remains at $0.24.</p>\n            ","response":0,"trial_type":"html-button-response","trial_index":52,"time_elapsed":1533452,"internal_node_id":"0.0-4.0-1.20","subject_id":"616a61f7ce03fb543086316f","study_id":"6197b3f67c2b5cd3b6d9596a","session_id":"6197b9e96f054380b61d078e","condition":"contingent","relevant_dimensions":["antennae","wings"],"bee_group":{"antennae":"A","wings":"1","pattern":"X","legs":"X"},"bonus":0.5000000000000003},{"rt":13554.79999999702,"stimulus":"bees-with-color/bee-B1SF.svg","response":0,"trial_type":"image-button-response","trial_index":53,"time_elapsed":1547014,"internal_node_id":"0.0-4.0-0.21","subject_id":"616a61f7ce03fb543086316f","study_id":"6197b3f67c2b5cd3b6d9596a","session_id":"6197b9e96f054380b61d078e","condition":"contingent","relevant_dimensions":["antennae","wings"],"bee_group":{"antennae":"A","wings":"1","pattern":"X","legs":"X"},"action":"harvest","summary":"good-harvest","bonus":0.5000000000000003},{"rt":1143.4000000059605,"stimulus":"\n                    <p><b>Action: <em>harvest</em></b></p>\n                    <p>This is the bee that you just saw.</p>\n                    <img src=\"bees-with-color/bee-B1SF.svg\" width=\"200\">\n                    <p><span class=\"greenText\"><b>Successful harvest!</b></span><br>Your pay has increased by $0.02. Your bonus pay is now $0.26.</p>\n            ","response":0,"trial_type":"html-button-response","trial_index":54,"time_elapsed":1548167,"internal_node_id":"0.0-4.0-1.21","subject_id":"616a61f7ce03fb543086316f","study_id":"6197b3f67c2b5cd3b6d9596a","session_id":"6197b9e96f054380b61d078e","condition":"contingent","relevant_dimensions":["antennae","wings"],"bee_group":{"antennae":"A","wings":"1","pattern":"X","legs":"X"},"bonus":0.5000000000000003},{"rt":12847.699999988079,"stimulus":"bees-with-color/bee-A2DM.svg","response":1,"trial_type":"image-button-response","trial_index":55,"time_elapsed":1561020,"internal_node_id":"0.0-4.0-0.22","subject_id":"616a61f7ce03fb543086316f","study_id":"6197b3f67c2b5cd3b6d9596a","session_id":"6197b9e96f054380b61d078e","condition":"contingent","relevant_dimensions":["antennae","wings"],"bee_group":{"antennae":"A","wings":"1","pattern":"X","legs":"X"},"action":"avoid","summary":"bad-avoid","bonus":0.5000000000000003},{"rt":1080.5,"stimulus":"\n                    <p><b>Action: <em>avoid</em></b></p>\n                    <p>This is the bee that you just saw.</p>\n                    <img src=\"bees-with-color/bee-A2DM.svg\" width=\"200\">\n                    <p><br>Your bonus pay is unchanged, and remains at $0.26.</p>\n            ","response":0,"trial_type":"html-button-response","trial_index":56,"time_elapsed":1562107,"internal_node_id":"0.0-4.0-1.22","subject_id":"616a61f7ce03fb543086316f","study_id":"6197b3f67c2b5cd3b6d9596a","session_id":"6197b9e96f054380b61d078e","condition":"contingent","relevant_dimensions":["antennae","wings"],"bee_group":{"antennae":"A","wings":"1","pattern":"X","legs":"X"},"bonus":0.5000000000000003},{"rt":2699.3999999910593,"stimulus":"bees-with-color/bee-B2DM.svg","response":1,"trial_type":"image-button-response","trial_index":57,"time_elapsed":1564813,"internal_node_id":"0.0-4.0-0.23","subject_id":"616a61f7ce03fb543086316f","study_id":"6197b3f67c2b5cd3b6d9596a","session_id":"6197b9e96f054380b61d078e","condition":"contingent","relevant_dimensions":["antennae","wings"],"bee_group":{"antennae":"A","wings":"1","pattern":"X","legs":"X"},"action":"avoid","summary":"bad-avoid","bonus":0.5000000000000003},{"rt":743.4000000059605,"stimulus":"\n                    <p><b>Action: <em>avoid</em></b></p>\n                    <p>This is the bee that you just saw.</p>\n                    <img src=\"bees-with-color/bee-B2DM.svg\" width=\"200\">\n                    <p><br>Your bonus pay is unchanged, and remains at $0.26.</p>\n            ","response":0,"trial_type":"html-button-response","trial_index":58,"time_elapsed":1565566,"internal_node_id":"0.0-4.0-1.23","subject_id":"616a61f7ce03fb543086316f","study_id":"6197b3f67c2b5cd3b6d9596a","session_id":"6197b9e96f054380b61d078e","condition":"contingent","relevant_dimensions":["antennae","wings"],"bee_group":{"antennae":"A","wings":"1","pattern":"X","legs":"X"},"bonus":0.5000000000000003},{"rt":13331.29999999702,"stimulus":"bees-with-color/bee-A1DM.svg","response":1,"trial_type":"image-button-response","trial_index":59,"time_elapsed":1578903,"internal_node_id":"0.0-4.0-0.24","subject_id":"616a61f7ce03fb543086316f","study_id":"6197b3f67c2b5cd3b6d9596a","session_id":"6197b9e96f054380b61d078e","condition":"contingent","relevant_dimensions":["antennae","wings"],"bee_group":{"antennae":"A","wings":"1","pattern":"X","legs":"X"},"action":"avoid","summary":"good-avoid","bonus":0.5000000000000003},{"rt":1281.0999999940395,"stimulus":"\n                    <p><b>Action: <em>avoid</em></b></p>\n                    <p>This is the bee that you just saw.</p>\n                    <img src=\"bees-with-color/bee-A1DM.svg\" width=\"200\">\n                    <p><br>Your bonus pay is unchanged, and remains at $0.26.</p>\n            ","response":0,"trial_type":"html-button-response","trial_index":60,"time_elapsed":1580190,"internal_node_id":"0.0-4.0-1.24","subject_id":"616a61f7ce03fb543086316f","study_id":"6197b3f67c2b5cd3b6d9596a","session_id":"6197b9e96f054380b61d078e","condition":"contingent","relevant_dimensions":["antennae","wings"],"bee_group":{"antennae":"A","wings":"1","pattern":"X","legs":"X"},"bonus":0.5000000000000003},{"rt":18114.5,"stimulus":"bees-with-color/bee-A2SF.svg","response":0,"trial_type":"image-button-response","trial_index":61,"time_elapsed":1598312,"internal_node_id":"0.0-4.0-0.25","subject_id":"616a61f7ce03fb543086316f","study_id":"6197b3f67c2b5cd3b6d9596a","session_id":"6197b9e96f054380b61d078e","condition":"contingent","relevant_dimensions":["antennae","wings"],"bee_group":{"antennae":"A","wings":"1","pattern":"X","legs":"X"},"action":"harvest","summary":"good-harvest","bonus":0.5000000000000003},{"rt":1238.4000000059605,"stimulus":"\n                    <p><b>Action: <em>harvest</em></b></p>\n                    <p>This is the bee that you just saw.</p>\n                    <img src=\"bees-with-color/bee-A2SF.svg\" width=\"200\">\n                    <p><span class=\"greenText\"><b>Successful harvest!</b></span><br>Your pay has increased by $0.02. Your bonus pay is now $0.28.</p>\n            ","response":0,"trial_type":"html-button-response","trial_index":62,"time_elapsed":1599557,"internal_node_id":"0.0-4.0-1.25","subject_id":"616a61f7ce03fb543086316f","study_id":"6197b3f67c2b5cd3b6d9596a","session_id":"6197b9e96f054380b61d078e","condition":"contingent","relevant_dimensions":["antennae","wings"],"bee_group":{"antennae":"A","wings":"1","pattern":"X","legs":"X"},"bonus":0.5000000000000003},{"rt":8581.60000000894,"stimulus":"bees-with-color/bee-B2DF.svg","response":0,"trial_type":"image-button-response","trial_index":63,"time_elapsed":1608147,"internal_node_id":"0.0-4.0-0.26","subject_id":"616a61f7ce03fb543086316f","study_id":"6197b3f67c2b5cd3b6d9596a","session_id":"6197b9e96f054380b61d078e","condition":"contingent","relevant_dimensions":["antennae","wings"],"bee_group":{"antennae":"A","wings":"1","pattern":"X","legs":"X"},"action":"harvest","summary":"good-harvest","bonus":0.5000000000000003},{"rt":1771.199999988079,"stimulus":"\n                    <p><b>Action: <em>harvest</em></b></p>\n                    <p>This is the bee that you just saw.</p>\n                    <img src=\"bees-with-color/bee-B2DF.svg\" width=\"200\">\n                    <p><span class=\"greenText\"><b>Successful harvest!</b></span><br>Your pay has increased by $0.02. Your bonus pay is now $0.30.</p>\n            ","response":0,"trial_type":"html-button-response","trial_index":64,"time_elapsed":1609926,"internal_node_id":"0.0-4.0-1.26","subject_id":"616a61f7ce03fb543086316f","study_id":"6197b3f67c2b5cd3b6d9596a","session_id":"6197b9e96f054380b61d078e","condition":"contingent","relevant_dimensions":["antennae","wings"],"bee_group":{"antennae":"A","wings":"1","pattern":"X","legs":"X"},"bonus":0.5000000000000003},{"rt":4045.8999999910593,"stimulus":"bees-with-color/bee-A2SM.svg","response":1,"trial_type":"image-button-response","trial_index":65,"time_elapsed":1613981,"internal_node_id":"0.0-4.0-0.27","subject_id":"616a61f7ce03fb543086316f","study_id":"6197b3f67c2b5cd3b6d9596a","session_id":"6197b9e96f054380b61d078e","condition":"contingent","relevant_dimensions":["antennae","wings"],"bee_group":{"antennae":"A","wings":"1","pattern":"X","legs":"X"},"action":"avoid","summary":"bad-avoid","bonus":0.5000000000000003},{"rt":860.4000000059605,"stimulus":"\n                    <p><b>Action: <em>avoid</em></b></p>\n                    <p>This is the bee that you just saw.</p>\n                    <img src=\"bees-with-color/bee-A2SM.svg\" width=\"200\">\n                    <p><br>Your bonus pay is unchanged, and remains at $0.30.</p>\n            ","response":0,"trial_type":"html-button-response","trial_index":66,"time_elapsed":1614850,"internal_node_id":"0.0-4.0-1.27","subject_id":"616a61f7ce03fb543086316f","study_id":"6197b3f67c2b5cd3b6d9596a","session_id":"6197b9e96f054380b61d078e","condition":"contingent","relevant_dimensions":["antennae","wings"],"bee_group":{"antennae":"A","wings":"1","pattern":"X","legs":"X"},"bonus":0.5000000000000003},{"rt":21657.20000000298,"stimulus":"bees-with-color/bee-B1DM.svg","response":1,"trial_type":"image-button-response","trial_index":67,"time_elapsed":1636513,"internal_node_id":"0.0-4.0-0.28","subject_id":"616a61f7ce03fb543086316f","study_id":"6197b3f67c2b5cd3b6d9596a","session_id":"6197b9e96f054380b61d078e","condition":"contingent","relevant_dimensions":["antennae","wings"],"bee_group":{"antennae":"A","wings":"1","pattern":"X","legs":"X"},"action":"avoid","summary":"bad-avoid","bonus":0.5000000000000003},{"rt":1209.2999999970198,"stimulus":"\n                    <p><b>Action: <em>avoid</em></b></p>\n                    <p>This is the bee that you just saw.</p>\n                    <img src=\"bees-with-color/bee-B1DM.svg\" width=\"200\">\n                    <p><br>Your bonus pay is unchanged, and remains at $0.30.</p>\n            ","response":0,"trial_type":"html-button-response","trial_index":68,"time_elapsed":1637727,"internal_node_id":"0.0-4.0-1.28","subject_id":"616a61f7ce03fb543086316f","study_id":"6197b3f67c2b5cd3b6d9596a","session_id":"6197b9e96f054380b61d078e","condition":"contingent","relevant_dimensions":["antennae","wings"],"bee_group":{"antennae":"A","wings":"1","pattern":"X","legs":"X"},"bonus":0.5000000000000003},{"rt":14539.90000000596,"stimulus":"bees-with-color/bee-A1SF.svg","response":0,"trial_type":"image-button-response","trial_index":69,"time_elapsed":1652273,"internal_node_id":"0.0-4.0-0.29","subject_id":"616a61f7ce03fb543086316f","study_id":"6197b3f67c2b5cd3b6d9596a","session_id":"6197b9e96f054380b61d078e","condition":"contingent","relevant_dimensions":["antennae","wings"],"bee_group":{"antennae":"A","wings":"1","pattern":"X","legs":"X"},"action":"harvest","summary":"bad-harvest","bonus":0.5000000000000003},{"rt":3244.7999999970198,"stimulus":"\n                    <p><b>Action: <em>harvest</em></b></p>\n                    <p>This is the bee that you just saw.</p>\n                    <img src=\"bees-with-color/bee-A1SF.svg\" width=\"200\">\n                    <p><span class=\"redText\">Bad choice, the bee was angry.</span><br><b>You have been stung!</b><br>Your pay has been decreased by $0.10. Your bonus pay is now $0.20.</p>\n            ","response":0,"trial_type":"html-button-response","trial_index":70,"time_elapsed":1655524,"internal_node_id":"0.0-4.0-1.29","subject_id":"616a61f7ce03fb543086316f","study_id":"6197b3f67c2b5cd3b6d9596a","session_id":"6197b9e96f054380b61d078e","condition":"contingent","relevant_dimensions":["antennae","wings"],"bee_group":{"antennae":"A","wings":"1","pattern":"X","legs":"X"},"bonus":0.5000000000000003},{"rt":6326.300000011921,"stimulus":"bees-with-color/bee-B2SM.svg","response":1,"trial_type":"image-button-response","trial_index":71,"time_elapsed":1661857,"internal_node_id":"0.0-4.0-0.30","subject_id":"616a61f7ce03fb543086316f","study_id":"6197b3f67c2b5cd3b6d9596a","session_id":"6197b9e96f054380b61d078e","condition":"contingent","relevant_dimensions":["antennae","wings"],"bee_group":{"antennae":"A","wings":"1","pattern":"X","legs":"X"},"action":"avoid","summary":"bad-avoid","bonus":0.5000000000000003},{"rt":998.4000000059605,"stimulus":"\n                    <p><b>Action: <em>avoid</em></b></p>\n                    <p>This is the bee that you just saw.</p>\n                    <img src=\"bees-with-color/bee-B2SM.svg\" width=\"200\">\n                    <p><br>Your bonus pay is unchanged, and remains at $0.20.</p>\n            ","response":0,"trial_type":"html-button-response","trial_index":72,"time_elapsed":1662861,"internal_node_id":"0.0-4.0-1.30","subject_id":"616a61f7ce03fb543086316f","study_id":"6197b3f67c2b5cd3b6d9596a","session_id":"6197b9e96f054380b61d078e","condition":"contingent","relevant_dimensions":["antennae","wings"],"bee_group":{"antennae":"A","wings":"1","pattern":"X","legs":"X"},"bonus":0.5000000000000003},{"rt":5242.600000008941,"stimulus":"bees-with-color/bee-B1DF.svg","response":0,"trial_type":"image-button-response","trial_index":73,"time_elapsed":1668111,"internal_node_id":"0.0-4.0-0.31","subject_id":"616a61f7ce03fb543086316f","study_id":"6197b3f67c2b5cd3b6d9596a","session_id":"6197b9e96f054380b61d078e","condition":"contingent","relevant_dimensions":["antennae","wings"],"bee_group":{"antennae":"A","wings":"1","pattern":"X","legs":"X"},"action":"harvest","summary":"good-harvest","bonus":0.5000000000000003},{"rt":1289.2000000029802,"stimulus":"\n                    <p><b>Action: <em>harvest</em></b></p>\n                    <p>This is the bee that you just saw.</p>\n                    <img src=\"bees-with-color/bee-B1DF.svg\" width=\"200\">\n                    <p><span class=\"greenText\"><b>Successful harvest!</b></span><br>Your pay has increased by $0.02. Your bonus pay is now $0.22.</p>\n            ","response":0,"trial_type":"html-button-response","trial_index":74,"time_elapsed":1669406,"internal_node_id":"0.0-4.0-1.31","subject_id":"616a61f7ce03fb543086316f","study_id":"6197b3f67c2b5cd3b6d9596a","session_id":"6197b9e96f054380b61d078e","condition":"contingent","relevant_dimensions":["antennae","wings"],"bee_group":{"antennae":"A","wings":"1","pattern":"X","legs":"X"},"bonus":0.5000000000000003},{"rt":2506.7999999970198,"stimulus":"bees-with-color/bee-A2SF.svg","response":1,"trial_type":"image-button-response","trial_index":75,"time_elapsed":1671920,"internal_node_id":"0.0-4.0-0.32","subject_id":"616a61f7ce03fb543086316f","study_id":"6197b3f67c2b5cd3b6d9596a","session_id":"6197b9e96f054380b61d078e","condition":"contingent","relevant_dimensions":["antennae","wings"],"bee_group":{"antennae":"A","wings":"1","pattern":"X","legs":"X"},"action":"avoid","summary":"bad-avoid","bonus":0.5000000000000003},{"rt":9303.5,"stimulus":"\n                    <p><b>Action: <em>avoid</em></b></p>\n                    <p>This is the bee that you just saw.</p>\n                    <img src=\"bees-with-color/bee-A2SF.svg\" width=\"200\">\n                    <p><br>Your bonus pay is unchanged, and remains at $0.22.</p>\n            ","response":0,"trial_type":"html-button-response","trial_index":76,"time_elapsed":1681229,"internal_node_id":"0.0-4.0-1.32","subject_id":"616a61f7ce03fb543086316f","study_id":"6197b3f67c2b5cd3b6d9596a","session_id":"6197b9e96f054380b61d078e","condition":"contingent","relevant_dimensions":["antennae","wings"],"bee_group":{"antennae":"A","wings":"1","pattern":"X","legs":"X"},"bonus":0.5000000000000003},{"rt":6003.300000011921,"stimulus":"bees-with-color/bee-B1DF.svg","response":0,"trial_type":"image-button-response","trial_index":77,"time_elapsed":1687242,"internal_node_id":"0.0-4.0-0.33","subject_id":"616a61f7ce03fb543086316f","study_id":"6197b3f67c2b5cd3b6d9596a","session_id":"6197b9e96f054380b61d078e","condition":"contingent","relevant_dimensions":["antennae","wings"],"bee_group":{"antennae":"A","wings":"1","pattern":"X","legs":"X"},"action":"harvest","summary":"good-harvest","bonus":0.5000000000000003},{"rt":1010.2000000029802,"stimulus":"\n                    <p><b>Action: <em>harvest</em></b></p>\n                    <p>This is the bee that you just saw.</p>\n                    <img src=\"bees-with-color/bee-B1DF.svg\" width=\"200\">\n                    <p><span class=\"greenText\"><b>Successful harvest!</b></span><br>Your pay has increased by $0.02. Your bonus pay is now $0.24.</p>\n            ","response":0,"trial_type":"html-button-response","trial_index":78,"time_elapsed":1688261,"internal_node_id":"0.0-4.0-1.33","subject_id":"616a61f7ce03fb543086316f","study_id":"6197b3f67c2b5cd3b6d9596a","session_id":"6197b9e96f054380b61d078e","condition":"contingent","relevant_dimensions":["antennae","wings"],"bee_group":{"antennae":"A","wings":"1","pattern":"X","legs":"X"},"bonus":0.5000000000000003},{"rt":2680.9000000059605,"stimulus":"bees-with-color/bee-A1DM.svg","response":1,"trial_type":"image-button-response","trial_index":79,"time_elapsed":1690949,"internal_node_id":"0.0-4.0-0.34","subject_id":"616a61f7ce03fb543086316f","study_id":"6197b3f67c2b5cd3b6d9596a","session_id":"6197b9e96f054380b61d078e","condition":"contingent","relevant_dimensions":["antennae","wings"],"bee_group":{"antennae":"A","wings":"1","pattern":"X","legs":"X"},"action":"avoid","summary":"good-avoid","bonus":0.5000000000000003},{"rt":576.6000000089407,"stimulus":"\n                    <p><b>Action: <em>avoid</em></b></p>\n                    <p>This is the bee that you just saw.</p>\n                    <img src=\"bees-with-color/bee-A1DM.svg\" width=\"200\">\n                    <p><br>Your bonus pay is unchanged, and remains at $0.24.</p>\n            ","response":0,"trial_type":"html-button-response","trial_index":80,"time_elapsed":1691534,"internal_node_id":"0.0-4.0-1.34","subject_id":"616a61f7ce03fb543086316f","study_id":"6197b3f67c2b5cd3b6d9596a","session_id":"6197b9e96f054380b61d078e","condition":"contingent","relevant_dimensions":["antennae","wings"],"bee_group":{"antennae":"A","wings":"1","pattern":"X","legs":"X"},"bonus":0.5000000000000003},{"rt":4314.29999999702,"stimulus":"bees-with-color/bee-A1DF.svg","response":1,"trial_type":"image-button-response","trial_index":81,"time_elapsed":1695858,"internal_node_id":"0.0-4.0-0.35","subject_id":"616a61f7ce03fb543086316f","study_id":"6197b3f67c2b5cd3b6d9596a","session_id":"6197b9e96f054380b61d078e","condition":"contingent","relevant_dimensions":["antennae","wings"],"bee_group":{"antennae":"A","wings":"1","pattern":"X","legs":"X"},"action":"avoid","summary":"good-avoid","bonus":0.5000000000000003},{"rt":691.5,"stimulus":"\n                    <p><b>Action: <em>avoid</em></b></p>\n                    <p>This is the bee that you just saw.</p>\n                    <img src=\"bees-with-color/bee-A1DF.svg\" width=\"200\">\n                    <p><br>Your bonus pay is unchanged, and remains at $0.24.</p>\n            ","response":0,"trial_type":"html-button-response","trial_index":82,"time_elapsed":1696557,"internal_node_id":"0.0-4.0-1.35","subject_id":"616a61f7ce03fb543086316f","study_id":"6197b3f67c2b5cd3b6d9596a","session_id":"6197b9e96f054380b61d078e","condition":"contingent","relevant_dimensions":["antennae","wings"],"bee_group":{"antennae":"A","wings":"1","pattern":"X","legs":"X"},"bonus":0.5000000000000003},{"rt":17102.70000000298,"stimulus":"bees-with-color/bee-B1SF.svg","response":0,"trial_type":"image-button-response","trial_index":83,"time_elapsed":1713667,"internal_node_id":"0.0-4.0-0.36","subject_id":"616a61f7ce03fb543086316f","study_id":"6197b3f67c2b5cd3b6d9596a","session_id":"6197b9e96f054380b61d078e","condition":"contingent","relevant_dimensions":["antennae","wings"],"bee_group":{"antennae":"A","wings":"1","pattern":"X","legs":"X"},"action":"harvest","summary":"good-harvest","bonus":0.5000000000000003},{"rt":1238.2999999970198,"stimulus":"\n                    <p><b>Action: <em>harvest</em></b></p>\n                    <p>This is the bee that you just saw.</p>\n                    <img src=\"bees-with-color/bee-B1SF.svg\" width=\"200\">\n                    <p><span class=\"greenText\"><b>Successful harvest!</b></span><br>Your pay has increased by $0.02. Your bonus pay is now $0.26.</p>\n            ","response":0,"trial_type":"html-button-response","trial_index":84,"time_elapsed":1714914,"internal_node_id":"0.0-4.0-1.36","subject_id":"616a61f7ce03fb543086316f","study_id":"6197b3f67c2b5cd3b6d9596a","session_id":"6197b9e96f054380b61d078e","condition":"contingent","relevant_dimensions":["antennae","wings"],"bee_group":{"antennae":"A","wings":"1","pattern":"X","legs":"X"},"bonus":0.5000000000000003},{"rt":9426.79999999702,"stimulus":"bees-with-color/bee-A2DM.svg","response":1,"trial_type":"image-button-response","trial_index":85,"time_elapsed":1724350,"internal_node_id":"0.0-4.0-0.37","subject_id":"616a61f7ce03fb543086316f","study_id":"6197b3f67c2b5cd3b6d9596a","session_id":"6197b9e96f054380b61d078e","condition":"contingent","relevant_dimensions":["antennae","wings"],"bee_group":{"antennae":"A","wings":"1","pattern":"X","legs":"X"},"action":"avoid","summary":"bad-avoid","bonus":0.5000000000000003},{"rt":765.2999999970198,"stimulus":"\n                    <p><b>Action: <em>avoid</em></b></p>\n                    <p>This is the bee that you just saw.</p>\n                    <img src=\"bees-with-color/bee-A2DM.svg\" width=\"200\">\n                    <p><br>Your bonus pay is unchanged, and remains at $0.26.</p>\n            ","response":0,"trial_type":"html-button-response","trial_index":86,"time_elapsed":1725124,"internal_node_id":"0.0-4.0-1.37","subject_id":"616a61f7ce03fb543086316f","study_id":"6197b3f67c2b5cd3b6d9596a","session_id":"6197b9e96f054380b61d078e","condition":"contingent","relevant_dimensions":["antennae","wings"],"bee_group":{"antennae":"A","wings":"1","pattern":"X","legs":"X"},"bonus":0.5000000000000003},{"rt":10817.5,"stimulus":"bees-with-color/bee-B1DM.svg","response":1,"trial_type":"image-button-response","trial_index":87,"time_elapsed":1735945,"internal_node_id":"0.0-4.0-0.38","subject_id":"616a61f7ce03fb543086316f","study_id":"6197b3f67c2b5cd3b6d9596a","session_id":"6197b9e96f054380b61d078e","condition":"contingent","relevant_dimensions":["antennae","wings"],"bee_group":{"antennae":"A","wings":"1","pattern":"X","legs":"X"},"action":"avoid","summary":"bad-avoid","bonus":0.5000000000000003},{"rt":948.5,"stimulus":"\n                    <p><b>Action: <em>avoid</em></b></p>\n                    <p>This is the bee that you just saw.</p>\n                    <img src=\"bees-with-color/bee-B1DM.svg\" width=\"200\">\n                    <p><br>Your bonus pay is unchanged, and remains at $0.26.</p>\n            ","response":0,"trial_type":"html-button-response","trial_index":88,"time_elapsed":1736898,"internal_node_id":"0.0-4.0-1.38","subject_id":"616a61f7ce03fb543086316f","study_id":"6197b3f67c2b5cd3b6d9596a","session_id":"6197b9e96f054380b61d078e","condition":"contingent","relevant_dimensions":["antennae","wings"],"bee_group":{"antennae":"A","wings":"1","pattern":"X","legs":"X"},"bonus":0.5000000000000003},{"rt":17879.89999999106,"stimulus":"bees-with-color/bee-B2DF.svg","response":0,"trial_type":"image-button-response","trial_index":89,"time_elapsed":1754787,"internal_node_id":"0.0-4.0-0.39","subject_id":"616a61f7ce03fb543086316f","study_id":"6197b3f67c2b5cd3b6d9596a","session_id":"6197b9e96f054380b61d078e","condition":"contingent","relevant_dimensions":["antennae","wings"],"bee_group":{"antennae":"A","wings":"1","pattern":"X","legs":"X"},"action":"harvest","summary":"good-harvest","bonus":0.5000000000000003},{"rt":846.1000000089407,"stimulus":"\n                    <p><b>Action: <em>harvest</em></b></p>\n                    <p>This is the bee that you just saw.</p>\n                    <img src=\"bees-with-color/bee-B2DF.svg\" width=\"200\">\n                    <p><span class=\"greenText\"><b>Successful harvest!</b></span><br>Your pay has increased by $0.02. Your bonus pay is now $0.28.</p>\n            ","response":0,"trial_type":"html-button-response","trial_index":90,"time_elapsed":1755639,"internal_node_id":"0.0-4.0-1.39","subject_id":"616a61f7ce03fb543086316f","study_id":"6197b3f67c2b5cd3b6d9596a","session_id":"6197b9e96f054380b61d078e","condition":"contingent","relevant_dimensions":["antennae","wings"],"bee_group":{"antennae":"A","wings":"1","pattern":"X","legs":"X"},"bonus":0.5000000000000003},{"rt":6753.899999991059,"stimulus":"bees-with-color/bee-B2SM.svg","response":1,"trial_type":"image-button-response","trial_index":91,"time_elapsed":1762399,"internal_node_id":"0.0-4.0-0.40","subject_id":"616a61f7ce03fb543086316f","study_id":"6197b3f67c2b5cd3b6d9596a","session_id":"6197b9e96f054380b61d078e","condition":"contingent","relevant_dimensions":["antennae","wings"],"bee_group":{"antennae":"A","wings":"1","pattern":"X","legs":"X"},"action":"avoid","summary":"bad-avoid","bonus":0.5000000000000003},{"rt":733.2000000029802,"stimulus":"\n                    <p><b>Action: <em>avoid</em></b></p>\n                    <p>This is the bee that you just saw.</p>\n                    <img src=\"bees-with-color/bee-B2SM.svg\" width=\"200\">\n                    <p><br>Your bonus pay is unchanged, and remains at $0.28.</p>\n            ","response":0,"trial_type":"html-button-response","trial_index":92,"time_elapsed":1763140,"internal_node_id":"0.0-4.0-1.40","subject_id":"616a61f7ce03fb543086316f","study_id":"6197b3f67c2b5cd3b6d9596a","session_id":"6197b9e96f054380b61d078e","condition":"contingent","relevant_dimensions":["antennae","wings"],"bee_group":{"antennae":"A","wings":"1","pattern":"X","legs":"X"},"bonus":0.5000000000000003},{"rt":3884,"stimulus":"bees-with-color/bee-A2SM.svg","response":1,"trial_type":"image-button-response","trial_index":93,"time_elapsed":1767032,"internal_node_id":"0.0-4.0-0.41","subject_id":"616a61f7ce03fb543086316f","study_id":"6197b3f67c2b5cd3b6d9596a","session_id":"6197b9e96f054380b61d078e","condition":"contingent","relevant_dimensions":["antennae","wings"],"bee_group":{"antennae":"A","wings":"1","pattern":"X","legs":"X"},"action":"avoid","summary":"bad-avoid","bonus":0.5000000000000003},{"rt":635.4000000059605,"stimulus":"\n                    <p><b>Action: <em>avoid</em></b></p>\n                    <p>This is the bee that you just saw.</p>\n                    <img src=\"bees-with-color/bee-A2SM.svg\" width=\"200\">\n                    <p><br>Your bonus pay is unchanged, and remains at $0.28.</p>\n            ","response":0,"trial_type":"html-button-response","trial_index":94,"time_elapsed":1767679,"internal_node_id":"0.0-4.0-1.41","subject_id":"616a61f7ce03fb543086316f","study_id":"6197b3f67c2b5cd3b6d9596a","session_id":"6197b9e96f054380b61d078e","condition":"contingent","relevant_dimensions":["antennae","wings"],"bee_group":{"antennae":"A","wings":"1","pattern":"X","legs":"X"},"bonus":0.5000000000000003},{"rt":1349.5,"stimulus":"bees-with-color/bee-A1SM.svg","response":1,"trial_type":"image-button-response","trial_index":95,"time_elapsed":1769039,"internal_node_id":"0.0-4.0-0.42","subject_id":"616a61f7ce03fb543086316f","study_id":"6197b3f67c2b5cd3b6d9596a","session_id":"6197b9e96f054380b61d078e","condition":"contingent","relevant_dimensions":["antennae","wings"],"bee_group":{"antennae":"A","wings":"1","pattern":"X","legs":"X"},"action":"avoid","summary":"good-avoid","bonus":0.5000000000000003},{"rt":646.7000000029802,"stimulus":"\n                    <p><b>Action: <em>avoid</em></b></p>\n                    <p>This is the bee that you just saw.</p>\n                    <img src=\"bees-with-color/bee-A1SM.svg\" width=\"200\">\n                    <p><br>Your bonus pay is unchanged, and remains at $0.28.</p>\n            ","response":0,"trial_type":"html-button-response","trial_index":96,"time_elapsed":1769691,"internal_node_id":"0.0-4.0-1.42","subject_id":"616a61f7ce03fb543086316f","study_id":"6197b3f67c2b5cd3b6d9596a","session_id":"6197b9e96f054380b61d078e","condition":"contingent","relevant_dimensions":["antennae","wings"],"bee_group":{"antennae":"A","wings":"1","pattern":"X","legs":"X"},"bonus":0.5000000000000003},{"rt":10500.699999988079,"stimulus":"bees-with-color/bee-A1SF.svg","response":1,"trial_type":"image-button-response","trial_index":97,"time_elapsed":1780199,"internal_node_id":"0.0-4.0-0.43","subject_id":"616a61f7ce03fb543086316f","study_id":"6197b3f67c2b5cd3b6d9596a","session_id":"6197b9e96f054380b61d078e","condition":"contingent","relevant_dimensions":["antennae","wings"],"bee_group":{"antennae":"A","wings":"1","pattern":"X","legs":"X"},"action":"avoid","summary":"good-avoid","bonus":0.5000000000000003},{"rt":859.2000000029802,"stimulus":"\n                    <p><b>Action: <em>avoid</em></b></p>\n                    <p>This is the bee that you just saw.</p>\n                    <img src=\"bees-with-color/bee-A1SF.svg\" width=\"200\">\n                    <p><br>Your bonus pay is unchanged, and remains at $0.28.</p>\n            ","response":0,"trial_type":"html-button-response","trial_index":98,"time_elapsed":1781065,"internal_node_id":"0.0-4.0-1.43","subject_id":"616a61f7ce03fb543086316f","study_id":"6197b3f67c2b5cd3b6d9596a","session_id":"6197b9e96f054380b61d078e","condition":"contingent","relevant_dimensions":["antennae","wings"],"bee_group":{"antennae":"A","wings":"1","pattern":"X","legs":"X"},"bonus":0.5000000000000003},{"rt":7985.70000000298,"stimulus":"bees-with-color/bee-B1SM.svg","response":1,"trial_type":"image-button-response","trial_index":99,"time_elapsed":1789063,"internal_node_id":"0.0-4.0-0.44","subject_id":"616a61f7ce03fb543086316f","study_id":"6197b3f67c2b5cd3b6d9596a","session_id":"6197b9e96f054380b61d078e","condition":"contingent","relevant_dimensions":["antennae","wings"],"bee_group":{"antennae":"A","wings":"1","pattern":"X","legs":"X"},"action":"avoid","summary":"bad-avoid","bonus":0.5000000000000003},{"rt":840,"stimulus":"\n                    <p><b>Action: <em>avoid</em></b></p>\n                    <p>This is the bee that you just saw.</p>\n                    <img src=\"bees-with-color/bee-B1SM.svg\" width=\"200\">\n                    <p><br>Your bonus pay is unchanged, and remains at $0.28.</p>\n            ","response":0,"trial_type":"html-button-response","trial_index":100,"time_elapsed":1789909,"internal_node_id":"0.0-4.0-1.44","subject_id":"616a61f7ce03fb543086316f","study_id":"6197b3f67c2b5cd3b6d9596a","session_id":"6197b9e96f054380b61d078e","condition":"contingent","relevant_dimensions":["antennae","wings"],"bee_group":{"antennae":"A","wings":"1","pattern":"X","legs":"X"},"bonus":0.5000000000000003},{"rt":16078.699999988079,"stimulus":"bees-with-color/bee-A2DF.svg","response":1,"trial_type":"image-button-response","trial_index":101,"time_elapsed":1805997,"internal_node_id":"0.0-4.0-0.45","subject_id":"616a61f7ce03fb543086316f","study_id":"6197b3f67c2b5cd3b6d9596a","session_id":"6197b9e96f054380b61d078e","condition":"contingent","relevant_dimensions":["antennae","wings"],"bee_group":{"antennae":"A","wings":"1","pattern":"X","legs":"X"},"action":"avoid","summary":"bad-avoid","bonus":0.5000000000000003},{"rt":742.7000000029802,"stimulus":"\n                    <p><b>Action: <em>avoid</em></b></p>\n                    <p>This is the bee that you just saw.</p>\n                    <img src=\"bees-with-color/bee-A2DF.svg\" width=\"200\">\n                    <p><br>Your bonus pay is unchanged, and remains at $0.28.</p>\n            ","response":0,"trial_type":"html-button-response","trial_index":102,"time_elapsed":1806746,"internal_node_id":"0.0-4.0-1.45","subject_id":"616a61f7ce03fb543086316f","study_id":"6197b3f67c2b5cd3b6d9596a","session_id":"6197b9e96f054380b61d078e","condition":"contingent","relevant_dimensions":["antennae","wings"],"bee_group":{"antennae":"A","wings":"1","pattern":"X","legs":"X"},"bonus":0.5000000000000003},{"rt":4868.0999999940395,"stimulus":"bees-with-color/bee-B2SF.svg","response":1,"trial_type":"image-button-response","trial_index":103,"time_elapsed":1811627,"internal_node_id":"0.0-4.0-0.46","subject_id":"616a61f7ce03fb543086316f","study_id":"6197b3f67c2b5cd3b6d9596a","session_id":"6197b9e96f054380b61d078e","condition":"contingent","relevant_dimensions":["antennae","wings"],"bee_group":{"antennae":"A","wings":"1","pattern":"X","legs":"X"},"action":"avoid","summary":"bad-avoid","bonus":0.5000000000000003},{"rt":6440.29999999702,"stimulus":"\n                    <p><b>Action: <em>avoid</em></b></p>\n                    <p>This is the bee that you just saw.</p>\n                    <img src=\"bees-with-color/bee-B2SF.svg\" width=\"200\">\n                    <p><br>Your bonus pay is unchanged, and remains at $0.28.</p>\n            ","response":0,"trial_type":"html-button-response","trial_index":104,"time_elapsed":1818072,"internal_node_id":"0.0-4.0-1.46","subject_id":"616a61f7ce03fb543086316f","study_id":"6197b3f67c2b5cd3b6d9596a","session_id":"6197b9e96f054380b61d078e","condition":"contingent","relevant_dimensions":["antennae","wings"],"bee_group":{"antennae":"A","wings":"1","pattern":"X","legs":"X"},"bonus":0.5000000000000003},{"rt":18269.30000001192,"stimulus":"bees-with-color/bee-B2DM.svg","response":1,"trial_type":"image-button-response","trial_index":105,"time_elapsed":1836350,"internal_node_id":"0.0-4.0-0.47","subject_id":"616a61f7ce03fb543086316f","study_id":"6197b3f67c2b5cd3b6d9596a","session_id":"6197b9e96f054380b61d078e","condition":"contingent","relevant_dimensions":["antennae","wings"],"bee_group":{"antennae":"A","wings":"1","pattern":"X","legs":"X"},"action":"avoid","summary":"bad-avoid","bonus":0.5000000000000003},{"rt":981.5,"stimulus":"\n                    <p><b>Action: <em>avoid</em></b></p>\n                    <p>This is the bee that you just saw.</p>\n                    <img src=\"bees-with-color/bee-B2DM.svg\" width=\"200\">\n                    <p><br>Your bonus pay is unchanged, and remains at $0.28.</p>\n            ","response":0,"trial_type":"html-button-response","trial_index":106,"time_elapsed":1837337,"internal_node_id":"0.0-4.0-1.47","subject_id":"616a61f7ce03fb543086316f","study_id":"6197b3f67c2b5cd3b6d9596a","session_id":"6197b9e96f054380b61d078e","condition":"contingent","relevant_dimensions":["antennae","wings"],"bee_group":{"antennae":"A","wings":"1","pattern":"X","legs":"X"},"bonus":0.5000000000000003},{"rt":2300,"stimulus":"bees-with-color/bee-A1SF.svg","response":1,"trial_type":"image-button-response","trial_index":107,"time_elapsed":1839647,"internal_node_id":"0.0-4.0-0.48","subject_id":"616a61f7ce03fb543086316f","study_id":"6197b3f67c2b5cd3b6d9596a","session_id":"6197b9e96f054380b61d078e","condition":"contingent","relevant_dimensions":["antennae","wings"],"bee_group":{"antennae":"A","wings":"1","pattern":"X","legs":"X"},"action":"avoid","summary":"good-avoid","bonus":0.5000000000000003},{"rt":2576.5,"stimulus":"\n                    <p><b>Action: <em>avoid</em></b></p>\n                    <p>This is the bee that you just saw.</p>\n                    <img src=\"bees-with-color/bee-A1SF.svg\" width=\"200\">\n                    <p><br>Your bonus pay is unchanged, and remains at $0.28.</p>\n            ","response":0,"trial_type":"html-button-response","trial_index":108,"time_elapsed":1842229,"internal_node_id":"0.0-4.0-1.48","subject_id":"616a61f7ce03fb543086316f","study_id":"6197b3f67c2b5cd3b6d9596a","session_id":"6197b9e96f054380b61d078e","condition":"contingent","relevant_dimensions":["antennae","wings"],"bee_group":{"antennae":"A","wings":"1","pattern":"X","legs":"X"},"bonus":0.5000000000000003},{"rt":7494.0999999940395,"stimulus":"bees-with-color/bee-B1SF.svg","response":1,"trial_type":"image-button-response","trial_index":109,"time_elapsed":1849725,"internal_node_id":"0.0-4.0-0.49","subject_id":"616a61f7ce03fb543086316f","study_id":"6197b3f67c2b5cd3b6d9596a","session_id":"6197b9e96f054380b61d078e","condition":"contingent","relevant_dimensions":["antennae","wings"],"bee_group":{"antennae":"A","wings":"1","pattern":"X","legs":"X"},"action":"avoid","summary":"bad-avoid","bonus":0.5000000000000003},{"rt":787.0999999940395,"stimulus":"\n                    <p><b>Action: <em>avoid</em></b></p>\n                    <p>This is the bee that you just saw.</p>\n                    <img src=\"bees-with-color/bee-B1SF.svg\" width=\"200\">\n                    <p><br>Your bonus pay is unchanged, and remains at $0.28.</p>\n            ","response":0,"trial_type":"html-button-response","trial_index":110,"time_elapsed":1850517,"internal_node_id":"0.0-4.0-1.49","subject_id":"616a61f7ce03fb543086316f","study_id":"6197b3f67c2b5cd3b6d9596a","session_id":"6197b9e96f054380b61d078e","condition":"contingent","relevant_dimensions":["antennae","wings"],"bee_group":{"antennae":"A","wings":"1","pattern":"X","legs":"X"},"bonus":0.5000000000000003},{"rt":3655.0999999940395,"stimulus":"bees-with-color/bee-A2DF.svg","response":1,"trial_type":"image-button-response","trial_index":111,"time_elapsed":1854180,"internal_node_id":"0.0-4.0-0.50","subject_id":"616a61f7ce03fb543086316f","study_id":"6197b3f67c2b5cd3b6d9596a","session_id":"6197b9e96f054380b61d078e","condition":"contingent","relevant_dimensions":["antennae","wings"],"bee_group":{"antennae":"A","wings":"1","pattern":"X","legs":"X"},"action":"avoid","summary":"bad-avoid","bonus":0.5000000000000003},{"rt":1378.9000000059605,"stimulus":"\n                    <p><b>Action: <em>avoid</em></b></p>\n                    <p>This is the bee that you just saw.</p>\n                    <img src=\"bees-with-color/bee-A2DF.svg\" width=\"200\">\n                    <p><br>Your bonus pay is unchanged, and remains at $0.28.</p>\n            ","response":0,"trial_type":"html-button-response","trial_index":112,"time_elapsed":1855565,"internal_node_id":"0.0-4.0-1.50","subject_id":"616a61f7ce03fb543086316f","study_id":"6197b3f67c2b5cd3b6d9596a","session_id":"6197b9e96f054380b61d078e","condition":"contingent","relevant_dimensions":["antennae","wings"],"bee_group":{"antennae":"A","wings":"1","pattern":"X","legs":"X"},"bonus":0.5000000000000003},{"rt":5456.29999999702,"stimulus":"bees-with-color/bee-A1DF.svg","response":1,"trial_type":"image-button-response","trial_index":113,"time_elapsed":1861028,"internal_node_id":"0.0-4.0-0.51","subject_id":"616a61f7ce03fb543086316f","study_id":"6197b3f67c2b5cd3b6d9596a","session_id":"6197b9e96f054380b61d078e","condition":"contingent","relevant_dimensions":["antennae","wings"],"bee_group":{"antennae":"A","wings":"1","pattern":"X","legs":"X"},"action":"avoid","summary":"good-avoid","bonus":0.5000000000000003},{"rt":697.2999999970198,"stimulus":"\n                    <p><b>Action: <em>avoid</em></b></p>\n                    <p>This is the bee that you just saw.</p>\n                    <img src=\"bees-with-color/bee-A1DF.svg\" width=\"200\">\n                    <p><br>Your bonus pay is unchanged, and remains at $0.28.</p>\n            ","response":0,"trial_type":"html-button-response","trial_index":114,"time_elapsed":1861730,"internal_node_id":"0.0-4.0-1.51","subject_id":"616a61f7ce03fb543086316f","study_id":"6197b3f67c2b5cd3b6d9596a","session_id":"6197b9e96f054380b61d078e","condition":"contingent","relevant_dimensions":["antennae","wings"],"bee_group":{"antennae":"A","wings":"1","pattern":"X","legs":"X"},"bonus":0.5000000000000003},{"rt":3043.3999999910593,"stimulus":"bees-with-color/bee-A2SM.svg","response":1,"trial_type":"image-button-response","trial_index":115,"time_elapsed":1864779,"internal_node_id":"0.0-4.0-0.52","subject_id":"616a61f7ce03fb543086316f","study_id":"6197b3f67c2b5cd3b6d9596a","session_id":"6197b9e96f054380b61d078e","condition":"contingent","relevant_dimensions":["antennae","wings"],"bee_group":{"antennae":"A","wings":"1","pattern":"X","legs":"X"},"action":"avoid","summary":"bad-avoid","bonus":0.5000000000000003},{"rt":556.1000000089407,"stimulus":"\n                    <p><b>Action: <em>avoid</em></b></p>\n                    <p>This is the bee that you just saw.</p>\n                    <img src=\"bees-with-color/bee-A2SM.svg\" width=\"200\">\n                    <p><br>Your bonus pay is unchanged, and remains at $0.28.</p>\n            ","response":0,"trial_type":"html-button-response","trial_index":116,"time_elapsed":1865341,"internal_node_id":"0.0-4.0-1.52","subject_id":"616a61f7ce03fb543086316f","study_id":"6197b3f67c2b5cd3b6d9596a","session_id":"6197b9e96f054380b61d078e","condition":"contingent","relevant_dimensions":["antennae","wings"],"bee_group":{"antennae":"A","wings":"1","pattern":"X","legs":"X"},"bonus":0.5000000000000003},{"rt":11255.29999999702,"stimulus":"bees-with-color/bee-B2DM.svg","response":1,"trial_type":"image-button-response","trial_index":117,"time_elapsed":1876602,"internal_node_id":"0.0-4.0-0.53","subject_id":"616a61f7ce03fb543086316f","study_id":"6197b3f67c2b5cd3b6d9596a","session_id":"6197b9e96f054380b61d078e","condition":"contingent","relevant_dimensions":["antennae","wings"],"bee_group":{"antennae":"A","wings":"1","pattern":"X","legs":"X"},"action":"avoid","summary":"bad-avoid","bonus":0.5000000000000003},{"rt":2411.2000000029802,"stimulus":"\n                    <p><b>Action: <em>avoid</em></b></p>\n                    <p>This is the bee that you just saw.</p>\n                    <img src=\"bees-with-color/bee-B2DM.svg\" width=\"200\">\n                    <p><br>Your bonus pay is unchanged, and remains at $0.28.</p>\n            ","response":0,"trial_type":"html-button-response","trial_index":118,"time_elapsed":1879023,"internal_node_id":"0.0-4.0-1.53","subject_id":"616a61f7ce03fb543086316f","study_id":"6197b3f67c2b5cd3b6d9596a","session_id":"6197b9e96f054380b61d078e","condition":"contingent","relevant_dimensions":["antennae","wings"],"bee_group":{"antennae":"A","wings":"1","pattern":"X","legs":"X"},"bonus":0.5000000000000003},{"rt":2954.199999988079,"stimulus":"bees-with-color/bee-A2SF.svg","response":1,"trial_type":"image-button-response","trial_index":119,"time_elapsed":1881984,"internal_node_id":"0.0-4.0-0.54","subject_id":"616a61f7ce03fb543086316f","study_id":"6197b3f67c2b5cd3b6d9596a","session_id":"6197b9e96f054380b61d078e","condition":"contingent","relevant_dimensions":["antennae","wings"],"bee_group":{"antennae":"A","wings":"1","pattern":"X","legs":"X"},"action":"avoid","summary":"bad-avoid","bonus":0.5000000000000003},{"rt":751.6000000089407,"stimulus":"\n                    <p><b>Action: <em>avoid</em></b></p>\n                    <p>This is the bee that you just saw.</p>\n                    <img src=\"bees-with-color/bee-A2SF.svg\" width=\"200\">\n                    <p><br>Your bonus pay is unchanged, and remains at $0.28.</p>\n            ","response":0,"trial_type":"html-button-response","trial_index":120,"time_elapsed":1882746,"internal_node_id":"0.0-4.0-1.54","subject_id":"616a61f7ce03fb543086316f","study_id":"6197b3f67c2b5cd3b6d9596a","session_id":"6197b9e96f054380b61d078e","condition":"contingent","relevant_dimensions":["antennae","wings"],"bee_group":{"antennae":"A","wings":"1","pattern":"X","legs":"X"},"bonus":0.5000000000000003},{"rt":2544.0999999940395,"stimulus":"bees-with-color/bee-B2DF.svg","response":1,"trial_type":"image-button-response","trial_index":121,"time_elapsed":1885298,"internal_node_id":"0.0-4.0-0.55","subject_id":"616a61f7ce03fb543086316f","study_id":"6197b3f67c2b5cd3b6d9596a","session_id":"6197b9e96f054380b61d078e","condition":"contingent","relevant_dimensions":["antennae","wings"],"bee_group":{"antennae":"A","wings":"1","pattern":"X","legs":"X"},"action":"avoid","summary":"bad-avoid","bonus":0.5000000000000003},{"rt":625.7000000029802,"stimulus":"\n                    <p><b>Action: <em>avoid</em></b></p>\n                    <p>This is the bee that you just saw.</p>\n                    <img src=\"bees-with-color/bee-B2DF.svg\" width=\"200\">\n                    <p><br>Your bonus pay is unchanged, and remains at $0.28.</p>\n            ","response":0,"trial_type":"html-button-response","trial_index":122,"time_elapsed":1885930,"internal_node_id":"0.0-4.0-1.55","subject_id":"616a61f7ce03fb543086316f","study_id":"6197b3f67c2b5cd3b6d9596a","session_id":"6197b9e96f054380b61d078e","condition":"contingent","relevant_dimensions":["antennae","wings"],"bee_group":{"antennae":"A","wings":"1","pattern":"X","legs":"X"},"bonus":0.5000000000000003},{"rt":1731.7999999970198,"stimulus":"bees-with-color/bee-A1DM.svg","response":1,"trial_type":"image-button-response","trial_index":123,"time_elapsed":1887670,"internal_node_id":"0.0-4.0-0.56","subject_id":"616a61f7ce03fb543086316f","study_id":"6197b3f67c2b5cd3b6d9596a","session_id":"6197b9e96f054380b61d078e","condition":"contingent","relevant_dimensions":["antennae","wings"],"bee_group":{"antennae":"A","wings":"1","pattern":"X","legs":"X"},"action":"avoid","summary":"good-avoid","bonus":0.5000000000000003},{"rt":676.7000000029802,"stimulus":"\n                    <p><b>Action: <em>avoid</em></b></p>\n                    <p>This is the bee that you just saw.</p>\n                    <img src=\"bees-with-color/bee-A1DM.svg\" width=\"200\">\n                    <p><br>Your bonus pay is unchanged, and remains at $0.28.</p>\n            ","response":0,"trial_type":"html-button-response","trial_index":124,"time_elapsed":1888355,"internal_node_id":"0.0-4.0-1.56","subject_id":"616a61f7ce03fb543086316f","study_id":"6197b3f67c2b5cd3b6d9596a","session_id":"6197b9e96f054380b61d078e","condition":"contingent","relevant_dimensions":["antennae","wings"],"bee_group":{"antennae":"A","wings":"1","pattern":"X","legs":"X"},"bonus":0.5000000000000003},{"rt":6519.29999999702,"stimulus":"bees-with-color/bee-B2SF.svg","response":0,"trial_type":"image-button-response","trial_index":125,"time_elapsed":1894880,"internal_node_id":"0.0-4.0-0.57","subject_id":"616a61f7ce03fb543086316f","study_id":"6197b3f67c2b5cd3b6d9596a","session_id":"6197b9e96f054380b61d078e","condition":"contingent","relevant_dimensions":["antennae","wings"],"bee_group":{"antennae":"A","wings":"1","pattern":"X","legs":"X"},"action":"harvest","summary":"good-harvest","bonus":0.5000000000000003},{"rt":1241.4000000059605,"stimulus":"\n                    <p><b>Action: <em>harvest</em></b></p>\n                    <p>This is the bee that you just saw.</p>\n                    <img src=\"bees-with-color/bee-B2SF.svg\" width=\"200\">\n                    <p><span class=\"greenText\"><b>Successful harvest!</b></span><br>Your pay has increased by $0.02. Your bonus pay is now $0.30.</p>\n            ","response":0,"trial_type":"html-button-response","trial_index":126,"time_elapsed":1896127,"internal_node_id":"0.0-4.0-1.57","subject_id":"616a61f7ce03fb543086316f","study_id":"6197b3f67c2b5cd3b6d9596a","session_id":"6197b9e96f054380b61d078e","condition":"contingent","relevant_dimensions":["antennae","wings"],"bee_group":{"antennae":"A","wings":"1","pattern":"X","legs":"X"},"bonus":0.5000000000000003},{"rt":8187.79999999702,"stimulus":"bees-with-color/bee-B1DF.svg","response":0,"trial_type":"image-button-response","trial_index":127,"time_elapsed":1904326,"internal_node_id":"0.0-4.0-0.58","subject_id":"616a61f7ce03fb543086316f","study_id":"6197b3f67c2b5cd3b6d9596a","session_id":"6197b9e96f054380b61d078e","condition":"contingent","relevant_dimensions":["antennae","wings"],"bee_group":{"antennae":"A","wings":"1","pattern":"X","legs":"X"},"action":"harvest","summary":"good-harvest","bonus":0.5000000000000003},{"rt":834.2999999970198,"stimulus":"\n                    <p><b>Action: <em>harvest</em></b></p>\n                    <p>This is the bee that you just saw.</p>\n                    <img src=\"bees-with-color/bee-B1DF.svg\" width=\"200\">\n                    <p><span class=\"greenText\"><b>Successful harvest!</b></span><br>Your pay has increased by $0.02. Your bonus pay is now $0.32.</p>\n            ","response":0,"trial_type":"html-button-response","trial_index":128,"time_elapsed":1905165,"internal_node_id":"0.0-4.0-1.58","subject_id":"616a61f7ce03fb543086316f","study_id":"6197b3f67c2b5cd3b6d9596a","session_id":"6197b9e96f054380b61d078e","condition":"contingent","relevant_dimensions":["antennae","wings"],"bee_group":{"antennae":"A","wings":"1","pattern":"X","legs":"X"},"bonus":0.5000000000000003},{"rt":2270.2000000029802,"stimulus":"bees-with-color/bee-B2SM.svg","response":1,"trial_type":"image-button-response","trial_index":129,"time_elapsed":1907443,"internal_node_id":"0.0-4.0-0.59","subject_id":"616a61f7ce03fb543086316f","study_id":"6197b3f67c2b5cd3b6d9596a","session_id":"6197b9e96f054380b61d078e","condition":"contingent","relevant_dimensions":["antennae","wings"],"bee_group":{"antennae":"A","wings":"1","pattern":"X","legs":"X"},"action":"avoid","summary":"bad-avoid","bonus":0.5000000000000003},{"rt":636.6000000089407,"stimulus":"\n                    <p><b>Action: <em>avoid</em></b></p>\n                    <p>This is the bee that you just saw.</p>\n                    <img src=\"bees-with-color/bee-B2SM.svg\" width=\"200\">\n                    <p><br>Your bonus pay is unchanged, and remains at $0.32.</p>\n            ","response":0,"trial_type":"html-button-response","trial_index":130,"time_elapsed":1908085,"internal_node_id":"0.0-4.0-1.59","subject_id":"616a61f7ce03fb543086316f","study_id":"6197b3f67c2b5cd3b6d9596a","session_id":"6197b9e96f054380b61d078e","condition":"contingent","relevant_dimensions":["antennae","wings"],"bee_group":{"antennae":"A","wings":"1","pattern":"X","legs":"X"},"bonus":0.5000000000000003},{"rt":1972.5999999940395,"stimulus":"bees-with-color/bee-A2DM.svg","response":1,"trial_type":"image-button-response","trial_index":131,"time_elapsed":1910066,"internal_node_id":"0.0-4.0-0.60","subject_id":"616a61f7ce03fb543086316f","study_id":"6197b3f67c2b5cd3b6d9596a","session_id":"6197b9e96f054380b61d078e","condition":"contingent","relevant_dimensions":["antennae","wings"],"bee_group":{"antennae":"A","wings":"1","pattern":"X","legs":"X"},"action":"avoid","summary":"bad-avoid","bonus":0.5000000000000003},{"rt":625.5,"stimulus":"\n                    <p><b>Action: <em>avoid</em></b></p>\n                    <p>This is the bee that you just saw.</p>\n                    <img src=\"bees-with-color/bee-A2DM.svg\" width=\"200\">\n                    <p><br>Your bonus pay is unchanged, and remains at $0.32.</p>\n            ","response":0,"trial_type":"html-button-response","trial_index":132,"time_elapsed":1910697,"internal_node_id":"0.0-4.0-1.60","subject_id":"616a61f7ce03fb543086316f","study_id":"6197b3f67c2b5cd3b6d9596a","session_id":"6197b9e96f054380b61d078e","condition":"contingent","relevant_dimensions":["antennae","wings"],"bee_group":{"antennae":"A","wings":"1","pattern":"X","legs":"X"},"bonus":0.5000000000000003},{"rt":1841.300000011921,"stimulus":"bees-with-color/bee-B1DM.svg","response":1,"trial_type":"image-button-response","trial_index":133,"time_elapsed":1912543,"internal_node_id":"0.0-4.0-0.61","subject_id":"616a61f7ce03fb543086316f","study_id":"6197b3f67c2b5cd3b6d9596a","session_id":"6197b9e96f054380b61d078e","condition":"contingent","relevant_dimensions":["antennae","wings"],"bee_group":{"antennae":"A","wings":"1","pattern":"X","legs":"X"},"action":"avoid","summary":"bad-avoid","bonus":0.5000000000000003},{"rt":680.0999999940395,"stimulus":"\n                    <p><b>Action: <em>avoid</em></b></p>\n                    <p>This is the bee that you just saw.</p>\n                    <img src=\"bees-with-color/bee-B1DM.svg\" width=\"200\">\n                    <p><br>Your bonus pay is unchanged, and remains at $0.32.</p>\n            ","response":0,"trial_type":"html-button-response","trial_index":134,"time_elapsed":1913230,"internal_node_id":"0.0-4.0-1.61","subject_id":"616a61f7ce03fb543086316f","study_id":"6197b3f67c2b5cd3b6d9596a","session_id":"6197b9e96f054380b61d078e","condition":"contingent","relevant_dimensions":["antennae","wings"],"bee_group":{"antennae":"A","wings":"1","pattern":"X","legs":"X"},"bonus":0.5000000000000003},{"rt":1679,"stimulus":"bees-with-color/bee-B1SM.svg","response":1,"trial_type":"image-button-response","trial_index":135,"time_elapsed":1914914,"internal_node_id":"0.0-4.0-0.62","subject_id":"616a61f7ce03fb543086316f","study_id":"6197b3f67c2b5cd3b6d9596a","session_id":"6197b9e96f054380b61d078e","condition":"contingent","relevant_dimensions":["antennae","wings"],"bee_group":{"antennae":"A","wings":"1","pattern":"X","legs":"X"},"action":"avoid","summary":"bad-avoid","bonus":0.5000000000000003},{"rt":592.7000000029802,"stimulus":"\n                    <p><b>Action: <em>avoid</em></b></p>\n                    <p>This is the bee that you just saw.</p>\n                    <img src=\"bees-with-color/bee-B1SM.svg\" width=\"200\">\n                    <p><br>Your bonus pay is unchanged, and remains at $0.32.</p>\n            ","response":0,"trial_type":"html-button-response","trial_index":136,"time_elapsed":1915514,"internal_node_id":"0.0-4.0-1.62","subject_id":"616a61f7ce03fb543086316f","study_id":"6197b3f67c2b5cd3b6d9596a","session_id":"6197b9e96f054380b61d078e","condition":"contingent","relevant_dimensions":["antennae","wings"],"bee_group":{"antennae":"A","wings":"1","pattern":"X","legs":"X"},"bonus":0.5000000000000003},{"rt":842.7000000029802,"stimulus":"bees-with-color/bee-A1SM.svg","response":1,"trial_type":"image-button-response","trial_index":137,"time_elapsed":1916365,"internal_node_id":"0.0-4.0-0.63","subject_id":"616a61f7ce03fb543086316f","study_id":"6197b3f67c2b5cd3b6d9596a","session_id":"6197b9e96f054380b61d078e","condition":"contingent","relevant_dimensions":["antennae","wings"],"bee_group":{"antennae":"A","wings":"1","pattern":"X","legs":"X"},"action":"avoid","summary":"good-avoid","bonus":0.5000000000000003},{"rt":646.6000000089407,"stimulus":"\n                    <p><b>Action: <em>avoid</em></b></p>\n                    <p>This is the bee that you just saw.</p>\n                    <img src=\"bees-with-color/bee-A1SM.svg\" width=\"200\">\n                    <p><br>Your bonus pay is unchanged, and remains at $0.32.</p>\n            ","response":0,"trial_type":"html-button-response","trial_index":138,"time_elapsed":1917018,"internal_node_id":"0.0-4.0-1.63","subject_id":"616a61f7ce03fb543086316f","study_id":"6197b3f67c2b5cd3b6d9596a","session_id":"6197b9e96f054380b61d078e","condition":"contingent","relevant_dimensions":["antennae","wings"],"bee_group":{"antennae":"A","wings":"1","pattern":"X","legs":"X"},"bonus":0.5000000000000003},{"rt":14370.09999999404,"stimulus":"You have completed the first part of this experiment.<br><br>You will now begin a shorter second part, in which you will receive no feedback.<br>The same rules regarding bonus pay apply.<br><br>Press any key to begin.","response":"g","trial_type":"html-keyboard-response","trial_index":139,"time_elapsed":1931397,"internal_node_id":"0.0-5.0","subject_id":"616a61f7ce03fb543086316f","study_id":"6197b3f67c2b5cd3b6d9596a","session_id":"6197b9e96f054380b61d078e","condition":"contingent","relevant_dimensions":["antennae","wings"],"bee_group":{"antennae":"A","wings":"1","pattern":"X","legs":"X"},"bonus":0.5000000000000003},{"rt":12507.5,"stimulus":"bees-with-color/bee-B2SF.svg","response":0,"trial_type":"image-button-response","trial_index":140,"time_elapsed":1943935,"internal_node_id":"0.0-6.0-0.0","subject_id":"616a61f7ce03fb543086316f","study_id":"6197b3f67c2b5cd3b6d9596a","session_id":"6197b9e96f054380b61d078e","condition":"contingent","relevant_dimensions":["antennae","wings"],"bee_group":{"antennae":"A","wings":"1","pattern":"X","legs":"X"},"bonus":0.5000000000000003},{"rt":4943.699999988079,"stimulus":"bees-with-color/bee-B1DF.svg","response":0,"trial_type":"image-button-response","trial_index":141,"time_elapsed":1948892,"internal_node_id":"0.0-6.0-0.1","subject_id":"616a61f7ce03fb543086316f","study_id":"6197b3f67c2b5cd3b6d9596a","session_id":"6197b9e96f054380b61d078e","condition":"contingent","relevant_dimensions":["antennae","wings"],"bee_group":{"antennae":"A","wings":"1","pattern":"X","legs":"X"},"bonus":0.5000000000000003},{"rt":2467.5,"stimulus":"bees-with-color/bee-A1DM.svg","response":1,"trial_type":"image-button-response","trial_index":142,"time_elapsed":1951368,"internal_node_id":"0.0-6.0-0.2","subject_id":"616a61f7ce03fb543086316f","study_id":"6197b3f67c2b5cd3b6d9596a","session_id":"6197b9e96f054380b61d078e","condition":"contingent","relevant_dimensions":["antennae","wings"],"bee_group":{"antennae":"A","wings":"1","pattern":"X","legs":"X"},"bonus":0.5000000000000003},{"rt":1407.2000000029802,"stimulus":"bees-with-color/bee-B1DM.svg","response":1,"trial_type":"image-button-response","trial_index":143,"time_elapsed":1952782,"internal_node_id":"0.0-6.0-0.3","subject_id":"616a61f7ce03fb543086316f","study_id":"6197b3f67c2b5cd3b6d9596a","session_id":"6197b9e96f054380b61d078e","condition":"contingent","relevant_dimensions":["antennae","wings"],"bee_group":{"antennae":"A","wings":"1","pattern":"X","legs":"X"},"bonus":0.5000000000000003},{"rt":1426.9000000059605,"stimulus":"bees-with-color/bee-B2DM.svg","response":1,"trial_type":"image-button-response","trial_index":144,"time_elapsed":1954216,"internal_node_id":"0.0-6.0-0.4","subject_id":"616a61f7ce03fb543086316f","study_id":"6197b3f67c2b5cd3b6d9596a","session_id":"6197b9e96f054380b61d078e","condition":"contingent","relevant_dimensions":["antennae","wings"],"bee_group":{"antennae":"A","wings":"1","pattern":"X","legs":"X"},"bonus":0.5000000000000003},{"rt":2922.5,"stimulus":"bees-with-color/bee-B1SF.svg","response":0,"trial_type":"image-button-response","trial_index":145,"time_elapsed":1957147,"internal_node_id":"0.0-6.0-0.5","subject_id":"616a61f7ce03fb543086316f","study_id":"6197b3f67c2b5cd3b6d9596a","session_id":"6197b9e96f054380b61d078e","condition":"contingent","relevant_dimensions":["antennae","wings"],"bee_group":{"antennae":"A","wings":"1","pattern":"X","legs":"X"},"bonus":0.5000000000000003},{"rt":1291.8999999910593,"stimulus":"bees-with-color/bee-A2SM.svg","response":1,"trial_type":"image-button-response","trial_index":146,"time_elapsed":1958449,"internal_node_id":"0.0-6.0-0.6","subject_id":"616a61f7ce03fb543086316f","study_id":"6197b3f67c2b5cd3b6d9596a","session_id":"6197b9e96f054380b61d078e","condition":"contingent","relevant_dimensions":["antennae","wings"],"bee_group":{"antennae":"A","wings":"1","pattern":"X","legs":"X"},"bonus":0.5000000000000003},{"rt":2277,"stimulus":"bees-with-color/bee-A1SF.svg","response":1,"trial_type":"image-button-response","trial_index":147,"time_elapsed":1960733,"internal_node_id":"0.0-6.0-0.7","subject_id":"616a61f7ce03fb543086316f","study_id":"6197b3f67c2b5cd3b6d9596a","session_id":"6197b9e96f054380b61d078e","condition":"contingent","relevant_dimensions":["antennae","wings"],"bee_group":{"antennae":"A","wings":"1","pattern":"X","legs":"X"},"bonus":0.5000000000000003},{"rt":1266.7999999970198,"stimulus":"bees-with-color/bee-A2DM.svg","response":1,"trial_type":"image-button-response","trial_index":148,"time_elapsed":1962007,"internal_node_id":"0.0-6.0-0.8","subject_id":"616a61f7ce03fb543086316f","study_id":"6197b3f67c2b5cd3b6d9596a","session_id":"6197b9e96f054380b61d078e","condition":"contingent","relevant_dimensions":["antennae","wings"],"bee_group":{"antennae":"A","wings":"1","pattern":"X","legs":"X"},"bonus":0.5000000000000003},{"rt":5185.4000000059605,"stimulus":"bees-with-color/bee-B2DF.svg","response":0,"trial_type":"image-button-response","trial_index":149,"time_elapsed":1967201,"internal_node_id":"0.0-6.0-0.9","subject_id":"616a61f7ce03fb543086316f","study_id":"6197b3f67c2b5cd3b6d9596a","session_id":"6197b9e96f054380b61d078e","condition":"contingent","relevant_dimensions":["antennae","wings"],"bee_group":{"antennae":"A","wings":"1","pattern":"X","legs":"X"},"bonus":0.5000000000000003},{"rt":5560.70000000298,"stimulus":"bees-with-color/bee-B1SM.svg","response":1,"trial_type":"image-button-response","trial_index":150,"time_elapsed":1972769,"internal_node_id":"0.0-6.0-0.10","subject_id":"616a61f7ce03fb543086316f","study_id":"6197b3f67c2b5cd3b6d9596a","session_id":"6197b9e96f054380b61d078e","condition":"contingent","relevant_dimensions":["antennae","wings"],"bee_group":{"antennae":"A","wings":"1","pattern":"X","legs":"X"},"bonus":0.5000000000000003},{"rt":1814,"stimulus":"bees-with-color/bee-B2SM.svg","response":1,"trial_type":"image-button-response","trial_index":151,"time_elapsed":1974590,"internal_node_id":"0.0-6.0-0.11","subject_id":"616a61f7ce03fb543086316f","study_id":"6197b3f67c2b5cd3b6d9596a","session_id":"6197b9e96f054380b61d078e","condition":"contingent","relevant_dimensions":["antennae","wings"],"bee_group":{"antennae":"A","wings":"1","pattern":"X","legs":"X"},"bonus":0.5000000000000003},{"rt":1550.2000000029802,"stimulus":"bees-with-color/bee-A1SM.svg","response":1,"trial_type":"image-button-response","trial_index":152,"time_elapsed":1976150,"internal_node_id":"0.0-6.0-0.12","subject_id":"616a61f7ce03fb543086316f","study_id":"6197b3f67c2b5cd3b6d9596a","session_id":"6197b9e96f054380b61d078e","condition":"contingent","relevant_dimensions":["antennae","wings"],"bee_group":{"antennae":"A","wings":"1","pattern":"X","legs":"X"},"bonus":0.5000000000000003},{"rt":2175.5,"stimulus":"bees-with-color/bee-A1DF.svg","response":1,"trial_type":"image-button-response","trial_index":153,"time_elapsed":1978334,"internal_node_id":"0.0-6.0-0.13","subject_id":"616a61f7ce03fb543086316f","study_id":"6197b3f67c2b5cd3b6d9596a","session_id":"6197b9e96f054380b61d078e","condition":"contingent","relevant_dimensions":["antennae","wings"],"bee_group":{"antennae":"A","wings":"1","pattern":"X","legs":"X"},"bonus":0.5000000000000003},{"rt":1362.7000000029802,"stimulus":"bees-with-color/bee-A2DF.svg","response":1,"trial_type":"image-button-response","trial_index":154,"time_elapsed":1979706,"internal_node_id":"0.0-6.0-0.14","subject_id":"616a61f7ce03fb543086316f","study_id":"6197b3f67c2b5cd3b6d9596a","session_id":"6197b9e96f054380b61d078e","condition":"contingent","relevant_dimensions":["antennae","wings"],"bee_group":{"antennae":"A","wings":"1","pattern":"X","legs":"X"},"bonus":0.5000000000000003},{"rt":1768.5,"stimulus":"bees-with-color/bee-A2SF.svg","response":1,"trial_type":"image-button-response","trial_index":155,"time_elapsed":1981486,"internal_node_id":"0.0-6.0-0.15","subject_id":"616a61f7ce03fb543086316f","study_id":"6197b3f67c2b5cd3b6d9596a","session_id":"6197b9e96f054380b61d078e","condition":"contingent","relevant_dimensions":["antennae","wings"],"bee_group":{"antennae":"A","wings":"1","pattern":"X","legs":"X"},"bonus":0.5000000000000003},{"rt":1146,"stimulus":"bees-with-color/bee-B1DM.svg","response":1,"trial_type":"image-button-response","trial_index":156,"time_elapsed":1982639,"internal_node_id":"0.0-6.0-0.16","subject_id":"616a61f7ce03fb543086316f","study_id":"6197b3f67c2b5cd3b6d9596a","session_id":"6197b9e96f054380b61d078e","condition":"contingent","relevant_dimensions":["antennae","wings"],"bee_group":{"antennae":"A","wings":"1","pattern":"X","legs":"X"},"bonus":0.5000000000000003},{"rt":1941.9000000059605,"stimulus":"bees-with-color/bee-A1SF.svg","response":1,"trial_type":"image-button-response","trial_index":157,"time_elapsed":1984587,"internal_node_id":"0.0-6.0-0.17","subject_id":"616a61f7ce03fb543086316f","study_id":"6197b3f67c2b5cd3b6d9596a","session_id":"6197b9e96f054380b61d078e","condition":"contingent","relevant_dimensions":["antennae","wings"],"bee_group":{"antennae":"A","wings":"1","pattern":"X","legs":"X"},"bonus":0.5000000000000003},{"rt":4183.100000008941,"stimulus":"bees-with-color/bee-B2SF.svg","response":0,"trial_type":"image-button-response","trial_index":158,"time_elapsed":1988777,"internal_node_id":"0.0-6.0-0.18","subject_id":"616a61f7ce03fb543086316f","study_id":"6197b3f67c2b5cd3b6d9596a","session_id":"6197b9e96f054380b61d078e","condition":"contingent","relevant_dimensions":["antennae","wings"],"bee_group":{"antennae":"A","wings":"1","pattern":"X","legs":"X"},"bonus":0.5000000000000003},{"rt":577.1999999880791,"stimulus":"bees-with-color/bee-B2SM.svg","response":1,"trial_type":"image-button-response","trial_index":159,"time_elapsed":1989363,"internal_node_id":"0.0-6.0-0.19","subject_id":"616a61f7ce03fb543086316f","study_id":"6197b3f67c2b5cd3b6d9596a","session_id":"6197b9e96f054380b61d078e","condition":"contingent","relevant_dimensions":["antennae","wings"],"bee_group":{"antennae":"A","wings":"1","pattern":"X","legs":"X"},"bonus":0.5000000000000003},{"rt":748.1999999880791,"stimulus":"bees-with-color/bee-A1SM.svg","response":1,"trial_type":"image-button-response","trial_index":160,"time_elapsed":1990119,"internal_node_id":"0.0-6.0-0.20","subject_id":"616a61f7ce03fb543086316f","study_id":"6197b3f67c2b5cd3b6d9596a","session_id":"6197b9e96f054380b61d078e","condition":"contingent","relevant_dimensions":["antennae","wings"],"bee_group":{"antennae":"A","wings":"1","pattern":"X","legs":"X"},"bonus":0.5000000000000003},{"rt":725.9000000059605,"stimulus":"bees-with-color/bee-A2DF.svg","response":1,"trial_type":"image-button-response","trial_index":161,"time_elapsed":1990851,"internal_node_id":"0.0-6.0-0.21","subject_id":"616a61f7ce03fb543086316f","study_id":"6197b3f67c2b5cd3b6d9596a","session_id":"6197b9e96f054380b61d078e","condition":"contingent","relevant_dimensions":["antennae","wings"],"bee_group":{"antennae":"A","wings":"1","pattern":"X","legs":"X"},"bonus":0.5000000000000003},{"rt":801.9000000059605,"stimulus":"bees-with-color/bee-B1SM.svg","response":1,"trial_type":"image-button-response","trial_index":162,"time_elapsed":1991660,"internal_node_id":"0.0-6.0-0.22","subject_id":"616a61f7ce03fb543086316f","study_id":"6197b3f67c2b5cd3b6d9596a","session_id":"6197b9e96f054380b61d078e","condition":"contingent","relevant_dimensions":["antennae","wings"],"bee_group":{"antennae":"A","wings":"1","pattern":"X","legs":"X"},"bonus":0.5000000000000003},{"rt":1282.9000000059605,"stimulus":"bees-with-color/bee-B1DF.svg","response":0,"trial_type":"image-button-response","trial_index":163,"time_elapsed":1992950,"internal_node_id":"0.0-6.0-0.23","subject_id":"616a61f7ce03fb543086316f","study_id":"6197b3f67c2b5cd3b6d9596a","session_id":"6197b9e96f054380b61d078e","condition":"contingent","relevant_di