[{"success":true,"trial_type":"fullscreen","trial_index":0,"time_elapsed":6379,"internal_node_id":"0.0-0.0","subject_id":"5f09068244f84c18faaa74bc","study_id":"6197b3f67c2b5cd3b6d9596a","session_id":"619be58e3fcd1d6a982c31f6","condition":"contingent","relevant_dimensions":["antennae","pattern"],"bee_group":{"antennae":"B","wings":"X","pattern":"D","legs":"X"},"bonus":1.060000000000001},{"success":true,"timeout":false,"failed_images":[],"failed_audio":[],"failed_video":[],"trial_type":"preload","trial_index":1,"time_elapsed":7821,"internal_node_id":"0.0-1.0","subject_id":"5f09068244f84c18faaa74bc","study_id":"6197b3f67c2b5cd3b6d9596a","session_id":"619be58e3fcd1d6a982c31f6","condition":"contingent","relevant_dimensions":["antennae","pattern"],"bee_group":{"antennae":"B","wings":"X","pattern":"D","legs":"X"},"bonus":1.060000000000001},{"rt":3352.600000023842,"stimulus":"Welcome! Press any key to begin.","response":" ","trial_type":"html-keyboard-response","trial_index":2,"time_elapsed":11175,"internal_node_id":"0.0-2.0","subject_id":"5f09068244f84c18faaa74bc","study_id":"6197b3f67c2b5cd3b6d9596a","session_id":"619be58e3fcd1d6a982c31f6","condition":"contingent","relevant_dimensions":["antennae","pattern"],"bee_group":{"antennae":"B","wings":"X","pattern":"D","legs":"X"},"bonus":1.060000000000001},{"view_history":[{"page_index":0,"viewing_time":8370.600000023842},{"page_index":1,"viewing_time":11308.899999976158},{"page_index":2,"viewing_time":8205},{"page_index":3,"viewing_time":11671.300000071526},{"page_index":4,"viewing_time":4499.199999928474},{"page_index":5,"viewing_time":4649.600000023842},{"page_index":6,"viewing_time":12277.700000047684},{"page_index":7,"viewing_time":5932},{"page_index":8,"viewing_time":2565.5999999046326},{"page_index":9,"viewing_time":3202.2000000476837},{"page_index":10,"viewing_time":2212.7999999523163},{"page_index":11,"viewing_time":5317.100000023842},{"page_index":12,"viewing_time":6990.300000071526},{"page_index":13,"viewing_time":975.6999999284744},{"page_index":14,"viewing_time":1477}],"rt":89655.30000007153,"trial_type":"instructions","trial_index":3,"time_elapsed":100831,"internal_node_id":"0.0-3.0-0.0","subject_id":"5f09068244f84c18faaa74bc","study_id":"6197b3f67c2b5cd3b6d9596a","session_id":"619be58e3fcd1d6a982c31f6","condition":"contingent","relevant_dimensions":["antennae","pattern"],"bee_group":{"antennae":"B","wings":"X","pattern":"D","legs":"X"},"bonus":1.060000000000001},{"rt":12170.800000071526,"response":{"Q0":["Two or six legs","Stripes or spots on body","Single or double wings","Antennae or no antennae"]},"question_order":[0],"trial_type":"survey-multi-select","trial_index":4,"time_elapsed":113006,"internal_node_id":"0.0-3.0-1.0","subject_id":"5f09068244f84c18faaa74bc","study_id":"6197b3f67c2b5cd3b6d9596a","session_id":"619be58e3fcd1d6a982c31f6","condition":"contingent","relevant_dimensions":["antennae","pattern"],"bee_group":{"antennae":"B","wings":"X","pattern":"D","legs":"X"},"correct":true,"bonus":1.060000000000001},{"rt":35972.5,"response":{"Q1":"No.","Q2":"Based on the four features of the bee.","Q3":"You do not learn if it was friendly or dangerous, and do not alter your bonus."},"question_order":[0,1,2],"trial_type":"survey-multi-choice","trial_index":5,"time_elapsed":148980,"internal_node_id":"0.0-3.0-2.0","subject_id":"5f09068244f84c18faaa74bc","study_id":"6197b3f67c2b5cd3b6d9596a","session_id":"619be58e3fcd1d6a982c31f6","condition":"contingent","relevant_dimensions":["antennae","pattern"],"bee_group":{"antennae":"B","wings":"X","pattern":"D","legs":"X"},"correct":true,"bonus":1.060000000000001},{"rt":5813.100000023842,"stimulus":"<p>Congrats, you got everything right<br>When you're ready, click the button below to continue to the experiment.</p>","response":0,"trial_type":"html-button-response","trial_index":6,"time_elapsed":154794,"internal_node_id":"0.0-3.0-3.0","subject_id":"5f09068244f84c18faaa74bc","study_id":"6197b3f67c2b5cd3b6d9596a","session_id":"619be58e3fcd1d6a982c31f6","condition":"contingent","relevant_dimensions":["antennae","pattern"],"bee_group":{"antennae":"B","wings":"X","pattern":"D","legs":"X"},"bonus":1.060000000000001},{"rt":7844.399999976158,"stimulus":"bees-with-color/bee-A2DM.svg","response":0,"trial_type":"image-button-response","trial_index":7,"time_elapsed":162640,"internal_node_id":"0.0-4.0-0.0","subject_id":"5f09068244f84c18faaa74bc","study_id":"6197b3f67c2b5cd3b6d9596a","session_id":"619be58e3fcd1d6a982c31f6","condition":"contingent","relevant_dimensions":["antennae","pattern"],"bee_group":{"antennae":"B","wings":"X","pattern":"D","legs":"X"},"action":"harvest","summary":"good-harvest","bonus":1.060000000000001},{"rt":9348.899999976158,"stimulus":"\n                    <p><b>Action: <em>harvest</em></b></p>\n                    <p>This is the bee that you just saw.</p>\n                    <img src=\"bees-with-color/bee-A2DM.svg\" width=\"200\">\n                    <p><span class=\"greenText\"><b>Successful harvest!</b></span><br>Your pay has increased by $0.02. Your bonus pay is now $0.56.</p>\n            ","response":0,"trial_type":"html-button-response","trial_index":8,"time_elapsed":171990,"internal_node_id":"0.0-4.0-1.0","subject_id":"5f09068244f84c18faaa74bc","study_id":"6197b3f67c2b5cd3b6d9596a","session_id":"619be58e3fcd1d6a982c31f6","condition":"contingent","relevant_dimensions":["antennae","pattern"],"bee_group":{"antennae":"B","wings":"X","pattern":"D","legs":"X"},"bonus":1.060000000000001},{"rt":3824.2000000476837,"stimulus":"bees-with-color/bee-A1SF.svg","response":0,"trial_type":"image-button-response","trial_index":9,"time_elapsed":175816,"internal_node_id":"0.0-4.0-0.1","subject_id":"5f09068244f84c18faaa74bc","study_id":"6197b3f67c2b5cd3b6d9596a","session_id":"619be58e3fcd1d6a982c31f6","condition":"contingent","relevant_dimensions":["antennae","pattern"],"bee_group":{"antennae":"B","wings":"X","pattern":"D","legs":"X"},"action":"harvest","summary":"good-harvest","bonus":1.060000000000001},{"rt":3530.3000000715256,"stimulus":"\n                    <p><b>Action: <em>harvest</em></b></p>\n                    <p>This is the bee that you just saw.</p>\n                    <img src=\"bees-with-color/bee-A1SF.svg\" width=\"200\">\n                    <p><span class=\"greenText\"><b>Successful harvest!</b></span><br>Your pay has increased by $0.02. Your bonus pay is now $0.58.</p>\n            ","response":0,"trial_type":"html-button-response","trial_index":10,"time_elapsed":179348,"internal_node_id":"0.0-4.0-1.1","subject_id":"5f09068244f84c18faaa74bc","study_id":"6197b3f67c2b5cd3b6d9596a","session_id":"619be58e3fcd1d6a982c31f6","condition":"contingent","relevant_dimensions":["antennae","pattern"],"bee_group":{"antennae":"B","wings":"X","pattern":"D","legs":"X"},"bonus":1.060000000000001},{"rt":2391.600000023842,"stimulus":"bees-with-color/bee-B1DF.svg","response":0,"trial_type":"image-button-response","trial_index":11,"time_elapsed":181741,"internal_node_id":"0.0-4.0-0.2","subject_id":"5f09068244f84c18faaa74bc","study_id":"6197b3f67c2b5cd3b6d9596a","session_id":"619be58e3fcd1d6a982c31f6","condition":"contingent","relevant_dimensions":["antennae","pattern"],"bee_group":{"antennae":"B","wings":"X","pattern":"D","legs":"X"},"action":"harvest","summary":"bad-harvest","bonus":1.060000000000001},{"rt":2586.2999999523163,"stimulus":"\n                    <p><b>Action: <em>harvest</em></b></p>\n                    <p>This is the bee that you just saw.</p>\n                    <img src=\"bees-with-color/bee-B1DF.svg\" width=\"200\">\n                    <p><span class=\"redText\">Bad choice, the bee was angry.</span><br><b>You have been stung!</b><br>Your pay has been decreased by $0.10. Your bonus pay is now $0.48.</p>\n            ","response":0,"trial_type":"html-button-response","trial_index":12,"time_elapsed":184328,"internal_node_id":"0.0-4.0-1.2","subject_id":"5f09068244f84c18faaa74bc","study_id":"6197b3f67c2b5cd3b6d9596a","session_id":"619be58e3fcd1d6a982c31f6","condition":"contingent","relevant_dimensions":["antennae","pattern"],"bee_group":{"antennae":"B","wings":"X","pattern":"D","legs":"X"},"bonus":1.060000000000001},{"rt":1198.8999999761581,"stimulus":"bees-with-color/bee-A2SM.svg","response":0,"trial_type":"image-button-response","trial_index":13,"time_elapsed":185528,"internal_node_id":"0.0-4.0-0.3","subject_id":"5f09068244f84c18faaa74bc","study_id":"6197b3f67c2b5cd3b6d9596a","session_id":"619be58e3fcd1d6a982c31f6","condition":"contingent","relevant_dimensions":["antennae","pattern"],"bee_group":{"antennae":"B","wings":"X","pattern":"D","legs":"X"},"action":"harvest","summary":"good-harvest","bonus":1.060000000000001},{"rt":1784.1000000238419,"stimulus":"\n                    <p><b>Action: <em>harvest</em></b></p>\n                    <p>This is the bee that you just saw.</p>\n                    <img src=\"bees-with-color/bee-A2SM.svg\" width=\"200\">\n                    <p><span class=\"greenText\"><b>Successful harvest!</b></span><br>Your pay has increased by $0.02. Your bonus pay is now $0.50.</p>\n            ","response":0,"trial_type":"html-button-response","trial_index":14,"time_elapsed":187313,"internal_node_id":"0.0-4.0-1.3","subject_id":"5f09068244f84c18faaa74bc","study_id":"6197b3f67c2b5cd3b6d9596a","session_id":"619be58e3fcd1d6a982c31f6","condition":"contingent","relevant_dimensions":["antennae","pattern"],"bee_group":{"antennae":"B","wings":"X","pattern":"D","legs":"X"},"bonus":1.060000000000001},{"rt":1244.8000000715256,"stimulus":"bees-with-color/bee-B1SF.svg","response":1,"trial_type":"image-button-response","trial_index":15,"time_elapsed":188559,"internal_node_id":"0.0-4.0-0.4","subject_id":"5f09068244f84c18faaa74bc","study_id":"6197b3f67c2b5cd3b6d9596a","session_id":"619be58e3fcd1d6a982c31f6","condition":"contingent","relevant_dimensions":["antennae","pattern"],"bee_group":{"antennae":"B","wings":"X","pattern":"D","legs":"X"},"action":"avoid","summary":"bad-avoid","bonus":1.060000000000001},{"rt":958.2000000476837,"stimulus":"\n                    <p><b>Action: <em>avoid</em></b></p>\n                    <p>This is the bee that you just saw.</p>\n                    <img src=\"bees-with-color/bee-B1SF.svg\" width=\"200\">\n                    <p><br>Your bonus pay is unchanged, and remains at $0.50.</p>\n            ","response":0,"trial_type":"html-button-response","trial_index":16,"time_elapsed":189518,"internal_node_id":"0.0-4.0-1.4","subject_id":"5f09068244f84c18faaa74bc","study_id":"6197b3f67c2b5cd3b6d9596a","session_id":"619be58e3fcd1d6a982c31f6","condition":"contingent","relevant_dimensions":["antennae","pattern"],"bee_group":{"antennae":"B","wings":"X","pattern":"D","legs":"X"},"bonus":1.060000000000001},{"rt":1447.2999999523163,"stimulus":"bees-with-color/bee-B2DM.svg","response":0,"trial_type":"image-button-response","trial_index":17,"time_elapsed":190966,"internal_node_id":"0.0-4.0-0.5","subject_id":"5f09068244f84c18faaa74bc","study_id":"6197b3f67c2b5cd3b6d9596a","session_id":"619be58e3fcd1d6a982c31f6","condition":"contingent","relevant_dimensions":["antennae","pattern"],"bee_group":{"antennae":"B","wings":"X","pattern":"D","legs":"X"},"action":"harvest","summary":"bad-harvest","bonus":1.060000000000001},{"rt":988.7000000476837,"stimulus":"\n                    <p><b>Action: <em>harvest</em></b></p>\n                    <p>This is the bee that you just saw.</p>\n                    <img src=\"bees-with-color/bee-B2DM.svg\" width=\"200\">\n                    <p><span class=\"redText\">Bad choice, the bee was angry.</span><br><b>You have been stung!</b><br>Your pay has been decreased by $0.10. Your bonus pay is now $0.40.</p>\n            ","response":0,"trial_type":"html-button-response","trial_index":18,"time_elapsed":191956,"internal_node_id":"0.0-4.0-1.5","subject_id":"5f09068244f84c18faaa74bc","study_id":"6197b3f67c2b5cd3b6d9596a","session_id":"619be58e3fcd1d6a982c31f6","condition":"contingent","relevant_dimensions":["antennae","pattern"],"bee_group":{"antennae":"B","wings":"X","pattern":"D","legs":"X"},"bonus":1.060000000000001},{"rt":1753.7999999523163,"stimulus":"bees-with-color/bee-A1DF.svg","response":1,"trial_type":"image-button-response","trial_index":19,"time_elapsed":193711,"internal_node_id":"0.0-4.0-0.6","subject_id":"5f09068244f84c18faaa74bc","study_id":"6197b3f67c2b5cd3b6d9596a","session_id":"619be58e3fcd1d6a982c31f6","condition":"contingent","relevant_dimensions":["antennae","pattern"],"bee_group":{"antennae":"B","wings":"X","pattern":"D","legs":"X"},"action":"avoid","summary":"bad-avoid","bonus":1.060000000000001},{"rt":771.5,"stimulus":"\n                    <p><b>Action: <em>avoid</em></b></p>\n                    <p>This is the bee that you just saw.</p>\n                    <img src=\"bees-with-color/bee-A1DF.svg\" width=\"200\">\n                    <p><br>Your bonus pay is unchanged, and remains at $0.40.</p>\n            ","response":0,"trial_type":"html-button-response","trial_index":20,"time_elapsed":194483,"internal_node_id":"0.0-4.0-1.6","subject_id":"5f09068244f84c18faaa74bc","study_id":"6197b3f67c2b5cd3b6d9596a","session_id":"619be58e3fcd1d6a982c31f6","condition":"contingent","relevant_dimensions":["antennae","pattern"],"bee_group":{"antennae":"B","wings":"X","pattern":"D","legs":"X"},"bonus":1.060000000000001},{"rt":2451.2999999523163,"stimulus":"bees-with-color/bee-A1DM.svg","response":1,"trial_type":"image-button-response","trial_index":21,"time_elapsed":196936,"internal_node_id":"0.0-4.0-0.7","subject_id":"5f09068244f84c18faaa74bc","study_id":"6197b3f67c2b5cd3b6d9596a","session_id":"619be58e3fcd1d6a982c31f6","condition":"contingent","relevant_dimensions":["antennae","pattern"],"bee_group":{"antennae":"B","wings":"X","pattern":"D","legs":"X"},"action":"avoid","summary":"bad-avoid","bonus":1.060000000000001},{"rt":921.5,"stimulus":"\n                    <p><b>Action: <em>avoid</em></b></p>\n                    <p>This is the bee that you just saw.</p>\n                    <img src=\"bees-with-color/bee-A1DM.svg\" width=\"200\">\n                    <p><br>Your bonus pay is unchanged, and remains at $0.40.</p>\n            ","response":0,"trial_type":"html-button-response","trial_index":22,"time_elapsed":197858,"internal_node_id":"0.0-4.0-1.7","subject_id":"5f09068244f84c18faaa74bc","study_id":"6197b3f67c2b5cd3b6d9596a","session_id":"619be58e3fcd1d6a982c31f6","condition":"contingent","relevant_dimensions":["antennae","pattern"],"bee_group":{"antennae":"B","wings":"X","pattern":"D","legs":"X"},"bonus":1.060000000000001},{"rt":891.3000000715256,"stimulus":"bees-with-color/bee-A1SM.svg","response":0,"trial_type":"image-button-response","trial_index":23,"time_elapsed":198751,"internal_node_id":"0.0-4.0-0.8","subject_id":"5f09068244f84c18faaa74bc","study_id":"6197b3f67c2b5cd3b6d9596a","session_id":"619be58e3fcd1d6a982c31f6","condition":"contingent","relevant_dimensions":["antennae","pattern"],"bee_group":{"antennae":"B","wings":"X","pattern":"D","legs":"X"},"action":"harvest","summary":"good-harvest","bonus":1.060000000000001},{"rt":651,"stimulus":"\n                    <p><b>Action: <em>harvest</em></b></p>\n                    <p>This is the bee that you just saw.</p>\n                    <img src=\"bees-with-color/bee-A1SM.svg\" width=\"200\">\n                    <p><span class=\"greenText\"><b>Successful harvest!</b></span><br>Your pay has increased by $0.02. Your bonus pay is now $0.42.</p>\n            ","response":0,"trial_type":"html-button-response","trial_index":24,"time_elapsed":199403,"internal_node_id":"0.0-4.0-1.8","subject_id":"5f09068244f84c18faaa74bc","study_id":"6197b3f67c2b5cd3b6d9596a","session_id":"619be58e3fcd1d6a982c31f6","condition":"contingent","relevant_dimensions":["antennae","pattern"],"bee_group":{"antennae":"B","wings":"X","pattern":"D","legs":"X"},"bonus":1.060000000000001},{"rt":1109.2999999523163,"stimulus":"bees-with-color/bee-B2SM.svg","response":0,"trial_type":"image-button-response","trial_index":25,"time_elapsed":200513,"internal_node_id":"0.0-4.0-0.9","subject_id":"5f09068244f84c18faaa74bc","study_id":"6197b3f67c2b5cd3b6d9596a","session_id":"619be58e3fcd1d6a982c31f6","condition":"contingent","relevant_dimensions":["antennae","pattern"],"bee_group":{"antennae":"B","wings":"X","pattern":"D","legs":"X"},"action":"harvest","summary":"good-harvest","bonus":1.060000000000001},{"rt":607.8999999761581,"stimulus":"\n                    <p><b>Action: <em>harvest</em></b></p>\n                    <p>This is the bee that you just saw.</p>\n                    <img src=\"bees-with-color/bee-B2SM.svg\" width=\"200\">\n                    <p><span class=\"greenText\"><b>Successful harvest!</b></span><br>Your pay has increased by $0.02. Your bonus pay is now $0.44.</p>\n            ","response":0,"trial_type":"html-button-response","trial_index":26,"time_elapsed":201121,"internal_node_id":"0.0-4.0-1.9","subject_id":"5f09068244f84c18faaa74bc","study_id":"6197b3f67c2b5cd3b6d9596a","session_id":"619be58e3fcd1d6a982c31f6","condition":"contingent","relevant_dimensions":["antennae","pattern"],"bee_group":{"antennae":"B","wings":"X","pattern":"D","legs":"X"},"bonus":1.060000000000001},{"rt":913.1999999284744,"stimulus":"bees-with-color/bee-B2SF.svg","response":0,"trial_type":"image-button-response","trial_index":27,"time_elapsed":202035,"internal_node_id":"0.0-4.0-0.10","subject_id":"5f09068244f84c18faaa74bc","study_id":"6197b3f67c2b5cd3b6d9596a","session_id":"619be58e3fcd1d6a982c31f6","condition":"contingent","relevant_dimensions":["antennae","pattern"],"bee_group":{"antennae":"B","wings":"X","pattern":"D","legs":"X"},"action":"harvest","summary":"good-harvest","bonus":1.060000000000001},{"rt":591.3999999761581,"stimulus":"\n                    <p><b>Action: <em>harvest</em></b></p>\n                    <p>This is the bee that you just saw.</p>\n                    <img src=\"bees-with-color/bee-B2SF.svg\" width=\"200\">\n                    <p><span class=\"greenText\"><b>Successful harvest!</b></span><br>Your pay has increased by $0.02. Your bonus pay is now $0.46.</p>\n            ","response":0,"trial_type":"html-button-response","trial_index":28,"time_elapsed":202627,"internal_node_id":"0.0-4.0-1.10","subject_id":"5f09068244f84c18faaa74bc","study_id":"6197b3f67c2b5cd3b6d9596a","session_id":"619be58e3fcd1d6a982c31f6","condition":"contingent","relevant_dimensions":["antennae","pattern"],"bee_group":{"antennae":"B","wings":"X","pattern":"D","legs":"X"},"bonus":1.060000000000001},{"rt":1394.5,"stimulus":"bees-with-color/bee-B1DM.svg","response":1,"trial_type":"image-button-response","trial_index":29,"time_elapsed":204023,"internal_node_id":"0.0-4.0-0.11","subject_id":"5f09068244f84c18faaa74bc","study_id":"6197b3f67c2b5cd3b6d9596a","session_id":"619be58e3fcd1d6a982c31f6","condition":"contingent","relevant_dimensions":["antennae","pattern"],"bee_group":{"antennae":"B","wings":"X","pattern":"D","legs":"X"},"action":"avoid","summary":"good-avoid","bonus":1.060000000000001},{"rt":577.7000000476837,"stimulus":"\n                    <p><b>Action: <em>avoid</em></b></p>\n                    <p>This is the bee that you just saw.</p>\n                    <img src=\"bees-with-color/bee-B1DM.svg\" width=\"200\">\n                    <p><br>Your bonus pay is unchanged, and remains at $0.46.</p>\n            ","response":0,"trial_type":"html-button-response","trial_index":30,"time_elapsed":204601,"internal_node_id":"0.0-4.0-1.11","subject_id":"5f09068244f84c18faaa74bc","study_id":"6197b3f67c2b5cd3b6d9596a","session_id":"619be58e3fcd1d6a982c31f6","condition":"contingent","relevant_dimensions":["antennae","pattern"],"bee_group":{"antennae":"B","wings":"X","pattern":"D","legs":"X"},"bonus":1.060000000000001},{"rt":1124.4000000953674,"stimulus":"bees-with-color/bee-B1SM.svg","response":0,"trial_type":"image-button-response","trial_index":31,"time_elapsed":205726,"internal_node_id":"0.0-4.0-0.12","subject_id":"5f09068244f84c18faaa74bc","study_id":"6197b3f67c2b5cd3b6d9596a","session_id":"619be58e3fcd1d6a982c31f6","condition":"contingent","relevant_dimensions":["antennae","pattern"],"bee_group":{"antennae":"B","wings":"X","pattern":"D","legs":"X"},"action":"harvest","summary":"good-harvest","bonus":1.060000000000001},{"rt":605.7999999523163,"stimulus":"\n                    <p><b>Action: <em>harvest</em></b></p>\n                    <p>This is the bee that you just saw.</p>\n                    <img src=\"bees-with-color/bee-B1SM.svg\" width=\"200\">\n                    <p><span class=\"greenText\"><b>Successful harvest!</b></span><br>Your pay has increased by $0.02. Your bonus pay is now $0.48.</p>\n            ","response":0,"trial_type":"html-button-response","trial_index":32,"time_elapsed":206333,"internal_node_id":"0.0-4.0-1.12","subject_id":"5f09068244f84c18faaa74bc","study_id":"6197b3f67c2b5cd3b6d9596a","session_id":"619be58e3fcd1d6a982c31f6","condition":"contingent","relevant_dimensions":["antennae","pattern"],"bee_group":{"antennae":"B","wings":"X","pattern":"D","legs":"X"},"bonus":1.060000000000001},{"rt":1874.6000000238419,"stimulus":"bees-with-color/bee-A2DF.svg","response":0,"trial_type":"image-button-response","trial_index":33,"time_elapsed":208208,"internal_node_id":"0.0-4.0-0.13","subject_id":"5f09068244f84c18faaa74bc","study_id":"6197b3f67c2b5cd3b6d9596a","session_id":"619be58e3fcd1d6a982c31f6","condition":"contingent","relevant_dimensions":["antennae","pattern"],"bee_group":{"antennae":"B","wings":"X","pattern":"D","legs":"X"},"action":"harvest","summary":"good-harvest","bonus":1.060000000000001},{"rt":2481.7000000476837,"stimulus":"\n                    <p><b>Action: <em>harvest</em></b></p>\n                    <p>This is the bee that you just saw.</p>\n                    <img src=\"bees-with-color/bee-A2DF.svg\" width=\"200\">\n                    <p><span class=\"greenText\"><b>Successful harvest!</b></span><br>Your pay has increased by $0.02. Your bonus pay is now $0.50.</p>\n            ","response":0,"trial_type":"html-button-response","trial_index":34,"time_elapsed":210690,"internal_node_id":"0.0-4.0-1.13","subject_id":"5f09068244f84c18faaa74bc","study_id":"6197b3f67c2b5cd3b6d9596a","session_id":"619be58e3fcd1d6a982c31f6","condition":"contingent","relevant_dimensions":["antennae","pattern"],"bee_group":{"antennae":"B","wings":"X","pattern":"D","legs":"X"},"bonus":1.060000000000001},{"rt":2443.600000023842,"stimulus":"bees-with-color/bee-B2DF.svg","response":0,"trial_type":"image-button-response","trial_index":35,"time_elapsed":213135,"internal_node_id":"0.0-4.0-0.14","subject_id":"5f09068244f84c18faaa74bc","study_id":"6197b3f67c2b5cd3b6d9596a","session_id":"619be58e3fcd1d6a982c31f6","condition":"contingent","relevant_dimensions":["antennae","pattern"],"bee_group":{"antennae":"B","wings":"X","pattern":"D","legs":"X"},"action":"harvest","summary":"bad-harvest","bonus":1.060000000000001},{"rt":659.4000000953674,"stimulus":"\n                    <p><b>Action: <em>harvest</em></b></p>\n                    <p>This is the bee that you just saw.</p>\n                    <img src=\"bees-with-color/bee-B2DF.svg\" width=\"200\">\n                    <p><span class=\"redText\">Bad choice, the bee was angry.</span><br><b>You have been stung!</b><br>Your pay has been decreased by $0.10. Your bonus pay is now $0.40.</p>\n            ","response":0,"trial_type":"html-button-response","trial_index":36,"time_elapsed":213795,"internal_node_id":"0.0-4.0-1.14","subject_id":"5f09068244f84c18faaa74bc","study_id":"6197b3f67c2b5cd3b6d9596a","session_id":"619be58e3fcd1d6a982c31f6","condition":"contingent","relevant_dimensions":["antennae","pattern"],"bee_group":{"antennae":"B","wings":"X","pattern":"D","legs":"X"},"bonus":1.060000000000001},{"rt":1215.6000000238419,"stimulus":"bees-with-color/bee-A2SF.svg","response":0,"trial_type":"image-button-response","trial_index":37,"time_elapsed":215011,"internal_node_id":"0.0-4.0-0.15","subject_id":"5f09068244f84c18faaa74bc","study_id":"6197b3f67c2b5cd3b6d9596a","session_id":"619be58e3fcd1d6a982c31f6","condition":"contingent","relevant_dimensions":["antennae","pattern"],"bee_group":{"antennae":"B","wings":"X","pattern":"D","legs":"X"},"action":"harvest","summary":"good-harvest","bonus":1.060000000000001},{"rt":1100.3999999761581,"stimulus":"\n                    <p><b>Action: <em>harvest</em></b></p>\n                    <p>This is the bee that you just saw.</p>\n                    <img src=\"bees-with-color/bee-A2SF.svg\" width=\"200\">\n                    <p><span class=\"greenText\"><b>Successful harvest!</b></span><br>Your pay has increased by $0.02. Your bonus pay is now $0.42.</p>\n            ","response":0,"trial_type":"html-button-response","trial_index":38,"time_elapsed":216113,"internal_node_id":"0.0-4.0-1.15","subject_id":"5f09068244f84c18faaa74bc","study_id":"6197b3f67c2b5cd3b6d9596a","session_id":"619be58e3fcd1d6a982c31f6","condition":"contingent","relevant_dimensions":["antennae","pattern"],"bee_group":{"antennae":"B","wings":"X","pattern":"D","legs":"X"},"bonus":1.060000000000001},{"rt":1731.6000000238419,"stimulus":"bees-with-color/bee-A1DM.svg","response":0,"trial_type":"image-button-response","trial_index":39,"time_elapsed":217845,"internal_node_id":"0.0-4.0-0.16","subject_id":"5f09068244f84c18faaa74bc","study_id":"6197b3f67c2b5cd3b6d9596a","session_id":"619be58e3fcd1d6a982c31f6","condition":"contingent","relevant_dimensions":["antennae","pattern"],"bee_group":{"antennae":"B","wings":"X","pattern":"D","legs":"X"},"action":"harvest","summary":"good-harvest","bonus":1.060000000000001},{"rt":711.1999999284744,"stimulus":"\n                    <p><b>Action: <em>harvest</em></b></p>\n                    <p>This is the bee that you just saw.</p>\n                    <img src=\"bees-with-color/bee-A1DM.svg\" width=\"200\">\n                    <p><span class=\"greenText\"><b>Successful harvest!</b></span><br>Your pay has increased by $0.02. Your bonus pay is now $0.44.</p>\n            ","response":0,"trial_type":"html-button-response","trial_index":40,"time_elapsed":218557,"internal_node_id":"0.0-4.0-1.16","subject_id":"5f09068244f84c18faaa74bc","study_id":"6197b3f67c2b5cd3b6d9596a","session_id":"619be58e3fcd1d6a982c31f6","condition":"contingent","relevant_dimensions":["antennae","pattern"],"bee_group":{"antennae":"B","wings":"X","pattern":"D","legs":"X"},"bonus":1.060000000000001},{"rt":3187.899999976158,"stimulus":"bees-with-color/bee-B1DM.svg","response":1,"trial_type":"image-button-response","trial_index":41,"time_elapsed":221746,"internal_node_id":"0.0-4.0-0.17","subject_id":"5f09068244f84c18faaa74bc","study_id":"6197b3f67c2b5cd3b6d9596a","session_id":"619be58e3fcd1d6a982c31f6","condition":"contingent","relevant_dimensions":["antennae","pattern"],"bee_group":{"antennae":"B","wings":"X","pattern":"D","legs":"X"},"action":"avoid","summary":"good-avoid","bonus":1.060000000000001},{"rt":681.8000000715256,"stimulus":"\n                    <p><b>Action: <em>avoid</em></b></p>\n                    <p>This is the bee that you just saw.</p>\n                    <img src=\"bees-with-color/bee-B1DM.svg\" width=\"200\">\n                    <p><br>Your bonus pay is unchanged, and remains at $0.44.</p>\n            ","response":0,"trial_type":"html-button-response","trial_index":42,"time_elapsed":222429,"internal_node_id":"0.0-4.0-1.17","subject_id":"5f09068244f84c18faaa74bc","study_id":"6197b3f67c2b5cd3b6d9596a","session_id":"619be58e3fcd1d6a982c31f6","condition":"contingent","relevant_dimensions":["antennae","pattern"],"bee_group":{"antennae":"B","wings":"X","pattern":"D","legs":"X"},"bonus":1.060000000000001},{"rt":830.2000000476837,"stimulus":"bees-with-color/bee-B1SF.svg","response":0,"trial_type":"image-button-response","trial_index":43,"time_elapsed":223260,"internal_node_id":"0.0-4.0-0.18","subject_id":"5f09068244f84c18faaa74bc","study_id":"6197b3f67c2b5cd3b6d9596a","session_id":"619be58e3fcd1d6a982c31f6","condition":"contingent","relevant_dimensions":["antennae","pattern"],"bee_group":{"antennae":"B","wings":"X","pattern":"D","legs":"X"},"action":"harvest","summary":"good-harvest","bonus":1.060000000000001},{"rt":741.9000000953674,"stimulus":"\n                    <p><b>Action: <em>harvest</em></b></p>\n                    <p>This is the bee that you just saw.</p>\n                    <img src=\"bees-with-color/bee-B1SF.svg\" width=\"200\">\n                    <p><span class=\"greenText\"><b>Successful harvest!</b></span><br>Your pay has increased by $0.02. Your bonus pay is now $0.46.</p>\n            ","response":0,"trial_type":"html-button-response","trial_index":44,"time_elapsed":224003,"internal_node_id":"0.0-4.0-1.18","subject_id":"5f09068244f84c18faaa74bc","study_id":"6197b3f67c2b5cd3b6d9596a","session_id":"619be58e3fcd1d6a982c31f6","condition":"contingent","relevant_dimensions":["antennae","pattern"],"bee_group":{"antennae":"B","wings":"X","pattern":"D","legs":"X"},"bonus":1.060000000000001},{"rt":1785.3000000715256,"stimulus":"bees-with-color/bee-A2DM.svg","response":1,"trial_type":"image-button-response","trial_index":45,"time_elapsed":225789,"internal_node_id":"0.0-4.0-0.19","subject_id":"5f09068244f84c18faaa74bc","study_id":"6197b3f67c2b5cd3b6d9596a","session_id":"619be58e3fcd1d6a982c31f6","condition":"contingent","relevant_dimensions":["antennae","pattern"],"bee_group":{"antennae":"B","wings":"X","pattern":"D","legs":"X"},"action":"avoid","summary":"bad-avoid","bonus":1.060000000000001},{"rt":524,"stimulus":"\n                    <p><b>Action: <em>avoid</em></b></p>\n                    <p>This is the bee that you just saw.</p>\n                    <img src=\"bees-with-color/bee-A2DM.svg\" width=\"200\">\n                    <p><br>Your bonus pay is unchanged, and remains at $0.46.</p>\n            ","response":0,"trial_type":"html-button-response","trial_index":46,"time_elapsed":226314,"internal_node_id":"0.0-4.0-1.19","subject_id":"5f09068244f84c18faaa74bc","study_id":"6197b3f67c2b5cd3b6d9596a","session_id":"619be58e3fcd1d6a982c31f6","condition":"contingent","relevant_dimensions":["antennae","pattern"],"bee_group":{"antennae":"B","wings":"X","pattern":"D","legs":"X"},"bonus":1.060000000000001},{"rt":809,"stimulus":"bees-with-color/bee-A1SF.svg","response":0,"trial_type":"image-button-response","trial_index":47,"time_elapsed":227124,"internal_node_id":"0.0-4.0-0.20","subject_id":"5f09068244f84c18faaa74bc","study_id":"6197b3f67c2b5cd3b6d9596a","session_id":"619be58e3fcd1d6a982c31f6","condition":"contingent","relevant_dimensions":["antennae","pattern"],"bee_group":{"antennae":"B","wings":"X","pattern":"D","legs":"X"},"action":"harvest","summary":"good-harvest","bonus":1.060000000000001},{"rt":522.8999999761581,"stimulus":"\n                    <p><b>Action: <em>harvest</em></b></p>\n                    <p>This is the bee that you just saw.</p>\n                    <img src=\"bees-with-color/bee-A1SF.svg\" width=\"200\">\n                    <p><span class=\"greenText\"><b>Successful harvest!</b></span><br>Your pay has increased by $0.02. Your bonus pay is now $0.48.</p>\n            ","response":0,"trial_type":"html-button-response","trial_index":48,"time_elapsed":227648,"internal_node_id":"0.0-4.0-1.20","subject_id":"5f09068244f84c18faaa74bc","study_id":"6197b3f67c2b5cd3b6d9596a","session_id":"619be58e3fcd1d6a982c31f6","condition":"contingent","relevant_dimensions":["antennae","pattern"],"bee_group":{"antennae":"B","wings":"X","pattern":"D","legs":"X"},"bonus":1.060000000000001},{"rt":2640,"stimulus":"bees-with-color/bee-B2DF.svg","response":1,"trial_type":"image-button-response","trial_index":49,"time_elapsed":230288,"internal_node_id":"0.0-4.0-0.21","subject_id":"5f09068244f84c18faaa74bc","study_id":"6197b3f67c2b5cd3b6d9596a","session_id":"619be58e3fcd1d6a982c31f6","condition":"contingent","relevant_dimensions":["antennae","pattern"],"bee_group":{"antennae":"B","wings":"X","pattern":"D","legs":"X"},"action":"avoid","summary":"good-avoid","bonus":1.060000000000001},{"rt":651.5,"stimulus":"\n                    <p><b>Action: <em>avoid</em></b></p>\n                    <p>This is the bee that you just saw.</p>\n                    <img src=\"bees-with-color/bee-B2DF.svg\" width=\"200\">\n                    <p><br>Your bonus pay is unchanged, and remains at $0.48.</p>\n            ","response":0,"trial_type":"html-button-response","trial_index":50,"time_elapsed":230941,"internal_node_id":"0.0-4.0-1.21","subject_id":"5f09068244f84c18faaa74bc","study_id":"6197b3f67c2b5cd3b6d9596a","session_id":"619be58e3fcd1d6a982c31f6","condition":"contingent","relevant_dimensions":["antennae","pattern"],"bee_group":{"antennae":"B","wings":"X","pattern":"D","legs":"X"},"bonus":1.060000000000001},{"rt":1063.7000000476837,"stimulus":"bees-with-color/bee-A1DF.svg","response":1,"trial_type":"image-button-response","trial_index":51,"time_elapsed":232006,"internal_node_id":"0.0-4.0-0.22","subject_id":"5f09068244f84c18faaa74bc","study_id":"6197b3f67c2b5cd3b6d9596a","session_id":"619be58e3fcd1d6a982c31f6","condition":"contingent","relevant_dimensions":["antennae","pattern"],"bee_group":{"antennae":"B","wings":"X","pattern":"D","legs":"X"},"action":"avoid","summary":"bad-avoid","bonus":1.060000000000001},{"rt":473,"stimulus":"\n                    <p><b>Action: <em>avoid</em></b></p>\n                    <p>This is the bee that you just saw.</p>\n                    <img src=\"bees-with-color/bee-A1DF.svg\" width=\"200\">\n                    <p><br>Your bonus pay is unchanged, and remains at $0.48.</p>\n            ","response":0,"trial_type":"html-button-response","trial_index":52,"time_elapsed":232480,"internal_node_id":"0.0-4.0-1.22","subject_id":"5f09068244f84c18faaa74bc","study_id":"6197b3f67c2b5cd3b6d9596a","session_id":"619be58e3fcd1d6a982c31f6","condition":"contingent","relevant_dimensions":["antennae","pattern"],"bee_group":{"antennae":"B","wings":"X","pattern":"D","legs":"X"},"bonus":1.060000000000001},{"rt":942.3999999761581,"stimulus":"bees-with-color/bee-B1SM.svg","response":0,"trial_type":"image-button-response","trial_index":53,"time_elapsed":233423,"internal_node_id":"0.0-4.0-0.23","subject_id":"5f09068244f84c18faaa74bc","study_id":"6197b3f67c2b5cd3b6d9596a","session_id":"619be58e3fcd1d6a982c31f6","condition":"contingent","relevant_dimensions":["antennae","pattern"],"bee_group":{"antennae":"B","wings":"X","pattern":"D","legs":"X"},"action":"harvest","summary":"good-harvest","bonus":1.060000000000001},{"rt":516.7000000476837,"stimulus":"\n                    <p><b>Action: <em>harvest</em></b></p>\n                    <p>This is the bee that you just saw.</p>\n                    <img src=\"bees-with-color/bee-B1SM.svg\" width=\"200\">\n                    <p><span class=\"greenText\"><b>Successful harvest!</b></span><br>Your pay has increased by $0.02. Your bonus pay is now $0.50.</p>\n            ","response":0,"trial_type":"html-button-response","trial_index":54,"time_elapsed":233940,"internal_node_id":"0.0-4.0-1.23","subject_id":"5f09068244f84c18faaa74bc","study_id":"6197b3f67c2b5cd3b6d9596a","session_id":"619be58e3fcd1d6a982c31f6","condition":"contingent","relevant_dimensions":["antennae","pattern"],"bee_group":{"antennae":"B","wings":"X","pattern":"D","legs":"X"},"bonus":1.060000000000001},{"rt":1259.1000000238419,"stimulus":"bees-with-color/bee-B2SF.svg","response":0,"trial_type":"image-button-response","trial_index":55,"time_elapsed":235201,"internal_node_id":"0.0-4.0-0.24","subject_id":"5f09068244f84c18faaa74bc","study_id":"6197b3f67c2b5cd3b6d9596a","session_id":"619be58e3fcd1d6a982c31f6","condition":"contingent","relevant_dimensions":["antennae","pattern"],"bee_group":{"antennae":"B","wings":"X","pattern":"D","legs":"X"},"action":"harvest","summary":"good-harvest","bonus":1.060000000000001},{"rt":584.1999999284744,"stimulus":"\n                    <p><b>Action: <em>harvest</em></b></p>\n                    <p>This is the bee that you just saw.</p>\n                    <img src=\"bees-with-color/bee-B2SF.svg\" width=\"200\">\n                    <p><span class=\"greenText\"><b>Successful harvest!</b></span><br>Your pay has increased by $0.02. Your bonus pay is now $0.52.</p>\n            ","response":0,"trial_type":"html-button-response","trial_index":56,"time_elapsed":235786,"internal_node_id":"0.0-4.0-1.24","subject_id":"5f09068244f84c18faaa74bc","study_id":"6197b3f67c2b5cd3b6d9596a","session_id":"619be58e3fcd1d6a982c31f6","condition":"contingent","relevant_dimensions":["antennae","pattern"],"bee_group":{"antennae":"B","wings":"X","pattern":"D","legs":"X"},"bonus":1.060000000000001},{"rt":1251.2999999523163,"stimulus":"bees-with-color/bee-B2DM.svg","response":1,"trial_type":"image-button-response","trial_index":57,"time_elapsed":237038,"internal_node_id":"0.0-4.0-0.25","subject_id":"5f09068244f84c18faaa74bc","study_id":"6197b3f67c2b5cd3b6d9596a","session_id":"619be58e3fcd1d6a982c31f6","condition":"contingent","relevant_dimensions":["antennae","pattern"],"bee_group":{"antennae":"B","wings":"X","pattern":"D","legs":"X"},"action":"avoid","summary":"good-avoid","bonus":1.060000000000001},{"rt":359.40000009536743,"stimulus":"\n                    <p><b>Action: <em>avoid</em></b></p>\n                    <p>This is the bee that you just saw.</p>\n                    <img src=\"bees-with-color/bee-B2DM.svg\" width=\"200\">\n                    <p><br>Your bonus pay is unchanged, and remains at $0.52.</p>\n            ","response":0,"trial_type":"html-button-response","trial_index":58,"time_elapsed":237398,"internal_node_id":"0.0-4.0-1.25","subject_id":"5f09068244f84c18faaa74bc","study_id":"6197b3f67c2b5cd3b6d9596a","session_id":"619be58e3fcd1d6a982c31f6","condition":"contingent","relevant_dimensions":["antennae","pattern"],"bee_group":{"antennae":"B","wings":"X","pattern":"D","legs":"X"},"bonus":1.060000000000001},{"rt":1116.7000000476837,"stimulus":"bees-with-color/bee-B1DF.svg","response":1,"trial_type":"image-button-response","trial_index":59,"time_elapsed":238516,"internal_node_id":"0.0-4.0-0.26","subject_id":"5f09068244f84c18faaa74bc","study_id":"6197b3f67c2b5cd3b6d9596a","session_id":"619be58e3fcd1d6a982c31f6","condition":"contingent","relevant_dimensions":["antennae","pattern"],"bee_group":{"antennae":"B","wings":"X","pattern":"D","legs":"X"},"action":"avoid","summary":"good-avoid","bonus":1.060000000000001},{"rt":389.10000002384186,"stimulus":"\n                    <p><b>Action: <em>avoid</em></b></p>\n                    <p>This is the bee that you just saw.</p>\n                    <img src=\"bees-with-color/bee-B1DF.svg\" width=\"200\">\n                    <p><br>Your bonus pay is unchanged, and remains at $0.52.</p>\n            ","response":0,"trial_type":"html-button-response","trial_index":60,"time_elapsed":238905,"internal_node_id":"0.0-4.0-1.26","subject_id":"5f09068244f84c18faaa74bc","study_id":"6197b3f67c2b5cd3b6d9596a","session_id":"619be58e3fcd1d6a982c31f6","condition":"contingent","relevant_dimensions":["antennae","pattern"],"bee_group":{"antennae":"B","wings":"X","pattern":"D","legs":"X"},"bonus":1.060000000000001},{"rt":825.8000000715256,"stimulus":"bees-with-color/bee-A1SM.svg","response":0,"trial_type":"image-button-response","trial_index":61,"time_elapsed":239732,"internal_node_id":"0.0-4.0-0.27","subject_id":"5f09068244f84c18faaa74bc","study_id":"6197b3f67c2b5cd3b6d9596a","session_id":"619be58e3fcd1d6a982c31f6","condition":"contingent","relevant_dimensions":["antennae","pattern"],"bee_group":{"antennae":"B","wings":"X","pattern":"D","legs":"X"},"action":"harvest","summary":"good-harvest","bonus":1.060000000000001},{"rt":612.9000000953674,"stimulus":"\n                    <p><b>Action: <em>harvest</em></b></p>\n                    <p>This is the bee that you just saw.</p>\n                    <img src=\"bees-with-color/bee-A1SM.svg\" width=\"200\">\n                    <p><span class=\"greenText\"><b>Successful harvest!</b></span><br>Your pay has increased by $0.02. Your bonus pay is now $0.54.</p>\n            ","response":0,"trial_type":"html-button-response","trial_index":62,"time_elapsed":240345,"internal_node_id":"0.0-4.0-1.27","subject_id":"5f09068244f84c18faaa74bc","study_id":"6197b3f67c2b5cd3b6d9596a","session_id":"619be58e3fcd1d6a982c31f6","condition":"contingent","relevant_dimensions":["antennae","pattern"],"bee_group":{"antennae":"B","wings":"X","pattern":"D","legs":"X"},"bonus":1.060000000000001},{"rt":1972.2000000476837,"stimulus":"bees-with-color/bee-B2SM.svg","response":0,"trial_type":"image-button-response","trial_index":63,"time_elapsed":242318,"internal_node_id":"0.0-4.0-0.28","subject_id":"5f09068244f84c18faaa74bc","study_id":"6197b3f67c2b5cd3b6d9596a","session_id":"619be58e3fcd1d6a982c31f6","condition":"contingent","relevant_dimensions":["antennae","pattern"],"bee_group":{"antennae":"B","wings":"X","pattern":"D","legs":"X"},"action":"harvest","summary":"good-harvest","bonus":1.060000000000001},{"rt":2676.9000000953674,"stimulus":"\n                    <p><b>Action: <em>harvest</em></b></p>\n                    <p>This is the bee that you just saw.</p>\n                    <img src=\"bees-with-color/bee-B2SM.svg\" width=\"200\">\n                    <p><span class=\"greenText\"><b>Successful harvest!</b></span><br>Your pay has increased by $0.02. Your bonus pay is now $0.56.</p>\n            ","response":0,"trial_type":"html-button-response","trial_index":64,"time_elapsed":244996,"internal_node_id":"0.0-4.0-1.28","subject_id":"5f09068244f84c18faaa74bc","study_id":"6197b3f67c2b5cd3b6d9596a","session_id":"619be58e3fcd1d6a982c31f6","condition":"contingent","relevant_dimensions":["antennae","pattern"],"bee_group":{"antennae":"B","wings":"X","pattern":"D","legs":"X"},"bonus":1.060000000000001},{"rt":914,"stimulus":"bees-with-color/bee-A2SF.svg","response":0,"trial_type":"image-button-response","trial_index":65,"time_elapsed":245911,"internal_node_id":"0.0-4.0-0.29","subject_id":"5f09068244f84c18faaa74bc","study_id":"6197b3f67c2b5cd3b6d9596a","session_id":"619be58e3fcd1d6a982c31f6","condition":"contingent","relevant_dimensions":["antennae","pattern"],"bee_group":{"antennae":"B","wings":"X","pattern":"D","legs":"X"},"action":"harvest","summary":"good-harvest","bonus":1.060000000000001},{"rt":456.7000000476837,"stimulus":"\n                    <p><b>Action: <em>harvest</em></b></p>\n                    <p>This is the bee that you just saw.</p>\n                    <img src=\"bees-with-color/bee-A2SF.svg\" width=\"200\">\n                    <p><span class=\"greenText\"><b>Successful harvest!</b></span><br>Your pay has increased by $0.02. Your bonus pay is now $0.58.</p>\n            ","response":0,"trial_type":"html-button-response","trial_index":66,"time_elapsed":246368,"internal_node_id":"0.0-4.0-1.29","subject_id":"5f09068244f84c18faaa74bc","study_id":"6197b3f67c2b5cd3b6d9596a","session_id":"619be58e3fcd1d6a982c31f6","condition":"contingent","relevant_dimensions":["antennae","pattern"],"bee_group":{"antennae":"B","wings":"X","pattern":"D","legs":"X"},"bonus":1.060000000000001},{"rt":4020.600000023842,"stimulus":"bees-with-color/bee-A2DF.svg","response":0,"trial_type":"image-button-response","trial_index":67,"time_elapsed":250389,"internal_node_id":"0.0-4.0-0.30","subject_id":"5f09068244f84c18faaa74bc","study_id":"6197b3f67c2b5cd3b6d9596a","session_id":"619be58e3fcd1d6a982c31f6","condition":"contingent","relevant_dimensions":["antennae","pattern"],"bee_group":{"antennae":"B","wings":"X","pattern":"D","legs":"X"},"action":"harvest","summary":"good-harvest","bonus":1.060000000000001},{"rt":4392.799999952316,"stimulus":"\n                    <p><b>Action: <em>harvest</em></b></p>\n                    <p>This is the bee that you just saw.</p>\n                    <img src=\"bees-with-color/bee-A2DF.svg\" width=\"200\">\n                    <p><span class=\"greenText\"><b>Successful harvest!</b></span><br>Your pay has increased by $0.02. Your bonus pay is now $0.60.</p>\n            ","response":0,"trial_type":"html-button-response","trial_index":68,"time_elapsed":254783,"internal_node_id":"0.0-4.0-1.30","subject_id":"5f09068244f84c18faaa74bc","study_id":"6197b3f67c2b5cd3b6d9596a","session_id":"619be58e3fcd1d6a982c31f6","condition":"contingent","relevant_dimensions":["antennae","pattern"],"bee_group":{"antennae":"B","wings":"X","pattern":"D","legs":"X"},"bonus":1.060000000000001},{"rt":2158.5,"stimulus":"bees-with-color/bee-A2SM.svg","response":0,"trial_type":"image-button-response","trial_index":69,"time_elapsed":256943,"internal_node_id":"0.0-4.0-0.31","subject_id":"5f09068244f84c18faaa74bc","study_id":"6197b3f67c2b5cd3b6d9596a","session_id":"619be58e3fcd1d6a982c31f6","condition":"contingent","relevant_dimensions":["antennae","pattern"],"bee_group":{"antennae":"B","wings":"X","pattern":"D","legs":"X"},"action":"harvest","summary":"good-harvest","bonus":1.060000000000001},{"rt":2475,"stimulus":"\n                    <p><b>Action: <em>harvest</em></b></p>\n                    <p>This is the bee that you just saw.</p>\n                    <img src=\"bees-with-color/bee-A2SM.svg\" width=\"200\">\n                    <p><span class=\"greenText\"><b>Successful harvest!</b></span><br>Your pay has increased by $0.02. Your bonus pay is now $0.62.</p>\n            ","response":0,"trial_type":"html-button-response","trial_index":70,"time_elapsed":259418,"internal_node_id":"0.0-4.0-1.31","subject_id":"5f09068244f84c18faaa74bc","study_id":"6197b3f67c2b5cd3b6d9596a","session_id":"619be58e3fcd1d6a982c31f6","condition":"contingent","relevant_dimensions":["antennae","pattern"],"bee_group":{"antennae":"B","wings":"X","pattern":"D","legs":"X"},"bonus":1.060000000000001},{"rt":1228.6000000238419,"stimulus":"bees-with-color/bee-A1DM.svg","response":1,"trial_type":"image-button-response","trial_index":71,"time_elapsed":260648,"internal_node_id":"0.0-4.0-0.32","subject_id":"5f09068244f84c18faaa74bc","study_id":"6197b3f67c2b5cd3b6d9596a","session_id":"619be58e3fcd1d6a982c31f6","condition":"contingent","relevant_dimensions":["antennae","pattern"],"bee_group":{"antennae":"B","wings":"X","pattern":"D","legs":"X"},"action":"avoid","summary":"bad-avoid","bonus":1.060000000000001},{"rt":539.2000000476837,"stimulus":"\n                    <p><b>Action: <em>avoid</em></b></p>\n                    <p>This is the bee that you just saw.</p>\n                    <img src=\"bees-with-color/bee-A1DM.svg\" width=\"200\">\n                    <p><br>Your bonus pay is unchanged, and remains at $0.62.</p>\n            ","response":0,"trial_type":"html-button-response","trial_index":72,"time_elapsed":261188,"internal_node_id":"0.0-4.0-1.32","subject_id":"5f09068244f84c18faaa74bc","study_id":"6197b3f67c2b5cd3b6d9596a","session_id":"619be58e3fcd1d6a982c31f6","condition":"contingent","relevant_dimensions":["antennae","pattern"],"bee_group":{"antennae":"B","wings":"X","pattern":"D","legs":"X"},"bonus":1.060000000000001},{"rt":936.8000000715256,"stimulus":"bees-with-color/bee-B2SM.svg","response":0,"trial_type":"image-button-response","trial_index":73,"time_elapsed":262126,"internal_node_id":"0.0-4.0-0.33","subject_id":"5f09068244f84c18faaa74bc","study_id":"6197b3f67c2b5cd3b6d9596a","session_id":"619be58e3fcd1d6a982c31f6","condition":"contingent","relevant_dimensions":["antennae","pattern"],"bee_group":{"antennae":"B","wings":"X","pattern":"D","legs":"X"},"action":"harvest","summary":"good-harvest","bonus":1.060000000000001},{"rt":1499.7000000476837,"stimulus":"\n                    <p><b>Action: <em>harvest</em></b></p>\n                    <p>This is the bee that you just saw.</p>\n                    <img src=\"bees-with-color/bee-B2SM.svg\" width=\"200\">\n                    <p><span class=\"greenText\"><b>Successful harvest!</b></span><br>Your pay has increased by $0.02. Your bonus pay is now $0.64.</p>\n            ","response":0,"trial_type":"html-button-response","trial_index":74,"time_elapsed":263626,"internal_node_id":"0.0-4.0-1.33","subject_id":"5f09068244f84c18faaa74bc","study_id":"6197b3f67c2b5cd3b6d9596a","session_id":"619be58e3fcd1d6a982c31f6","condition":"contingent","relevant_dimensions":["antennae","pattern"],"bee_group":{"antennae":"B","wings":"X","pattern":"D","legs":"X"},"bonus":1.060000000000001},{"rt":898.4000000953674,"stimulus":"bees-with-color/bee-A2SF.svg","response":0,"trial_type":"image-button-response","trial_index":75,"time_elapsed":264525,"internal_node_id":"0.0-4.0-0.34","subject_id":"5f09068244f84c18faaa74bc","study_id":"6197b3f67c2b5cd3b6d9596a","session_id":"619be58e3fcd1d6a982c31f6","condition":"contingent","relevant_dimensions":["antennae","pattern"],"bee_group":{"antennae":"B","wings":"X","pattern":"D","legs":"X"},"action":"harvest","summary":"good-harvest","bonus":1.060000000000001},{"rt":539.7000000476837,"stimulus":"\n                    <p><b>Action: <em>harvest</em></b></p>\n                    <p>This is the bee that you just saw.</p>\n                    <img src=\"bees-with-color/bee-A2SF.svg\" width=\"200\">\n                    <p><span class=\"greenText\"><b>Successful harvest!</b></span><br>Your pay has increased by $0.02. Your bonus pay is now $0.66.</p>\n            ","response":0,"trial_type":"html-button-response","trial_index":76,"time_elapsed":265066,"internal_node_id":"0.0-4.0-1.34","subject_id":"5f09068244f84c18faaa74bc","study_id":"6197b3f67c2b5cd3b6d9596a","session_id":"619be58e3fcd1d6a982c31f6","condition":"contingent","relevant_dimensions":["antennae","pattern"],"bee_group":{"antennae":"B","wings":"X","pattern":"D","legs":"X"},"bonus":1.060000000000001},{"rt":899.8999999761581,"stimulus":"bees-with-color/bee-B1DF.svg","response":1,"trial_type":"image-button-response","trial_index":77,"time_elapsed":265966,"internal_node_id":"0.0-4.0-0.35","subject_id":"5f09068244f84c18faaa74bc","study_id":"6197b3f67c2b5cd3b6d9596a","session_id":"619be58e3fcd1d6a982c31f6","condition":"contingent","relevant_dimensions":["antennae","pattern"],"bee_group":{"antennae":"B","wings":"X","pattern":"D","legs":"X"},"action":"avoid","summary":"good-avoid","bonus":1.060000000000001},{"rt":456.10000002384186,"stimulus":"\n                    <p><b>Action: <em>avoid</em></b></p>\n                    <p>This is the bee that you just saw.</p>\n                    <img src=\"bees-with-color/bee-B1DF.svg\" width=\"200\">\n                    <p><br>Your bonus pay is unchanged, and remains at $0.66.</p>\n            ","response":0,"trial_type":"html-button-response","trial_index":78,"time_elapsed":266423,"internal_node_id":"0.0-4.0-1.35","subject_id":"5f09068244f84c18faaa74bc","study_id":"6197b3f67c2b5cd3b6d9596a","session_id":"619be58e3fcd1d6a982c31f6","condition":"contingent","relevant_dimensions":["antennae","pattern"],"bee_group":{"antennae":"B","wings":"X","pattern":"D","legs":"X"},"bonus":1.060000000000001},{"rt":726.6999999284744,"stimulus":"bees-with-color/bee-A2SM.svg","response":0,"trial_type":"image-button-response","trial_index":79,"time_elapsed":267151,"internal_node_id":"0.0-4.0-0.36","subject_id":"5f09068244f84c18faaa74bc","study_id":"6197b3f67c2b5cd3b6d9596a","session_id":"619be58e3fcd1d6a982c31f6","condition":"contingent","relevant_dimensions":["antennae","pattern"],"bee_group":{"antennae":"B","wings":"X","pattern":"D","legs":"X"},"action":"harvest","summary":"good-harvest","bonus":1.060000000000001},{"rt":530.7999999523163,"stimulus":"\n                    <p><b>Action: <em>harvest</em></b></p>\n                    <p>This is the bee that you just saw.</p>\n                    <img src=\"bees-with-color/bee-A2SM.svg\" width=\"200\">\n                    <p><span class=\"greenText\"><b>Successful harvest!</b></span><br>Your pay has increased by $0.02. Your bonus pay is now $0.68.</p>\n            ","response":0,"trial_type":"html-button-response","trial_index":80,"time_elapsed":267683,"internal_node_id":"0.0-4.0-1.36","subject_id":"5f09068244f84c18faaa74bc","study_id":"6197b3f67c2b5cd3b6d9596a","session_id":"619be58e3fcd1d6a982c31f6","condition":"contingent","relevant_dimensions":["antennae","pattern"],"bee_group":{"antennae":"B","wings":"X","pattern":"D","legs":"X"},"bonus":1.060000000000001},{"rt":1035.2000000476837,"stimulus":"bees-with-color/bee-A1DF.svg","response":1,"trial_type":"image-button-response","trial_index":81,"time_elapsed":268719,"internal_node_id":"0.0-4.0-0.37","subject_id":"5f09068244f84c18faaa74bc","study_id":"6197b3f67c2b5cd3b6d9596a","session_id":"619be58e3fcd1d6a982c31f6","condition":"contingent","relevant_dimensions":["antennae","pattern"],"bee_group":{"antennae":"B","wings":"X","pattern":"D","legs":"X"},"action":"avoid","summary":"bad-avoid","bonus":1.060000000000001},{"rt":358.5,"stimulus":"\n                    <p><b>Action: <em>avoid</em></b></p>\n                    <p>This is the bee that you just saw.</p>\n                    <img src=\"bees-with-color/bee-A1DF.svg\" width=\"200\">\n                    <p><br>Your bonus pay is unchanged, and remains at $0.68.</p>\n            ","response":0,"trial_type":"html-button-response","trial_index":82,"time_elapsed":269078,"internal_node_id":"0.0-4.0-1.37","subject_id":"5f09068244f84c18faaa74bc","study_id":"6197b3f67c2b5cd3b6d9596a","session_id":"619be58e3fcd1d6a982c31f6","condition":"contingent","relevant_dimensions":["antennae","pattern"],"bee_group":{"antennae":"B","wings":"X","pattern":"D","legs":"X"},"bonus":1.060000000000001},{"rt":1724.6999999284744,"stimulus":"bees-with-color/bee-B2DM.svg","response":1,"trial_type":"image-button-response","trial_index":83,"time_elapsed":270803,"internal_node_id":"0.0-4.0-0.38","subject_id":"5f09068244f84c18faaa74bc","study_id":"6197b3f67c2b5cd3b6d9596a","session_id":"619be58e3fcd1d6a982c31f6","condition":"contingent","relevant_dimensions":["antennae","pattern"],"bee_group":{"antennae":"B","wings":"X","pattern":"D","legs":"X"},"action":"avoid","summary":"good-avoid","bonus":1.060000000000001},{"rt":493.90000009536743,"stimulus":"\n                    <p><b>Action: <em>avoid</em></b></p>\n                    <p>This is the bee that you just saw.</p>\n                    <img src=\"bees-with-color/bee-B2DM.svg\" width=\"200\">\n                    <p><br>Your bonus pay is unchanged, and remains at $0.68.</p>\n            ","response":0,"trial_type":"html-button-response","trial_index":84,"time_elapsed":271298,"internal_node_id":"0.0-4.0-1.38","subject_id":"5f09068244f84c18faaa74bc","study_id":"6197b3f67c2b5cd3b6d9596a","session_id":"619be58e3fcd1d6a982c31f6","condition":"contingent","relevant_dimensions":["antennae","pattern"],"bee_group":{"antennae":"B","wings":"X","pattern":"D","legs":"X"},"bonus":1.060000000000001},{"rt":629.5,"stimulus":"bees-with-color/bee-B2SF.svg","response":0,"trial_type":"image-button-response","trial_index":85,"time_elapsed":271929,"internal_node_id":"0.0-4.0-0.39","subject_id":"5f09068244f84c18faaa74bc","study_id":"6197b3f67c2b5cd3b6d9596a","session_id":"619be58e3fcd1d6a982c31f6","condition":"contingent","relevant_dimensions":["antennae","pattern"],"bee_group":{"antennae":"B","wings":"X","pattern":"D","legs":"X"},"action":"harvest","summary":"good-harvest","bonus":1.060000000000001},{"rt":710.5,"stimulus":"\n                    <p><b>Action: <em>harvest</em></b></p>\n                    <p>This is the bee that you just saw.</p>\n                    <img src=\"bees-with-color/bee-B2SF.svg\" width=\"200\">\n                    <p><span class=\"greenText\"><b>Successful harvest!</b></span><br>Your pay has increased by $0.02. Your bonus pay is now $0.70.</p>\n            ","response":0,"trial_type":"html-button-response","trial_index":86,"time_elapsed":272640,"internal_node_id":"0.0-4.0-1.39","subject_id":"5f09068244f84c18faaa74bc","study_id":"6197b3f67c2b5cd3b6d9596a","session_id":"619be58e3fcd1d6a982c31f6","condition":"contingent","relevant_dimensions":["antennae","pattern"],"bee_group":{"antennae":"B","wings":"X","pattern":"D","legs":"X"},"bonus":1.060000000000001},{"rt":1379.6000000238419,"stimulus":"bees-with-color/bee-A2DM.svg","response":1,"trial_type":"image-button-response","trial_index":87,"time_elapsed":274020,"internal_node_id":"0.0-4.0-0.40","subject_id":"5f09068244f84c18faaa74bc","study_id":"6197b3f67c2b5cd3b6d9596a","session_id":"619be58e3fcd1d6a982c31f6","condition":"contingent","relevant_dimensions":["antennae","pattern"],"bee_group":{"antennae":"B","wings":"X","pattern":"D","legs":"X"},"action":"avoid","summary":"bad-avoid","bonus":1.060000000000001},{"rt":689,"stimulus":"\n                    <p><b>Action: <em>avoid</em></b></p>\n                    <p>This is the bee that you just saw.</p>\n                    <img src=\"bees-with-color/bee-A2DM.svg\" width=\"200\">\n                    <p><br>Your bonus pay is unchanged, and remains at $0.70.</p>\n            ","response":0,"trial_type":"html-button-response","trial_index":88,"time_elapsed":274710,"internal_node_id":"0.0-4.0-1.40","subject_id":"5f09068244f84c18faaa74bc","study_id":"6197b3f67c2b5cd3b6d9596a","session_id":"619be58e3fcd1d6a982c31f6","condition":"contingent","relevant_dimensions":["antennae","pattern"],"bee_group":{"antennae":"B","wings":"X","pattern":"D","legs":"X"},"bonus":1.060000000000001},{"rt":1206.3999999761581,"stimulus":"bees-with-color/bee-B1DM.svg","response":1,"trial_type":"image-button-response","trial_index":89,"time_elapsed":275918,"internal_node_id":"0.0-4.0-0.41","subject_id":"5f09068244f84c18faaa74bc","study_id":"6197b3f67c2b5cd3b6d9596a","session_id":"619be58e3fcd1d6a982c31f6","condition":"contingent","relevant_dimensions":["antennae","pattern"],"bee_group":{"antennae":"B","wings":"X","pattern":"D","legs":"X"},"action":"avoid","summary":"good-avoid","bonus":1.060000000000001},{"rt":526.3999999761581,"stimulus":"\n                    <p><b>Action: <em>avoid</em></b></p>\n                    <p>This is the bee that you just saw.</p>\n                    <img src=\"bees-with-color/bee-B1DM.svg\" width=\"200\">\n                    <p><br>Your bonus pay is unchanged, and remains at $0.70.</p>\n            ","response":0,"trial_type":"html-button-response","trial_index":90,"time_elapsed":276445,"internal_node_id":"0.0-4.0-1.41","subject_id":"5f09068244f84c18faaa74bc","study_id":"6197b3f67c2b5cd3b6d9596a","session_id":"619be58e3fcd1d6a982c31f6","condition":"contingent","relevant_dimensions":["antennae","pattern"],"bee_group":{"antennae":"B","wings":"X","pattern":"D","legs":"X"},"bonus":1.060000000000001},{"rt":634.8999999761581,"stimulus":"bees-with-color/bee-B1SF.svg","response":0,"trial_type":"image-button-response","trial_index":91,"time_elapsed":277081,"internal_node_id":"0.0-4.0-0.42","subject_id":"5f09068244f84c18faaa74bc","study_id":"6197b3f67c2b5cd3b6d9596a","session_id":"619be58e3fcd1d6a982c31f6","condition":"contingent","relevant_dimensions":["antennae","pattern"],"bee_group":{"antennae":"B","wings":"X","pattern":"D","legs":"X"},"action":"harvest","summary":"good-harvest","bonus":1.060000000000001},{"rt":509.2000000476837,"stimulus":"\n                    <p><b>Action: <em>harvest</em></b></p>\n                    <p>This is the bee that you just saw.</p>\n                    <img src=\"bees-with-color/bee-B1SF.svg\" width=\"200\">\n                    <p><span class=\"greenText\"><b>Successful harvest!</b></span><br>Your pay has increased by $0.02. Your bonus pay is now $0.72.</p>\n            ","response":0,"trial_type":"html-button-response","trial_index":92,"time_elapsed":277591,"internal_node_id":"0.0-4.0-1.42","subject_id":"5f09068244f84c18faaa74bc","study_id":"6197b3f67c2b5cd3b6d9596a","session_id":"619be58e3fcd1d6a982c31f6","condition":"contingent","relevant_dimensions":["antennae","pattern"],"bee_group":{"antennae":"B","wings":"X","pattern":"D","legs":"X"},"bonus":1.060000000000001},{"rt":584.2000000476837,"stimulus":"bees-with-color/bee-A1SM.svg","response":0,"trial_type":"image-button-response","trial_index":93,"time_elapsed":278176,"internal_node_id":"0.0-4.0-0.43","subject_id":"5f09068244f84c18faaa74bc","study_id":"6197b3f67c2b5cd3b6d9596a","session_id":"619be58e3fcd1d6a982c31f6","condition":"contingent","relevant_dimensions":["antennae","pattern"],"bee_group":{"antennae":"B","wings":"X","pattern":"D","legs":"X"},"action":"harvest","summary":"good-harvest","bonus":1.060000000000001},{"rt":665.6999999284744,"stimulus":"\n                    <p><b>Action: <em>harvest</em></b></p>\n                    <p>This is the bee that you just saw.</p>\n                    <img src=\"bees-with-color/bee-A1SM.svg\" width=\"200\">\n                    <p><span class=\"greenText\"><b>Successful harvest!</b></span><br>Your pay has increased by $0.02. Your bonus pay is now $0.74.</p>\n            ","response":0,"trial_type":"html-button-response","trial_index":94,"time_elapsed":278842,"internal_node_id":"0.0-4.0-1.43","subject_id":"5f09068244f84c18faaa74bc","study_id":"6197b3f67c2b5cd3b6d9596a","session_id":"619be58e3fcd1d6a982c31f6","condition":"contingent","relevant_dimensions":["antennae","pattern"],"bee_group":{"antennae":"B","wings":"X","pattern":"D","legs":"X"},"bonus":1.060000000000001},{"rt":607.3999999761581,"stimulus":"bees-with-color/bee-B1SM.svg","response":0,"trial_type":"image-button-response","trial_index":95,"time_elapsed":279451,"internal_node_id":"0.0-4.0-0.44","subject_id":"5f09068244f84c18faaa74bc","study_id":"6197b3f67c2b5cd3b6d9596a","session_id":"619be58e3fcd1d6a982c31f6","condition":"contingent","relevant_dimensions":["antennae","pattern"],"bee_group":{"antennae":"B","wings":"X","pattern":"D","legs":"X"},"action":"harvest","summary":"good-harvest","bonus":1.060000000000001},{"rt":659.1000000238419,"stimulus":"\n                    <p><b>Action: <em>harvest</em></b></p>\n                    <p>This is the bee that you just saw.</p>\n                    <img src=\"bees-with-color/bee-B1SM.svg\" width=\"200\">\n                    <p><span class=\"greenText\"><b>Successful harvest!</b></span><br>Your pay has increased by $0.02. Your bonus pay is now $0.76.</p>\n            ","response":0,"trial_type":"html-button-response","trial_index":96,"time_elapsed":280111,"internal_node_id":"0.0-4.0-1.44","subject_id":"5f09068244f84c18faaa74bc","study_id":"6197b3f67c2b5cd3b6d9596a","session_id":"619be58e3fcd1d6a982c31f6","condition":"contingent","relevant_dimensions":["antennae","pattern"],"bee_group":{"antennae":"B","wings":"X","pattern":"D","legs":"X"},"bonus":1.060000000000001},{"rt":1806.5,"stimulus":"bees-with-color/bee-B2DF.svg","response":1,"trial_type":"image-button-response","trial_index":97,"time_elapsed":281918,"internal_node_id":"0.0-4.0-0.45","subject_id":"5f09068244f84c18faaa74bc","study_id":"6197b3f67c2b5cd3b6d9596a","session_id":"619be58e3fcd1d6a982c31f6","condition":"contingent","relevant_dimensions":["antennae","pattern"],"bee_group":{"antennae":"B","wings":"X","pattern":"D","legs":"X"},"action":"avoid","summary":"good-avoid","bonus":1.060000000000001},{"rt":441.89999997615814,"stimulus":"\n                    <p><b>Action: <em>avoid</em></b></p>\n                    <p>This is the bee that you just saw.</p>\n                    <img src=\"bees-with-color/bee-B2DF.svg\" width=\"200\">\n                    <p><br>Your bonus pay is unchanged, and remains at $0.76.</p>\n            ","response":0,"trial_type":"html-button-response","trial_index":98,"time_elapsed":282361,"internal_node_id":"0.0-4.0-1.45","subject_id":"5f09068244f84c18faaa74bc","study_id":"6197b3f67c2b5cd3b6d9596a","session_id":"619be58e3fcd1d6a982c31f6","condition":"contingent","relevant_dimensions":["antennae","pattern"],"bee_group":{"antennae":"B","wings":"X","pattern":"D","legs":"X"},"bonus":1.060000000000001},{"rt":922,"stimulus":"bees-with-color/bee-A2DF.svg","response":1,"trial_type":"image-button-response","trial_index":99,"time_elapsed":283283,"internal_node_id":"0.0-4.0-0.46","subject_id":"5f09068244f84c18faaa74bc","study_id":"6197b3f67c2b5cd3b6d9596a","session_id":"619be58e3fcd1d6a982c31f6","condition":"contingent","relevant_dimensions":["antennae","pattern"],"bee_group":{"antennae":"B","wings":"X","pattern":"D","legs":"X"},"action":"avoid","summary":"bad-avoid","bonus":1.060000000000001},{"rt":546.3999999761581,"stimulus":"\n                    <p><b>Action: <em>avoid</em></b></p>\n                    <p>This is the bee that you just saw.</p>\n                    <img src=\"bees-with-color/bee-A2DF.svg\" width=\"200\">\n                    <p><br>Your bonus pay is unchanged, and remains at $0.76.</p>\n            ","response":0,"trial_type":"html-button-response","trial_index":100,"time_elapsed":283830,"internal_node_id":"0.0-4.0-1.46","subject_id":"5f09068244f84c18faaa74bc","study_id":"6197b3f67c2b5cd3b6d9596a","session_id":"619be58e3fcd1d6a982c31f6","condition":"contingent","relevant_dimensions":["antennae","pattern"],"bee_group":{"antennae":"B","wings":"X","pattern":"D","legs":"X"},"bonus":1.060000000000001},{"rt":532.3999999761581,"stimulus":"bees-with-color/bee-A1SF.svg","response":0,"trial_type":"image-button-response","trial_index":101,"time_elapsed":284363,"internal_node_id":"0.0-4.0-0.47","subject_id":"5f09068244f84c18faaa74bc","study_id":"6197b3f67c2b5cd3b6d9596a","session_id":"619be58e3fcd1d6a982c31f6","condition":"contingent","relevant_dimensions":["antennae","pattern"],"bee_group":{"antennae":"B","wings":"X","pattern":"D","legs":"X"},"action":"harvest","summary":"good-harvest","bonus":1.060000000000001},{"rt":711.3999999761581,"stimulus":"\n                    <p><b>Action: <em>harvest</em></b></p>\n                    <p>This is the bee that you just saw.</p>\n                    <img src=\"bees-with-color/bee-A1SF.svg\" width=\"200\">\n                    <p><span class=\"greenText\"><b>Successful harvest!</b></span><br>Your pay has increased by $0.02. Your bonus pay is now $0.78.</p>\n            ","response":0,"trial_type":"html-button-response","trial_index":102,"time_elapsed":285076,"internal_node_id":"0.0-4.0-1.47","subject_id":"5f09068244f84c18faaa74bc","study_id":"6197b3f67c2b5cd3b6d9596a","session_id":"619be58e3fcd1d6a982c31f6","condition":"contingent","relevant_dimensions":["antennae","pattern"],"bee_group":{"antennae":"B","wings":"X","pattern":"D","legs":"X"},"bonus":1.060000000000001},{"rt":637.8999999761581,"stimulus":"bees-with-color/bee-A1SM.svg","response":0,"trial_type":"image-button-response","trial_index":103,"time_elapsed":285714,"internal_node_id":"0.0-4.0-0.48","subject_id":"5f09068244f84c18faaa74bc","study_id":"6197b3f67c2b5cd3b6d9596a","session_id":"619be58e3fcd1d6a982c31f6","condition":"contingent","relevant_dimensions":["antennae","pattern"],"bee_group":{"antennae":"B","wings":"X","pattern":"D","legs":"X"},"action":"harvest","summary":"good-harvest","bonus":1.060000000000001},{"rt":410.40000009536743,"stimulus":"\n                    <p><b>Action: <em>harvest</em></b></p>\n                    <p>This is the bee that you just saw.</p>\n                    <img src=\"bees-with-color/bee-A1SM.svg\" width=\"200\">\n                    <p><span class=\"greenText\"><b>Successful harvest!</b></span><br>Your pay has increased by $0.02. Your bonus pay is now $0.80.</p>\n            ","response":0,"trial_type":"html-button-response","trial_index":104,"time_elapsed":286125,"internal_node_id":"0.0-4.0-1.48","subject_id":"5f09068244f84c18faaa74bc","study_id":"6197b3f67c2b5cd3b6d9596a","session_id":"619be58e3fcd1d6a982c31f6","condition":"contingent","relevant_dimensions":["antennae","pattern"],"bee_group":{"antennae":"B","wings":"X","pattern":"D","legs":"X"},"bonus":1.060000000000001},{"rt":675.1000000238419,"stimulus":"bees-with-color/bee-B2SF.svg","response":0,"trial_type":"image-button-response","trial_index":105,"time_elapsed":286801,"internal_node_id":"0.0-4.0-0.49","subject_id":"5f09068244f84c18faaa74bc","study_id":"6197b3f67c2b5cd3b6d9596a","session_id":"619be58e3fcd1d6a982c31f6","condition":"contingent","relevant_dimensions":["antennae","pattern"],"bee_group":{"antennae":"B","wings":"X","pattern":"D","legs":"X"},"action":"harvest","summary":"good-harvest","bonus":1.060000000000001},{"rt":726.6000000238419,"stimulus":"\n                    <p><b>Action: <em>harvest</em></b></p>\n                    <p>This is the bee that you just saw.</p>\n                    <img src=\"bees-with-color/bee-B2SF.svg\" width=\"200\">\n                    <p><span class=\"greenText\"><b>Successful harvest!</b></span><br>Your pay has increased by $0.02. Your bonus pay is now $0.82.</p>\n            ","response":0,"trial_type":"html-button-response","trial_index":106,"time_elapsed":287528,"internal_node_id":"0.0-4.0-1.49","subject_id":"5f09068244f84c18faaa74bc","study_id":"6197b3f67c2b5cd3b6d9596a","session_id":"619be58e3fcd1d6a982c31f6","condition":"contingent","relevant_dimensions":["antennae","pattern"],"bee_group":{"antennae":"B","wings":"X","pattern":"D","legs":"X"},"bonus":1.060000000000001},{"rt":960,"stimulus":"bees-with-color/bee-B1DM.svg","response":1,"trial_type":"image-button-response","trial_index":107,"time_elapsed":288489,"internal_node_id":"0.0-4.0-0.50","subject_id":"5f09068244f84c18faaa74bc","study_id":"6197b3f67c2b5cd3b6d9596a","session_id":"619be58e3fcd1d6a982c31f6","condition":"contingent","relevant_dimensions":["antennae","pattern"],"bee_group":{"antennae":"B","wings":"X","pattern":"D","legs":"X"},"action":"avoid","summary":"good-avoid","bonus":1.060000000000001},{"rt":553.5,"stimulus":"\n                    <p><b>Action: <em>avoid</em></b></p>\n                    <p>This is the bee that you just saw.</p>\n                    <img src=\"bees-with-color/bee-B1DM.svg\" width=\"200\">\n                    <p><br>Your bonus pay is unchanged, and remains at $0.82.</p>\n            ","response":0,"trial_type":"html-button-response","trial_index":108,"time_elapsed":289043,"internal_node_id":"0.0-4.0-1.50","subject_id":"5f09068244f84c18faaa74bc","study_id":"6197b3f67c2b5cd3b6d9596a","session_id":"619be58e3fcd1d6a982c31f6","condition":"contingent","relevant_dimensions":["antennae","pattern"],"bee_group":{"antennae":"B","wings":"X","pattern":"D","legs":"X"},"bonus":1.060000000000001},{"rt":613.5,"stimulus":"bees-with-color/bee-A1SF.svg","response":0,"trial_type":"image-button-response","trial_index":109,"time_elapsed":289657,"internal_node_id":"0.0-4.0-0.51","subject_id":"5f09068244f84c18faaa74bc","study_id":"6197b3f67c2b5cd3b6d9596a","session_id":"619be58e3fcd1d6a982c31f6","condition":"contingent","relevant_dimensions":["antennae","pattern"],"bee_group":{"antennae":"B","wings":"X","pattern":"D","legs":"X"},"action":"harvest","summary":"good-harvest","bonus":1.060000000000001},{"rt":645.1000000238419,"stimulus":"\n                    <p><b>Action: <em>harvest</em></b></p>\n                    <p>This is the bee that you just saw.</p>\n                    <img src=\"bees-with-color/bee-A1SF.svg\" width=\"200\">\n                    <p><span class=\"greenText\"><b>Successful harvest!</b></span><br>Your pay has increased by $0.02. Your bonus pay is now $0.84.</p>\n            ","response":0,"trial_type":"html-button-response","trial_index":110,"time_elapsed":290303,"internal_node_id":"0.0-4.0-1.51","subject_id":"5f09068244f84c18faaa74bc","study_id":"6197b3f67c2b5cd3b6d9596a","session_id":"619be58e3fcd1d6a982c31f6","condition":"contingent","relevant_dimensions":["antennae","pattern"],"bee_group":{"antennae":"B","wings":"X","pattern":"D","legs":"X"},"bonus":1.060000000000001},{"rt":913.7000000476837,"stimulus":"bees-with-color/bee-A1DF.svg","response":1,"trial_type":"image-button-response","trial_index":111,"time_elapsed":291218,"internal_node_id":"0.0-4.0-0.52","subject_id":"5f09068244f84c18faaa74bc","study_id":"6197b3f67c2b5cd3b6d9596a","session_id":"619be58e3fcd1d6a982c31f6","condition":"contingent","relevant_dimensions":["antennae","pattern"],"bee_group":{"antennae":"B","wings":"X","pattern":"D","legs":"X"},"action":"avoid","summary":"bad-avoid","bonus":1.060000000000001},{"rt":412.5,"stimulus":"\n                    <p><b>Action: <em>avoid</em></b></p>\n                    <p>This is the bee that you just saw.</p>\n                    <img src=\"bees-with-color/bee-A1DF.svg\" width=\"200\">\n                    <p><br>Your bonus pay is unchanged, and remains at $0.84.</p>\n            ","response":0,"trial_type":"html-button-response","trial_index":112,"time_elapsed":291631,"internal_node_id":"0.0-4.0-1.52","subject_id":"5f09068244f84c18faaa74bc","study_id":"6197b3f67c2b5cd3b6d9596a","session_id":"619be58e3fcd1d6a982c31f6","condition":"contingent","relevant_dimensions":["antennae","pattern"],"bee_group":{"antennae":"B","wings":"X","pattern":"D","legs":"X"},"bonus":1.060000000000001},{"rt":599.2999999523163,"stimulus":"bees-with-color/bee-B1SM.svg","response":0,"trial_type":"image-button-response","trial_index":113,"time_elapsed":292231,"internal_node_id":"0.0-4.0-0.53","subject_id":"5f09068244f84c18faaa74bc","study_id":"6197b3f67c2b5cd3b6d9596a","session_id":"619be58e3fcd1d6a982c31f6","condition":"contingent","relevant_dimensions":["antennae","pattern"],"bee_group":{"antennae":"B","wings":"X","pattern":"D","legs":"X"},"action":"harvest","summary":"good-harvest","bonus":1.060000000000001},{"rt":478.60000002384186,"stimulus":"\n                    <p><b>Action: <em>harvest</em></b></p>\n                    <p>This is the bee that you just saw.</p>\n                    <img src=\"bees-with-color/bee-B1SM.svg\" width=\"200\">\n                    <p><span class=\"greenText\"><b>Successful harvest!</b></span><br>Your pay has increased by $0.02. Your bonus pay is now $0.86.</p>\n            ","response":0,"trial_type":"html-button-response","trial_index":114,"time_elapsed":292710,"internal_node_id":"0.0-4.0-1.53","subject_id":"5f09068244f84c18faaa74bc","study_id":"6197b3f67c2b5cd3b6d9596a","session_id":"619be58e3fcd1d6a982c31f6","condition":"contingent","relevant_dimensions":["antennae","pattern"],"bee_group":{"antennae":"B","wings":"X","pattern":"D","legs":"X"},"bonus":1.060000000000001},{"rt":757.1999999284744,"stimulus":"bees-with-color/bee-B2DM.svg","response":0,"trial_type":"image-button-response","trial_index":115,"time_elapsed":293468,"internal_node_id":"0.0-4.0-0.54","subject_id":"5f09068244f84c18faaa74bc","study_id":"6197b3f67c2b5cd3b6d9596a","session_id":"619be58e3fcd1d6a982c31f6","condition":"contingent","relevant_dimensions":["antennae","pattern"],"bee_group":{"antennae":"B","wings":"X","pattern":"D","legs":"X"},"action":"harvest","summary":"bad-harvest","bonus":1.060000000000001},{"rt":2549.100000023842,"stimulus":"\n                    <p><b>Action: <em>harvest</em></b></p>\n                    <p>This is the bee that you just saw.</p>\n                    <img src=\"bees-with-color/bee-B2DM.svg\" width=\"200\">\n                    <p><span class=\"redText\">Bad choice, the bee was angry.</span><br><b>You have been stung!</b><br>Your pay has been decreased by $0.10. Your bonus pay is now $0.76.</p>\n            ","response":0,"trial_type":"html-button-response","trial_index":116,"time_elapsed":296018,"internal_node_id":"0.0-4.0-1.54","subject_id":"5f09068244f84c18faaa74bc","study_id":"6197b3f67c2b5cd3b6d9596a","session_id":"619be58e3fcd1d6a982c31f6","condition":"contingent","relevant_dimensions":["antennae","pattern"],"bee_group":{"antennae":"B","wings":"X","pattern":"D","legs":"X"},"bonus":1.060000000000001},{"rt":1341.8000000715256,"stimulus":"bees-with-color/bee-A2DM.svg","response":1,"trial_type":"image-button-response","trial_index":117,"time_elapsed":297361,"internal_node_id":"0.0-4.0-0.55","subject_id":"5f09068244f84c18faaa74bc","study_id":"6197b3f67c2b5cd3b6d9596a","session_id":"619be58e3fcd1d6a982c31f6","condition":"contingent","relevant_dimensions":["antennae","pattern"],"bee_group":{"antennae":"B","wings":"X","pattern":"D","legs":"X"},"action":"avoid","summary":"bad-avoid","bonus":1.060000000000001},{"rt":448.89999997615814,"stimulus":"\n                    <p><b>Action: <em>avoid</em></b></p>\n                    <p>This is the bee that you just saw.</p>\n                    <img src=\"bees-with-color/bee-A2DM.svg\" width=\"200\">\n                    <p><br>Your bonus pay is unchanged, and remains at $0.76.</p>\n            ","response":0,"trial_type":"html-button-response","trial_index":118,"time_elapsed":297810,"internal_node_id":"0.0-4.0-1.55","subject_id":"5f09068244f84c18faaa74bc","study_id":"6197b3f67c2b5cd3b6d9596a","session_id":"619be58e3fcd1d6a982c31f6","condition":"contingent","relevant_dimensions":["antennae","pattern"],"bee_group":{"antennae":"B","wings":"X","pattern":"D","legs":"X"},"bonus":1.060000000000001},{"rt":741.6999999284744,"stimulus":"bees-with-color/bee-A2SF.svg","response":0,"trial_type":"image-button-response","trial_index":119,"time_elapsed":298552,"internal_node_id":"0.0-4.0-0.56","subject_id":"5f09068244f84c18faaa74bc","study_id":"6197b3f67c2b5cd3b6d9596a","session_id":"619be58e3fcd1d6a982c31f6","condition":"contingent","relevant_dimensions":["antennae","pattern"],"bee_group":{"antennae":"B","wings":"X","pattern":"D","legs":"X"},"action":"harvest","summary":"good-harvest","bonus":1.060000000000001},{"rt":487.1999999284744,"stimulus":"\n                    <p><b>Action: <em>harvest</em></b></p>\n                    <p>This is the bee that you just saw.</p>\n                    <img src=\"bees-with-color/bee-A2SF.svg\" width=\"200\">\n                    <p><span class=\"greenText\"><b>Successful harvest!</b></span><br>Your pay has increased by $0.02. Your bonus pay is now $0.78.</p>\n            ","response":0,"trial_type":"html-button-response","trial_index":120,"time_elapsed":299040,"internal_node_id":"0.0-4.0-1.56","subject_id":"5f09068244f84c18faaa74bc","study_id":"6197b3f67c2b5cd3b6d9596a","session_id":"619be58e3fcd1d6a982c31f6","condition":"contingent","relevant_dimensions":["antennae","pattern"],"bee_group":{"antennae":"B","wings":"X","pattern":"D","legs":"X"},"bonus":1.060000000000001},{"rt":726.5,"stimulus":"bees-with-color/bee-B1DF.svg","response":1,"trial_type":"image-button-response","trial_index":121,"time_elapsed":299767,"internal_node_id":"0.0-4.0-0.57","subject_id":"5f09068244f84c18faaa74bc","study_id":"6197b3f67c2b5cd3b6d9596a","session_id":"619be58e3fcd1d6a982c31f6","condition":"contingent","relevant_dimensions":["antennae","pattern"],"bee_group":{"antennae":"B","wings":"X","pattern":"D","legs":"X"},"action":"avoid","summary":"good-avoid","bonus":1.060000000000001},{"rt":404.10000002384186,"stimulus":"\n                    <p><b>Action: <em>avoid</em></b></p>\n                    <p>This is the bee that you just saw.</p>\n                    <img src=\"bees-with-color/bee-B1DF.svg\" width=\"200\">\n                    <p><br>Your bonus pay is unchanged, and remains at $0.78.</p>\n            ","response":0,"trial_type":"html-button-response","trial_index":122,"time_elapsed":300172,"internal_node_id":"0.0-4.0-1.57","subject_id":"5f09068244f84c18faaa74bc","study_id":"6197b3f67c2b5cd3b6d9596a","session_id":"619be58e3fcd1d6a982c31f6","condition":"contingent","relevant_dimensions":["antennae","pattern"],"bee_group":{"antennae":"B","wings":"X","pattern":"D","legs":"X"},"bonus":1.060000000000001},{"rt":1461.7000000476837,"stimulus":"bees-with-color/bee-B2DF.svg","response":0,"trial_type":"image-button-response","trial_index":123,"time_elapsed":301635,"internal_node_id":"0.0-4.0-0.58","subject_id":"5f09068244f84c18faaa74bc","study_id":"6197b3f67c2b5cd3b6d9596a","session_id":"619be58e3fcd1d6a982c31f6","condition":"contingent","relevant_dimensions":["antennae","pattern"],"bee_group":{"antennae":"B","wings":"X","pattern":"D","legs":"X"},"action":"harvest","summary":"bad-harvest","bonus":1.060000000000001},{"rt":636.8000000715256,"stimulus":"\n                    <p><b>Action: <em>harvest</em></b></p>\n                    <p>This is the bee that you just saw.</p>\n                    <img src=\"bees-with-color/bee-B2DF.svg\" width=\"200\">\n                    <p><span class=\"redText\">Bad choice, the bee was angry.</span><br><b>You have been stung!</b><br>Your pay has been decreased by $0.10. Your bonus pay is now $0.68.</p>\n            ","response":0,"trial_type":"html-button-response","trial_index":124,"time_elapsed":302273,"internal_node_id":"0.0-4.0-1.58","subject_id":"5f09068244f84c18faaa74bc","study_id":"6197b3f67c2b5cd3b6d9596a","session_id":"619be58e3fcd1d6a982c31f6","condition":"contingent","relevant_dimensions":["antennae","pattern"],"bee_group":{"antennae":"B","wings":"X","pattern":"D","legs":"X"},"bonus":1.060000000000001},{"rt":1161.5,"stimulus":"bees-with-color/bee-A2SM.svg","response":0,"trial_type":"image-button-response","trial_index":125,"time_elapsed":303435,"internal_node_id":"0.0-4.0-0.59","subject_id":"5f09068244f84c18faaa74bc","study_id":"6197b3f67c2b5cd3b6d9596a","session_id":"619be58e3fcd1d6a982c31f6","condition":"contingent","relevant_dimensions":["antennae","pattern"],"bee_group":{"antennae":"B","wings":"X","pattern":"D","legs":"X"},"action":"harvest","summary":"good-harvest","bonus":1.060000000000001},{"rt":433.89999997615814,"stimulus":"\n                    <p><b>Action: <em>harvest</em></b></p>\n                    <p>This is the bee that you just saw.</p>\n                    <img src=\"bees-with-color/bee-A2SM.svg\" width=\"200\">\n                    <p><span class=\"greenText\"><b>Successful harvest!</b></span><br>Your pay has increased by $0.02. Your bonus pay is now $0.70.</p>\n            ","response":0,"trial_type":"html-button-response","trial_index":126,"time_elapsed":303870,"internal_node_id":"0.0-4.0-1.59","subject_id":"5f09068244f84c18faaa74bc","study_id":"6197b3f67c2b5cd3b6d9596a","session_id":"619be58e3fcd1d6a982c31f6","condition":"contingent","relevant_dimensions":["antennae","pattern"],"bee_group":{"antennae":"B","wings":"X","pattern":"D","legs":"X"},"bonus":1.060000000000001},{"rt":689.1000000238419,"stimulus":"bees-with-color/bee-B2SM.svg","response":0,"trial_type":"image-button-response","trial_index":127,"time_elapsed":304560,"internal_node_id":"0.0-4.0-0.60","subject_id":"5f09068244f84c18faaa74bc","study_id":"6197b3f67c2b5cd3b6d9596a","session_id":"619be58e3fcd1d6a982c31f6","condition":"contingent","relevant_dimensions":["antennae","pattern"],"bee_group":{"antennae":"B","wings":"X","pattern":"D","legs":"X"},"action":"harvest","summary":"good-harvest","bonus":1.060000000000001},{"rt":427.1999999284744,"stimulus":"\n                    <p><b>Action: <em>harvest</em></b></p>\n                    <p>This is the bee that you just saw.</p>\n                    <img src=\"bees-with-color/bee-B2SM.svg\" width=\"200\">\n                    <p><span class=\"greenText\"><b>Successful harvest!</b></span><br>Your pay has increased by $0.02. Your bonus pay is now $0.72.</p>\n            ","response":0,"trial_type":"html-button-response","trial_index":128,"time_elapsed":304988,"internal_node_id":"0.0-4.0-1.60","subject_id":"5f09068244f84c18faaa74bc","study_id":"6197b3f67c2b5cd3b6d9596a","session_id":"619be58e3fcd1d6a982c31f6","condition":"contingent","relevant_dimensions":["antennae","pattern"],"bee_group":{"antennae":"B","wings":"X","pattern":"D","legs":"X"},"bonus":1.060000000000001},{"rt":1026.5,"stimulus":"bees-with-color/bee-A1DM.svg","response":1,"trial_type":"image-button-response","trial_index":129,"time_elapsed":306015,"internal_node_id":"0.0-4.0-0.61","subject_id":"5f09068244f84c18faaa74bc","study_id":"6197b3f67c2b5cd3b6d9596a","session_id":"619be58e3fcd1d6a982c31f6","condition":"contingent","relevant_dimensions":["antennae","pattern"],"bee_group":{"antennae":"B","wings":"X","pattern":"D","legs":"X"},"action":"avoid","summary":"bad-avoid","bonus":1.060000000000001},{"rt":411.2999999523163,"stimulus":"\n                    <p><b>Action: <em>avoid</em></b></p>\n                    <p>This is the bee that you just saw.</p>\n                    <img src=\"bees-with-color/bee-A1DM.svg\" width=\"200\">\n                    <p><br>Your bonus pay is unchanged, and remains at $0.72.</p>\n            ","response":0,"trial_type":"html-button-response","trial_index":130,"time_elapsed":306427,"internal_node_id":"0.0-4.0-1.61","subject_id":"5f09068244f84c18faaa74bc","study_id":"6197b3f67c2b5cd3b6d9596a","session_id":"619be58e3fcd1d6a982c31f6","condition":"contingent","relevant_dimensions":["antennae","pattern"],"bee_group":{"antennae":"B","wings":"X","pattern":"D","legs":"X"},"bonus":1.060000000000001},{"rt":794.5,"stimulus":"bees-with-color/bee-A2DF.svg","response":1,"trial_type":"image-button-response","trial_index":131,"time_elapsed":307223,"internal_node_id":"0.0-4.0-0.62","subject_id":"5f09068244f84c18faaa74bc","study_id":"6197b3f67c2b5cd3b6d9596a","session_id":"619be58e3fcd1d6a982c31f6","condition":"contingent","relevant_dimensions":["antennae","pattern"],"bee_group":{"antennae":"B","wings":"X","pattern":"D","legs":"X"},"action":"avoid","summary":"bad-avoid","bonus":1.060000000000001},{"rt":704,"stimulus":"\n                    <p><b>Action: <em>avoid</em></b></p>\n                    <p>This is the bee that you just saw.</p>\n                    <img src=\"bees-with-color/bee-A2DF.svg\" width=\"200\">\n                    <p><br>Your bonus pay is unchanged, and remains at $0.72.</p>\n            ","response":0,"trial_type":"html-button-response","trial_index":132,"time_elapsed":307928,"internal_node_id":"0.0-4.0-1.62","subject_id":"5f09068244f84c18faaa74bc","study_id":"6197b3f67c2b5cd3b6d9596a","session_id":"619be58e3fcd1d6a982c31f6","condition":"contingent","relevant_dimensions":["antennae","pattern"],"bee_group":{"antennae":"B","wings":"X","pattern":"D","legs":"X"},"bonus":1.060000000000001},{"rt":645.1999999284744,"stimulus":"bees-with-color/bee-B1SF.svg","response":0,"trial_type":"image-button-response","trial_index":133,"time_elapsed":308574,"internal_node_id":"0.0-4.0-0.63","subject_id":"5f09068244f84c18faaa74bc","study_id":"6197b3f67c2b5cd3b6d9596a","session_id":"619be58e3fcd1d6a982c31f6","condition":"contingent","relevant_dimensions":["antennae","pattern"],"bee_group":{"antennae":"B","wings":"X","pattern":"D","legs":"X"},"action":"harvest","summary":"good-harvest","bonus":1.060000000000001},{"rt":404.7000000476837,"stimulus":"\n                    <p><b>Action: <em>harvest</em></b></p>\n                    <p>This is the bee that you just saw.</p>\n                    <img src=\"bees-with-color/bee-B1SF.svg\" width=\"200\">\n                    <p><span class=\"greenText\"><b>Successful harvest!</b></span><br>Your pay has increased by $0.02. Your bonus pay is now $0.74.</p>\n            ","response":0,"trial_type":"html-button-response","trial_index":134,"time_elapsed":308979,"internal_node_id":"0.0-4.0-1.63","subject_id":"5f09068244f84c18faaa74bc","study_id":"6197b3f67c2b5cd3b6d9596a","session_id":"619be58e3fcd1d6a982c31f6","condition":"contingent","relevant_dimensions":["antennae","pattern"],"bee_group":{"antennae":"B","wings":"X","pattern":"D","legs":"X"},"bonus":1.060000000000001},{"rt":5718,"stimulus":"You have completed the first part of this experiment.<br><br>You will now begin a shorter second part, in which you will receive no feedback.<br>The same rules regarding bonus pay apply.<br><br>Press any key to begin.","response":" ","trial_type":"html-keyboard-response","trial_index":135,"time_elapsed":314698,"internal_node_id":"0.0-5.0","subject_id":"5f09068244f84c18faaa74bc","study_id":"6197b3f67c2b5cd3b6d9596a","session_id":"619be58e3fcd1d6a982c31f6","condition":"contingent","relevant_dimensions":["antennae","pattern"],"bee_group":{"antennae":"B","wings":"X","pattern":"D","legs":"X"},"bonus":1.060000000000001},{"rt":1209.5,"stimulus":"bees-with-color/bee-B2SM.svg","response":0,"trial_type":"image-button-response","trial_index":136,"time_elapsed":315915,"internal_node_id":"0.0-6.0-0.0","subject_id":"5f09068244f84c18faaa74bc","study_id":"6197b3f67c2b5cd3b6d9596a","session_id":"619be58e3fcd1d6a982c31f6","condition":"contingent","relevant_dimensions":["antennae","pattern"],"bee_group":{"antennae":"B","wings":"X","pattern":"D","legs":"X"},"bonus":1.060000000000001},{"rt":3359.600000023842,"stimulus":"bees-with-color/bee-A1DF.svg","response":1,"trial_type":"image-button-response","trial_index":137,"time_elapsed":319276,"internal_node_id":"0.0-6.0-0.1","subject_id":"5f09068244f84c18faaa74bc","study_id":"6197b3f67c2b5cd3b6d9596a","session_id":"619be58e3fcd1d6a982c31f6","condition":"contingent","relevant_dimensions":["antennae","pattern"],"bee_group":{"antennae":"B","wings":"X","pattern":"D","legs":"X"},"bonus":1.060000000000001},{"rt":1362.6000000238419,"stimulus":"bees-with-color/bee-A2DF.svg","response":1,"trial_type":"image-button-response","trial_index":138,"time_elapsed":320640,"internal_node_id":"0.0-6.0-0.2","subject_id":"5f09068244f84c18faaa74bc","study_id":"6197b3f67c2b5cd3b6d9596a","session_id":"619be58e3fcd1d6a982c31f6","condition":"contingent","relevant_dimensions":["antennae","pattern"],"bee_group":{"antennae":"B","wings":"X","pattern":"D","legs":"X"},"bonus":1.060000000000001},{"rt":981,"stimulus":"bees-with-color/bee-A1SM.svg","response":0,"trial_type":"image-button-response","trial_index":139,"time_elapsed":321622,"internal_node_id":"0.0-6.0-0.3","subject_id":"5f09068244f84c18faaa74bc","study_id":"6197b3f67c2b5cd3b6d9596a","session_id":"619be58e3fcd1d6a982c31f6","condition":"contingent","relevant_dimensions":["antennae","pattern"],"bee_group":{"antennae":"B","wings":"X","pattern":"D","legs":"X"},"bonus":1.060000000000001},{"rt":906.5999999046326,"stimulus":"bees-with-color/bee-B1DM.svg","response":1,"trial_type":"image-button-response","trial_index":140,"time_elapsed":322530,"internal_node_id":"0.0-6.0-0.4","subject_id":"5f09068244f84c18faaa74bc","study_id":"6197b3f67c2b5cd3b6d9596a","session_id":"619be58e3fcd1d6a982c31f6","condition":"contingent","relevant_dimensions":["antennae","pattern"],"bee_group":{"antennae":"B","wings":"X","pattern":"D","legs":"X"},"bonus":1.060000000000001},{"rt":719.8000000715256,"stimulus":"bees-with-color/bee-B2SF.svg","response":0,"trial_type":"image-button-response","trial_index":141,"time_elapsed":323250,"internal_node_id":"0.0-6.0-0.5","subject_id":"5f09068244f84c18faaa74bc","study_id":"6197b3f67c2b5cd3b6d9596a","session_id":"619be58e3fcd1d6a982c31f6","condition":"contingent","relevant_dimensions":["antennae","pattern"],"bee_group":{"antennae":"B","wings":"X","pattern":"D","legs":"X"},"bonus":1.060000000000001},{"rt":1655.8000000715256,"stimulus":"bees-with-color/bee-B2DF.svg","response":1,"trial_type":"image-button-response","trial_index":142,"time_elapsed":324907,"internal_node_id":"0.0-6.0-0.6","subject_id":"5f09068244f84c18faaa74bc","study_id":"6197b3f67c2b5cd3b6d9596a","session_id":"619be58e3fcd1d6a982c31f6","condition":"contingent","relevant_dimensions":["antennae","pattern"],"bee_group":{"antennae":"B","wings":"X","pattern":"D","legs":"X"},"bonus":1.060000000000001},{"rt":681.5999999046326,"stimulus":"bees-with-color/bee-A2SM.svg","response":0,"trial_type":"image-button-response","trial_index":143,"time_elapsed":325590,"internal_node_id":"0.0-6.0-0.7","subject_id":"5f09068244f84c18faaa74bc","study_id":"6197b3f67c2b5cd3b6d9596a","session_id":"619be58e3fcd1d6a982c31f6","condition":"contingent","relevant_dimensions":["antennae","pattern"],"bee_group":{"antennae":"B","wings":"X","pattern":"D","legs":"X"},"bonus":1.060000000000001},{"rt":981,"stimulus":"bees-with-color/bee-B1SM.svg","response":0,"trial_type":"image-button-response","trial_index":144,"time_elapsed":326572,"internal_node_id":"0.0-6.0-0.8","subject_id":"5f09068244f84c18faaa74bc","study_id":"6197b3f67c2b5cd3b6d9596a","session_id":"619be58e3fcd1d6a982c31f6","condition":"contingent","relevant_dimensions":["antennae","pattern"],"bee_group":{"antennae":"B","wings":"X","pattern":"D","legs":"X"},"bonus":1.060000000000001},{"rt":1117.1000000238419,"stimulus":"bees-with-color/bee-B1SF.svg","response":0,"trial_type":"image-button-response","trial_index":145,"time_elapsed":327690,"internal_node_id":"0.0-6.0-0.9","subject_id":"5f09068244f84c18faaa74bc","study_id":"6197b3f67c2b5cd3b6d9596a","session_id":"619be58e3fcd1d6a982c31f6","condition":"contingent","relevant_dimensions":["antennae","pattern"],"bee_group":{"antennae":"B","wings":"X","pattern":"D","legs":"X"},"bonus":1.060000000000001},{"rt":875.6000000238419,"stimulus":"bees-with-color/bee-A2DM.svg","response":1,"trial_type":"image-button-response","trial_index":146,"time_elapsed":328567,"internal_node_id":"0.0-6.0-0.10","subject_id":"5f09068244f84c18faaa74bc","study_id":"6197b3f67c2b5cd3b6d9596a","session_id":"619be58e3fcd1d6a982c31f6","condition":"contingent","relevant_dimensions":["antennae","pattern"],"bee_group":{"antennae":"B","wings":"X","pattern":"D","legs":"X"},"bonus":1.060000000000001},{"rt":1469.5,"stimulus":"bees-with-color/bee-A1DM.svg","response":1,"trial_type":"image-button-response","trial_index":147,"time_elapsed":330038,"internal_node_id":"0.0-6.0-0.11","subject_id":"5f09068244f84c18faaa74bc","study_id":"6197b3f67c2b5cd3b6d9596a","session_id":"619be58e3fcd1d6a982c31f6","condition":"contingent","relevant_dimensions":["antennae","pattern"],"bee_group":{"antennae":"B","wings":"X","pattern":"D","legs":"X"},"bonus":1.060000000000001},{"rt":651.6000000238419,"stimulus":"bees-with-color/bee-A1SF.svg","response":0,"trial_type":"image-button-response","trial_index":148,"time_elapsed":330690,"internal_node_id":"0.0-6.0-0.12","subject_id":"5f09068244f84c18faaa74bc","study_id":"6197b3f67c2b5cd3b6d9596a","session_id":"619be58e3fcd1d6a982c31f6","condition":"contingent","relevant_dimensions":["antennae","pattern"],"bee_group":{"antennae":"B","wings":"X","pattern":"D","legs":"X"},"bonus":1.060000000000001},{"rt":696.4000000953674,"stimulus":"bees-with-color/bee-B1DF.svg","response":1,"trial_type":"image-button-response","trial_index":149,"time_elapsed":331388,"internal_node_id":"0.0-6.0-0.13","subject_id":"5f09068244f84c18faaa74bc","study_id":"6197b3f67c2b5cd3b6d9596a","session_id":"619be58e3fcd1d6a982c31f6","condition":"contingent","relevant_dimensions":["antennae","pattern"],"bee_group":{"antennae":"B","wings":"X","pattern":"D","legs":"X"},"bonus":1.060000000000001},{"rt":598.2000000476837,"stimulus":"bees-with-color/bee-A2SF.svg","response":0,"trial_type":"image-button-response","trial_index":150,"time_elapsed":331987,"internal_node_id":"0.0-6.0-0.14","subject_id":"5f09068244f84c18faaa74bc","study_id":"6197b3f67c2b5cd3b6d9596a","session_id":"619be58e3fcd1d6a982c31f6","condition":"contingent","relevant_dimensions":["antennae","pattern"],"bee_group":{"antennae":"B","wings":"X","pattern":"D","legs":"X"},"bonus":1.060000000000001},{"rt":755.6999999284744,"stimulus":"bees-with-color/bee-B2DM.svg","response":1,"trial_type":"image-button-response","trial_index":151,"time_elapsed":332744,"internal_node_id":"0.0-6.0-0.15","subject_id":"5f09068244f84c18faaa74bc","study_id":"6197b3f67c2b5cd3b6d9596a","session_id":"619be58e3fcd1d6a982c31f6","condition":"contingent","relevant_dimensions":["antennae","pattern"],"bee_group":{"antennae":"B","wings":"X","pattern":"D","legs":"X"},"bonus":1.060000000000001},{"rt":824.5999999046326,"stimulus":"bees-with-color/bee-B2DF.svg","response":1,"trial_type":"image-button-response","trial_index":152,"time_elapsed":333570,"internal_node_id":"0.0-6.0-0.16","subject_id":"5f09068244f84c18faaa74bc","study_id":"6197b3f67c2b5cd3b6d9596a","session_id":"619be58e3fcd1d6a982c31f6","condition":"contingent","relevant_dimensions":["antennae","pattern"],"bee_group":{"antennae":"B","wings":"X","pattern":"D","legs":"X"},"bonus":1.060000000000001},{"rt":712.1000000238419,"stimulus":"bees-with-color/bee-A1SM.svg","response":0,"trial_type":"image-button-response","trial_index":153,"time_elapsed":334283,"internal_node_id":"0.0-6.0-0.17","subject_id":"5f09068244f84c18faaa74bc","study_id":"6197b3f67c2b5cd3b6d9596a","session_id":"619be58e3fcd1d6a982c31f6","condition":"contingent","relevant_dimensions":["antennae","pattern"],"bee_group":{"antennae":"B","wings":"X","pattern":"D","legs":"X"},"bonus":1.060000000000001},{"rt":1078.7000000476837,"stimulus":"bees-with-color/bee-B1SM.svg","response":0,"trial_type":"image-button-response","trial_index":154,"time_elapsed":335362,"internal_node_id":"0.0-6.0-0.18","subject_id":"5f09068244f84c18faaa74bc","study_id":"6197b3f67c2b5cd3b6d9596a","session_id":"619be58e3fcd1d6a982c31f6","condition":"contingent","relevant_dimensions":["antennae","pattern"],"bee_group":{"antennae":"B","wings":"X","pattern":"D","legs":"X"},"bonus":1.060000000000001},{"rt":734.2000000476837,"stimulus":"bees-with-color/bee-B2DM.svg","response":1,"trial_type":"image-button-response","trial_index":155,"time_elapsed":336098,"internal_node_id":"0.0-6.0-0.19","subject_id":"5f09068244f84c18faaa74bc","study_id":"6197b3f67c2b5cd3b6d9596a","session_id":"619be58e3fcd1d6a982c31f6","condition":"contingent","relevant_dimensions":["antennae","pattern"],"bee_group":{"antennae":"B","wings":"X","pattern":"D","legs":"X"},"bonus":1.060000000000001},{"rt":1012.3999999761581,"stimulus":"bees-with-color/bee-A2DF.svg","response":1,"trial_type":"image-button-response","trial_index":156,"time_elapsed":337111,"internal_node_id":"0.0-6.0-0.20","subject_id":"5f09068244f84c18faaa74bc","study_id":"6197b3f67c2b5cd3b6d9596a","session_id":"619be58e3fcd1d6a982c31f6","condition":"contingent","relevant_dimensions":["antennae","pattern"],"bee_group":{"antennae":"B","wings":"X","pattern":"D","legs":"X"},"bonus":1.060000000000001},{"rt":695.1999999284744,"stimulus":"bees-with-color/bee-A1SF.svg","response":0,"trial_type":"image-button-response","trial_index":157,"time_elapsed":337807,"internal_node_id":"0.0-6.0-0.21","subject_id":"5f09068244f84c18faaa74bc","study_id":"6197b3f67c2b5cd3b6d9596a","session_id":"619be58e3fcd1d6a982c31f6","condition":"contingent","relevant_dimensions":["antennae","pattern"],"bee_group":{"antennae":"B","wings":"X","pattern":"D","legs":"X"},"bonus":1.060000000000001},{"rt":711.2000000476837,"stimulus":"bees-with-color/bee-A2DM.svg","response":1,"trial_type":"image-button-response","trial_index":158,"time_elapsed":338519,"internal_node_id":"0.0-6.0-0.22","subject_id":"5f09068244f84c18faaa74bc","study_id":"6197b3f67c2b5cd3b6d9596a","session_id":"619be58e3fcd1d6a982c31f6","condition":"contingent","relevant_dimensions":["antennae","pattern"],"bee_group":{"antennae":"B","wings":"X","pattern":"D","legs":"X"},"bonus":1.060000000000001},{"rt":494.7000000476837,"stimulus":"bees-with-color/bee-B1SF.svg","response":0,"trial_type":"image-button-response","trial_index":159,"time_elapsed":339015,"internal_node_id":"0.0-6.0-0.23","subject_id":"5f09068244f84c18faaa74bc","study_id":"6197b3f67c2b5cd3b6d9596a","session_id":"619be58e3fcd1d6a982c31f6","condition":"contingent","relevant_dimensions":["antennae","pattern"],"bee_group":{"antennae":"B","wings":"X","pattern":"D","legs":"X"},"bonus":1.060000000000001},{"rt":636.5,"stimulus":"bees-with-color/bee-B1DM.svg","response":1,"trial_type":"image-button-response","trial_index":160,"time_elapsed":339652,"internal_node_id":"0.0-6.0-0.24","subject_id":"5f09068244f84c18faaa74bc","study_id":"6197b3f67c2b5cd3b6d9596a","session_id":"619be58e3fcd1d6a982c31f6","condition":"contingent","relevant_dimensions":["antennae","pattern"],"bee_group":{"antennae":"B","wings":"X","pattern":"D","legs":"X"},"bonus":1.060000000000001},{"rt":561.5,"stimulus":"bees-with-color/bee-A2SM.svg","response":0,"trial_type":"image-button-response","trial_index":161,"time_elapsed":340215,"internal_node_id":"0.0-6.0-0.25","subject_id":"5f09068244f84c18faaa74bc","study_id":"6197b3f67c2b5cd3b6d9596a","session_id":"619be58e3fcd1d6a982c31f6","condition":"contingent","relevant_dimensions":["antennae","pattern"],"bee_group":{"antennae":"B","wings":"X","pattern":"D","legs":"X"},"bonus":1.060000000000001},{"rt":636.1000000238419,"stimulus":"bees-with-color/bee-A1DM.svg","response":1,"trial_type":"image-button-response","trial_index":162,"time_elapsed":340852,"internal_node_id":"0.0-6.0-0.26","subject_id":"5f09068244f84c18faaa74bc","study_id":"6197b3f67c2b5cd3b6d9596a","session_id