[{"success":true,"trial_type":"fullscreen","trial_index":0,"time_elapsed":6922,"internal_node_id":"0.0-0.0","subject_id":"614a7b0e7bf360668da0617b","study_id":"60edd13110225f80f9f3709b","session_id":"6196c707b0a02cde2d598059","condition":"contingent","relevant_dimensions":["pattern","legs"],"bee_group":{"antennae":"X","wings":"X","pattern":"D","legs":"F"},"bonus":0.920000000000001},{"success":true,"timeout":false,"failed_images":[],"failed_audio":[],"failed_video":[],"trial_type":"preload","trial_index":1,"time_elapsed":9363,"internal_node_id":"0.0-1.0","subject_id":"614a7b0e7bf360668da0617b","study_id":"60edd13110225f80f9f3709b","session_id":"6196c707b0a02cde2d598059","condition":"contingent","relevant_dimensions":["pattern","legs"],"bee_group":{"antennae":"X","wings":"X","pattern":"D","legs":"F"},"bonus":0.920000000000001},{"rt":1930.300000000745,"stimulus":"Welcome! Press any key to begin.","response":" ","trial_type":"html-keyboard-response","trial_index":2,"time_elapsed":11294,"internal_node_id":"0.0-2.0","subject_id":"614a7b0e7bf360668da0617b","study_id":"60edd13110225f80f9f3709b","session_id":"6196c707b0a02cde2d598059","condition":"contingent","relevant_dimensions":["pattern","legs"],"bee_group":{"antennae":"X","wings":"X","pattern":"D","legs":"F"},"bonus":0.920000000000001},{"view_history":[{"page_index":0,"viewing_time":3858.199999999255},{"page_index":1,"viewing_time":13072.800000000745},{"page_index":2,"viewing_time":16819.400000000373},{"page_index":3,"viewing_time":16414.5},{"page_index":4,"viewing_time":5703.89999999851},{"page_index":5,"viewing_time":6097.9000000003725},{"page_index":6,"viewing_time":13534.200000001118},{"page_index":7,"viewing_time":8865.599999999627},{"page_index":8,"viewing_time":6761.5},{"page_index":9,"viewing_time":4578.9000000003725},{"page_index":10,"viewing_time":6243.799999998882},{"page_index":11,"viewing_time":7369.200000001118},{"page_index":12,"viewing_time":9202.699999999255},{"page_index":13,"viewing_time":2047.5},{"page_index":14,"viewing_time":2756.4000000003725}],"rt":123327.09999999963,"trial_type":"instructions","trial_index":3,"time_elapsed":134613,"internal_node_id":"0.0-3.0-0.0","subject_id":"614a7b0e7bf360668da0617b","study_id":"60edd13110225f80f9f3709b","session_id":"6196c707b0a02cde2d598059","condition":"contingent","relevant_dimensions":["pattern","legs"],"bee_group":{"antennae":"X","wings":"X","pattern":"D","legs":"F"},"bonus":0.920000000000001},{"rt":27885.099999999627,"response":{"Q0":["Two or six legs","Stripes or spots on body","Single or double wings","Antennae or no antennae"]},"question_order":[0],"trial_type":"survey-multi-select","trial_index":4,"time_elapsed":162502,"internal_node_id":"0.0-3.0-1.0","subject_id":"614a7b0e7bf360668da0617b","study_id":"60edd13110225f80f9f3709b","session_id":"6196c707b0a02cde2d598059","condition":"contingent","relevant_dimensions":["pattern","legs"],"bee_group":{"antennae":"X","wings":"X","pattern":"D","legs":"F"},"correct":true,"bonus":0.920000000000001},{"rt":31213.300000000745,"response":{"Q1":"No.","Q2":"Based on the four features of the bee.","Q3":"You do not learn if it was friendly or dangerous, and do not alter your bonus."},"question_order":[0,1,2],"trial_type":"survey-multi-choice","trial_index":5,"time_elapsed":193721,"internal_node_id":"0.0-3.0-2.0","subject_id":"614a7b0e7bf360668da0617b","study_id":"60edd13110225f80f9f3709b","session_id":"6196c707b0a02cde2d598059","condition":"contingent","relevant_dimensions":["pattern","legs"],"bee_group":{"antennae":"X","wings":"X","pattern":"D","legs":"F"},"correct":true,"bonus":0.920000000000001},{"rt":3695.9000000003725,"stimulus":"<p>Congrats, you got everything right<br>When you're ready, click the button below to continue to the experiment.</p>","response":0,"trial_type":"html-button-response","trial_index":6,"time_elapsed":197422,"internal_node_id":"0.0-3.0-3.0","subject_id":"614a7b0e7bf360668da0617b","study_id":"60edd13110225f80f9f3709b","session_id":"6196c707b0a02cde2d598059","condition":"contingent","relevant_dimensions":["pattern","legs"],"bee_group":{"antennae":"X","wings":"X","pattern":"D","legs":"F"},"bonus":0.920000000000001},{"rt":10166.900000000373,"stimulus":"bees-with-color/bee-A1SM.svg","response":0,"trial_type":"image-button-response","trial_index":7,"time_elapsed":207592,"internal_node_id":"0.0-4.0-0.0","subject_id":"614a7b0e7bf360668da0617b","study_id":"60edd13110225f80f9f3709b","session_id":"6196c707b0a02cde2d598059","condition":"contingent","relevant_dimensions":["pattern","legs"],"bee_group":{"antennae":"X","wings":"X","pattern":"D","legs":"F"},"action":"harvest","summary":"good-harvest","bonus":0.920000000000001},{"rt":18322.10000000149,"stimulus":"\n                    <p><b>Action: <em>harvest</em></b></p>\n                    <p>This is the bee that you just saw.</p>\n                    <img src=\"bees-with-color/bee-A1SM.svg\" width=\"200\">\n                    <p><span class=\"greenText\"><b>Successful harvest!</b></span><br>Your pay has increased by $0.02. Your bonus pay is now $0.56.</p>\n            ","response":0,"trial_type":"html-button-response","trial_index":8,"time_elapsed":225918,"internal_node_id":"0.0-4.0-1.0","subject_id":"614a7b0e7bf360668da0617b","study_id":"60edd13110225f80f9f3709b","session_id":"6196c707b0a02cde2d598059","condition":"contingent","relevant_dimensions":["pattern","legs"],"bee_group":{"antennae":"X","wings":"X","pattern":"D","legs":"F"},"bonus":0.920000000000001},{"rt":8626.5,"stimulus":"bees-with-color/bee-A1DF.svg","response":1,"trial_type":"image-button-response","trial_index":9,"time_elapsed":234547,"internal_node_id":"0.0-4.0-0.1","subject_id":"614a7b0e7bf360668da0617b","study_id":"60edd13110225f80f9f3709b","session_id":"6196c707b0a02cde2d598059","condition":"contingent","relevant_dimensions":["pattern","legs"],"bee_group":{"antennae":"X","wings":"X","pattern":"D","legs":"F"},"action":"avoid","summary":"good-avoid","bonus":0.920000000000001},{"rt":9583.099999999627,"stimulus":"\n                    <p><b>Action: <em>avoid</em></b></p>\n                    <p>This is the bee that you just saw.</p>\n                    <img src=\"bees-with-color/bee-A1DF.svg\" width=\"200\">\n                    <p><br>Your bonus pay is unchanged, and remains at $0.56.</p>\n            ","response":0,"trial_type":"html-button-response","trial_index":10,"time_elapsed":244132,"internal_node_id":"0.0-4.0-1.1","subject_id":"614a7b0e7bf360668da0617b","study_id":"60edd13110225f80f9f3709b","session_id":"6196c707b0a02cde2d598059","condition":"contingent","relevant_dimensions":["pattern","legs"],"bee_group":{"antennae":"X","wings":"X","pattern":"D","legs":"F"},"bonus":0.920000000000001},{"rt":3204.0999999996275,"stimulus":"bees-with-color/bee-B1SF.svg","response":0,"trial_type":"image-button-response","trial_index":11,"time_elapsed":247339,"internal_node_id":"0.0-4.0-0.2","subject_id":"614a7b0e7bf360668da0617b","study_id":"60edd13110225f80f9f3709b","session_id":"6196c707b0a02cde2d598059","condition":"contingent","relevant_dimensions":["pattern","legs"],"bee_group":{"antennae":"X","wings":"X","pattern":"D","legs":"F"},"action":"harvest","summary":"good-harvest","bonus":0.920000000000001},{"rt":20181.200000001118,"stimulus":"\n                    <p><b>Action: <em>harvest</em></b></p>\n                    <p>This is the bee that you just saw.</p>\n                    <img src=\"bees-with-color/bee-B1SF.svg\" width=\"200\">\n                    <p><span class=\"greenText\"><b>Successful harvest!</b></span><br>Your pay has increased by $0.02. Your bonus pay is now $0.58.</p>\n            ","response":0,"trial_type":"html-button-response","trial_index":12,"time_elapsed":267521,"internal_node_id":"0.0-4.0-1.2","subject_id":"614a7b0e7bf360668da0617b","study_id":"60edd13110225f80f9f3709b","session_id":"6196c707b0a02cde2d598059","condition":"contingent","relevant_dimensions":["pattern","legs"],"bee_group":{"antennae":"X","wings":"X","pattern":"D","legs":"F"},"bonus":0.920000000000001},{"rt":12463.400000000373,"stimulus":"bees-with-color/bee-B2SF.svg","response":0,"trial_type":"image-button-response","trial_index":13,"time_elapsed":279986,"internal_node_id":"0.0-4.0-0.3","subject_id":"614a7b0e7bf360668da0617b","study_id":"60edd13110225f80f9f3709b","session_id":"6196c707b0a02cde2d598059","condition":"contingent","relevant_dimensions":["pattern","legs"],"bee_group":{"antennae":"X","wings":"X","pattern":"D","legs":"F"},"action":"harvest","summary":"good-harvest","bonus":0.920000000000001},{"rt":10089.5,"stimulus":"\n                    <p><b>Action: <em>harvest</em></b></p>\n                    <p>This is the bee that you just saw.</p>\n                    <img src=\"bees-with-color/bee-B2SF.svg\" width=\"200\">\n                    <p><span class=\"greenText\"><b>Successful harvest!</b></span><br>Your pay has increased by $0.02. Your bonus pay is now $0.60.</p>\n            ","response":0,"trial_type":"html-button-response","trial_index":14,"time_elapsed":290078,"internal_node_id":"0.0-4.0-1.3","subject_id":"614a7b0e7bf360668da0617b","study_id":"60edd13110225f80f9f3709b","session_id":"6196c707b0a02cde2d598059","condition":"contingent","relevant_dimensions":["pattern","legs"],"bee_group":{"antennae":"X","wings":"X","pattern":"D","legs":"F"},"bonus":0.920000000000001},{"rt":13114.900000000373,"stimulus":"bees-with-color/bee-A2SF.svg","response":1,"trial_type":"image-button-response","trial_index":15,"time_elapsed":303195,"internal_node_id":"0.0-4.0-0.4","subject_id":"614a7b0e7bf360668da0617b","study_id":"60edd13110225f80f9f3709b","session_id":"6196c707b0a02cde2d598059","condition":"contingent","relevant_dimensions":["pattern","legs"],"bee_group":{"antennae":"X","wings":"X","pattern":"D","legs":"F"},"action":"avoid","summary":"bad-avoid","bonus":0.920000000000001},{"rt":1876.800000000745,"stimulus":"\n                    <p><b>Action: <em>avoid</em></b></p>\n                    <p>This is the bee that you just saw.</p>\n                    <img src=\"bees-with-color/bee-A2SF.svg\" width=\"200\">\n                    <p><br>Your bonus pay is unchanged, and remains at $0.60.</p>\n            ","response":0,"trial_type":"html-button-response","trial_index":16,"time_elapsed":305074,"internal_node_id":"0.0-4.0-1.4","subject_id":"614a7b0e7bf360668da0617b","study_id":"60edd13110225f80f9f3709b","session_id":"6196c707b0a02cde2d598059","condition":"contingent","relevant_dimensions":["pattern","legs"],"bee_group":{"antennae":"X","wings":"X","pattern":"D","legs":"F"},"bonus":0.920000000000001},{"rt":3755.2000000011176,"stimulus":"bees-with-color/bee-A2DF.svg","response":0,"trial_type":"image-button-response","trial_index":17,"time_elapsed":308832,"internal_node_id":"0.0-4.0-0.5","subject_id":"614a7b0e7bf360668da0617b","study_id":"60edd13110225f80f9f3709b","session_id":"6196c707b0a02cde2d598059","condition":"contingent","relevant_dimensions":["pattern","legs"],"bee_group":{"antennae":"X","wings":"X","pattern":"D","legs":"F"},"action":"harvest","summary":"bad-harvest","bonus":0.920000000000001},{"rt":11248.300000000745,"stimulus":"\n                    <p><b>Action: <em>harvest</em></b></p>\n                    <p>This is the bee that you just saw.</p>\n                    <img src=\"bees-with-color/bee-A2DF.svg\" width=\"200\">\n                    <p><span class=\"redText\">Bad choice, the bee was angry.</span><br><b>You have been stung!</b><br>Your pay has been decreased by $0.10. Your bonus pay is now $0.50.</p>\n            ","response":0,"trial_type":"html-button-response","trial_index":18,"time_elapsed":320082,"internal_node_id":"0.0-4.0-1.5","subject_id":"614a7b0e7bf360668da0617b","study_id":"60edd13110225f80f9f3709b","session_id":"6196c707b0a02cde2d598059","condition":"contingent","relevant_dimensions":["pattern","legs"],"bee_group":{"antennae":"X","wings":"X","pattern":"D","legs":"F"},"bonus":0.920000000000001},{"rt":2011.5999999996275,"stimulus":"bees-with-color/bee-B1DM.svg","response":0,"trial_type":"image-button-response","trial_index":19,"time_elapsed":322096,"internal_node_id":"0.0-4.0-0.6","subject_id":"614a7b0e7bf360668da0617b","study_id":"60edd13110225f80f9f3709b","session_id":"6196c707b0a02cde2d598059","condition":"contingent","relevant_dimensions":["pattern","legs"],"bee_group":{"antennae":"X","wings":"X","pattern":"D","legs":"F"},"action":"harvest","summary":"good-harvest","bonus":0.920000000000001},{"rt":9853.10000000149,"stimulus":"\n                    <p><b>Action: <em>harvest</em></b></p>\n                    <p>This is the bee that you just saw.</p>\n                    <img src=\"bees-with-color/bee-B1DM.svg\" width=\"200\">\n                    <p><span class=\"greenText\"><b>Successful harvest!</b></span><br>Your pay has increased by $0.02. Your bonus pay is now $0.52.</p>\n            ","response":0,"trial_type":"html-button-response","trial_index":20,"time_elapsed":331951,"internal_node_id":"0.0-4.0-1.6","subject_id":"614a7b0e7bf360668da0617b","study_id":"60edd13110225f80f9f3709b","session_id":"6196c707b0a02cde2d598059","condition":"contingent","relevant_dimensions":["pattern","legs"],"bee_group":{"antennae":"X","wings":"X","pattern":"D","legs":"F"},"bonus":0.920000000000001},{"rt":2067.60000000149,"stimulus":"bees-with-color/bee-B1SM.svg","response":0,"trial_type":"image-button-response","trial_index":21,"time_elapsed":334021,"internal_node_id":"0.0-4.0-0.7","subject_id":"614a7b0e7bf360668da0617b","study_id":"60edd13110225f80f9f3709b","session_id":"6196c707b0a02cde2d598059","condition":"contingent","relevant_dimensions":["pattern","legs"],"bee_group":{"antennae":"X","wings":"X","pattern":"D","legs":"F"},"action":"harvest","summary":"good-harvest","bonus":0.920000000000001},{"rt":6770,"stimulus":"\n                    <p><b>Action: <em>harvest</em></b></p>\n                    <p>This is the bee that you just saw.</p>\n                    <img src=\"bees-with-color/bee-B1SM.svg\" width=\"200\">\n                    <p><span class=\"greenText\"><b>Successful harvest!</b></span><br>Your pay has increased by $0.02. Your bonus pay is now $0.54.</p>\n            ","response":0,"trial_type":"html-button-response","trial_index":22,"time_elapsed":340793,"internal_node_id":"0.0-4.0-1.7","subject_id":"614a7b0e7bf360668da0617b","study_id":"60edd13110225f80f9f3709b","session_id":"6196c707b0a02cde2d598059","condition":"contingent","relevant_dimensions":["pattern","legs"],"bee_group":{"antennae":"X","wings":"X","pattern":"D","legs":"F"},"bonus":0.920000000000001},{"rt":7883.9000000003725,"stimulus":"bees-with-color/bee-B2SM.svg","response":0,"trial_type":"image-button-response","trial_index":23,"time_elapsed":348680,"internal_node_id":"0.0-4.0-0.8","subject_id":"614a7b0e7bf360668da0617b","study_id":"60edd13110225f80f9f3709b","session_id":"6196c707b0a02cde2d598059","condition":"contingent","relevant_dimensions":["pattern","legs"],"bee_group":{"antennae":"X","wings":"X","pattern":"D","legs":"F"},"action":"harvest","summary":"good-harvest","bonus":0.920000000000001},{"rt":6432.800000000745,"stimulus":"\n                    <p><b>Action: <em>harvest</em></b></p>\n                    <p>This is the bee that you just saw.</p>\n                    <img src=\"bees-with-color/bee-B2SM.svg\" width=\"200\">\n                    <p><span class=\"greenText\"><b>Successful harvest!</b></span><br>Your pay has increased by $0.02. Your bonus pay is now $0.56.</p>\n            ","response":0,"trial_type":"html-button-response","trial_index":24,"time_elapsed":355115,"internal_node_id":"0.0-4.0-1.8","subject_id":"614a7b0e7bf360668da0617b","study_id":"60edd13110225f80f9f3709b","session_id":"6196c707b0a02cde2d598059","condition":"contingent","relevant_dimensions":["pattern","legs"],"bee_group":{"antennae":"X","wings":"X","pattern":"D","legs":"F"},"bonus":0.920000000000001},{"rt":1865.5999999996275,"stimulus":"bees-with-color/bee-A1SF.svg","response":0,"trial_type":"image-button-response","trial_index":25,"time_elapsed":356982,"internal_node_id":"0.0-4.0-0.9","subject_id":"614a7b0e7bf360668da0617b","study_id":"60edd13110225f80f9f3709b","session_id":"6196c707b0a02cde2d598059","condition":"contingent","relevant_dimensions":["pattern","legs"],"bee_group":{"antennae":"X","wings":"X","pattern":"D","legs":"F"},"action":"harvest","summary":"good-harvest","bonus":0.920000000000001},{"rt":3834.5,"stimulus":"\n                    <p><b>Action: <em>harvest</em></b></p>\n                    <p>This is the bee that you just saw.</p>\n                    <img src=\"bees-with-color/bee-A1SF.svg\" width=\"200\">\n                    <p><span class=\"greenText\"><b>Successful harvest!</b></span><br>Your pay has increased by $0.02. Your bonus pay is now $0.58.</p>\n            ","response":0,"trial_type":"html-button-response","trial_index":26,"time_elapsed":360819,"internal_node_id":"0.0-4.0-1.9","subject_id":"614a7b0e7bf360668da0617b","study_id":"60edd13110225f80f9f3709b","session_id":"6196c707b0a02cde2d598059","condition":"contingent","relevant_dimensions":["pattern","legs"],"bee_group":{"antennae":"X","wings":"X","pattern":"D","legs":"F"},"bonus":0.920000000000001},{"rt":3171,"stimulus":"bees-with-color/bee-A2SM.svg","response":1,"trial_type":"image-button-response","trial_index":27,"time_elapsed":363991,"internal_node_id":"0.0-4.0-0.10","subject_id":"614a7b0e7bf360668da0617b","study_id":"60edd13110225f80f9f3709b","session_id":"6196c707b0a02cde2d598059","condition":"contingent","relevant_dimensions":["pattern","legs"],"bee_group":{"antennae":"X","wings":"X","pattern":"D","legs":"F"},"action":"avoid","summary":"bad-avoid","bonus":0.920000000000001},{"rt":2382.9000000003725,"stimulus":"\n                    <p><b>Action: <em>avoid</em></b></p>\n                    <p>This is the bee that you just saw.</p>\n                    <img src=\"bees-with-color/bee-A2SM.svg\" width=\"200\">\n                    <p><br>Your bonus pay is unchanged, and remains at $0.58.</p>\n            ","response":0,"trial_type":"html-button-response","trial_index":28,"time_elapsed":366376,"internal_node_id":"0.0-4.0-1.10","subject_id":"614a7b0e7bf360668da0617b","study_id":"60edd13110225f80f9f3709b","session_id":"6196c707b0a02cde2d598059","condition":"contingent","relevant_dimensions":["pattern","legs"],"bee_group":{"antennae":"X","wings":"X","pattern":"D","legs":"F"},"bonus":0.920000000000001},{"rt":2990.5999999996275,"stimulus":"bees-with-color/bee-B1DF.svg","response":0,"trial_type":"image-button-response","trial_index":29,"time_elapsed":369369,"internal_node_id":"0.0-4.0-0.11","subject_id":"614a7b0e7bf360668da0617b","study_id":"60edd13110225f80f9f3709b","session_id":"6196c707b0a02cde2d598059","condition":"contingent","relevant_dimensions":["pattern","legs"],"bee_group":{"antennae":"X","wings":"X","pattern":"D","legs":"F"},"action":"harvest","summary":"bad-harvest","bonus":0.920000000000001},{"rt":17976.400000000373,"stimulus":"\n                    <p><b>Action: <em>harvest</em></b></p>\n                    <p>This is the bee that you just saw.</p>\n                    <img src=\"bees-with-color/bee-B1DF.svg\" width=\"200\">\n                    <p><span class=\"redText\">Bad choice, the bee was angry.</span><br><b>You have been stung!</b><br>Your pay has been decreased by $0.10. Your bonus pay is now $0.48.</p>\n            ","response":0,"trial_type":"html-button-response","trial_index":30,"time_elapsed":387346,"internal_node_id":"0.0-4.0-1.11","subject_id":"614a7b0e7bf360668da0617b","study_id":"60edd13110225f80f9f3709b","session_id":"6196c707b0a02cde2d598059","condition":"contingent","relevant_dimensions":["pattern","legs"],"bee_group":{"antennae":"X","wings":"X","pattern":"D","legs":"F"},"bonus":0.920000000000001},{"rt":8930.5,"stimulus":"bees-with-color/bee-A2DM.svg","response":0,"trial_type":"image-button-response","trial_index":31,"time_elapsed":396279,"internal_node_id":"0.0-4.0-0.12","subject_id":"614a7b0e7bf360668da0617b","study_id":"60edd13110225f80f9f3709b","session_id":"6196c707b0a02cde2d598059","condition":"contingent","relevant_dimensions":["pattern","legs"],"bee_group":{"antennae":"X","wings":"X","pattern":"D","legs":"F"},"action":"harvest","summary":"good-harvest","bonus":0.920000000000001},{"rt":36618.5,"stimulus":"\n                    <p><b>Action: <em>harvest</em></b></p>\n                    <p>This is the bee that you just saw.</p>\n                    <img src=\"bees-with-color/bee-A2DM.svg\" width=\"200\">\n                    <p><span class=\"greenText\"><b>Successful harvest!</b></span><br>Your pay has increased by $0.02. Your bonus pay is now $0.50.</p>\n            ","response":0,"trial_type":"html-button-response","trial_index":32,"time_elapsed":432898,"internal_node_id":"0.0-4.0-1.12","subject_id":"614a7b0e7bf360668da0617b","study_id":"60edd13110225f80f9f3709b","session_id":"6196c707b0a02cde2d598059","condition":"contingent","relevant_dimensions":["pattern","legs"],"bee_group":{"antennae":"X","wings":"X","pattern":"D","legs":"F"},"bonus":0.920000000000001},{"rt":10876.900000000373,"stimulus":"bees-with-color/bee-B2DF.svg","response":0,"trial_type":"image-button-response","trial_index":33,"time_elapsed":443777,"internal_node_id":"0.0-4.0-0.13","subject_id":"614a7b0e7bf360668da0617b","study_id":"60edd13110225f80f9f3709b","session_id":"6196c707b0a02cde2d598059","condition":"contingent","relevant_dimensions":["pattern","legs"],"bee_group":{"antennae":"X","wings":"X","pattern":"D","legs":"F"},"action":"harvest","summary":"bad-harvest","bonus":0.920000000000001},{"rt":10449.700000001118,"stimulus":"\n                    <p><b>Action: <em>harvest</em></b></p>\n                    <p>This is the bee that you just saw.</p>\n                    <img src=\"bees-with-color/bee-B2DF.svg\" width=\"200\">\n                    <p><span class=\"redText\">Bad choice, the bee was angry.</span><br><b>You have been stung!</b><br>Your pay has been decreased by $0.10. Your bonus pay is now $0.40.</p>\n            ","response":0,"trial_type":"html-button-response","trial_index":34,"time_elapsed":454229,"internal_node_id":"0.0-4.0-1.13","subject_id":"614a7b0e7bf360668da0617b","study_id":"60edd13110225f80f9f3709b","session_id":"6196c707b0a02cde2d598059","condition":"contingent","relevant_dimensions":["pattern","legs"],"bee_group":{"antennae":"X","wings":"X","pattern":"D","legs":"F"},"bonus":0.920000000000001},{"rt":3001.0999999996275,"stimulus":"bees-with-color/bee-B2DM.svg","response":0,"trial_type":"image-button-response","trial_index":35,"time_elapsed":457232,"internal_node_id":"0.0-4.0-0.14","subject_id":"614a7b0e7bf360668da0617b","study_id":"60edd13110225f80f9f3709b","session_id":"6196c707b0a02cde2d598059","condition":"contingent","relevant_dimensions":["pattern","legs"],"bee_group":{"antennae":"X","wings":"X","pattern":"D","legs":"F"},"action":"harvest","summary":"good-harvest","bonus":0.920000000000001},{"rt":7636.9000000003725,"stimulus":"\n                    <p><b>Action: <em>harvest</em></b></p>\n                    <p>This is the bee that you just saw.</p>\n                    <img src=\"bees-with-color/bee-B2DM.svg\" width=\"200\">\n                    <p><span class=\"greenText\"><b>Successful harvest!</b></span><br>Your pay has increased by $0.02. Your bonus pay is now $0.42.</p>\n            ","response":0,"trial_type":"html-button-response","trial_index":36,"time_elapsed":464871,"internal_node_id":"0.0-4.0-1.14","subject_id":"614a7b0e7bf360668da0617b","study_id":"60edd13110225f80f9f3709b","session_id":"6196c707b0a02cde2d598059","condition":"contingent","relevant_dimensions":["pattern","legs"],"bee_group":{"antennae":"X","wings":"X","pattern":"D","legs":"F"},"bonus":0.920000000000001},{"rt":4172.0999999996275,"stimulus":"bees-with-color/bee-A1DM.svg","response":1,"trial_type":"image-button-response","trial_index":37,"time_elapsed":469045,"internal_node_id":"0.0-4.0-0.15","subject_id":"614a7b0e7bf360668da0617b","study_id":"60edd13110225f80f9f3709b","session_id":"6196c707b0a02cde2d598059","condition":"contingent","relevant_dimensions":["pattern","legs"],"bee_group":{"antennae":"X","wings":"X","pattern":"D","legs":"F"},"action":"avoid","summary":"bad-avoid","bonus":0.920000000000001},{"rt":1483.4000000003725,"stimulus":"\n                    <p><b>Action: <em>avoid</em></b></p>\n                    <p>This is the bee that you just saw.</p>\n                    <img src=\"bees-with-color/bee-A1DM.svg\" width=\"200\">\n                    <p><br>Your bonus pay is unchanged, and remains at $0.42.</p>\n            ","response":0,"trial_type":"html-button-response","trial_index":38,"time_elapsed":470531,"internal_node_id":"0.0-4.0-1.15","subject_id":"614a7b0e7bf360668da0617b","study_id":"60edd13110225f80f9f3709b","session_id":"6196c707b0a02cde2d598059","condition":"contingent","relevant_dimensions":["pattern","legs"],"bee_group":{"antennae":"X","wings":"X","pattern":"D","legs":"F"},"bonus":0.920000000000001},{"rt":1594.7000000011176,"stimulus":"bees-with-color/bee-B1SF.svg","response":0,"trial_type":"image-button-response","trial_index":39,"time_elapsed":472128,"internal_node_id":"0.0-4.0-0.16","subject_id":"614a7b0e7bf360668da0617b","study_id":"60edd13110225f80f9f3709b","session_id":"6196c707b0a02cde2d598059","condition":"contingent","relevant_dimensions":["pattern","legs"],"bee_group":{"antennae":"X","wings":"X","pattern":"D","legs":"F"},"action":"harvest","summary":"good-harvest","bonus":0.920000000000001},{"rt":1257.800000000745,"stimulus":"\n                    <p><b>Action: <em>harvest</em></b></p>\n                    <p>This is the bee that you just saw.</p>\n                    <img src=\"bees-with-color/bee-B1SF.svg\" width=\"200\">\n                    <p><span class=\"greenText\"><b>Successful harvest!</b></span><br>Your pay has increased by $0.02. Your bonus pay is now $0.44.</p>\n            ","response":0,"trial_type":"html-button-response","trial_index":40,"time_elapsed":473387,"internal_node_id":"0.0-4.0-1.16","subject_id":"614a7b0e7bf360668da0617b","study_id":"60edd13110225f80f9f3709b","session_id":"6196c707b0a02cde2d598059","condition":"contingent","relevant_dimensions":["pattern","legs"],"bee_group":{"antennae":"X","wings":"X","pattern":"D","legs":"F"},"bonus":0.920000000000001},{"rt":2518.2999999988824,"stimulus":"bees-with-color/bee-A2SF.svg","response":1,"trial_type":"image-button-response","trial_index":41,"time_elapsed":475908,"internal_node_id":"0.0-4.0-0.17","subject_id":"614a7b0e7bf360668da0617b","study_id":"60edd13110225f80f9f3709b","session_id":"6196c707b0a02cde2d598059","condition":"contingent","relevant_dimensions":["pattern","legs"],"bee_group":{"antennae":"X","wings":"X","pattern":"D","legs":"F"},"action":"avoid","summary":"bad-avoid","bonus":0.920000000000001},{"rt":1123.1000000014901,"stimulus":"\n                    <p><b>Action: <em>avoid</em></b></p>\n                    <p>This is the bee that you just saw.</p>\n                    <img src=\"bees-with-color/bee-A2SF.svg\" width=\"200\">\n                    <p><br>Your bonus pay is unchanged, and remains at $0.44.</p>\n            ","response":0,"trial_type":"html-button-response","trial_index":42,"time_elapsed":477033,"internal_node_id":"0.0-4.0-1.17","subject_id":"614a7b0e7bf360668da0617b","study_id":"60edd13110225f80f9f3709b","session_id":"6196c707b0a02cde2d598059","condition":"contingent","relevant_dimensions":["pattern","legs"],"bee_group":{"antennae":"X","wings":"X","pattern":"D","legs":"F"},"bonus":0.920000000000001},{"rt":2360.2999999988824,"stimulus":"bees-with-color/bee-B1DM.svg","response":0,"trial_type":"image-button-response","trial_index":43,"time_elapsed":479395,"internal_node_id":"0.0-4.0-0.18","subject_id":"614a7b0e7bf360668da0617b","study_id":"60edd13110225f80f9f3709b","session_id":"6196c707b0a02cde2d598059","condition":"contingent","relevant_dimensions":["pattern","legs"],"bee_group":{"antennae":"X","wings":"X","pattern":"D","legs":"F"},"action":"harvest","summary":"good-harvest","bonus":0.920000000000001},{"rt":2844.199999999255,"stimulus":"\n                    <p><b>Action: <em>harvest</em></b></p>\n                    <p>This is the bee that you just saw.</p>\n                    <img src=\"bees-with-color/bee-B1DM.svg\" width=\"200\">\n                    <p><span class=\"greenText\"><b>Successful harvest!</b></span><br>Your pay has increased by $0.02. Your bonus pay is now $0.46.</p>\n            ","response":0,"trial_type":"html-button-response","trial_index":44,"time_elapsed":482242,"internal_node_id":"0.0-4.0-1.18","subject_id":"614a7b0e7bf360668da0617b","study_id":"60edd13110225f80f9f3709b","session_id":"6196c707b0a02cde2d598059","condition":"contingent","relevant_dimensions":["pattern","legs"],"bee_group":{"antennae":"X","wings":"X","pattern":"D","legs":"F"},"bonus":0.920000000000001},{"rt":3114.0999999996275,"stimulus":"bees-with-color/bee-B2DF.svg","response":1,"trial_type":"image-button-response","trial_index":45,"time_elapsed":485358,"internal_node_id":"0.0-4.0-0.19","subject_id":"614a7b0e7bf360668da0617b","study_id":"60edd13110225f80f9f3709b","session_id":"6196c707b0a02cde2d598059","condition":"contingent","relevant_dimensions":["pattern","legs"],"bee_group":{"antennae":"X","wings":"X","pattern":"D","legs":"F"},"action":"avoid","summary":"good-avoid","bonus":0.920000000000001},{"rt":976.3000000007451,"stimulus":"\n                    <p><b>Action: <em>avoid</em></b></p>\n                    <p>This is the bee that you just saw.</p>\n                    <img src=\"bees-with-color/bee-B2DF.svg\" width=\"200\">\n                    <p><br>Your bonus pay is unchanged, and remains at $0.46.</p>\n            ","response":0,"trial_type":"html-button-response","trial_index":46,"time_elapsed":486336,"internal_node_id":"0.0-4.0-1.19","subject_id":"614a7b0e7bf360668da0617b","study_id":"60edd13110225f80f9f3709b","session_id":"6196c707b0a02cde2d598059","condition":"contingent","relevant_dimensions":["pattern","legs"],"bee_group":{"antennae":"X","wings":"X","pattern":"D","legs":"F"},"bonus":0.920000000000001},{"rt":4250.5,"stimulus":"bees-with-color/bee-A1DM.svg","response":0,"trial_type":"image-button-response","trial_index":47,"time_elapsed":490589,"internal_node_id":"0.0-4.0-0.20","subject_id":"614a7b0e7bf360668da0617b","study_id":"60edd13110225f80f9f3709b","session_id":"6196c707b0a02cde2d598059","condition":"contingent","relevant_dimensions":["pattern","legs"],"bee_group":{"antennae":"X","wings":"X","pattern":"D","legs":"F"},"action":"harvest","summary":"good-harvest","bonus":0.920000000000001},{"rt":5881.4000000003725,"stimulus":"\n                    <p><b>Action: <em>harvest</em></b></p>\n                    <p>This is the bee that you just saw.</p>\n                    <img src=\"bees-with-color/bee-A1DM.svg\" width=\"200\">\n                    <p><span class=\"greenText\"><b>Successful harvest!</b></span><br>Your pay has increased by $0.02. Your bonus pay is now $0.48.</p>\n            ","response":0,"trial_type":"html-button-response","trial_index":48,"time_elapsed":496473,"internal_node_id":"0.0-4.0-1.20","subject_id":"614a7b0e7bf360668da0617b","study_id":"60edd13110225f80f9f3709b","session_id":"6196c707b0a02cde2d598059","condition":"contingent","relevant_dimensions":["pattern","legs"],"bee_group":{"antennae":"X","wings":"X","pattern":"D","legs":"F"},"bonus":0.920000000000001},{"rt":4857.9000000003725,"stimulus":"bees-with-color/bee-B1DF.svg","response":1,"trial_type":"image-button-response","trial_index":49,"time_elapsed":501333,"internal_node_id":"0.0-4.0-0.21","subject_id":"614a7b0e7bf360668da0617b","study_id":"60edd13110225f80f9f3709b","session_id":"6196c707b0a02cde2d598059","condition":"contingent","relevant_dimensions":["pattern","legs"],"bee_group":{"antennae":"X","wings":"X","pattern":"D","legs":"F"},"action":"avoid","summary":"good-avoid","bonus":0.920000000000001},{"rt":1235.9000000003725,"stimulus":"\n                    <p><b>Action: <em>avoid</em></b></p>\n                    <p>This is the bee that you just saw.</p>\n                    <img src=\"bees-with-color/bee-B1DF.svg\" width=\"200\">\n                    <p><br>Your bonus pay is unchanged, and remains at $0.48.</p>\n            ","response":0,"trial_type":"html-button-response","trial_index":50,"time_elapsed":502570,"internal_node_id":"0.0-4.0-1.21","subject_id":"614a7b0e7bf360668da0617b","study_id":"60edd13110225f80f9f3709b","session_id":"6196c707b0a02cde2d598059","condition":"contingent","relevant_dimensions":["pattern","legs"],"bee_group":{"antennae":"X","wings":"X","pattern":"D","legs":"F"},"bonus":0.920000000000001},{"rt":3317,"stimulus":"bees-with-color/bee-A1SM.svg","response":0,"trial_type":"image-button-response","trial_index":51,"time_elapsed":505889,"internal_node_id":"0.0-4.0-0.22","subject_id":"614a7b0e7bf360668da0617b","study_id":"60edd13110225f80f9f3709b","session_id":"6196c707b0a02cde2d598059","condition":"contingent","relevant_dimensions":["pattern","legs"],"bee_group":{"antennae":"X","wings":"X","pattern":"D","legs":"F"},"action":"harvest","summary":"good-harvest","bonus":0.920000000000001},{"rt":1764.9000000003725,"stimulus":"\n                    <p><b>Action: <em>harvest</em></b></p>\n                    <p>This is the bee that you just saw.</p>\n                    <img src=\"bees-with-color/bee-A1SM.svg\" width=\"200\">\n                    <p><span class=\"greenText\"><b>Successful harvest!</b></span><br>Your pay has increased by $0.02. Your bonus pay is now $0.50.</p>\n            ","response":0,"trial_type":"html-button-response","trial_index":52,"time_elapsed":507655,"internal_node_id":"0.0-4.0-1.22","subject_id":"614a7b0e7bf360668da0617b","study_id":"60edd13110225f80f9f3709b","session_id":"6196c707b0a02cde2d598059","condition":"contingent","relevant_dimensions":["pattern","legs"],"bee_group":{"antennae":"X","wings":"X","pattern":"D","legs":"F"},"bonus":0.920000000000001},{"rt":4025.800000000745,"stimulus":"bees-with-color/bee-B2SM.svg","response":0,"trial_type":"image-button-response","trial_index":53,"time_elapsed":511683,"internal_node_id":"0.0-4.0-0.23","subject_id":"614a7b0e7bf360668da0617b","study_id":"60edd13110225f80f9f3709b","session_id":"6196c707b0a02cde2d598059","condition":"contingent","relevant_dimensions":["pattern","legs"],"bee_group":{"antennae":"X","wings":"X","pattern":"D","legs":"F"},"action":"harvest","summary":"good-harvest","bonus":0.920000000000001},{"rt":2867.4000000003725,"stimulus":"\n                    <p><b>Action: <em>harvest</em></b></p>\n                    <p>This is the bee that you just saw.</p>\n                    <img src=\"bees-with-color/bee-B2SM.svg\" width=\"200\">\n                    <p><span class=\"greenText\"><b>Successful harvest!</b></span><br>Your pay has increased by $0.02. Your bonus pay is now $0.52.</p>\n            ","response":0,"trial_type":"html-button-response","trial_index":54,"time_elapsed":514552,"internal_node_id":"0.0-4.0-1.23","subject_id":"614a7b0e7bf360668da0617b","study_id":"60edd13110225f80f9f3709b","session_id":"6196c707b0a02cde2d598059","condition":"contingent","relevant_dimensions":["pattern","legs"],"bee_group":{"antennae":"X","wings":"X","pattern":"D","legs":"F"},"bonus":0.920000000000001},{"rt":6208.299999998882,"stimulus":"bees-with-color/bee-B2SF.svg","response":1,"trial_type":"image-button-response","trial_index":55,"time_elapsed":520762,"internal_node_id":"0.0-4.0-0.24","subject_id":"614a7b0e7bf360668da0617b","study_id":"60edd13110225f80f9f3709b","session_id":"6196c707b0a02cde2d598059","condition":"contingent","relevant_dimensions":["pattern","legs"],"bee_group":{"antennae":"X","wings":"X","pattern":"D","legs":"F"},"action":"avoid","summary":"bad-avoid","bonus":0.920000000000001},{"rt":1145.8999999985099,"stimulus":"\n                    <p><b>Action: <em>avoid</em></b></p>\n                    <p>This is the bee that you just saw.</p>\n                    <img src=\"bees-with-color/bee-B2SF.svg\" width=\"200\">\n                    <p><br>Your bonus pay is unchanged, and remains at $0.52.</p>\n            ","response":0,"trial_type":"html-button-response","trial_index":56,"time_elapsed":521909,"internal_node_id":"0.0-4.0-1.24","subject_id":"614a7b0e7bf360668da0617b","study_id":"60edd13110225f80f9f3709b","session_id":"6196c707b0a02cde2d598059","condition":"contingent","relevant_dimensions":["pattern","legs"],"bee_group":{"antennae":"X","wings":"X","pattern":"D","legs":"F"},"bonus":0.920000000000001},{"rt":2855.5999999996275,"stimulus":"bees-with-color/bee-B2DM.svg","response":0,"trial_type":"image-button-response","trial_index":57,"time_elapsed":524767,"internal_node_id":"0.0-4.0-0.25","subject_id":"614a7b0e7bf360668da0617b","study_id":"60edd13110225f80f9f3709b","session_id":"6196c707b0a02cde2d598059","condition":"contingent","relevant_dimensions":["pattern","legs"],"bee_group":{"antennae":"X","wings":"X","pattern":"D","legs":"F"},"action":"harvest","summary":"good-harvest","bonus":0.920000000000001},{"rt":2462.5999999996275,"stimulus":"\n                    <p><b>Action: <em>harvest</em></b></p>\n                    <p>This is the bee that you just saw.</p>\n                    <img src=\"bees-with-color/bee-B2DM.svg\" width=\"200\">\n                    <p><span class=\"greenText\"><b>Successful harvest!</b></span><br>Your pay has increased by $0.02. Your bonus pay is now $0.54.</p>\n            ","response":0,"trial_type":"html-button-response","trial_index":58,"time_elapsed":527231,"internal_node_id":"0.0-4.0-1.25","subject_id":"614a7b0e7bf360668da0617b","study_id":"60edd13110225f80f9f3709b","session_id":"6196c707b0a02cde2d598059","condition":"contingent","relevant_dimensions":["pattern","legs"],"bee_group":{"antennae":"X","wings":"X","pattern":"D","legs":"F"},"bonus":0.920000000000001},{"rt":3102.699999999255,"stimulus":"bees-with-color/bee-A2SM.svg","response":1,"trial_type":"image-button-response","trial_index":59,"time_elapsed":530336,"internal_node_id":"0.0-4.0-0.26","subject_id":"614a7b0e7bf360668da0617b","study_id":"60edd13110225f80f9f3709b","session_id":"6196c707b0a02cde2d598059","condition":"contingent","relevant_dimensions":["pattern","legs"],"bee_group":{"antennae":"X","wings":"X","pattern":"D","legs":"F"},"action":"avoid","summary":"bad-avoid","bonus":0.920000000000001},{"rt":1089.8999999985099,"stimulus":"\n                    <p><b>Action: <em>avoid</em></b></p>\n                    <p>This is the bee that you just saw.</p>\n                    <img src=\"bees-with-color/bee-A2SM.svg\" width=\"200\">\n                    <p><br>Your bonus pay is unchanged, and remains at $0.54.</p>\n            ","response":0,"trial_type":"html-button-response","trial_index":60,"time_elapsed":531427,"internal_node_id":"0.0-4.0-1.26","subject_id":"614a7b0e7bf360668da0617b","study_id":"60edd13110225f80f9f3709b","session_id":"6196c707b0a02cde2d598059","condition":"contingent","relevant_dimensions":["pattern","legs"],"bee_group":{"antennae":"X","wings":"X","pattern":"D","legs":"F"},"bonus":0.920000000000001},{"rt":4216.699999999255,"stimulus":"bees-with-color/bee-A2DM.svg","response":1,"trial_type":"image-button-response","trial_index":61,"time_elapsed":535646,"internal_node_id":"0.0-4.0-0.27","subject_id":"614a7b0e7bf360668da0617b","study_id":"60edd13110225f80f9f3709b","session_id":"6196c707b0a02cde2d598059","condition":"contingent","relevant_dimensions":["pattern","legs"],"bee_group":{"antennae":"X","wings":"X","pattern":"D","legs":"F"},"action":"avoid","summary":"bad-avoid","bonus":0.920000000000001},{"rt":1100.699999999255,"stimulus":"\n                    <p><b>Action: <em>avoid</em></b></p>\n                    <p>This is the bee that you just saw.</p>\n                    <img src=\"bees-with-color/bee-A2DM.svg\" width=\"200\">\n                    <p><br>Your bonus pay is unchanged, and remains at $0.54.</p>\n            ","response":0,"trial_type":"html-button-response","trial_index":62,"time_elapsed":536748,"internal_node_id":"0.0-4.0-1.27","subject_id":"614a7b0e7bf360668da0617b","study_id":"60edd13110225f80f9f3709b","session_id":"6196c707b0a02cde2d598059","condition":"contingent","relevant_dimensions":["pattern","legs"],"bee_group":{"antennae":"X","wings":"X","pattern":"D","legs":"F"},"bonus":0.920000000000001},{"rt":2158,"stimulus":"bees-with-color/bee-B1SM.svg","response":0,"trial_type":"image-button-response","trial_index":63,"time_elapsed":538908,"internal_node_id":"0.0-4.0-0.28","subject_id":"614a7b0e7bf360668da0617b","study_id":"60edd13110225f80f9f3709b","session_id":"6196c707b0a02cde2d598059","condition":"contingent","relevant_dimensions":["pattern","legs"],"bee_group":{"antennae":"X","wings":"X","pattern":"D","legs":"F"},"action":"harvest","summary":"good-harvest","bonus":0.920000000000001},{"rt":1303.3999999985099,"stimulus":"\n                    <p><b>Action: <em>harvest</em></b></p>\n                    <p>This is the bee that you just saw.</p>\n                    <img src=\"bees-with-color/bee-B1SM.svg\" width=\"200\">\n                    <p><span class=\"greenText\"><b>Successful harvest!</b></span><br>Your pay has increased by $0.02. Your bonus pay is now $0.56.</p>\n            ","response":0,"trial_type":"html-button-response","trial_index":64,"time_elapsed":540213,"internal_node_id":"0.0-4.0-1.28","subject_id":"614a7b0e7bf360668da0617b","study_id":"60edd13110225f80f9f3709b","session_id":"6196c707b0a02cde2d598059","condition":"contingent","relevant_dimensions":["pattern","legs"],"bee_group":{"antennae":"X","wings":"X","pattern":"D","legs":"F"},"bonus":0.920000000000001},{"rt":2394.5999999996275,"stimulus":"bees-with-color/bee-A1SF.svg","response":0,"trial_type":"image-button-response","trial_index":65,"time_elapsed":542610,"internal_node_id":"0.0-4.0-0.29","subject_id":"614a7b0e7bf360668da0617b","study_id":"60edd13110225f80f9f3709b","session_id":"6196c707b0a02cde2d598059","condition":"contingent","relevant_dimensions":["pattern","legs"],"bee_group":{"antennae":"X","wings":"X","pattern":"D","legs":"F"},"action":"harvest","summary":"good-harvest","bonus":0.920000000000001},{"rt":1606.8999999985099,"stimulus":"\n                    <p><b>Action: <em>harvest</em></b></p>\n                    <p>This is the bee that you just saw.</p>\n                    <img src=\"bees-with-color/bee-A1SF.svg\" width=\"200\">\n                    <p><span class=\"greenText\"><b>Successful harvest!</b></span><br>Your pay has increased by $0.02. Your bonus pay is now $0.58.</p>\n            ","response":0,"trial_type":"html-button-response","trial_index":66,"time_elapsed":544218,"internal_node_id":"0.0-4.0-1.29","subject_id":"614a7b0e7bf360668da0617b","study_id":"60edd13110225f80f9f3709b","session_id":"6196c707b0a02cde2d598059","condition":"contingent","relevant_dimensions":["pattern","legs"],"bee_group":{"antennae":"X","wings":"X","pattern":"D","legs":"F"},"bonus":0.920000000000001},{"rt":7761,"stimulus":"bees-with-color/bee-A1DF.svg","response":0,"trial_type":"image-button-response","trial_index":67,"time_elapsed":551981,"internal_node_id":"0.0-4.0-0.30","subject_id":"614a7b0e7bf360668da0617b","study_id":"60edd13110225f80f9f3709b","session_id":"6196c707b0a02cde2d598059","condition":"contingent","relevant_dimensions":["pattern","legs"],"bee_group":{"antennae":"X","wings":"X","pattern":"D","legs":"F"},"action":"harvest","summary":"bad-harvest","bonus":0.920000000000001},{"rt":7535.700000001118,"stimulus":"\n                    <p><b>Action: <em>harvest</em></b></p>\n                    <p>This is the bee that you just saw.</p>\n                    <img src=\"bees-with-color/bee-A1DF.svg\" width=\"200\">\n                    <p><span class=\"redText\">Bad choice, the bee was angry.</span><br><b>You have been stung!</b><br>Your pay has been decreased by $0.10. Your bonus pay is now $0.48.</p>\n            ","response":0,"trial_type":"html-button-response","trial_index":68,"time_elapsed":559519,"internal_node_id":"0.0-4.0-1.30","subject_id":"614a7b0e7bf360668da0617b","study_id":"60edd13110225f80f9f3709b","session_id":"6196c707b0a02cde2d598059","condition":"contingent","relevant_dimensions":["pattern","legs"],"bee_group":{"antennae":"X","wings":"X","pattern":"D","legs":"F"},"bonus":0.920000000000001},{"rt":3294.199999999255,"stimulus":"bees-with-color/bee-A2DF.svg","response":1,"trial_type":"image-button-response","trial_index":69,"time_elapsed":562815,"internal_node_id":"0.0-4.0-0.31","subject_id":"614a7b0e7bf360668da0617b","study_id":"60edd13110225f80f9f3709b","session_id":"6196c707b0a02cde2d598059","condition":"contingent","relevant_dimensions":["pattern","legs"],"bee_group":{"antennae":"X","wings":"X","pattern":"D","legs":"F"},"action":"avoid","summary":"good-avoid","bonus":0.920000000000001},{"rt":1314.4000000003725,"stimulus":"\n                    <p><b>Action: <em>avoid</em></b></p>\n                    <p>This is the bee that you just saw.</p>\n                    <img src=\"bees-with-color/bee-A2DF.svg\" width=\"200\">\n                    <p><br>Your bonus pay is unchanged, and remains at $0.48.</p>\n            ","response":0,"trial_type":"html-button-response","trial_index":70,"time_elapsed":564131,"internal_node_id":"0.0-4.0-1.31","subject_id":"614a7b0e7bf360668da0617b","study_id":"60edd13110225f80f9f3709b","session_id":"6196c707b0a02cde2d598059","condition":"contingent","relevant_dimensions":["pattern","legs"],"bee_group":{"antennae":"X","wings":"X","pattern":"D","legs":"F"},"bonus":0.920000000000001},{"rt":4239.4000000003725,"stimulus":"bees-with-color/bee-A1DF.svg","response":0,"trial_type":"image-button-response","trial_index":71,"time_elapsed":568373,"internal_node_id":"0.0-4.0-0.32","subject_id":"614a7b0e7bf360668da0617b","study_id":"60edd13110225f80f9f3709b","session_id":"6196c707b0a02cde2d598059","condition":"contingent","relevant_dimensions":["pattern","legs"],"bee_group":{"antennae":"X","wings":"X","pattern":"D","legs":"F"},"action":"harvest","summary":"bad-harvest","bonus":0.920000000000001},{"rt":1494,"stimulus":"\n                    <p><b>Action: <em>harvest</em></b></p>\n                    <p>This is the bee that you just saw.</p>\n                    <img src=\"bees-with-color/bee-A1DF.svg\" width=\"200\">\n                    <p><span class=\"redText\">Bad choice, the bee was angry.</span><br><b>You have been stung!</b><br>Your pay has been decreased by $0.10. Your bonus pay is now $0.38.</p>\n            ","response":0,"trial_type":"html-button-response","trial_index":72,"time_elapsed":569869,"internal_node_id":"0.0-4.0-1.32","subject_id":"614a7b0e7bf360668da0617b","study_id":"60edd13110225f80f9f3709b","session_id":"6196c707b0a02cde2d598059","condition":"contingent","relevant_dimensions":["pattern","legs"],"bee_group":{"antennae":"X","wings":"X","pattern":"D","legs":"F"},"bonus":0.920000000000001},{"rt":2619.2000000011176,"stimulus":"bees-with-color/bee-B1SM.svg","response":0,"trial_type":"image-button-response","trial_index":73,"time_elapsed":572490,"internal_node_id":"0.0-4.0-0.33","subject_id":"614a7b0e7bf360668da0617b","study_id":"60edd13110225f80f9f3709b","session_id":"6196c707b0a02cde2d598059","condition":"contingent","relevant_dimensions":["pattern","legs"],"bee_group":{"antennae":"X","wings":"X","pattern":"D","legs":"F"},"action":"harvest","summary":"good-harvest","bonus":0.920000000000001},{"rt":1156.300000000745,"stimulus":"\n                    <p><b>Action: <em>harvest</em></b></p>\n                    <p>This is the bee that you just saw.</p>\n                    <img src=\"bees-with-color/bee-B1SM.svg\" width=\"200\">\n                    <p><span class=\"greenText\"><b>Successful harvest!</b></span><br>Your pay has increased by $0.02. Your bonus pay is now $0.40.</p>\n            ","response":0,"trial_type":"html-button-response","trial_index":74,"time_elapsed":573649,"internal_node_id":"0.0-4.0-1.33","subject_id":"614a7b0e7bf360668da0617b","study_id":"60edd13110225f80f9f3709b","session_id":"6196c707b0a02cde2d598059","condition":"contingent","relevant_dimensions":["pattern","legs"],"bee_group":{"antennae":"X","wings":"X","pattern":"D","legs":"F"},"bonus":0.920000000000001},{"rt":3294.10000000149,"stimulus":"bees-with-color/bee-A2DM.svg","response":0,"trial_type":"image-button-response","trial_index":75,"time_elapsed":576945,"internal_node_id":"0.0-4.0-0.34","subject_id":"614a7b0e7bf360668da0617b","study_id":"60edd13110225f80f9f3709b","session_id":"6196c707b0a02cde2d598059","condition":"contingent","relevant_dimensions":["pattern","legs"],"bee_group":{"antennae":"X","wings":"X","pattern":"D","legs":"F"},"action":"harvest","summary":"good-harvest","bonus":0.920000000000001},{"rt":1617.7000000011176,"stimulus":"\n                    <p><b>Action: <em>harvest</em></b></p>\n                    <p>This is the bee that you just saw.</p>\n                    <img src=\"bees-with-color/bee-A2DM.svg\" width=\"200\">\n                    <p><span class=\"greenText\"><b>Successful harvest!</b></span><br>Your pay has increased by $0.02. Your bonus pay is now $0.42.</p>\n            ","response":0,"trial_type":"html-button-response","trial_index":76,"time_elapsed":578565,"internal_node_id":"0.0-4.0-1.34","subject_id":"614a7b0e7bf360668da0617b","study_id":"60edd13110225f80f9f3709b","session_id":"6196c707b0a02cde2d598059","condition":"contingent","relevant_dimensions":["pattern","legs"],"bee_group":{"antennae":"X","wings":"X","pattern":"D","legs":"F"},"bonus":0.920000000000001},{"rt":2889.2000000011176,"stimulus":"bees-with-color/bee-A2DF.svg","response":1,"trial_type":"image-button-response","trial_index":77,"time_elapsed":581457,"internal_node_id":"0.0-4.0-0.35","subject_id":"614a7b0e7bf360668da0617b","study_id":"60edd13110225f80f9f3709b","session_id":"6196c707b0a02cde2d598059","condition":"contingent","relevant_dimensions":["pattern","legs"],"bee_group":{"antennae":"X","wings":"X","pattern":"D","legs":"F"},"action":"avoid","summary":"good-avoid","bonus":0.920000000000001},{"rt":999,"stimulus":"\n                    <p><b>Action: <em>avoid</em></b></p>\n                    <p>This is the bee that you just saw.</p>\n                    <img src=\"bees-with-color/bee-A2DF.svg\" width=\"200\">\n                    <p><br>Your bonus pay is unchanged, and remains at $0.42.</p>\n            ","response":0,"trial_type":"html-button-response","trial_index":78,"time_elapsed":582458,"internal_node_id":"0.0-4.0-1.35","subject_id":"614a7b0e7bf360668da0617b","study_id":"60edd13110225f80f9f3709b","session_id":"6196c707b0a02cde2d598059","condition":"contingent","relevant_dimensions":["pattern","legs"],"bee_group":{"antennae":"X","wings":"X","pattern":"D","legs":"F"},"bonus":0.920000000000001},{"rt":2147,"stimulus":"bees-with-color/bee-B1DM.svg","response":0,"trial_type":"image-button-response","trial_index":79,"time_elapsed":584607,"internal_node_id":"0.0-4.0-0.36","subject_id":"614a7b0e7bf360668da0617b","study_id":"60edd13110225f80f9f3709b","session_id":"6196c707b0a02cde2d598059","condition":"contingent","relevant_dimensions":["pattern","legs"],"bee_group":{"antennae":"X","wings":"X","pattern":"D","legs":"F"},"action":"harvest","summary":"good-harvest","bonus":0.920000000000001},{"rt":1235.9000000003725,"stimulus":"\n                    <p><b>Action: <em>harvest</em></b></p>\n                    <p>This is the bee that you just saw.</p>\n                    <img src=\"bees-with-color/bee-B1DM.svg\" width=\"200\">\n                    <p><span class=\"greenText\"><b>Successful harvest!</b></span><br>Your pay has increased by $0.02. Your bonus pay is now $0.44.</p>\n            ","response":0,"trial_type":"html-button-response","trial_index":80,"time_elapsed":585844,"internal_node_id":"0.0-4.0-1.36","subject_id":"614a7b0e7bf360668da0617b","study_id":"60edd13110225f80f9f3709b","session_id":"6196c707b0a02cde2d598059","condition":"contingent","relevant_dimensions":["pattern","legs"],"bee_group":{"antennae":"X","wings":"X","pattern":"D","legs":"F"},"bonus":0.920000000000001},{"rt":2866.9000000003725,"stimulus":"bees-with-color/bee-B2SM.svg","response":0,"trial_type":"image-button-response","trial_index":81,"time_elapsed":588713,"internal_node_id":"0.0-4.0-0.37","subject_id":"614a7b0e7bf360668da0617b","study_id":"60edd13110225f80f9f3709b","session_id":"6196c707b0a02cde2d598059","condition":"contingent","relevant_dimensions":["pattern","legs"],"bee_group":{"antennae":"X","wings":"X","pattern":"D","legs":"F"},"action":"harvest","summary":"good-harvest","bonus":0.920000000000001},{"rt":1123.7000000011176,"stimulus":"\n                    <p><b>Action: <em>harvest</em></b></p>\n                    <p>This is the bee that you just saw.</p>\n                    <img src=\"bees-with-color/bee-B2SM.svg\" width=\"200\">\n                    <p><span class=\"greenText\"><b>Successful harvest!</b></span><br>Your pay has increased by $0.02. Your bonus pay is now $0.46.</p>\n            ","response":0,"trial_type":"html-button-response","trial_index":82,"time_elapsed":589838,"internal_node_id":"0.0-4.0-1.37","subject_id":"614a7b0e7bf360668da0617b","study_id":"60edd13110225f80f9f3709b","session_id":"6196c707b0a02cde2d598059","condition":"contingent","relevant_dimensions":["pattern","legs"],"bee_group":{"antennae":"X","wings":"X","pattern":"D","legs":"F"},"bonus":0.920000000000001},{"rt":4127.300000000745,"stimulus":"bees-with-color/bee-A2SF.svg","response":1,"trial_type":"image-button-response","trial_index":83,"time_elapsed":593967,"internal_node_id":"0.0-4.0-0.38","subject_id":"614a7b0e7bf360668da0617b","study_id":"60edd13110225f80f9f3709b","session_id":"6196c707b0a02cde2d598059","condition":"contingent","relevant_dimensions":["pattern","legs"],"bee_group":{"antennae":"X","wings":"X","pattern":"D","legs":"F"},"action":"avoid","summary":"bad-avoid","bonus":0.920000000000001},{"rt":1607.0999999996275,"stimulus":"\n                    <p><b>Action: <em>avoid</em></b></p>\n                    <p>This is the bee that you just saw.</p>\n                    <img src=\"bees-with-color/bee-A2SF.svg\" width=\"200\">\n                    <p><br>Your bonus pay is unchanged, and remains at $0.46.</p>\n            ","response":0,"trial_type":"html-button-response","trial_index":84,"time_elapsed":595575,"internal_node_id":"0.0-4.0-1.38","subject_id":"614a7b0e7bf360668da0617b","study_id":"60edd13110225f80f9f3709b","session_id":"6196c707b0a02cde2d598059","condition":"contingent","relevant_dimensions":["pattern","legs"],"bee_group":{"antennae":"X","wings":"X","pattern":"D","legs":"F"},"bonus":0.920000000000001},{"rt":1190.5,"stimulus":"bees-with-color/bee-A1SM.svg","response":0,"trial_type":"image-button-response","trial_index":85,"time_elapsed":596768,"internal_node_id":"0.0-4.0-0.39","subject_id":"614a7b0e7bf360668da0617b","study_id":"60edd13110225f80f9f3709b","session_id":"6196c707b0a02cde2d598059","condition":"contingent","relevant_dimensions":["pattern","legs"],"bee_group":{"antennae":"X","wings":"X","pattern":"D","legs":"F"},"action":"harvest","summary":"good-harvest","bonus":0.920000000000001},{"rt":1100.7999999988824,"stimulus":"\n                    <p><b>Action: <em>harvest</em></b></p>\n                    <p>This is the bee that you just saw.</p>\n                    <img src=\"bees-with-color/bee-A1SM.svg\" width=\"200\">\n                    <p><span class=\"greenText\"><b>Successful harvest!</b></span><br>Your pay has increased by $0.02. Your bonus pay is now $0.48.</p>\n            ","response":0,"trial_type":"html-button-response","trial_index":86,"time_elapsed":597870,"internal_node_id":"0.0-4.0-1.39","subject_id":"614a7b0e7bf360668da0617b","study_id":"60edd13110225f80f9f3709b","session_id":"6196c707b0a02cde2d598059","condition":"contingent","relevant_dimensions":["pattern","legs"],"bee_group":{"antennae":"X","wings":"X","pattern":"D","legs":"F"},"bonus":0.920000000000001},{"rt":4689.800000000745,"stimulus":"bees-with-color/bee-A1SF.svg","response":0,"trial_type":"image-button-response","trial_index":87,"time_elapsed":602562,"internal_node_id":"0.0-4.0-0.40","subject_id":"614a7b0e7bf360668da0617b","study_id":"60edd13110225f80f9f3709b","session_id":"6196c707b0a02cde2d598059","condition":"contingent","relevant_dimensions":["pattern","legs"],"bee_group":{"antennae":"X","wings":"X","pattern":"D","legs":"F"},"action":"harvest","summary":"good-harvest","bonus":0.920000000000001},{"rt":1145.8999999985099,"stimulus":"\n                    <p><b>Action: <em>harvest</em></b></p>\n                    <p>This is the bee that you just saw.</p>\n                    <img src=\"bees-with-color/bee-A1SF.svg\" width=\"200\">\n                    <p><span class=\"greenText\"><b>Successful harvest!</b></span><br>Your pay has increased by $0.02. Your bonus pay is now $0.50.</p>\n            ","response":0,"trial_type":"html-button-response","trial_index":88,"time_elapsed":603709,"internal_node_id":"0.0-4.0-1.40","subject_id":"614a7b0e7bf360668da0617b","study_id":"60edd13110225f80f9f3709b","session_id":"6196c707b0a02cde2d598059","condition":"contingent","relevant_dimensions":["pattern","legs"],"bee_group":{"antennae":"X","wings":"X","pattern":"D","legs":"F"},"bonus":0.920000000000001},{"rt":4059.5,"stimulus":"bees-with-color/bee-B2DM.svg","response":0,"trial_type":"image-button-response","trial_index":89,"time_elapsed":607771,"internal_node_id":"0.0-4.0-0.41","subject_id":"614a7b0e7bf360668da0617b","study_id":"60edd13110225f80f9f3709b","session_id":"6196c707b0a02cde2d598059","condition":"contingent","relevant_dimensions":["pattern","legs"],"bee_group":{"antennae":"X","wings":"X","pattern":"D","legs":"F"},"action":"harvest","summary":"good-harvest","bonus":0.920000000000001},{"rt":1078.2999999988824,"stimulus":"\n                    <p><b>Action: <em>harvest</em></b></p>\n                    <p>This is the bee that you just saw.</p>\n                    <img src=\"bees-with-color/bee-B2DM.svg\" width=\"200\">\n                    <p><span class=\"greenText\"><b>Successful harvest!</b></span><br>Your pay has increased by $0.02. Your bonus pay is now $0.52.</p>\n            ","response":0,"trial_type":"html-button-response","trial_index":90,"time_elapsed":608851,"internal_node_id":"0.0-4.0-1.41","subject_id":"614a7b0e7bf360668da0617b","study_id":"60edd13110225f80f9f3709b","session_id":"6196c707b0a02cde2d598059","condition":"contingent","relevant_dimensions":["pattern","legs"],"bee_group":{"antennae":"X","wings":"X","pattern":"D","legs":"F"},"bonus":0.920000000000001},{"rt":10955.800000000745,"stimulus":"bees-with-color/bee-B2SF.svg","response":1,"trial_type":"image-button-response","trial_index":91,"time_elapsed":619808,"internal_node_id":"0.0-4.0-0.42","subject_id":"614a7b0e7bf360668da0617b","study_id":"60edd13110225f80f9f3709b","session_id":"6196c707b0a02cde2d598059","condition":"contingent","relevant_dimensions":["pattern","legs"],"bee_group":{"antennae":"X","wings":"X","pattern":"D","legs":"F"},"action":"avoid","summary":"bad-avoid","bonus":0.920000000000001},{"rt":988.2999999988824,"stimulus":"\n                    <p><b>Action: <em>avoid</em></b></p>\n                    <p>This is the bee that you just saw.</p>\n                    <img src=\"bees-with-color/bee-B2SF.svg\" width=\"200\">\n                    <p><br>Your bonus pay is unchanged, and remains at $0.52.</p>\n            ","response":0,"trial_type":"html-button-response","trial_index":92,"time_elapsed":620798,"internal_node_id":"0.0-4.0-1.42","subject_id":"614a7b0e7bf360668da0617b","study_id":"60edd13110225f80f9f3709b","session_id":"6196c707b0a02cde2d598059","condition":"contingent","relevant_dimensions":["pattern","legs"],"bee_group":{"antennae":"X","wings":"X","pattern":"D","legs":"F"},"bonus":0.920000000000001},{"rt":5387,"stimulus":"bees-with-color/bee-B1SF.svg","response":1,"trial_type":"image-button-response","trial_index":93,"time_elapsed":626187,"internal_node_id":"0.0-4.0-0.43","subject_id":"614a7b0e7bf360668da0617b","study_id":"60edd13110225f80f9f3709b","session_id":"6196c707b0a02cde2d598059","condition":"contingent","relevant_dimensions":["pattern","legs"],"bee_group":{"antennae":"X","wings":"X","pattern":"D","legs":"F"},"action":"avoid","summary":"bad-avoid","bonus":0.920000000000001},{"rt":1044.2000000011176,"stimulus":"\n                    <p><b>Action: <em>avoid</em></b></p>\n                    <p>This is the bee that you just saw.</p>\n                    <img src=\"bees-with-color/bee-B1SF.svg\" width=\"200\">\n                    <p><br>Your bonus pay is unchanged, and remains at $0.52.</p>\n            ","response":0,"trial_type":"html-button-response","trial_index":94,"time_elapsed":627233,"internal_node_id":"0.0-4.0-1.43","subject_id":"614a7b0e7bf360668da0617b","study_id":"60edd13110225f80f9f3709b","session_id":"6196c707b0a02cde2d598059","condition":"contingent","relevant_dimensions":["pattern","legs"],"bee_group":{"antennae":"X","wings":"X","pattern":"D","legs":"F"},"bonus":0.920000000000001},{"rt":2124.2999999988824,"stimulus":"bees-with-color/bee-A1DM.svg","response":0,"trial_type":"image-button-response","trial_index":95,"time_elapsed":629360,"internal_node_id":"0.0-4.0-0.44","subject_id":"614a7b0e7bf360668da0617b","study_id":"60edd13110225f80f9f3709b","session_id":"6196c707b0a02cde2d598059","condition":"contingent","relevant_dimensions":["pattern","legs"],"bee_group":{"antennae":"X","wings":"X","pattern":"D","legs":"F"},"action":"harvest","summary":"good-harvest","bonus":0.920000000000001},{"rt":2068.300000000745,"stimulus":"\n                    <p><b>Action: <em>harvest</em></b></p>\n                    <p>This is the bee that you just saw.</p>\n                    <img src=\"bees-with-color/bee-A1DM.svg\" width=\"200\">\n                    <p><span class=\"greenText\"><b>Successful harvest!</b></span><br>Your pay has increased by $0.02. Your bonus pay is now $0.54.</p>\n            ","response":0,"trial_type":"html-button-response","trial_index":96,"time_elapsed":631430,"internal_node_id":"0.0-4.0-1.44","subject_id":"614a7b0e7bf360668da0617b","study_id":"60edd13110225f80f9f3709b","session_id":"6196c707b0a02cde2d598059","condition":"contingent","relevant_dimensions":["pattern","legs"],"bee_group":{"antennae":"X","wings":"X","pattern":"D","legs":"F"},"bonus":0.920000000000001},{"rt":5870.800000000745,"stimulus":"bees-with-color/bee-A2SM.svg","response":1,"trial_type":"image-button-response","trial_index":97,"time_elapsed":637302,"internal_node_id":"0.0-4.0-0.45","subject_id":"614a7b0e7bf360668da0617b","study_id":"60edd13110225f80f9f3709b","session_id":"6196c707b0a02cde2d598059","condition":"contingent","relevant_dimensions":["pattern","legs"],"bee_group":{"antennae":"X","wings":"X","pattern":"D","legs":"F"},"action":"avoid","summary":"bad-avoid","bonus":0.920000000000001},{"rt":1550.699999999255,"stimulus":"\n                    <p><b>Action: <em>avoid</em></b></p>\n                    <p>This is the bee that you just saw.</p>\n                    <img src=\"bees-with-color/bee-A2SM.svg\" width=\"200\">\n                    <p><br>Your bonus pay is unchanged, and remains at $0.54.</p>\n            ","response":0,"trial_type":"html-button-response","trial_index":98,"time_elapsed":638855,"internal_node_id":"0.0-4.0-1.45","subject_id":"614a7b0e7bf360668da0617b","study_id":"60edd13110225f80f9f3709b","session_id":"6196c707b0a02cde2d598059","condition":"contingent","relevant_dimensions":["pattern","legs"],"bee_group":{"antennae":"X","wings":"X","pattern":"D","legs":"F"},"bonus":0.920000000000001},{"rt":4329.10000000149,"stimulus":"bees-with-color/bee-B2DF.svg","response":1,"trial_type":"image-button-response","trial_index":99,"time_elapsed":643186,"internal_node_id":"0.0-4.0-0.46","subject_id":"614a7b0e7bf360668da0617b","study_id":"60edd13110225f80f9f3709b","session_id":"6196c707b0a02cde2d598059","condition":"contingent","relevant_dimensions":["pattern","legs"],"bee_group":{"antennae":"X","wings":"X","pattern":"D","legs":"F"},"action":"avoid","summary":"good-avoid","bonus":0.920000000000001},{"rt":1032.9000000003725,"stimulus":"\n                    <p><b>Action: <em>avoid</em></b></p>\n                    <p>This is the bee that you just saw.</p>\n                    <img src=\"bees-with-color/bee-B2DF.svg\" width=\"200\">\n                    <p><br>Your bonus pay is unchanged, and remains at $0.54.</p>\n            ","response":0,"trial_type":"html-button-response","trial_index":100,"time_elapsed":644221,"internal_node_id":"0.0-4.0-1.46","subject_id":"614a7b0e7bf360668da0617b","study_id":"60edd13110225f80f9f3709b","session_id":"6196c707b0a02cde2d598059","condition":"contingent","relevant_dimensions":["pattern","legs"],"bee_group":{"antennae":"X","wings":"X","pattern":"D","legs":"F"},"bonus":0.920000000000001},{"rt":5938.10000000149,"stimulus":"bees-with-color/bee-B1DF.svg","response":0,"trial_type":"image-button-response","trial_index":101,"time_elapsed":650161,"internal_node_id":"0.0-4.0-0.47","subject_id":"614a7b0e7bf360668da0617b","study_id":"60edd13110225f80f9f3709b","session_id":"6196c707b0a02cde2d598059","condition":"contingent","relevant_dimensions":["pattern","legs"],"bee_group":{"antennae":"X","wings":"X","pattern":"D","legs":"F"},"action":"harvest","summary":"bad-harvest","bonus":0.920000000000001},{"rt":1212.7999999988824,"stimulus":"\n                    <p><b>Action: <em>harvest</em></b></p>\n                    <p>This is the bee that you just saw.</p>\n                    <img src=\"bees-with-color/bee-B1DF.svg\" width=\"200\">\n                    <p><span class=\"redText\">Bad choice, the bee was angry.</span><br><b>You have been stung!</b><br>Your pay has been decreased by $0.10. Your bonus pay is now $0.44.</p>\n            ","response":0,"trial_type":"html-button-response","trial_index":102,"time_elapsed":651376,"internal_node_id":"0.0-4.0-1.47","subject_id":"614a7b0e7bf360668da0617b","study_id":"60edd13110225f80f9f3709b","session_id":"6196c707b0a02cde2d598059","condition":"contingent","relevant_dimensions":["pattern","legs"],"bee_group":{"antennae":"X","wings":"X","pattern":"D","legs":"F"},"bonus":0.920000000000001},{"rt":1820.4000000003725,"stimulus":"bees-with-color/bee-B2SM.svg","response":0,"trial_type":"image-button-response","trial_index":103,"time_elapsed":653199,"internal_node_id":"0.0-4.0-0.48","subject_id":"614a7b0e7bf360668da0617b","study_id":"60edd13110225f80f9f3709b","session_id":"6196c707b0a02cde2d598059","condition":"contingent","relevant_dimensions":["pattern","legs"],"bee_group":{"antennae":"X","wings":"X","pattern":"D","legs":"F"},"action":"harvest","summary":"good-harvest","bonus":0.920000000000001},{"rt":886.5,"stimulus":"\n                    <p><b>Action: <em>harvest</em></b></p>\n                    <p>This is the bee that you just saw.</p>\n                    <img src=\"bees-with-color/bee-B2SM.svg\" width=\"200\">\n                    <p><span class=\"greenText\"><b>Successful harvest!</b></span><br>Your pay has increased by $0.02. Your bonus pay is now $0.46.</p>\n            ","response":0,"trial_type":"html-button-response","trial_index":104,"time_elapsed":654087,"internal_node_id":"0.0-4.0-1.48","subject_id":"614a7b0e7bf360668da0617b","study_id":"60edd13110225f80f9f3709b","session_id":"6196c707b0a02cde2d598059","condition":"contingent","relevant_dimensions":["pattern","legs"],"bee_group":{"antennae":"X","wings":"X","pattern":"D","legs":"F"},"bonus":0.920000000000001},{"rt":2529.5999999996275,"stimulus":"bees-with-color/bee-B1DM.svg","response":0,"trial_type":"image-button-response","trial_index":105,"time_elapsed":656619,"internal_node_id":"0.0-4.0-0.49","subject_id":"614a7b0e7bf360668da0617b","study_id":"60edd13110225f80f9f3709b","session_id":"6196c707b0a02cde2d598059","condition":"contingent","relevant_dimensions":["pattern","legs"],"bee_group":{"antennae":"X","wings":"X","pattern":"D","legs":"F"},"action":"harvest","summary":"good-harvest","bonus":0.920000000000001},{"rt":999.1000000014901,"stimulus":"\n                    <p><b>Action: <em>harvest</em></b></p>\n                    <p>This is the bee that you just saw.</p>\n                    <img src=\"bees-with-color/bee-B1DM.svg\" width=\"200\">\n                    <p><span class=\"greenText\"><b>Successful harvest!</b></span><br>Your pay has increased by $0.02. Your bonus pay is now $0.48.</p>\n            ","response":0,"trial_type":"html-button-response","trial_index":106,"time_elapsed":657620,"internal_node_id":"0.0-4.0-1.49","subject_id":"614a7b0e7bf360668da0617b","study_id":"60edd13110225f80f9f3709b","session_id":"6196c707b0a02cde2d598059","condition":"contingent","relevant_dimensions":["pattern","legs"],"bee_group":{"antennae":"X","wings":"X","pattern":"D","legs":"F"},"bonus":0.920000000000001},{"rt":4183.199999999255,"stimulus":"bees-with-color/bee-A2SM.svg","response":1,"trial_type":"image-button-response","trial_index":107,"time_elapsed":661805,"internal_node_id":"0.0-4.0-0.50","subject_id":"614a7b0e7bf360668da0617b","study_id":"60edd13110225f80f9f3709b","session_id":"6196c707b0a02cde2d598059","condition":"contingent","relevant_dimensions":["pattern","legs"],"bee_group":{"antennae":"X","wings":"X","pattern":"D","legs":"F"},"action":"avoid","summary":"bad-avoid","bonus":0.920000000000001},{"rt":931.5,"stimulus":"\n                    <p><b>Action: <em>avoid</em></b></p>\n                    <p>This is the bee that you just saw.</p>\n                    <img src=\"bees-with-color/bee-A2SM.svg\" width=\"200\">\n                    <p><br>Your bonus pay is unchanged, and remains at $0.48.</p>\n            ","response":0,"trial_type":"html-button-response","trial_index":108,"time_elapsed":662739,"internal_node_id":"0.0-4.0-1.50","subject_id":"614a7b0e7bf360668da0617b","study_id":"60edd13110225f80f9f3709b","session_id":"6196c707b0a02cde2d598059","condition":"contingent","relevant_dimensions":["pattern","legs"],"bee_group":{"antennae":"X","wings":"X","pattern":"D","legs":"F"},"bonus":0.920000000000001},{"rt":2742.7999999988824,"stimulus":"bees-with-color/bee-A2DF.svg","response":1,"trial_type":"image-button-response","trial_index":109,"time_elapsed":665484,"internal_node_id":"0.0-4.0-0.51","subject_id":"614a7b0e7bf360668da0617b","study_id":"60edd13110225f80f9f3709b","session_id":"6196c707b0a02cde2d598059","condition":"contingent","relevant_dimensions":["pattern","legs"],"bee_group":{"antennae":"X","wings":"X","pattern":"D","legs":"F"},"action":"avoid","summary":"good-avoid","bonus":0.920000000000001},{"rt":763.2000000011176,"stimulus":"\n                    <p><b>Action: <em>avoid</em></b></p>\n                    <p>This is the bee that you just saw.</p>\n                    <img src=\"bees-with-color/bee-A2DF.svg\" width=\"200\">\n                    <p><br>Your bonus pay is unchanged, and remains at $0.48.</p>\n            ","response":0,"trial_type":"html-button-response","trial_index":110,"time_elapsed":666249,"internal_node_id":"0.0-4.0-1.51","subject_id":"614a7b0e7bf360668da0617b","study_id":"60edd13110225f80f9f3709b","session_id":"6196c707b0a02cde2d598059","condition":"contingent","relevant_dimensions":["pattern","legs"],"bee_group":{"antennae":"X","wings":"X","pattern":"D","legs":"F"},"bonus":0.920000000000001},{"rt":1764.7000000011176,"stimulus":"bees-with-color/bee-A2SF.svg","response":0,"trial_type":"image-button-response","trial_index":111,"time_elapsed":668015,"internal_node_id":"0.0-4.0-0.52","subject_id":"614a7b0e7bf360668da0617b","study_id":"60edd13110225f80f9f3709b","session_id":"6196c707b0a02cde2d598059","condition":"contingent","relevant_dimensions":["pattern","legs"],"bee_group":{"antennae":"X","wings":"X","pattern":"D","legs":"F"},"action":"harvest","summary":"good-harvest","bonus":0.920000000000001},{"rt":1145.7999999988824,"stimulus":"\n                    <p><b>Action: <em>harvest</em></b></p>\n                    <p>This is the bee that you just saw.</p>\n                    <img src=\"bees-with-color/bee-A2SF.svg\" width=\"200\">\n                    <p><span class=\"greenText\"><b>Successful harvest!</b></span><br>Your pay has increased by $0.02. Your bonus pay is now $0.50.</p>\n            ","response":0,"trial_type":"html-button-response","trial_index":112,"time_elapsed":669162,"internal_node_id":"0.0-4.0-1.52","subject_id":"614a7b0e7bf360668da0617b","study_id":"60edd13110225f80f9f3709b","session_id":"6196c707b0a02cde2d598059","condition":"contingent","relevant_dimensions":["pattern","legs"],"bee_group":{"antennae":"X","wings":"X","pattern":"D","legs":"F"},"bonus":0.920000000000001},{"rt":5646.0999999996275,"stimulus":"bees-with-color/bee-A1DF.svg","response":1,"trial_type":"image-button-response","trial_index":113,"time_elapsed":674810,"internal_node_id":"0.0-4.0-0.53","subject_id":"614a7b0e7bf360668da0617b","study_id":"60edd13110225f80f9f3709b","session_id":"6196c707b0a02cde2d598059","condition":"contingent","relevant_dimensions":["pattern","legs"],"bee_group":{"antennae":"X","wings":"X","pattern":"D","legs":"F"},"action":"avoid","summary":"good-avoid","bonus":0.920000000000001},{"rt":1179.5,"stimulus":"\n                    <p><b>Action: <em>avoid</em></b></p>\n                    <p>This is the bee that you just saw.</p>\n                    <img src=\"bees-with-color/bee-A1DF.svg\" width=\"200\">\n                    <p><br>Your bonus pay is unchanged, and remains at $0.50.</p>\n            ","response":0,"trial_type":"html-button-response","trial_index":114,"time_elapsed":675991,"internal_node_id":"0.0-4.0-1.53","subject_id":"614a7b0e7bf360668da0617b","study_id":"60edd13110225f80f9f3709b","session_id":"6196c707b0a02cde2d598059","condition":"contingent","relevant_dimensions":["pattern","legs"],"bee_group":{"antennae":"X","wings":"X","pattern":"D","legs":"F"},"bonus":0.920000000000001},{"rt":1562.2999999988824,"stimulus":"bees-with-color/bee-B2DM.svg","response":0,"trial_type":"image-button-response","trial_index":115,"time_elapsed":677555,"internal_node_id":"0.0-4.0-0.54","subject_id":"614a7b0e7bf360668da0617b","study_id":"60edd13110225f80f9f3709b","session_id":"6196c707b0a02cde2d598059","condition":"contingent","relevant_dimensions":["pattern","legs"],"bee_group":{"antennae":"X","wings":"X","pattern":"D","legs":"F"},"action":"harvest","summary":"good-harvest","bonus":0.920000000000001},{"rt":1033.2999999988824,"stimulus":"\n                    <p><b>Action: <em>harvest</em></b></p>\n                    <p>This is the bee that you just saw.</p>\n                    <img src=\"bees-with-color/bee-B2DM.svg\" width=\"200\">\n                    <p><span class=\"greenText\"><b>Successful harvest!</b></span><br>Your pay has increased by $0.02. Your bonus pay is now $0.52.</p>\n            ","response":0,"trial_type":"html-button-response","trial_index":116,"time_elapsed":678590,"internal_node_id":"0.0-4.0-1.54","subject_id":"614a7b0e7bf360668da0617b","study_id":"60edd13110225f80f9f3709b","session_id":"6196c707b0a02cde2d598059","condition":"contingent","relevant_dimensions":["pattern","legs"],"bee_group":{"antennae":"X","wings":"X","pattern":"D","legs":"F"},"bonus":0.920000000000001},{"rt":1303.800000000745,"stimulus":"bees-with-color/bee-B1SM.svg","response":0,"trial_type":"image-button-response","trial_index":117,"time_elapsed":679895,"internal_node_id":"0.0-4.0-0.55","subject_id":"614a7b0e7bf360668da0617b","study_id":"60edd13110225f80f9f3709b","session_id":"6196c707b0a02cde2d598059","condition":"contingent","relevant_dimensions":["pattern","legs"],"bee_group":{"antennae":"X","wings":"X","pattern":"D","legs":"F"},"action":"harvest","summary":"good-harvest","bonus":0.920000000000001},{"rt":966,"stimulus":"\n                    <p><b>Action: <em>harvest</em></b></p>\n                    <p>This is the bee that you just saw.</p>\n                    <img src=\"bees-with-color/bee-B1SM.svg\" width=\"200\">\n                    <p><span class=\"greenText\"><b>Successful harvest!</b></span><br>Your pay has increased by $0.02. Your bonus pay is now $0.54.</p>\n            ","response":0,"trial_type":"html-button-response","trial_index":118,"time_elapsed":680863,"internal_node_id":"0.0-4.0-1.55","subject_id":"614a7b0e7bf360668da0617b","study_id":"60edd13110225f80f9f3709b","session_id":"6196c707b0a02cde2d598059","condition":"contingent","relevant_dimensions":["pattern","legs"],"bee_group":{"antennae":"X","wings":"X","pattern":"D","legs":"F"},"bonus":0.920000000000001},{"rt":1426.7999999988824,"stimulus":"bees-with-color/bee-B1SF.svg","response":1,"trial_type":"image-button-response","trial_index":119,"time_elapsed":682292,"internal_node_id":"0.0-4.0-0.56","subject_id":"614a7b0e7bf360668da0617b","study_id":"60edd13110225f80f9f3709b","session_id":"6196c707b0a02cde2d598059","condition":"contingent","relevant_dimensions":["pattern","legs"],"bee_group":{"antennae":"X","wings":"X","pattern":"D","legs":"F"},"action":"avoid","summary":"bad-avoid","bonus":0.920000000000001},{"rt":1044.5999999996275,"stimulus":"\n                    <p><b>Action: <em>avoid</em></b></p>\n                    <p>This is the bee that you just saw.</p>\n                    <img src=\"bees-with-color/bee-B1SF.svg\" width=\"200\">\n                    <p><br>Your bonus pay is unchanged, and remains at $0.54.</p>\n            ","response":0,"trial_type":"html-button-response","trial_index":120,"time_elapsed":683338,"internal_node_id":"0.0-4.0-1.56","subject_id":"614a7b0e7bf360668da0617b","study_id":"60edd13110225f80f9f3709b","session_id":"6196c707b0a02cde2d598059","condition":"contingent","relevant_dimensions":["pattern","legs"],"bee_group":{"antennae":"X","wings":"X","pattern":"D","legs":"F"},"bonus":0.920000000000001},{"rt":1494.699999999255,"stimulus":"bees-with-color/bee-A1SF.svg","response":1,"trial_type":"image-button-response","trial_index":121,"time_elapsed":684834,"internal_node_id":"0.0-4.0-0.57","subject_id":"614a7b0e7bf360668da0617b","study_id":"60edd13110225f80f9f3709b","session_id":"6196c707b0a02cde2d598059","condition":"contingent","relevant_dimensions":["pattern","legs"],"bee_group":{"antennae":"X","wings":"X","pattern":"D","legs":"F"},"action":"avoid","summary":"bad-avoid","bonus":0.920000000000001},{"rt":1190.699999999255,"stimulus":"\n                    <p><b>Action: <em>avoid</em></b></p>\n                    <p>This is the bee that you just saw.</p>\n                    <img src=\"bees-with-color/bee-A1SF.svg\" width=\"200\">\n                    <p><br>Your bonus pay is unchanged, and remains at $0.54.</p>\n            ","response":0,"trial_type":"html-button-response","trial_index":122,"time_elapsed":686026,"internal_node_id":"0.0-4.0-1.57","subject_id":"614a7b0e7bf360668da0617b","study_id":"60edd13110225f80f9f3709b","session_id":"6196c707b0a02cde2d598059","condition":"contingent","relevant_dimensions":["pattern","legs"],"bee_group":{"antennae":"X","wings":"X","pattern":"D","legs":"F"},"bonus":0.920000000000001},{"rt":1483.7000000011176,"stimulus":"bees-with-color/bee-B1DF.svg","response":1,"trial_type":"image-button-response","trial_index":123,"time_elapsed":687512,"internal_node_id":"0.0-4.0-0.58","subject_id":"614a7b0e7bf360668da0617b","study_id":"60edd13110225f80f9f3709b","session_id":"6196c707b0a02cde2d598059","condition":"contingent","relevant_dimensions":["pattern","legs"],"bee_group":{"antennae":"X","wings":"X","pattern":"D","legs":"F"},"action":"avoid","summary":"good-avoid","bonus":0.920000000000001},{"rt":920.7000000011176,"stimulus":"\n                    <p><b>Action: <em>avoid</em></b></p>\n                    <p>This is the bee that you just saw.</p>\n                    <img src=\"bees-with-color/bee-B1DF.svg\" width=\"200\">\n                    <p><br>Your bonus pay is unchanged, and remains at $0.54.</p>\n            ","response":0,"trial_type":"html-button-response","trial_index":124,"time_elapsed":688434,"internal_node_id":"0.0-4.0-1.58","subject_id":"614a7b0e7bf360668da0617b","study_id":"60edd13110225f80f9f3709b","session_id":"6196c707b0a02cde2d598059","condition":"contingent","relevant_dimensions":["pattern","legs"],"bee_group":{"antennae":"X","wings":"X","pattern":"D","legs":"F"},"bonus":0.920000000000001},{"rt":3486.0999999996275,"stimulus":"bees-with-color/bee-B2DF.svg","response":1,"trial_type":"image-button-response","trial_index":125,"time_elapsed":691922,"internal_node_id":"0.0-4.0-0.59","subject_id":"614a7b0e7bf360668da0617b","study_id":"60edd13110225f80f9f3709b","session_id":"6196c707b0a02cde2d598059","condition":"contingent","relevant_dimensions":["pattern","legs"],"bee_group":{"antennae":"X","wings":"X","pattern":"D","legs":"F"},"action":"avoid","summary":"good-avoid","bonus":0.920000000000001},{"rt":661.9000000003725,"stimulus":"\n                    <p><b>Action: <em>avoid</em></b></p>\n                    <p>This is the bee that you just saw.</p>\n                    <img src=\"bees-with-color/bee-B2DF.svg\" width=\"200\">\n                    <p><br>Your bonus pay is unchanged, and remains at $0.54.</p>\n            ","response":0,"trial_type":"html-button-response","trial_index":126,"time_elapsed":692585,"internal_node_id":"0.0-4.0-1.59","subject_id":"614a7b0e7bf360668da0617b","study_id":"60edd13110225f80f9f3709b","session_id":"6196c707b0a02cde2d598059","condition":"contingent","relevant_dimensions":["pattern","legs"],"bee_group":{"antennae":"X","wings":"X","pattern":"D","legs":"F"},"bonus":0.920000000000001},{"rt":1156.699999999255,"stimulus":"bees-with-color/bee-A1DM.svg","response":0,"trial_type":"image-button-response","trial_index":127,"time_elapsed":693744,"internal_node_id":"0.0-4.0-0.60","subject_id":"614a7b0e7bf360668da0617b","study_id":"60edd13110225f80f9f3709b","session_id":"6196c707b0a02cde2d598059","condition":"contingent","relevant_dimensions":["pattern","legs"],"bee_group":{"antennae":"X","wings":"X","pattern":"D","legs":"F"},"action":"harvest","summary":"good-harvest","bonus":0.920000000000001},{"rt":954.4000000003725,"stimulus":"\n                    <p><b>Action: <em>harvest</em></b></p>\n                    <p>This is the bee that you just saw.</p>\n                    <img src=\"bees-with-color/bee-A1DM.svg\" width=\"200\">\n                    <p><span class=\"greenText\"><b>Successful harvest!</b></span><br>Your pay has increased by $0.02. Your bonus pay is now $0.56.</p>\n            ","response":0,"trial_type":"html-button-response","trial_index":128,"time_elapsed":694701,"internal_node_id":"0.0-4.0-1.60","subject_id":"614a7b0e7bf360668da0617b","study_id":"60edd13110225f80f9f3709b","session_id":"6196c707b0a02cde2d598059","condition":"contingent","relevant_dimensions":["pattern","legs"],"bee_group":{"antennae":"X","wings":"X","pattern":"D","legs":"F"},"bonus":0.920000000000001},{"rt":1899.7000000011176,"stimulus":"bees-with-color/bee-A1SM.svg","response":0,"trial_type":"image-button-response","trial_index":129,"time_elapsed":696602,"internal_node_id":"0.0-4.0-0.61","subject_id":"614a7b0e7bf360668da0617b","study_id":"60edd13110225f80f9f3709b","session_id":"6196c707b0a02cde2d598059","condition":"contingent","relevant_dimensions":["pattern","legs"],"bee_group":{"antennae":"X","wings":"X","pattern":"D","legs":"F"},"action":"harvest","summary":"good-harvest","bonus":0.920000000000001},{"rt":954.2000000011176,"stimulus":"\n                    <p><b>Action: <em>harvest</em></b></p>\n                    <p>This is the bee that you just saw.</p>\n                    <img src=\"bees-with-color/bee-A1SM.svg\" width=\"200\">\n                    <p><span class=\"greenText\"><b>Successful harvest!</b></span><br>Your pay has increased by $0.02. Your bonus pay is now $0.58.</p>\n            ","response":0,"trial_type":"html-button-response","trial_index":130,"time_elapsed":697558,"internal_node_id":"0.0-4.0-1.61","subject_id":"614a7b0e7bf360668da0617b","study_id":"60edd13110225f80f9f3709b","session_id":"6196c707b0a02cde2d598059","condition":"contingent","relevant_dimensions":["pattern","legs"],"bee_group":{"antennae":"X","wings":"X","pattern":"D","legs":"F"},"bonus":0.920000000000001},{"rt":1505.7999999988824,"stimulus":"bees-with-color/bee-A2DM.svg","response":0,"trial_type":"image-button-response","trial_index":131,"time_elapsed":699066,"internal_node_id":"0.0-4.0-0.62","subject_id":"614a7b0e7bf360668da0617b","study_id":"60edd13110225f80f9f3709b","session_id":"6196c707b0a02cde2d598059","condition":"contingent","relevant_dimensions":["pattern","legs"],"bee_group":{"antennae":"X","wings":"X","pattern":"D","legs":"F"},"action":"harvest","summary":"good-harvest","bonus":0.920000000000001},{"rt":1291.5999999996275,"stimulus":"\n                    <p><b>Action: <em>harvest</em></b></p>\n                    <p>This is the bee that you just saw.</p>\n                    <img src=\"bees-with-color/bee-A2DM.svg\" width=\"200\">\n                    <p><span class=\"greenText\"><b>Successful harvest!</b></span><br>Your pay has increased by $0.02. Your bonus pay is now $0.60.</p>\n            ","response":0,"trial_type":"html-button-response","trial_index":132,"time_elapsed":700359,"internal_node_id":"0.0-4.0-1.62","subject_id":"614a7b0e7bf360668da0617b","study_id":"60edd13110225f80f9f3709b","session_id":"6196c707b0a02cde2d598059","condition":"contingent","relevant_dimensions":["pattern","legs"],"bee_group":{"antennae":"X","wings":"X","pattern":"D","legs":"F"},"bonus":0.920000000000001},{"rt":3373.699999999255,"stimulus":"bees-with-color/bee-B2SF.svg","response":1,"trial_type":"image-button-response","trial_index":133,"time_elapsed":703734,"internal_node_id":"0.0-4.0-0.63","subject_id":"614a7b0e7bf360668da0617b","study_id":"60edd13110225f80f9f3709b","session_id":"6196c707b0a02cde2d598059","condition":"contingent","relevant_dimensions":["pattern","legs"],"bee_group":{"antennae":"X","wings":"X","pattern":"D","legs":"F"},"action":"avoid","summary":"bad-avoid","bonus":0.920000000000001},{"rt":819.1999999992549,"stimulus":"\n                    <p><b>Action: <em>avoid</em></b></p>\n                    <p>This is the bee that you just saw.</p>\n                    <img src=\"bees-with-color/bee-B2SF.svg\" width=\"200\">\n                    <p><br>Your bonus pay is unchanged, and remains at $0.60.</p>\n            ","response":0,"trial_type":"html-button-response","trial_index":134,"time_elapsed":704556,"internal_node_id":"0.0-4.0-1.63","subject_id":"614a7b0e7bf360668da0617b","study_id":"60edd13110225f80f9f3709b","session_id":"6196c707b0a02cde2d598059","condition":"contingent","relevant_dimensions":["pattern","legs"],"bee_group":{"antennae":"X","wings":"X","pattern":"D","legs":"F"},"bonus":0.920000000000001},{"rt":5546.0999999996275,"stimulus":"You have completed the first part of this experiment.<br><br>You will now begin a shorter second part, in which you will receive no feedback.<br>The same rules regarding bonus pay apply.<br><br>Press any key to begin.","response":" ","trial_type":"html-keyboard-response","trial_index":135,"time_elapsed":710104,"internal_node_id":"0.0-5.0","subject_id":"614a7b0e7bf360668da0617b","study_id":"60edd13110225f80f9f3709b","session_id":"6196c707b0a02cde2d598059","condition":"contingent","relevant_dimensions":["pattern","legs"],"bee_group":{"antennae":"X","wings":"X","pattern":"D","legs":"F"},"bonus":0.920000000000001},{"rt":6191.300000000745,"stimulus":"bees-with-color/bee-B1DF.svg","response":1,"trial_type":"image-button-response","trial_index":136,"time_elapsed":716312,"internal_node_id":"0.0-6.0-0.0","subject_id":"614a7b0e7bf360668da0617b","study_id":"60edd13110225f80f9f3709b","session_id":"6196c707b0a02cde2d598059","condition":"contingent","relevant_dimensions":["pattern","legs"],"bee_group":{"antennae":"X","wings":"X","pattern":"D","legs":"F"},"bonus":0.920000000000001},{"rt":1538.1000000014901,"stimulus":"bees-with-color/bee-A2SM.svg","response":0,"trial_type":"image-button-response","trial_index":137,"time_elapsed":717853,"internal_node_id":"0.0-6.0-0.1","subject_id":"614a7b0e7bf360668da0617b","study_id":"60edd13110225f80f9f3709b","session_id":"6196c707b0a02cde2d598059","condition":"contingent","relevant_dimensions":["pattern","legs"],"bee_group":{"antennae":"X","wings":"X","pattern":"D","legs":"F"},"bonus":0.920000000000001},{"rt":1685,"stimulus":"bees-with-color/bee-A2DM.svg","response":0,"trial_type":"image-button-response","trial_index":138,"time_elapsed":719541,"internal_node_id":"0.0-6.0-0.2","subject_id":"614a7b0e7bf360668da0617b","study_id":"60edd13110225f80f9f3709b","session_id":"6196c707b0a02cde2d598059","condition":"contingent","relevant_dimensions":["pattern","legs"],"bee_group":{"antennae":"X","wings":"X","pattern":"D","legs":"F"},"bonus":0.920000000000001},{"rt":1786,"stimulus":"bees-with-color/bee-A1DM.svg","response":0,"trial_type":"image-button-response","trial_index":139,"time_elapsed":721330,"internal_node_id":"0.0-6.0-0.3","subject_id":"614a7b0e7bf360668da0617b","study_id":"60edd13110225f80f9f3709b","session_id":"6196c707b0a02cde2d598059","condition":"contingent","relevant_dimensions":["pattern","legs"],"bee_group":{"antennae":"X","wings":"X","pattern":"D","legs":"F"},"bonus":0.920000000000001},{"rt":2461.0999999996275,"stimulus":"bees-with-color/bee-B2SM.svg","response":0,"trial_type":"image-button-response","trial_index":140,"time_elapsed":723793,"internal_node_id":"0.0-6.0-0.4","subject_id":"614a7b0e7bf360668da0617b","study_id":"60edd13110225f80f9f3709b","session_id":"6196c707b0a02cde2d598059","condition":"contingent","relevant_dimensions":["pattern","legs"],"bee_group":{"antennae":"X","wings":"X","pattern":"D","legs":"F"},"bonus":0.920000000000001},{"rt":3237.5,"stimulus":"bees-with-color/bee-A2DF.svg","response":1,"trial_type":"image-button-response","trial_index":141,"time_elapsed":727034,"internal_node_id":"0.0-6.0-0.5","subject_id":"614a7b0e7bf360668da0617b","study_id":"60edd13110225f80f9f3709b","session_id":"6196c707b0a02cde2d598059","condition":"contingent","relevant_dimensions":["pattern","legs"],"bee_group":{"antennae":"X","wings":"X","pattern":"D","legs":"F"},"bonus":0.920000000000001},{"rt":2348.199999999255,"stimulus":"bees-with-color/bee-B1DM.svg","response":0,"trial_type":"image-button-response","trial_index":142,"time_elapsed":729385,"internal_node_id":"0.0-6.0-0.6","subject_id":"614a7b0e7bf360668da0617b","study_id":"60edd13110225f80f9f3709b","session_id":"6196c707b0a02cde2d598059","condition":"contingent","relevant_dimensions":["pattern","legs"],"bee_group":{"antennae":"X","wings":"X","pattern":"D","legs":"F"},"bonus":0.920000000000001},{"rt":8502.299999998882,"stimulus":"bees-with-color/bee-A1SF.svg","response":1,"trial_type":"image-button-response","trial_index":143,"time_elapsed":737890,"internal_node_id":"0.0-6.0-0.7","subject_id":"614a7b0e7bf360668da0617b","study_id":"60edd13110225f80f9f3709b","session_id":"6196c707b0a02cde2d598059","condition":"contingent","relevant_dimensions":["pattern","legs"],"bee_group":{"antennae":"X","wings":"X","pattern":"D","legs":"F"},"bonus":0.920000000000001},{"rt":1875.5,"stimulus":"bees-with-color/bee-B1SM.svg","response":0,"trial_type":"image-button-response","trial_index":144,"time_elapsed":739768,"internal_node_id":"0.0-6.0-0.8","subject_id":"614a7b0e7bf360668da0617b","study_id":"60edd13110225f80f9f3709b","session_id":"6196c707b0a02cde2d598059","condition":"contingent","relevant_dimensions":["pattern","legs"],"bee_group":{"antennae":"X","wings":"X","pattern":"D","legs":"F"},"bonus":0.920000000000001},{"rt":2236.7999999988824,"stimulus":"bees-with-color/bee-A2SF.svg","response":1,"trial_type":"image-button-response","trial_index":145,"time_elapsed":742007,"internal_node_id":"0.0-6.0-0.9","subject_id":"614a7b0e7bf360668da0617b","study_id":"60edd13110225f80f9f3709b","session_id":"6196c707b0a02cde2d598059","condition":"contingent","relevant_dimensions":["pattern","legs"],"bee_group":{"antennae":"X","wings":"X","pattern":"D","legs":"F"},"bonus":0.920000000000001},{"rt":1763.9000000003725,"stimulus":"bees-with-color/bee-A1SM.svg","response":0,"trial_type":"image-button-response","trial_index":146,"time_elapsed":743773,"internal_node_id":"0.0-6.0-0.10","subject_id":"614a7b0e7bf360668da0617b","study_id":"60edd13110225f80f9f3709b","session_id":"6196c707b0a02cde2d598059","condition":"contingent","relevant_dimensions":["pattern","legs"],"bee_group":{"antennae":"X","wings":"X","pattern":"D","legs":"F"},"bonus":0.920000000000001},{"rt":2101.7999999988824,"stimulus":"bees-with-color/bee-B2DF.svg","response":1,"trial_type":"image-button-response","trial_index":147,"time_elapsed":745877,"internal_node_id":"0.0-6.0-0.11","subject_id":"614a7b0e7bf360668da0617b","study_id":"60edd13110225f80f9f3709b","session_id":"6196c707b0a02cde2d598059","condition":"contingent","relevant_dimensions":["pattern","legs"],"bee_group":{"antennae":"X","wings":"X","pattern":"D","legs":"F"},"bonus":0.920000000000001},{"rt":2304.199999999255,"stimulus":"bees-with-color/bee-B1SF.svg","response":1,"trial_type":"image-button-response","trial_index":148,"time_elapsed":748184,"internal_node_id":"0.0-6.0-0.12","subject_id":"614a7b0e7bf360668da0617b","study_id":"60edd13110225f80f9f3709b","session_id":"6196c707b0a02cde2d598059","condition":"contingent","relevant_dimensions":["pattern","legs"],"bee_group":{"antennae":"X","wings":"X","pattern":"D","legs":"F"},"bonus":0.920000000000001},{"rt":3676.5,"stimulus":"bees-with-color/bee-A1DF.svg","response":1,"trial_type":"image-button-response","trial_index":149,"time_elapsed":751862,"internal_node_id":"0.0-6.0-0.13","subject_id":"614a7b0e7bf360668da0617b","study_id":"60edd13110225f80f9f3709b","session_id":"6196c707b0a02cde2d598059","condition":"contingent","relevant_dimensions":["pattern","legs"],"bee_group":{"antennae":"X","wings":"X","pattern":"D","legs":"F"},"bonus":0.920000000000001},{"rt":1234.6000000014901,"stimulus":"bees-with-color/bee-B2SF.svg","response":1,"trial_type":"image-button-response","trial_index":150,"time_elapsed":753100,"internal_node_id":"0.0-6.0-0.14","subject_id":"614a7b0e7bf360668da0617b","study_id":"60edd13110225f80f9f3709b","session_id":"6196c707b0a02cde2d598059","condition":"contingent","relevant_dimensions":["pattern","legs"],"bee_group":{"antennae":"X","wings":"X","pattern":"D","legs":"F"},"bonus":0.920000000000001},{"rt":987.9000000003725,"stimulus":"bees-with-color/bee-B2DM.svg","response":0,"trial_type":"image-button-response","trial_index":151,"time_elapsed":754090,"internal_node_id":"0.0-6.0-0.15","subject_id":"614a7b0e7bf360668da0617b","study_id":"60edd13110225f80f9f3709b","session_id":"6196c707b0a02cde2d598059","condition":"contingent","relevant_dimensions":["pattern","legs"],"bee_group":{"antennae":"X","wings":"X","pattern":"D","legs":"F"},"bonus":0.920000000000001},{"rt":3294,"stimulus":"bees-with-color/bee-A2DF.svg","response":1,"trial_type":"image-button-response","trial_index":152,"time_elapsed":757386,"internal_node_id":"0.0-6.0-0.16","subject_id":"614a7b0e7bf360668da0617b","study_id":"60edd13110225f80f9f3709b","session_id":"6196c707b0a02cde2d598059","condition":"contingent","relevant_dimensions":["pattern","legs"],"bee_group":{"antennae":"X","wings":"X","pattern":"D","legs":"F"},"bonus":0.920000000000001},{"rt":987.8000000007451,"stimulus":"bees-with-color/bee-A2DM.svg","response":0,"trial_type":"image-button-response","trial_index":153,"time_elapsed":758376,"internal_node_id":"0.0-6.0-0.17","subject_id":"614a7b0e7bf360668da0617b","study_id":"60edd13110225f80f9f3709b","session_id":"6196c707b0a02cde2d598059","condition":"contingent","relevant_dimensions":["pattern","legs"],"bee_group":{"antennae":"X","wings":"X","pattern":"D","legs":"F"},"bonus":0.920000000000001},{"rt":1145.4000000003725,"stimulus":"bees-with-color/bee-B1DM.svg","response":0,"trial_type":"image-button-response","trial_index":154,"time_elapsed":759524,"internal_node_id":"0.0-6.0-0.18","subject_id":"614a7b0e7bf360668da0617b","study_id":"60edd13110225f80f9f3709b","session_id":"6196c707b0a02cde2d598059","condition":"contingent","relevant_dimensions":["pattern","legs"],"bee_group":{"antennae":"X","wings":"X","pattern":"D","legs":"F"},"bonus":0.920000000000001},{"rt":2259.39999999851,"stimulus":"bees-with-color/bee-A1DM.svg","response":0,"trial_type":"image-button-response","trial_index":155,"time_elapsed":761785,"internal_node_id":"0.0-6.0-0.19","subject_id":"614a7b0e7bf360668da0617b","study_id":"60edd13110225f80f9f3709b","session_id":"6196c707b0a02cde2d598059","condition":"contingent","relevant_dimensions":["pattern","legs"],"bee_group":{"antennae":"X","wings":"X","pattern":"D","legs":"F"},"bonus":0.920000000000001},{"rt":1055.9000000003725,"stimulus":"bees-with-color/bee-B1SM.svg","response":0,"trial_type":"image-button-response","trial_index":156,"time_elapsed":762842,"internal_node_id":"0.0-6.0-0.20","subject_id":"614a7b0e7bf360668da0617b","study_id":"60edd13110225f80f9f3709b","session_id":"6196c707b0a02cde2d598059","condition":"contingent","relevant_dimensions":["pattern","legs"],"bee_group":{"antennae":"X","wings":"X","pattern":"D","legs":"F"},"bonus":0.920000000000001},{"rt":2540.800000000745,"stimulus":"bees-with-color/bee-A1SM.svg","response":0,"trial_type":"image-button-response","trial_index":157,"time_elapsed":765385,"internal_node_id":"0.0-6.0-0.21","subject_id":"614a7b0e7bf360668da0617b","study_id":"60edd13110225f80f9f3709b","session_id":"6196c707b0a02cde2d598059","condition":"contingent","relevant_dimensions":["pattern","legs"],"bee_group":{"antennae":"X","wings":"X","pattern":"D","legs":"F"},"bonus":0.920000000000001},{"rt":1168,"stimulus":"bees-with-color/bee-B2SF.svg","response":1,"trial_type":"image-button-response","trial_index":158,"time_elapsed":766555,"internal_node_id":"0.0-6.0-0.22","subject_id":"614a7b0e7bf360668da0617b","study_id":"60edd13110225f80f9f3709b","session_id":"6196c707b0a02cde2d598059","condition":"contingent","relevant_dimensions":["pattern","legs"],"bee_group":{"antennae":"X","wings":"X","pattern":"D","legs":"F"},"bonus":0.920000000000001},{"rt":976.5999999996275,"stimulus":"bees-with-color/bee-B1DF.svg","response":1,"trial_type":"image-button-response","trial_index":159,"time_elapsed":767534,"internal_node_id":"0.0-6.0-0.23","subject_id":"614a7b0e7bf360668da0617b","study_id":"60edd13110225f80f9f3709b","session_id":"6196c707b0a02cde2d598059","condition":"contingent","relevant_dimensions":["pattern","legs"],"bee_group":{"antennae":"X","wings":"X","pattern":"D","legs":"F"},"bonus":0.920000000000001},{"rt":1089.699999999255,"stimulus":"bees-with-color/bee-B1SF.svg","response":1,"trial_type":"image-button-response","trial_index":160,"time_elapsed":768625,"internal_node_id":"0.0-6.0-0.24","subject_id":"614a7b0e7bf360668da0617b","study_id":"60edd13110225f80f9f3709b","session_id":"6196c707b0a02cde2d598059","condition":"contingent","relevant_dimensions":["pattern","legs"],"bee_group":{"antennae":"X","wings":"X","pattern":"D","legs":"F"},"bonus":0.920000000000001},{"rt":2923.0999999996275,"stimulus":"bees-with-color/bee-A1DF.svg","response":1,"trial_type":"image-button-response","trial_index":161,"time_elapsed":771550,"internal_node_id":"0.0-6.0-0.25","subject_id":"614a7b0e7bf360668da0617b","study_id":"60edd13110225f80f9f3709b","session_id":"6196c707b0a02cde2d598059","condition":"contingent","relevant_dimensions":["pattern","legs"],"bee_group":{"antennae":"X","wings":"X","pattern":"D","legs":"F"},"bonus":0.920000000000001},{"rt":3215.2999999988824,"stimulus":"bees-with-color/bee-A2SF.svg","response":1,"trial_type":"image-button-response","trial_index":162,"time_elapsed":774768,"internal_node_id":"0.0-6.0-0.26","subject_id":"614a7b0e7bf360668da0617b","study_id":"60edd13110225f80f9f3709b","session_id":"6196c707b0a02cde2d598059","condition":"contingent","relevant_dimensions":["pattern","legs"],"bee_group":{"antennae":"X","wings":"X","pattern":"D","legs":"F"},"bonus":0.920000000000001},{"rt":1247.0999999996275,"stimulus":"bees-with-color/bee-B2DM.svg","response":0,"trial_type":"image-button-response","trial_index":163,"time_elapsed":776016,"internal_node_id":"0.0-6.0-0.27","subject_id":"614a7b0e7bf360668da0617b","study_id":"60edd13110225f80f9f3709b","session_id":"6196c707b0a02cde2d598059","condition":"contingent","relevant_dimensions":["pattern",