[{"success":true,"trial_type":"fullscreen","trial_index":0,"time_elapsed":7113,"internal_node_id":"0.0-0.0","subject_id":"61758e857911e6827ce69fbe","study_id":"6197b3f67c2b5cd3b6d9596a","session_id":"6197ca0fc14cc19cdbef8b2c","condition":"full-information","relevant_dimensions":["wings","legs"],"bee_group":{"antennae":"X","wings":"1","pattern":"X","legs":"F"},"bonus":1.2800000000000011},{"success":true,"timeout":false,"failed_images":[],"failed_audio":[],"failed_video":[],"trial_type":"preload","trial_index":1,"time_elapsed":10201,"internal_node_id":"0.0-1.0","subject_id":"61758e857911e6827ce69fbe","study_id":"6197b3f67c2b5cd3b6d9596a","session_id":"6197ca0fc14cc19cdbef8b2c","condition":"full-information","relevant_dimensions":["wings","legs"],"bee_group":{"antennae":"X","wings":"1","pattern":"X","legs":"F"},"bonus":1.2800000000000011},{"rt":4831.79999999702,"stimulus":"Welcome! Press any key to begin.","response":"f","trial_type":"html-keyboard-response","trial_index":2,"time_elapsed":15035,"internal_node_id":"0.0-2.0","subject_id":"61758e857911e6827ce69fbe","study_id":"6197b3f67c2b5cd3b6d9596a","session_id":"6197ca0fc14cc19cdbef8b2c","condition":"full-information","relevant_dimensions":["wings","legs"],"bee_group":{"antennae":"X","wings":"1","pattern":"X","legs":"F"},"bonus":1.2800000000000011},{"view_history":[{"page_index":0,"viewing_time":3939.2999999970198},{"page_index":1,"viewing_time":9861.29999999702},{"page_index":2,"viewing_time":8442.29999999702},{"page_index":3,"viewing_time":12357.5},{"page_index":4,"viewing_time":6190.600000008941},{"page_index":5,"viewing_time":3414.2999999970198},{"page_index":6,"viewing_time":5689.79999999702},{"page_index":7,"viewing_time":2678.0999999940395},{"page_index":6,"viewing_time":1307.7000000029802},{"page_index":7,"viewing_time":2762.5},{"page_index":8,"viewing_time":3609.7999999970198},{"page_index":9,"viewing_time":1983.9000000059605},{"page_index":10,"viewing_time":1956},{"page_index":11,"viewing_time":5537.9000000059605},{"page_index":12,"viewing_time":4902.199999988079},{"page_index":13,"viewing_time":1065.800000011921},{"page_index":14,"viewing_time":1684}],"rt":77383.39999999106,"trial_type":"instructions","trial_index":3,"time_elapsed":92419,"internal_node_id":"0.0-3.0-0.0","subject_id":"61758e857911e6827ce69fbe","study_id":"6197b3f67c2b5cd3b6d9596a","session_id":"6197ca0fc14cc19cdbef8b2c","condition":"full-information","relevant_dimensions":["wings","legs"],"bee_group":{"antennae":"X","wings":"1","pattern":"X","legs":"F"},"bonus":1.2800000000000011},{"rt":10748.60000000894,"response":{"Q0":["Two or six legs","Stripes or spots on body","Single or double wings","Antennae or no antennae"]},"question_order":[0],"trial_type":"survey-multi-select","trial_index":4,"time_elapsed":103174,"internal_node_id":"0.0-3.0-1.0","subject_id":"61758e857911e6827ce69fbe","study_id":"6197b3f67c2b5cd3b6d9596a","session_id":"6197ca0fc14cc19cdbef8b2c","condition":"full-information","relevant_dimensions":["wings","legs"],"bee_group":{"antennae":"X","wings":"1","pattern":"X","legs":"F"},"correct":true,"bonus":1.2800000000000011},{"rt":14720.89999999106,"response":{"Q1":"No.","Q2":"Based on the four features of the bee.","Q3":"You learn if it was friendly or dangerous, but do not alter your bonus."},"question_order":[0,1,2],"trial_type":"survey-multi-choice","trial_index":5,"time_elapsed":117898,"internal_node_id":"0.0-3.0-2.0","subject_id":"61758e857911e6827ce69fbe","study_id":"6197b3f67c2b5cd3b6d9596a","session_id":"6197ca0fc14cc19cdbef8b2c","condition":"full-information","relevant_dimensions":["wings","legs"],"bee_group":{"antennae":"X","wings":"1","pattern":"X","legs":"F"},"correct":true,"bonus":1.2800000000000011},{"rt":2431,"stimulus":"<p>Congrats, you got everything right<br>When you're ready, click the button below to continue to the experiment.</p>","response":0,"trial_type":"html-button-response","trial_index":6,"time_elapsed":120332,"internal_node_id":"0.0-3.0-3.0","subject_id":"61758e857911e6827ce69fbe","study_id":"6197b3f67c2b5cd3b6d9596a","session_id":"6197ca0fc14cc19cdbef8b2c","condition":"full-information","relevant_dimensions":["wings","legs"],"bee_group":{"antennae":"X","wings":"1","pattern":"X","legs":"F"},"bonus":1.2800000000000011},{"rt":5281.100000008941,"stimulus":"bees-with-color/bee-B2SF.svg","response":0,"trial_type":"image-button-response","trial_index":7,"time_elapsed":125616,"internal_node_id":"0.0-4.0-0.0","subject_id":"61758e857911e6827ce69fbe","study_id":"6197b3f67c2b5cd3b6d9596a","session_id":"6197ca0fc14cc19cdbef8b2c","condition":"full-information","relevant_dimensions":["wings","legs"],"bee_group":{"antennae":"X","wings":"1","pattern":"X","legs":"F"},"action":"harvest","summary":"good-harvest","bonus":1.2800000000000011},{"rt":4236.5999999940395,"stimulus":"\n                    <p><b>Action: <em>harvest</em></b></p>\n                    <p>This is the bee that you just saw.</p>\n                    <img src=\"bees-with-color/bee-B2SF.svg\" width=\"200\">\n                    <p><span class=\"greenText\"><b>Successful harvest!</b></span><br>Your pay has increased by $0.02. Your bonus pay is now $0.56.</p>\n            ","response":0,"trial_type":"html-button-response","trial_index":8,"time_elapsed":129856,"internal_node_id":"0.0-4.0-1.0","subject_id":"61758e857911e6827ce69fbe","study_id":"6197b3f67c2b5cd3b6d9596a","session_id":"6197ca0fc14cc19cdbef8b2c","condition":"full-information","relevant_dimensions":["wings","legs"],"bee_group":{"antennae":"X","wings":"1","pattern":"X","legs":"F"},"bonus":1.2800000000000011},{"rt":1629.2999999970198,"stimulus":"bees-with-color/bee-B1DM.svg","response":1,"trial_type":"image-button-response","trial_index":9,"time_elapsed":131487,"internal_node_id":"0.0-4.0-0.1","subject_id":"61758e857911e6827ce69fbe","study_id":"6197b3f67c2b5cd3b6d9596a","session_id":"6197ca0fc14cc19cdbef8b2c","condition":"full-information","relevant_dimensions":["wings","legs"],"bee_group":{"antennae":"X","wings":"1","pattern":"X","legs":"F"},"action":"avoid","summary":"bad-avoid","bonus":1.2800000000000011},{"rt":3646.7999999970198,"stimulus":"\n                    <p><b>Action: <em>avoid</em></b></p>\n                    <p>This is the bee that you just saw.</p>\n                    <img src=\"bees-with-color/bee-B1DM.svg\" width=\"200\">\n                    <p><span class=\"redText\">Bad choice,</span> the bee was friendly.<br>Your bonus pay is unchanged, and remains at $0.56.</p>\n            ","response":0,"trial_type":"html-button-response","trial_index":10,"time_elapsed":135135,"internal_node_id":"0.0-4.0-1.1","subject_id":"61758e857911e6827ce69fbe","study_id":"6197b3f67c2b5cd3b6d9596a","session_id":"6197ca0fc14cc19cdbef8b2c","condition":"full-information","relevant_dimensions":["wings","legs"],"bee_group":{"antennae":"X","wings":"1","pattern":"X","legs":"F"},"bonus":1.2800000000000011},{"rt":1819,"stimulus":"bees-with-color/bee-A1SF.svg","response":0,"trial_type":"image-button-response","trial_index":11,"time_elapsed":136957,"internal_node_id":"0.0-4.0-0.2","subject_id":"61758e857911e6827ce69fbe","study_id":"6197b3f67c2b5cd3b6d9596a","session_id":"6197ca0fc14cc19cdbef8b2c","condition":"full-information","relevant_dimensions":["wings","legs"],"bee_group":{"antennae":"X","wings":"1","pattern":"X","legs":"F"},"action":"harvest","summary":"bad-harvest","bonus":1.2800000000000011},{"rt":2750.800000011921,"stimulus":"\n                    <p><b>Action: <em>harvest</em></b></p>\n                    <p>This is the bee that you just saw.</p>\n                    <img src=\"bees-with-color/bee-A1SF.svg\" width=\"200\">\n                    <p><span class=\"redText\">Bad choice, the bee was angry.</span><br><b>You have been stung!</b><br>Your pay has been decreased by $0.10. Your bonus pay is now $0.46.</p>\n            ","response":0,"trial_type":"html-button-response","trial_index":12,"time_elapsed":139709,"internal_node_id":"0.0-4.0-1.2","subject_id":"61758e857911e6827ce69fbe","study_id":"6197b3f67c2b5cd3b6d9596a","session_id":"6197ca0fc14cc19cdbef8b2c","condition":"full-information","relevant_dimensions":["wings","legs"],"bee_group":{"antennae":"X","wings":"1","pattern":"X","legs":"F"},"bonus":1.2800000000000011},{"rt":3232.9000000059605,"stimulus":"bees-with-color/bee-A1SM.svg","response":0,"trial_type":"image-button-response","trial_index":13,"time_elapsed":142944,"internal_node_id":"0.0-4.0-0.3","subject_id":"61758e857911e6827ce69fbe","study_id":"6197b3f67c2b5cd3b6d9596a","session_id":"6197ca0fc14cc19cdbef8b2c","condition":"full-information","relevant_dimensions":["wings","legs"],"bee_group":{"antennae":"X","wings":"1","pattern":"X","legs":"F"},"action":"harvest","summary":"good-harvest","bonus":1.2800000000000011},{"rt":1214.8999999910593,"stimulus":"\n                    <p><b>Action: <em>harvest</em></b></p>\n                    <p>This is the bee that you just saw.</p>\n                    <img src=\"bees-with-color/bee-A1SM.svg\" width=\"200\">\n                    <p><span class=\"greenText\"><b>Successful harvest!</b></span><br>Your pay has increased by $0.02. Your bonus pay is now $0.48.</p>\n            ","response":0,"trial_type":"html-button-response","trial_index":14,"time_elapsed":144161,"internal_node_id":"0.0-4.0-1.3","subject_id":"61758e857911e6827ce69fbe","study_id":"6197b3f67c2b5cd3b6d9596a","session_id":"6197ca0fc14cc19cdbef8b2c","condition":"full-information","relevant_dimensions":["wings","legs"],"bee_group":{"antennae":"X","wings":"1","pattern":"X","legs":"F"},"bonus":1.2800000000000011},{"rt":2044.2000000029802,"stimulus":"bees-with-color/bee-A2SM.svg","response":1,"trial_type":"image-button-response","trial_index":15,"time_elapsed":146208,"internal_node_id":"0.0-4.0-0.4","subject_id":"61758e857911e6827ce69fbe","study_id":"6197b3f67c2b5cd3b6d9596a","session_id":"6197ca0fc14cc19cdbef8b2c","condition":"full-information","relevant_dimensions":["wings","legs"],"bee_group":{"antennae":"X","wings":"1","pattern":"X","legs":"F"},"action":"avoid","summary":"bad-avoid","bonus":1.2800000000000011},{"rt":1421,"stimulus":"\n                    <p><b>Action: <em>avoid</em></b></p>\n                    <p>This is the bee that you just saw.</p>\n                    <img src=\"bees-with-color/bee-A2SM.svg\" width=\"200\">\n                    <p><span class=\"redText\">Bad choice,</span> the bee was friendly.<br>Your bonus pay is unchanged, and remains at $0.48.</p>\n            ","response":0,"trial_type":"html-button-response","trial_index":16,"time_elapsed":147632,"internal_node_id":"0.0-4.0-1.4","subject_id":"61758e857911e6827ce69fbe","study_id":"6197b3f67c2b5cd3b6d9596a","session_id":"6197ca0fc14cc19cdbef8b2c","condition":"full-information","relevant_dimensions":["wings","legs"],"bee_group":{"antennae":"X","wings":"1","pattern":"X","legs":"F"},"bonus":1.2800000000000011},{"rt":1327.5999999940395,"stimulus":"bees-with-color/bee-B1DF.svg","response":1,"trial_type":"image-button-response","trial_index":17,"time_elapsed":148961,"internal_node_id":"0.0-4.0-0.5","subject_id":"61758e857911e6827ce69fbe","study_id":"6197b3f67c2b5cd3b6d9596a","session_id":"6197ca0fc14cc19cdbef8b2c","condition":"full-information","relevant_dimensions":["wings","legs"],"bee_group":{"antennae":"X","wings":"1","pattern":"X","legs":"F"},"action":"avoid","summary":"good-avoid","bonus":1.2800000000000011},{"rt":1693.2999999970198,"stimulus":"\n                    <p><b>Action: <em>avoid</em></b></p>\n                    <p>This is the bee that you just saw.</p>\n                    <img src=\"bees-with-color/bee-B1DF.svg\" width=\"200\">\n                    <p><span class=\"greenText\">Good choice!</span>  This bee would have stung you.<br>Your bonus pay is unchanged, and remains at $0.48.</p>\n            ","response":0,"trial_type":"html-button-response","trial_index":18,"time_elapsed":150656,"internal_node_id":"0.0-4.0-1.5","subject_id":"61758e857911e6827ce69fbe","study_id":"6197b3f67c2b5cd3b6d9596a","session_id":"6197ca0fc14cc19cdbef8b2c","condition":"full-information","relevant_dimensions":["wings","legs"],"bee_group":{"antennae":"X","wings":"1","pattern":"X","legs":"F"},"bonus":1.2800000000000011},{"rt":1059.2999999970198,"stimulus":"bees-with-color/bee-B2SM.svg","response":0,"trial_type":"image-button-response","trial_index":19,"time_elapsed":151718,"internal_node_id":"0.0-4.0-0.6","subject_id":"61758e857911e6827ce69fbe","study_id":"6197b3f67c2b5cd3b6d9596a","session_id":"6197ca0fc14cc19cdbef8b2c","condition":"full-information","relevant_dimensions":["wings","legs"],"bee_group":{"antennae":"X","wings":"1","pattern":"X","legs":"F"},"action":"harvest","summary":"good-harvest","bonus":1.2800000000000011},{"rt":1087.9000000059605,"stimulus":"\n                    <p><b>Action: <em>harvest</em></b></p>\n                    <p>This is the bee that you just saw.</p>\n                    <img src=\"bees-with-color/bee-B2SM.svg\" width=\"200\">\n                    <p><span class=\"greenText\"><b>Successful harvest!</b></span><br>Your pay has increased by $0.02. Your bonus pay is now $0.50.</p>\n            ","response":0,"trial_type":"html-button-response","trial_index":20,"time_elapsed":152808,"internal_node_id":"0.0-4.0-1.6","subject_id":"61758e857911e6827ce69fbe","study_id":"6197b3f67c2b5cd3b6d9596a","session_id":"6197ca0fc14cc19cdbef8b2c","condition":"full-information","relevant_dimensions":["wings","legs"],"bee_group":{"antennae":"X","wings":"1","pattern":"X","legs":"F"},"bonus":1.2800000000000011},{"rt":1171.9000000059605,"stimulus":"bees-with-color/bee-A2SF.svg","response":0,"trial_type":"image-button-response","trial_index":21,"time_elapsed":153982,"internal_node_id":"0.0-4.0-0.7","subject_id":"61758e857911e6827ce69fbe","study_id":"6197b3f67c2b5cd3b6d9596a","session_id":"6197ca0fc14cc19cdbef8b2c","condition":"full-information","relevant_dimensions":["wings","legs"],"bee_group":{"antennae":"X","wings":"1","pattern":"X","legs":"F"},"action":"harvest","summary":"good-harvest","bonus":1.2800000000000011},{"rt":1564,"stimulus":"\n                    <p><b>Action: <em>harvest</em></b></p>\n                    <p>This is the bee that you just saw.</p>\n                    <img src=\"bees-with-color/bee-A2SF.svg\" width=\"200\">\n                    <p><span class=\"greenText\"><b>Successful harvest!</b></span><br>Your pay has increased by $0.02. Your bonus pay is now $0.52.</p>\n            ","response":0,"trial_type":"html-button-response","trial_index":22,"time_elapsed":155548,"internal_node_id":"0.0-4.0-1.7","subject_id":"61758e857911e6827ce69fbe","study_id":"6197b3f67c2b5cd3b6d9596a","session_id":"6197ca0fc14cc19cdbef8b2c","condition":"full-information","relevant_dimensions":["wings","legs"],"bee_group":{"antennae":"X","wings":"1","pattern":"X","legs":"F"},"bonus":1.2800000000000011},{"rt":1559.5,"stimulus":"bees-with-color/bee-A2DF.svg","response":1,"trial_type":"image-button-response","trial_index":23,"time_elapsed":157109,"internal_node_id":"0.0-4.0-0.8","subject_id":"61758e857911e6827ce69fbe","study_id":"6197b3f67c2b5cd3b6d9596a","session_id":"6197ca0fc14cc19cdbef8b2c","condition":"full-information","relevant_dimensions":["wings","legs"],"bee_group":{"antennae":"X","wings":"1","pattern":"X","legs":"F"},"action":"avoid","summary":"bad-avoid","bonus":1.2800000000000011},{"rt":970.5,"stimulus":"\n                    <p><b>Action: <em>avoid</em></b></p>\n                    <p>This is the bee that you just saw.</p>\n                    <img src=\"bees-with-color/bee-A2DF.svg\" width=\"200\">\n                    <p><span class=\"redText\">Bad choice,</span> the bee was friendly.<br>Your bonus pay is unchanged, and remains at $0.52.</p>\n            ","response":0,"trial_type":"html-button-response","trial_index":24,"time_elapsed":158081,"internal_node_id":"0.0-4.0-1.8","subject_id":"61758e857911e6827ce69fbe","study_id":"6197b3f67c2b5cd3b6d9596a","session_id":"6197ca0fc14cc19cdbef8b2c","condition":"full-information","relevant_dimensions":["wings","legs"],"bee_group":{"antennae":"X","wings":"1","pattern":"X","legs":"F"},"bonus":1.2800000000000011},{"rt":1626,"stimulus":"bees-with-color/bee-A2DM.svg","response":1,"trial_type":"image-button-response","trial_index":25,"time_elapsed":159709,"internal_node_id":"0.0-4.0-0.9","subject_id":"61758e857911e6827ce69fbe","study_id":"6197b3f67c2b5cd3b6d9596a","session_id":"6197ca0fc14cc19cdbef8b2c","condition":"full-information","relevant_dimensions":["wings","legs"],"bee_group":{"antennae":"X","wings":"1","pattern":"X","legs":"F"},"action":"avoid","summary":"bad-avoid","bonus":1.2800000000000011},{"rt":999.5999999940395,"stimulus":"\n                    <p><b>Action: <em>avoid</em></b></p>\n                    <p>This is the bee that you just saw.</p>\n                    <img src=\"bees-with-color/bee-A2DM.svg\" width=\"200\">\n                    <p><span class=\"redText\">Bad choice,</span> the bee was friendly.<br>Your bonus pay is unchanged, and remains at $0.52.</p>\n            ","response":0,"trial_type":"html-button-response","trial_index":26,"time_elapsed":160709,"internal_node_id":"0.0-4.0-1.9","subject_id":"61758e857911e6827ce69fbe","study_id":"6197b3f67c2b5cd3b6d9596a","session_id":"6197ca0fc14cc19cdbef8b2c","condition":"full-information","relevant_dimensions":["wings","legs"],"bee_group":{"antennae":"X","wings":"1","pattern":"X","legs":"F"},"bonus":1.2800000000000011},{"rt":1198.2999999970198,"stimulus":"bees-with-color/bee-B2DM.svg","response":1,"trial_type":"image-button-response","trial_index":27,"time_elapsed":161909,"internal_node_id":"0.0-4.0-0.10","subject_id":"61758e857911e6827ce69fbe","study_id":"6197b3f67c2b5cd3b6d9596a","session_id":"6197ca0fc14cc19cdbef8b2c","condition":"full-information","relevant_dimensions":["wings","legs"],"bee_group":{"antennae":"X","wings":"1","pattern":"X","legs":"F"},"action":"avoid","summary":"bad-avoid","bonus":1.2800000000000011},{"rt":840.7000000029802,"stimulus":"\n                    <p><b>Action: <em>avoid</em></b></p>\n                    <p>This is the bee that you just saw.</p>\n                    <img src=\"bees-with-color/bee-B2DM.svg\" width=\"200\">\n                    <p><span class=\"redText\">Bad choice,</span> the bee was friendly.<br>Your bonus pay is unchanged, and remains at $0.52.</p>\n            ","response":0,"trial_type":"html-button-response","trial_index":28,"time_elapsed":162751,"internal_node_id":"0.0-4.0-1.10","subject_id":"61758e857911e6827ce69fbe","study_id":"6197b3f67c2b5cd3b6d9596a","session_id":"6197ca0fc14cc19cdbef8b2c","condition":"full-information","relevant_dimensions":["wings","legs"],"bee_group":{"antennae":"X","wings":"1","pattern":"X","legs":"F"},"bonus":1.2800000000000011},{"rt":776.4000000059605,"stimulus":"bees-with-color/bee-A1DM.svg","response":0,"trial_type":"image-button-response","trial_index":29,"time_elapsed":163529,"internal_node_id":"0.0-4.0-0.11","subject_id":"61758e857911e6827ce69fbe","study_id":"6197b3f67c2b5cd3b6d9596a","session_id":"6197ca0fc14cc19cdbef8b2c","condition":"full-information","relevant_dimensions":["wings","legs"],"bee_group":{"antennae":"X","wings":"1","pattern":"X","legs":"F"},"action":"harvest","summary":"good-harvest","bonus":1.2800000000000011},{"rt":826.5,"stimulus":"\n                    <p><b>Action: <em>harvest</em></b></p>\n                    <p>This is the bee that you just saw.</p>\n                    <img src=\"bees-with-color/bee-A1DM.svg\" width=\"200\">\n                    <p><span class=\"greenText\"><b>Successful harvest!</b></span><br>Your pay has increased by $0.02. Your bonus pay is now $0.54.</p>\n            ","response":0,"trial_type":"html-button-response","trial_index":30,"time_elapsed":164357,"internal_node_id":"0.0-4.0-1.11","subject_id":"61758e857911e6827ce69fbe","study_id":"6197b3f67c2b5cd3b6d9596a","session_id":"6197ca0fc14cc19cdbef8b2c","condition":"full-information","relevant_dimensions":["wings","legs"],"bee_group":{"antennae":"X","wings":"1","pattern":"X","legs":"F"},"bonus":1.2800000000000011},{"rt":1298.7000000029802,"stimulus":"bees-with-color/bee-B1SF.svg","response":1,"trial_type":"image-button-response","trial_index":31,"time_elapsed":165657,"internal_node_id":"0.0-4.0-0.12","subject_id":"61758e857911e6827ce69fbe","study_id":"6197b3f67c2b5cd3b6d9596a","session_id":"6197ca0fc14cc19cdbef8b2c","condition":"full-information","relevant_dimensions":["wings","legs"],"bee_group":{"antennae":"X","wings":"1","pattern":"X","legs":"F"},"action":"avoid","summary":"good-avoid","bonus":1.2800000000000011},{"rt":1278.5,"stimulus":"\n                    <p><b>Action: <em>avoid</em></b></p>\n                    <p>This is the bee that you just saw.</p>\n                    <img src=\"bees-with-color/bee-B1SF.svg\" width=\"200\">\n                    <p><span class=\"greenText\">Good choice!</span>  This bee would have stung you.<br>Your bonus pay is unchanged, and remains at $0.54.</p>\n            ","response":0,"trial_type":"html-button-response","trial_index":32,"time_elapsed":166937,"internal_node_id":"0.0-4.0-1.12","subject_id":"61758e857911e6827ce69fbe","study_id":"6197b3f67c2b5cd3b6d9596a","session_id":"6197ca0fc14cc19cdbef8b2c","condition":"full-information","relevant_dimensions":["wings","legs"],"bee_group":{"antennae":"X","wings":"1","pattern":"X","legs":"F"},"bonus":1.2800000000000011},{"rt":1458.7000000029802,"stimulus":"bees-with-color/bee-A1DF.svg","response":0,"trial_type":"image-button-response","trial_index":33,"time_elapsed":168397,"internal_node_id":"0.0-4.0-0.13","subject_id":"61758e857911e6827ce69fbe","study_id":"6197b3f67c2b5cd3b6d9596a","session_id":"6197ca0fc14cc19cdbef8b2c","condition":"full-information","relevant_dimensions":["wings","legs"],"bee_group":{"antennae":"X","wings":"1","pattern":"X","legs":"F"},"action":"harvest","summary":"bad-harvest","bonus":1.2800000000000011},{"rt":1420.2000000029802,"stimulus":"\n                    <p><b>Action: <em>harvest</em></b></p>\n                    <p>This is the bee that you just saw.</p>\n                    <img src=\"bees-with-color/bee-A1DF.svg\" width=\"200\">\n                    <p><span class=\"redText\">Bad choice, the bee was angry.</span><br><b>You have been stung!</b><br>Your pay has been decreased by $0.10. Your bonus pay is now $0.44.</p>\n            ","response":0,"trial_type":"html-button-response","trial_index":34,"time_elapsed":169820,"internal_node_id":"0.0-4.0-1.13","subject_id":"61758e857911e6827ce69fbe","study_id":"6197b3f67c2b5cd3b6d9596a","session_id":"6197ca0fc14cc19cdbef8b2c","condition":"full-information","relevant_dimensions":["wings","legs"],"bee_group":{"antennae":"X","wings":"1","pattern":"X","legs":"F"},"bonus":1.2800000000000011},{"rt":1198.7000000029802,"stimulus":"bees-with-color/bee-B2DF.svg","response":0,"trial_type":"image-button-response","trial_index":35,"time_elapsed":171019,"internal_node_id":"0.0-4.0-0.14","subject_id":"61758e857911e6827ce69fbe","study_id":"6197b3f67c2b5cd3b6d9596a","session_id":"6197ca0fc14cc19cdbef8b2c","condition":"full-information","relevant_dimensions":["wings","legs"],"bee_group":{"antennae":"X","wings":"1","pattern":"X","legs":"F"},"action":"harvest","summary":"good-harvest","bonus":1.2800000000000011},{"rt":934.9000000059605,"stimulus":"\n                    <p><b>Action: <em>harvest</em></b></p>\n                    <p>This is the bee that you just saw.</p>\n                    <img src=\"bees-with-color/bee-B2DF.svg\" width=\"200\">\n                    <p><span class=\"greenText\"><b>Successful harvest!</b></span><br>Your pay has increased by $0.02. Your bonus pay is now $0.46.</p>\n            ","response":0,"trial_type":"html-button-response","trial_index":36,"time_elapsed":171956,"internal_node_id":"0.0-4.0-1.14","subject_id":"61758e857911e6827ce69fbe","study_id":"6197b3f67c2b5cd3b6d9596a","session_id":"6197ca0fc14cc19cdbef8b2c","condition":"full-information","relevant_dimensions":["wings","legs"],"bee_group":{"antennae":"X","wings":"1","pattern":"X","legs":"F"},"bonus":1.2800000000000011},{"rt":1666.0999999940395,"stimulus":"bees-with-color/bee-B1SM.svg","response":0,"trial_type":"image-button-response","trial_index":37,"time_elapsed":173624,"internal_node_id":"0.0-4.0-0.15","subject_id":"61758e857911e6827ce69fbe","study_id":"6197b3f67c2b5cd3b6d9596a","session_id":"6197ca0fc14cc19cdbef8b2c","condition":"full-information","relevant_dimensions":["wings","legs"],"bee_group":{"antennae":"X","wings":"1","pattern":"X","legs":"F"},"action":"harvest","summary":"good-harvest","bonus":1.2800000000000011},{"rt":918.5,"stimulus":"\n                    <p><b>Action: <em>harvest</em></b></p>\n                    <p>This is the bee that you just saw.</p>\n                    <img src=\"bees-with-color/bee-B1SM.svg\" width=\"200\">\n                    <p><span class=\"greenText\"><b>Successful harvest!</b></span><br>Your pay has increased by $0.02. Your bonus pay is now $0.48.</p>\n            ","response":0,"trial_type":"html-button-response","trial_index":38,"time_elapsed":174544,"internal_node_id":"0.0-4.0-1.15","subject_id":"61758e857911e6827ce69fbe","study_id":"6197b3f67c2b5cd3b6d9596a","session_id":"6197ca0fc14cc19cdbef8b2c","condition":"full-information","relevant_dimensions":["wings","legs"],"bee_group":{"antennae":"X","wings":"1","pattern":"X","legs":"F"},"bonus":1.2800000000000011},{"rt":1970,"stimulus":"bees-with-color/bee-A2DF.svg","response":0,"trial_type":"image-button-response","trial_index":39,"time_elapsed":176516,"internal_node_id":"0.0-4.0-0.16","subject_id":"61758e857911e6827ce69fbe","study_id":"6197b3f67c2b5cd3b6d9596a","session_id":"6197ca0fc14cc19cdbef8b2c","condition":"full-information","relevant_dimensions":["wings","legs"],"bee_group":{"antennae":"X","wings":"1","pattern":"X","legs":"F"},"action":"harvest","summary":"good-harvest","bonus":1.2800000000000011},{"rt":732.3999999910593,"stimulus":"\n                    <p><b>Action: <em>harvest</em></b></p>\n                    <p>This is the bee that you just saw.</p>\n                    <img src=\"bees-with-color/bee-A2DF.svg\" width=\"200\">\n                    <p><span class=\"greenText\"><b>Successful harvest!</b></span><br>Your pay has increased by $0.02. Your bonus pay is now $0.50.</p>\n            ","response":0,"trial_type":"html-button-response","trial_index":40,"time_elapsed":177250,"internal_node_id":"0.0-4.0-1.16","subject_id":"61758e857911e6827ce69fbe","study_id":"6197b3f67c2b5cd3b6d9596a","session_id":"6197ca0fc14cc19cdbef8b2c","condition":"full-information","relevant_dimensions":["wings","legs"],"bee_group":{"antennae":"X","wings":"1","pattern":"X","legs":"F"},"bonus":1.2800000000000011},{"rt":1054.5,"stimulus":"bees-with-color/bee-A1SM.svg","response":0,"trial_type":"image-button-response","trial_index":41,"time_elapsed":178306,"internal_node_id":"0.0-4.0-0.17","subject_id":"61758e857911e6827ce69fbe","study_id":"6197b3f67c2b5cd3b6d9596a","session_id":"6197ca0fc14cc19cdbef8b2c","condition":"full-information","relevant_dimensions":["wings","legs"],"bee_group":{"antennae":"X","wings":"1","pattern":"X","legs":"F"},"action":"harvest","summary":"good-harvest","bonus":1.2800000000000011},{"rt":878.0999999940395,"stimulus":"\n                    <p><b>Action: <em>harvest</em></b></p>\n                    <p>This is the bee that you just saw.</p>\n                    <img src=\"bees-with-color/bee-A1SM.svg\" width=\"200\">\n                    <p><span class=\"greenText\"><b>Successful harvest!</b></span><br>Your pay has increased by $0.02. Your bonus pay is now $0.52.</p>\n            ","response":0,"trial_type":"html-button-response","trial_index":42,"time_elapsed":179185,"internal_node_id":"0.0-4.0-1.17","subject_id":"61758e857911e6827ce69fbe","study_id":"6197b3f67c2b5cd3b6d9596a","session_id":"6197ca0fc14cc19cdbef8b2c","condition":"full-information","relevant_dimensions":["wings","legs"],"bee_group":{"antennae":"X","wings":"1","pattern":"X","legs":"F"},"bonus":1.2800000000000011},{"rt":1031.5,"stimulus":"bees-with-color/bee-B2SF.svg","response":0,"trial_type":"image-button-response","trial_index":43,"time_elapsed":180218,"internal_node_id":"0.0-4.0-0.18","subject_id":"61758e857911e6827ce69fbe","study_id":"6197b3f67c2b5cd3b6d9596a","session_id":"6197ca0fc14cc19cdbef8b2c","condition":"full-information","relevant_dimensions":["wings","legs"],"bee_group":{"antennae":"X","wings":"1","pattern":"X","legs":"F"},"action":"harvest","summary":"good-harvest","bonus":1.2800000000000011},{"rt":714.5,"stimulus":"\n                    <p><b>Action: <em>harvest</em></b></p>\n                    <p>This is the bee that you just saw.</p>\n                    <img src=\"bees-with-color/bee-B2SF.svg\" width=\"200\">\n                    <p><span class=\"greenText\"><b>Successful harvest!</b></span><br>Your pay has increased by $0.02. Your bonus pay is now $0.54.</p>\n            ","response":0,"trial_type":"html-button-response","trial_index":44,"time_elapsed":180934,"internal_node_id":"0.0-4.0-1.18","subject_id":"61758e857911e6827ce69fbe","study_id":"6197b3f67c2b5cd3b6d9596a","session_id":"6197ca0fc14cc19cdbef8b2c","condition":"full-information","relevant_dimensions":["wings","legs"],"bee_group":{"antennae":"X","wings":"1","pattern":"X","legs":"F"},"bonus":1.2800000000000011},{"rt":1802.2999999970198,"stimulus":"bees-with-color/bee-B2DM.svg","response":0,"trial_type":"image-button-response","trial_index":45,"time_elapsed":182738,"internal_node_id":"0.0-4.0-0.19","subject_id":"61758e857911e6827ce69fbe","study_id":"6197b3f67c2b5cd3b6d9596a","session_id":"6197ca0fc14cc19cdbef8b2c","condition":"full-information","relevant_dimensions":["wings","legs"],"bee_group":{"antennae":"X","wings":"1","pattern":"X","legs":"F"},"action":"harvest","summary":"good-harvest","bonus":1.2800000000000011},{"rt":1004.5999999940395,"stimulus":"\n                    <p><b>Action: <em>harvest</em></b></p>\n                    <p>This is the bee that you just saw.</p>\n                    <img src=\"bees-with-color/bee-B2DM.svg\" width=\"200\">\n                    <p><span class=\"greenText\"><b>Successful harvest!</b></span><br>Your pay has increased by $0.02. Your bonus pay is now $0.56.</p>\n            ","response":0,"trial_type":"html-button-response","trial_index":46,"time_elapsed":183744,"internal_node_id":"0.0-4.0-1.19","subject_id":"61758e857911e6827ce69fbe","study_id":"6197b3f67c2b5cd3b6d9596a","session_id":"6197ca0fc14cc19cdbef8b2c","condition":"full-information","relevant_dimensions":["wings","legs"],"bee_group":{"antennae":"X","wings":"1","pattern":"X","legs":"F"},"bonus":1.2800000000000011},{"rt":1026.6000000089407,"stimulus":"bees-with-color/bee-B1DF.svg","response":1,"trial_type":"image-button-response","trial_index":47,"time_elapsed":184772,"internal_node_id":"0.0-4.0-0.20","subject_id":"61758e857911e6827ce69fbe","study_id":"6197b3f67c2b5cd3b6d9596a","session_id":"6197ca0fc14cc19cdbef8b2c","condition":"full-information","relevant_dimensions":["wings","legs"],"bee_group":{"antennae":"X","wings":"1","pattern":"X","legs":"F"},"action":"avoid","summary":"good-avoid","bonus":1.2800000000000011},{"rt":1450.1000000089407,"stimulus":"\n                    <p><b>Action: <em>avoid</em></b></p>\n                    <p>This is the bee that you just saw.</p>\n                    <img src=\"bees-with-color/bee-B1DF.svg\" width=\"200\">\n                    <p><span class=\"greenText\">Good choice!</span>  This bee would have stung you.<br>Your bonus pay is unchanged, and remains at $0.56.</p>\n            ","response":0,"trial_type":"html-button-response","trial_index":48,"time_elapsed":186223,"internal_node_id":"0.0-4.0-1.20","subject_id":"61758e857911e6827ce69fbe","study_id":"6197b3f67c2b5cd3b6d9596a","session_id":"6197ca0fc14cc19cdbef8b2c","condition":"full-information","relevant_dimensions":["wings","legs"],"bee_group":{"antennae":"X","wings":"1","pattern":"X","legs":"F"},"bonus":1.2800000000000011},{"rt":1021.3999999910593,"stimulus":"bees-with-color/bee-B1SM.svg","response":0,"trial_type":"image-button-response","trial_index":49,"time_elapsed":187246,"internal_node_id":"0.0-4.0-0.21","subject_id":"61758e857911e6827ce69fbe","study_id":"6197b3f67c2b5cd3b6d9596a","session_id":"6197ca0fc14cc19cdbef8b2c","condition":"full-information","relevant_dimensions":["wings","legs"],"bee_group":{"antennae":"X","wings":"1","pattern":"X","legs":"F"},"action":"harvest","summary":"good-harvest","bonus":1.2800000000000011},{"rt":760.5,"stimulus":"\n                    <p><b>Action: <em>harvest</em></b></p>\n                    <p>This is the bee that you just saw.</p>\n                    <img src=\"bees-with-color/bee-B1SM.svg\" width=\"200\">\n                    <p><span class=\"greenText\"><b>Successful harvest!</b></span><br>Your pay has increased by $0.02. Your bonus pay is now $0.58.</p>\n            ","response":0,"trial_type":"html-button-response","trial_index":50,"time_elapsed":188008,"internal_node_id":"0.0-4.0-1.21","subject_id":"61758e857911e6827ce69fbe","study_id":"6197b3f67c2b5cd3b6d9596a","session_id":"6197ca0fc14cc19cdbef8b2c","condition":"full-information","relevant_dimensions":["wings","legs"],"bee_group":{"antennae":"X","wings":"1","pattern":"X","legs":"F"},"bonus":1.2800000000000011},{"rt":2992.4000000059605,"stimulus":"bees-with-color/bee-A2SF.svg","response":0,"trial_type":"image-button-response","trial_index":51,"time_elapsed":191002,"internal_node_id":"0.0-4.0-0.22","subject_id":"61758e857911e6827ce69fbe","study_id":"6197b3f67c2b5cd3b6d9596a","session_id":"6197ca0fc14cc19cdbef8b2c","condition":"full-information","relevant_dimensions":["wings","legs"],"bee_group":{"antennae":"X","wings":"1","pattern":"X","legs":"F"},"action":"harvest","summary":"good-harvest","bonus":1.2800000000000011},{"rt":838.3000000119209,"stimulus":"\n                    <p><b>Action: <em>harvest</em></b></p>\n                    <p>This is the bee that you just saw.</p>\n                    <img src=\"bees-with-color/bee-A2SF.svg\" width=\"200\">\n                    <p><span class=\"greenText\"><b>Successful harvest!</b></span><br>Your pay has increased by $0.02. Your bonus pay is now $0.60.</p>\n            ","response":0,"trial_type":"html-button-response","trial_index":52,"time_elapsed":191842,"internal_node_id":"0.0-4.0-1.22","subject_id":"61758e857911e6827ce69fbe","study_id":"6197b3f67c2b5cd3b6d9596a","session_id":"6197ca0fc14cc19cdbef8b2c","condition":"full-information","relevant_dimensions":["wings","legs"],"bee_group":{"antennae":"X","wings":"1","pattern":"X","legs":"F"},"bonus":1.2800000000000011},{"rt":1244.1000000089407,"stimulus":"bees-with-color/bee-A1DF.svg","response":1,"trial_type":"image-button-response","trial_index":53,"time_elapsed":193088,"internal_node_id":"0.0-4.0-0.23","subject_id":"61758e857911e6827ce69fbe","study_id":"6197b3f67c2b5cd3b6d9596a","session_id":"6197ca0fc14cc19cdbef8b2c","condition":"full-information","relevant_dimensions":["wings","legs"],"bee_group":{"antennae":"X","wings":"1","pattern":"X","legs":"F"},"action":"avoid","summary":"good-avoid","bonus":1.2800000000000011},{"rt":1056.2999999970198,"stimulus":"\n                    <p><b>Action: <em>avoid</em></b></p>\n                    <p>This is the bee that you just saw.</p>\n                    <img src=\"bees-with-color/bee-A1DF.svg\" width=\"200\">\n                    <p><span class=\"greenText\">Good choice!</span>  This bee would have stung you.<br>Your bonus pay is unchanged, and remains at $0.60.</p>\n            ","response":0,"trial_type":"html-button-response","trial_index":54,"time_elapsed":194146,"internal_node_id":"0.0-4.0-1.23","subject_id":"61758e857911e6827ce69fbe","study_id":"6197b3f67c2b5cd3b6d9596a","session_id":"6197ca0fc14cc19cdbef8b2c","condition":"full-information","relevant_dimensions":["wings","legs"],"bee_group":{"antennae":"X","wings":"1","pattern":"X","legs":"F"},"bonus":1.2800000000000011},{"rt":1124,"stimulus":"bees-with-color/bee-B1DM.svg","response":0,"trial_type":"image-button-response","trial_index":55,"time_elapsed":195272,"internal_node_id":"0.0-4.0-0.24","subject_id":"61758e857911e6827ce69fbe","study_id":"6197b3f67c2b5cd3b6d9596a","session_id":"6197ca0fc14cc19cdbef8b2c","condition":"full-information","relevant_dimensions":["wings","legs"],"bee_group":{"antennae":"X","wings":"1","pattern":"X","legs":"F"},"action":"harvest","summary":"good-harvest","bonus":1.2800000000000011},{"rt":938.8999999910593,"stimulus":"\n                    <p><b>Action: <em>harvest</em></b></p>\n                    <p>This is the bee that you just saw.</p>\n                    <img src=\"bees-with-color/bee-B1DM.svg\" width=\"200\">\n                    <p><span class=\"greenText\"><b>Successful harvest!</b></span><br>Your pay has increased by $0.02. Your bonus pay is now $0.62.</p>\n            ","response":0,"trial_type":"html-button-response","trial_index":56,"time_elapsed":196212,"internal_node_id":"0.0-4.0-1.24","subject_id":"61758e857911e6827ce69fbe","study_id":"6197b3f67c2b5cd3b6d9596a","session_id":"6197ca0fc14cc19cdbef8b2c","condition":"full-information","relevant_dimensions":["wings","legs"],"bee_group":{"antennae":"X","wings":"1","pattern":"X","legs":"F"},"bonus":1.2800000000000011},{"rt":1006.9000000059605,"stimulus":"bees-with-color/bee-B1SF.svg","response":0,"trial_type":"image-button-response","trial_index":57,"time_elapsed":197220,"internal_node_id":"0.0-4.0-0.25","subject_id":"61758e857911e6827ce69fbe","study_id":"6197b3f67c2b5cd3b6d9596a","session_id":"6197ca0fc14cc19cdbef8b2c","condition":"full-information","relevant_dimensions":["wings","legs"],"bee_group":{"antennae":"X","wings":"1","pattern":"X","legs":"F"},"action":"harvest","summary":"bad-harvest","bonus":1.2800000000000011},{"rt":1360.0999999940395,"stimulus":"\n                    <p><b>Action: <em>harvest</em></b></p>\n                    <p>This is the bee that you just saw.</p>\n                    <img src=\"bees-with-color/bee-B1SF.svg\" width=\"200\">\n                    <p><span class=\"redText\">Bad choice, the bee was angry.</span><br><b>You have been stung!</b><br>Your pay has been decreased by $0.10. Your bonus pay is now $0.52.</p>\n            ","response":0,"trial_type":"html-button-response","trial_index":58,"time_elapsed":198582,"internal_node_id":"0.0-4.0-1.25","subject_id":"61758e857911e6827ce69fbe","study_id":"6197b3f67c2b5cd3b6d9596a","session_id":"6197ca0fc14cc19cdbef8b2c","condition":"full-information","relevant_dimensions":["wings","legs"],"bee_group":{"antennae":"X","wings":"1","pattern":"X","legs":"F"},"bonus":1.2800000000000011},{"rt":1134.4000000059605,"stimulus":"bees-with-color/bee-A2DM.svg","response":0,"trial_type":"image-button-response","trial_index":59,"time_elapsed":199718,"internal_node_id":"0.0-4.0-0.26","subject_id":"61758e857911e6827ce69fbe","study_id":"6197b3f67c2b5cd3b6d9596a","session_id":"6197ca0fc14cc19cdbef8b2c","condition":"full-information","relevant_dimensions":["wings","legs"],"bee_group":{"antennae":"X","wings":"1","pattern":"X","legs":"F"},"action":"harvest","summary":"good-harvest","bonus":1.2800000000000011},{"rt":576.5,"stimulus":"\n                    <p><b>Action: <em>harvest</em></b></p>\n                    <p>This is the bee that you just saw.</p>\n                    <img src=\"bees-with-color/bee-A2DM.svg\" width=\"200\">\n                    <p><span class=\"greenText\"><b>Successful harvest!</b></span><br>Your pay has increased by $0.02. Your bonus pay is now $0.54.</p>\n            ","response":0,"trial_type":"html-button-response","trial_index":60,"time_elapsed":200296,"internal_node_id":"0.0-4.0-1.26","subject_id":"61758e857911e6827ce69fbe","study_id":"6197b3f67c2b5cd3b6d9596a","session_id":"6197ca0fc14cc19cdbef8b2c","condition":"full-information","relevant_dimensions":["wings","legs"],"bee_group":{"antennae":"X","wings":"1","pattern":"X","legs":"F"},"bonus":1.2800000000000011},{"rt":765.3000000119209,"stimulus":"bees-with-color/bee-A1DM.svg","response":0,"trial_type":"image-button-response","trial_index":61,"time_elapsed":201062,"internal_node_id":"0.0-4.0-0.27","subject_id":"61758e857911e6827ce69fbe","study_id":"6197b3f67c2b5cd3b6d9596a","session_id":"6197ca0fc14cc19cdbef8b2c","condition":"full-information","relevant_dimensions":["wings","legs"],"bee_group":{"antennae":"X","wings":"1","pattern":"X","legs":"F"},"action":"harvest","summary":"good-harvest","bonus":1.2800000000000011},{"rt":458.79999999701977,"stimulus":"\n                    <p><b>Action: <em>harvest</em></b></p>\n                    <p>This is the bee that you just saw.</p>\n                    <img src=\"bees-with-color/bee-A1DM.svg\" width=\"200\">\n                    <p><span class=\"greenText\"><b>Successful harvest!</b></span><br>Your pay has increased by $0.02. Your bonus pay is now $0.56.</p>\n            ","response":0,"trial_type":"html-button-response","trial_index":62,"time_elapsed":201522,"internal_node_id":"0.0-4.0-1.27","subject_id":"61758e857911e6827ce69fbe","study_id":"6197b3f67c2b5cd3b6d9596a","session_id":"6197ca0fc14cc19cdbef8b2c","condition":"full-information","relevant_dimensions":["wings","legs"],"bee_group":{"antennae":"X","wings":"1","pattern":"X","legs":"F"},"bonus":1.2800000000000011},{"rt":1290.2000000029802,"stimulus":"bees-with-color/bee-B2DF.svg","response":1,"trial_type":"image-button-response","trial_index":63,"time_elapsed":202814,"internal_node_id":"0.0-4.0-0.28","subject_id":"61758e857911e6827ce69fbe","study_id":"6197b3f67c2b5cd3b6d9596a","session_id":"6197ca0fc14cc19cdbef8b2c","condition":"full-information","relevant_dimensions":["wings","legs"],"bee_group":{"antennae":"X","wings":"1","pattern":"X","legs":"F"},"action":"avoid","summary":"bad-avoid","bonus":1.2800000000000011},{"rt":777,"stimulus":"\n                    <p><b>Action: <em>avoid</em></b></p>\n                    <p>This is the bee that you just saw.</p>\n                    <img src=\"bees-with-color/bee-B2DF.svg\" width=\"200\">\n                    <p><span class=\"redText\">Bad choice,</span> the bee was friendly.<br>Your bonus pay is unchanged, and remains at $0.56.</p>\n            ","response":0,"trial_type":"html-button-response","trial_index":64,"time_elapsed":203592,"internal_node_id":"0.0-4.0-1.28","subject_id":"61758e857911e6827ce69fbe","study_id":"6197b3f67c2b5cd3b6d9596a","session_id":"6197ca0fc14cc19cdbef8b2c","condition":"full-information","relevant_dimensions":["wings","legs"],"bee_group":{"antennae":"X","wings":"1","pattern":"X","legs":"F"},"bonus":1.2800000000000011},{"rt":2031.7999999970198,"stimulus":"bees-with-color/bee-A1SF.svg","response":0,"trial_type":"image-button-response","trial_index":65,"time_elapsed":205625,"internal_node_id":"0.0-4.0-0.29","subject_id":"61758e857911e6827ce69fbe","study_id":"6197b3f67c2b5cd3b6d9596a","session_id":"6197ca0fc14cc19cdbef8b2c","condition":"full-information","relevant_dimensions":["wings","legs"],"bee_group":{"antennae":"X","wings":"1","pattern":"X","legs":"F"},"action":"harvest","summary":"bad-harvest","bonus":1.2800000000000011},{"rt":893.7000000029802,"stimulus":"\n                    <p><b>Action: <em>harvest</em></b></p>\n                    <p>This is the bee that you just saw.</p>\n                    <img src=\"bees-with-color/bee-A1SF.svg\" width=\"200\">\n                    <p><span class=\"redText\">Bad choice, the bee was angry.</span><br><b>You have been stung!</b><br>Your pay has been decreased by $0.10. Your bonus pay is now $0.46.</p>\n            ","response":0,"trial_type":"html-button-response","trial_index":66,"time_elapsed":206520,"internal_node_id":"0.0-4.0-1.29","subject_id":"61758e857911e6827ce69fbe","study_id":"6197b3f67c2b5cd3b6d9596a","session_id":"6197ca0fc14cc19cdbef8b2c","condition":"full-information","relevant_dimensions":["wings","legs"],"bee_group":{"antennae":"X","wings":"1","pattern":"X","legs":"F"},"bonus":1.2800000000000011},{"rt":899.7000000029802,"stimulus":"bees-with-color/bee-A2SM.svg","response":0,"trial_type":"image-button-response","trial_index":67,"time_elapsed":207422,"internal_node_id":"0.0-4.0-0.30","subject_id":"61758e857911e6827ce69fbe","study_id":"6197b3f67c2b5cd3b6d9596a","session_id":"6197ca0fc14cc19cdbef8b2c","condition":"full-information","relevant_dimensions":["wings","legs"],"bee_group":{"antennae":"X","wings":"1","pattern":"X","legs":"F"},"action":"harvest","summary":"good-harvest","bonus":1.2800000000000011},{"rt":814.7000000029802,"stimulus":"\n                    <p><b>Action: <em>harvest</em></b></p>\n                    <p>This is the bee that you just saw.</p>\n                    <img src=\"bees-with-color/bee-A2SM.svg\" width=\"200\">\n                    <p><span class=\"greenText\"><b>Successful harvest!</b></span><br>Your pay has increased by $0.02. Your bonus pay is now $0.48.</p>\n            ","response":0,"trial_type":"html-button-response","trial_index":68,"time_elapsed":208238,"internal_node_id":"0.0-4.0-1.30","subject_id":"61758e857911e6827ce69fbe","study_id":"6197b3f67c2b5cd3b6d9596a","session_id":"6197ca0fc14cc19cdbef8b2c","condition":"full-information","relevant_dimensions":["wings","legs"],"bee_group":{"antennae":"X","wings":"1","pattern":"X","legs":"F"},"bonus":1.2800000000000011},{"rt":1064.5,"stimulus":"bees-with-color/bee-B2SM.svg","response":0,"trial_type":"image-button-response","trial_index":69,"time_elapsed":209304,"internal_node_id":"0.0-4.0-0.31","subject_id":"61758e857911e6827ce69fbe","study_id":"6197b3f67c2b5cd3b6d9596a","session_id":"6197ca0fc14cc19cdbef8b2c","condition":"full-information","relevant_dimensions":["wings","legs"],"bee_group":{"antennae":"X","wings":"1","pattern":"X","legs":"F"},"action":"harvest","summary":"good-harvest","bonus":1.2800000000000011},{"rt":704.5,"stimulus":"\n                    <p><b>Action: <em>harvest</em></b></p>\n                    <p>This is the bee that you just saw.</p>\n                    <img src=\"bees-with-color/bee-B2SM.svg\" width=\"200\">\n                    <p><span class=\"greenText\"><b>Successful harvest!</b></span><br>Your pay has increased by $0.02. Your bonus pay is now $0.50.</p>\n            ","response":0,"trial_type":"html-button-response","trial_index":70,"time_elapsed":210010,"internal_node_id":"0.0-4.0-1.31","subject_id":"61758e857911e6827ce69fbe","study_id":"6197b3f67c2b5cd3b6d9596a","session_id":"6197ca0fc14cc19cdbef8b2c","condition":"full-information","relevant_dimensions":["wings","legs"],"bee_group":{"antennae":"X","wings":"1","pattern":"X","legs":"F"},"bonus":1.2800000000000011},{"rt":936.7000000029802,"stimulus":"bees-with-color/bee-A1SM.svg","response":0,"trial_type":"image-button-response","trial_index":71,"time_elapsed":210948,"internal_node_id":"0.0-4.0-0.32","subject_id":"61758e857911e6827ce69fbe","study_id":"6197b3f67c2b5cd3b6d9596a","session_id":"6197ca0fc14cc19cdbef8b2c","condition":"full-information","relevant_dimensions":["wings","legs"],"bee_group":{"antennae":"X","wings":"1","pattern":"X","legs":"F"},"action":"harvest","summary":"good-harvest","bonus":1.2800000000000011},{"rt":536.8999999910593,"stimulus":"\n                    <p><b>Action: <em>harvest</em></b></p>\n                    <p>This is the bee that you just saw.</p>\n                    <img src=\"bees-with-color/bee-A1SM.svg\" width=\"200\">\n                    <p><span class=\"greenText\"><b>Successful harvest!</b></span><br>Your pay has increased by $0.02. Your bonus pay is now $0.52.</p>\n            ","response":0,"trial_type":"html-button-response","trial_index":72,"time_elapsed":211486,"internal_node_id":"0.0-4.0-1.32","subject_id":"61758e857911e6827ce69fbe","study_id":"6197b3f67c2b5cd3b6d9596a","session_id":"6197ca0fc14cc19cdbef8b2c","condition":"full-information","relevant_dimensions":["wings","legs"],"bee_group":{"antennae":"X","wings":"1","pattern":"X","legs":"F"},"bonus":1.2800000000000011},{"rt":1731.7999999970198,"stimulus":"bees-with-color/bee-A2DM.svg","response":0,"trial_type":"image-button-response","trial_index":73,"time_elapsed":213220,"internal_node_id":"0.0-4.0-0.33","subject_id":"61758e857911e6827ce69fbe","study_id":"6197b3f67c2b5cd3b6d9596a","session_id":"6197ca0fc14cc19cdbef8b2c","condition":"full-information","relevant_dimensions":["wings","legs"],"bee_group":{"antennae":"X","wings":"1","pattern":"X","legs":"F"},"action":"harvest","summary":"good-harvest","bonus":1.2800000000000011},{"rt":647.1000000089407,"stimulus":"\n                    <p><b>Action: <em>harvest</em></b></p>\n                    <p>This is the bee that you just saw.</p>\n                    <img src=\"bees-with-color/bee-A2DM.svg\" width=\"200\">\n                    <p><span class=\"greenText\"><b>Successful harvest!</b></span><br>Your pay has increased by $0.02. Your bonus pay is now $0.54.</p>\n            ","response":0,"trial_type":"html-button-response","trial_index":74,"time_elapsed":213868,"internal_node_id":"0.0-4.0-1.33","subject_id":"61758e857911e6827ce69fbe","study_id":"6197b3f67c2b5cd3b6d9596a","session_id":"6197ca0fc14cc19cdbef8b2c","condition":"full-information","relevant_dimensions":["wings","legs"],"bee_group":{"antennae":"X","wings":"1","pattern":"X","legs":"F"},"bonus":1.2800000000000011},{"rt":1098.7000000029802,"stimulus":"bees-with-color/bee-A1SF.svg","response":1,"trial_type":"image-button-response","trial_index":75,"time_elapsed":214968,"internal_node_id":"0.0-4.0-0.34","subject_id":"61758e857911e6827ce69fbe","study_id":"6197b3f67c2b5cd3b6d9596a","session_id":"6197ca0fc14cc19cdbef8b2c","condition":"full-information","relevant_dimensions":["wings","legs"],"bee_group":{"antennae":"X","wings":"1","pattern":"X","legs":"F"},"action":"avoid","summary":"good-avoid","bonus":1.2800000000000011},{"rt":588.2000000029802,"stimulus":"\n                    <p><b>Action: <em>avoid</em></b></p>\n                    <p>This is the bee that you just saw.</p>\n                    <img src=\"bees-with-color/bee-A1SF.svg\" width=\"200\">\n                    <p><span class=\"greenText\">Good choice!</span>  This bee would have stung you.<br>Your bonus pay is unchanged, and remains at $0.54.</p>\n            ","response":0,"trial_type":"html-button-response","trial_index":76,"time_elapsed":215558,"internal_node_id":"0.0-4.0-1.34","subject_id":"61758e857911e6827ce69fbe","study_id":"6197b3f67c2b5cd3b6d9596a","session_id":"6197ca0fc14cc19cdbef8b2c","condition":"full-information","relevant_dimensions":["wings","legs"],"bee_group":{"antennae":"X","wings":"1","pattern":"X","legs":"F"},"bonus":1.2800000000000011},{"rt":978.2000000029802,"stimulus":"bees-with-color/bee-A1DM.svg","response":0,"trial_type":"image-button-response","trial_index":77,"time_elapsed":216537,"internal_node_id":"0.0-4.0-0.35","subject_id":"61758e857911e6827ce69fbe","study_id":"6197b3f67c2b5cd3b6d9596a","session_id":"6197ca0fc14cc19cdbef8b2c","condition":"full-information","relevant_dimensions":["wings","legs"],"bee_group":{"antennae":"X","wings":"1","pattern":"X","legs":"F"},"action":"harvest","summary":"good-harvest","bonus":1.2800000000000011},{"rt":762.0999999940395,"stimulus":"\n                    <p><b>Action: <em>harvest</em></b></p>\n                    <p>This is the bee that you just saw.</p>\n                    <img src=\"bees-with-color/bee-A1DM.svg\" width=\"200\">\n                    <p><span class=\"greenText\"><b>Successful harvest!</b></span><br>Your pay has increased by $0.02. Your bonus pay is now $0.56.</p>\n            ","response":0,"trial_type":"html-button-response","trial_index":78,"time_elapsed":217300,"internal_node_id":"0.0-4.0-1.35","subject_id":"61758e857911e6827ce69fbe","study_id":"6197b3f67c2b5cd3b6d9596a","session_id":"6197ca0fc14cc19cdbef8b2c","condition":"full-information","relevant_dimensions":["wings","legs"],"bee_group":{"antennae":"X","wings":"1","pattern":"X","legs":"F"},"bonus":1.2800000000000011},{"rt":1548.199999988079,"stimulus":"bees-with-color/bee-A2DF.svg","response":0,"trial_type":"image-button-response","trial_index":79,"time_elapsed":218849,"internal_node_id":"0.0-4.0-0.36","subject_id":"61758e857911e6827ce69fbe","study_id":"6197b3f67c2b5cd3b6d9596a","session_id":"6197ca0fc14cc19cdbef8b2c","condition":"full-information","relevant_dimensions":["wings","legs"],"bee_group":{"antennae":"X","wings":"1","pattern":"X","legs":"F"},"action":"harvest","summary":"good-harvest","bonus":1.2800000000000011},{"rt":536.7000000029802,"stimulus":"\n                    <p><b>Action: <em>harvest</em></b></p>\n                    <p>This is the bee that you just saw.</p>\n                    <img src=\"bees-with-color/bee-A2DF.svg\" width=\"200\">\n                    <p><span class=\"greenText\"><b>Successful harvest!</b></span><br>Your pay has increased by $0.02. Your bonus pay is now $0.58.</p>\n            ","response":0,"trial_type":"html-button-response","trial_index":80,"time_elapsed":219387,"internal_node_id":"0.0-4.0-1.36","subject_id":"61758e857911e6827ce69fbe","study_id":"6197b3f67c2b5cd3b6d9596a","session_id":"6197ca0fc14cc19cdbef8b2c","condition":"full-information","relevant_dimensions":["wings","legs"],"bee_group":{"antennae":"X","wings":"1","pattern":"X","legs":"F"},"bonus":1.2800000000000011},{"rt":1077.1000000089407,"stimulus":"bees-with-color/bee-B1SF.svg","response":1,"trial_type":"image-button-response","trial_index":81,"time_elapsed":220465,"internal_node_id":"0.0-4.0-0.37","subject_id":"61758e857911e6827ce69fbe","study_id":"6197b3f67c2b5cd3b6d9596a","session_id":"6197ca0fc14cc19cdbef8b2c","condition":"full-information","relevant_dimensions":["wings","legs"],"bee_group":{"antennae":"X","wings":"1","pattern":"X","legs":"F"},"action":"avoid","summary":"good-avoid","bonus":1.2800000000000011},{"rt":791.1000000089407,"stimulus":"\n                    <p><b>Action: <em>avoid</em></b></p>\n                    <p>This is the bee that you just saw.</p>\n                    <img src=\"bees-with-color/bee-B1SF.svg\" width=\"200\">\n                    <p><span class=\"greenText\">Good choice!</span>  This bee would have stung you.<br>Your bonus pay is unchanged, and remains at $0.58.</p>\n            ","response":0,"trial_type":"html-button-response","trial_index":82,"time_elapsed":221257,"internal_node_id":"0.0-4.0-1.37","subject_id":"61758e857911e6827ce69fbe","study_id":"6197b3f67c2b5cd3b6d9596a","session_id":"6197ca0fc14cc19cdbef8b2c","condition":"full-information","relevant_dimensions":["wings","legs"],"bee_group":{"antennae":"X","wings":"1","pattern":"X","legs":"F"},"bonus":1.2800000000000011},{"rt":965.6000000089407,"stimulus":"bees-with-color/bee-B1SM.svg","response":0,"trial_type":"image-button-response","trial_index":83,"time_elapsed":222224,"internal_node_id":"0.0-4.0-0.38","subject_id":"61758e857911e6827ce69fbe","study_id":"6197b3f67c2b5cd3b6d9596a","session_id":"6197ca0fc14cc19cdbef8b2c","condition":"full-information","relevant_dimensions":["wings","legs"],"bee_group":{"antennae":"X","wings":"1","pattern":"X","legs":"F"},"action":"harvest","summary":"good-harvest","bonus":1.2800000000000011},{"rt":4308.20000000298,"stimulus":"\n                    <p><b>Action: <em>harvest</em></b></p>\n                    <p>This is the bee that you just saw.</p>\n                    <img src=\"bees-with-color/bee-B1SM.svg\" width=\"200\">\n                    <p><span class=\"greenText\"><b>Successful harvest!</b></span><br>Your pay has increased by $0.02. Your bonus pay is now $0.60.</p>\n            ","response":0,"trial_type":"html-button-response","trial_index":84,"time_elapsed":226534,"internal_node_id":"0.0-4.0-1.38","subject_id":"61758e857911e6827ce69fbe","study_id":"6197b3f67c2b5cd3b6d9596a","session_id":"6197ca0fc14cc19cdbef8b2c","condition":"full-information","relevant_dimensions":["wings","legs"],"bee_group":{"antennae":"X","wings":"1","pattern":"X","legs":"F"},"bonus":1.2800000000000011},{"rt":1608,"stimulus":"bees-with-color/bee-A2SF.svg","response":0,"trial_type":"image-button-response","trial_index":85,"time_elapsed":228144,"internal_node_id":"0.0-4.0-0.39","subject_id":"61758e857911e6827ce69fbe","study_id":"6197b3f67c2b5cd3b6d9596a","session_id":"6197ca0fc14cc19cdbef8b2c","condition":"full-information","relevant_dimensions":["wings","legs"],"bee_group":{"antennae":"X","wings":"1","pattern":"X","legs":"F"},"action":"harvest","summary":"good-harvest","bonus":1.2800000000000011},{"rt":696,"stimulus":"\n                    <p><b>Action: <em>harvest</em></b></p>\n                    <p>This is the bee that you just saw.</p>\n                    <img src=\"bees-with-color/bee-A2SF.svg\" width=\"200\">\n                    <p><span class=\"greenText\"><b>Successful harvest!</b></span><br>Your pay has increased by $0.02. Your bonus pay is now $0.62.</p>\n            ","response":0,"trial_type":"html-button-response","trial_index":86,"time_elapsed":228842,"internal_node_id":"0.0-4.0-1.39","subject_id":"61758e857911e6827ce69fbe","study_id":"6197b3f67c2b5cd3b6d9596a","session_id":"6197ca0fc14cc19cdbef8b2c","condition":"full-information","relevant_dimensions":["wings","legs"],"bee_group":{"antennae":"X","wings":"1","pattern":"X","legs":"F"},"bonus":1.2800000000000011},{"rt":1010.6000000089407,"stimulus":"bees-with-color/bee-B2SM.svg","response":0,"trial_type":"image-button-response","trial_index":87,"time_elapsed":229854,"internal_node_id":"0.0-4.0-0.40","subject_id":"61758e857911e6827ce69fbe","study_id":"6197b3f67c2b5cd3b6d9596a","session_id":"6197ca0fc14cc19cdbef8b2c","condition":"full-information","relevant_dimensions":["wings","legs"],"bee_group":{"antennae":"X","wings":"1","pattern":"X","legs":"F"},"action":"harvest","summary":"good-harvest","bonus":1.2800000000000011},{"rt":494.20000000298023,"stimulus":"\n                    <p><b>Action: <em>harvest</em></b></p>\n                    <p>This is the bee that you just saw.</p>\n                    <img src=\"bees-with-color/bee-B2SM.svg\" width=\"200\">\n                    <p><span class=\"greenText\"><b>Successful harvest!</b></span><br>Your pay has increased by $0.02. Your bonus pay is now $0.64.</p>\n            ","response":0,"trial_type":"html-button-response","trial_index":88,"time_elapsed":230350,"internal_node_id":"0.0-4.0-1.40","subject_id":"61758e857911e6827ce69fbe","study_id":"6197b3f67c2b5cd3b6d9596a","session_id":"6197ca0fc14cc19cdbef8b2c","condition":"full-information","relevant_dimensions":["wings","legs"],"bee_group":{"antennae":"X","wings":"1","pattern":"X","legs":"F"},"bonus":1.2800000000000011},{"rt":888.2000000029802,"stimulus":"bees-with-color/bee-B2DF.svg","response":1,"trial_type":"image-button-response","trial_index":89,"time_elapsed":231240,"internal_node_id":"0.0-4.0-0.41","subject_id":"61758e857911e6827ce69fbe","study_id":"6197b3f67c2b5cd3b6d9596a","session_id":"6197ca0fc14cc19cdbef8b2c","condition":"full-information","relevant_dimensions":["wings","legs"],"bee_group":{"antennae":"X","wings":"1","pattern":"X","legs":"F"},"action":"avoid","summary":"bad-avoid","bonus":1.2800000000000011},{"rt":595,"stimulus":"\n                    <p><b>Action: <em>avoid</em></b></p>\n                    <p>This is the bee that you just saw.</p>\n                    <img src=\"bees-with-color/bee-B2DF.svg\" width=\"200\">\n                    <p><span class=\"redText\">Bad choice,</span> the bee was friendly.<br>Your bonus pay is unchanged, and remains at $0.64.</p>\n            ","response":0,"trial_type":"html-button-response","trial_index":90,"time_elapsed":231837,"internal_node_id":"0.0-4.0-1.41","subject_id":"61758e857911e6827ce69fbe","study_id":"6197b3f67c2b5cd3b6d9596a","session_id":"6197ca0fc14cc19cdbef8b2c","condition":"full-information","relevant_dimensions":["wings","legs"],"bee_group":{"antennae":"X","wings":"1","pattern":"X","legs":"F"},"bonus":1.2800000000000011},{"rt":920.4000000059605,"stimulus":"bees-with-color/bee-A1DF.svg","response":1,"trial_type":"image-button-response","trial_index":91,"time_elapsed":232759,"internal_node_id":"0.0-4.0-0.42","subject_id":"61758e857911e6827ce69fbe","study_id":"6197b3f67c2b5cd3b6d9596a","session_id":"6197ca0fc14cc19cdbef8b2c","condition":"full-information","relevant_dimensions":["wings","legs"],"bee_group":{"antennae":"X","wings":"1","pattern":"X","legs":"F"},"action":"avoid","summary":"good-avoid","bonus":1.2800000000000011},{"rt":497.70000000298023,"stimulus":"\n                    <p><b>Action: <em>avoid</em></b></p>\n                    <p>This is the bee that you just saw.</p>\n                    <img src=\"bees-with-color/bee-A1DF.svg\" width=\"200\">\n                    <p><span class=\"greenText\">Good choice!</span>  This bee would have stung you.<br>Your bonus pay is unchanged, and remains at $0.64.</p>\n            ","response":0,"trial_type":"html-button-response","trial_index":92,"time_elapsed":233258,"internal_node_id":"0.0-4.0-1.42","subject_id":"61758e857911e6827ce69fbe","study_id":"6197b3f67c2b5cd3b6d9596a","session_id":"6197ca0fc14cc19cdbef8b2c","condition":"full-information","relevant_dimensions":["wings","legs"],"bee_group":{"antennae":"X","wings":"1","pattern":"X","legs":"F"},"bonus":1.2800000000000011},{"rt":928.0999999940395,"stimulus":"bees-with-color/bee-B1DM.svg","response":0,"trial_type":"image-button-response","trial_index":93,"time_elapsed":234188,"internal_node_id":"0.0-4.0-0.43","subject_id":"61758e857911e6827ce69fbe","study_id":"6197b3f67c2b5cd3b6d9596a","session_id":"6197ca0fc14cc19cdbef8b2c","condition":"full-information","relevant_dimensions":["wings","legs"],"bee_group":{"antennae":"X","wings":"1","pattern":"X","legs":"F"},"action":"harvest","summary":"good-harvest","bonus":1.2800000000000011},{"rt":384.1000000089407,"stimulus":"\n                    <p><b>Action: <em>harvest</em></b></p>\n                    <p>This is the bee that you just saw.</p>\n                    <img src=\"bees-with-color/bee-B1DM.svg\" width=\"200\">\n                    <p><span class=\"greenText\"><b>Successful harvest!</b></span><br>Your pay has increased by $0.02. Your bonus pay is now $0.66.</p>\n            ","response":0,"trial_type":"html-button-response","trial_index":94,"time_elapsed":234574,"internal_node_id":"0.0-4.0-1.43","subject_id":"61758e857911e6827ce69fbe","study_id":"6197b3f67c2b5cd3b6d9596a","session_id":"6197ca0fc14cc19cdbef8b2c","condition":"full-information","relevant_dimensions":["wings","legs"],"bee_group":{"antennae":"X","wings":"1","pattern":"X","legs":"F"},"bonus":1.2800000000000011},{"rt":888.5999999940395,"stimulus":"bees-with-color/bee-B1DF.svg","response":1,"trial_type":"image-button-response","trial_index":95,"time_elapsed":235464,"internal_node_id":"0.0-4.0-0.44","subject_id":"61758e857911e6827ce69fbe","study_id":"6197b3f67c2b5cd3b6d9596a","session_id":"6197ca0fc14cc19cdbef8b2c","condition":"full-information","relevant_dimensions":["wings","legs"],"bee_group":{"antennae":"X","wings":"1","pattern":"X","legs":"F"},"action":"avoid","summary":"good-avoid","bonus":1.2800000000000011},{"rt":510.59999999403954,"stimulus":"\n                    <p><b>Action: <em>avoid</em></b></p>\n                    <p>This is the bee that you just saw.</p>\n                    <img src=\"bees-with-color/bee-B1DF.svg\" width=\"200\">\n                    <p><span class=\"greenText\">Good choice!</span>  This bee would have stung you.<br>Your bonus pay is unchanged, and remains at $0.66.</p>\n            ","response":0,"trial_type":"html-button-response","trial_index":96,"time_elapsed":235975,"internal_node_id":"0.0-4.0-1.44","subject_id":"61758e857911e6827ce69fbe","study_id":"6197b3f67c2b5cd3b6d9596a","session_id":"6197ca0fc14cc19cdbef8b2c","condition":"full-information","relevant_dimensions":["wings","legs"],"bee_group":{"antennae":"X","wings":"1","pattern":"X","legs":"F"},"bonus":1.2800000000000011},{"rt":896.8000000119209,"stimulus":"bees-with-color/bee-B2DM.svg","response":0,"trial_type":"image-button-response","trial_index":97,"time_elapsed":236873,"internal_node_id":"0.0-4.0-0.45","subject_id":"61758e857911e6827ce69fbe","study_id":"6197b3f67c2b5cd3b6d9596a","session_id":"6197ca0fc14cc19cdbef8b2c","condition":"full-information","relevant_dimensions":["wings","legs"],"bee_group":{"antennae":"X","wings":"1","pattern":"X","legs":"F"},"action":"harvest","summary":"good-harvest","bonus":1.2800000000000011},{"rt":393.3999999910593,"stimulus":"\n                    <p><b>Action: <em>harvest</em></b></p>\n                    <p>This is the bee that you just saw.</p>\n                    <img src=\"bees-with-color/bee-B2DM.svg\" width=\"200\">\n                    <p><span class=\"greenText\"><b>Successful harvest!</b></span><br>Your pay has increased by $0.02. Your bonus pay is now $0.68.</p>\n            ","response":0,"trial_type":"html-button-response","trial_index":98,"time_elapsed":237268,"internal_node_id":"0.0-4.0-1.45","subject_id":"61758e857911e6827ce69fbe","study_id":"6197b3f67c2b5cd3b6d9596a","session_id":"6197ca0fc14cc19cdbef8b2c","condition":"full-information","relevant_dimensions":["wings","legs"],"bee_group":{"antennae":"X","wings":"1","pattern":"X","legs":"F"},"bonus":1.2800000000000011},{"rt":1002.2999999970198,"stimulus":"bees-with-color/bee-A2SM.svg","response":0,"trial_type":"image-button-response","trial_index":99,"time_elapsed":238271,"internal_node_id":"0.0-4.0-0.46","subject_id":"61758e857911e6827ce69fbe","study_id":"6197b3f67c2b5cd3b6d9596a","session_id":"6197ca0fc14cc19cdbef8b2c","condition":"full-information","relevant_dimensions":["wings","legs"],"bee_group":{"antennae":"X","wings":"1","pattern":"X","legs":"F"},"action":"harvest","summary":"good-harvest","bonus":1.2800000000000011},{"rt":404.40000000596046,"stimulus":"\n                    <p><b>Action: <em>harvest</em></b></p>\n                    <p>This is the bee that you just saw.</p>\n                    <img src=\"bees-with-color/bee-A2SM.svg\" width=\"200\">\n                    <p><span class=\"greenText\"><b>Successful harvest!</b></span><br>Your pay has increased by $0.02. Your bonus pay is now $0.70.</p>\n            ","response":0,"trial_type":"html-button-response","trial_index":100,"time_elapsed":238677,"internal_node_id":"0.0-4.0-1.46","subject_id":"61758e857911e6827ce69fbe","study_id":"6197b3f67c2b5cd3b6d9596a","session_id":"6197ca0fc14cc19cdbef8b2c","condition":"full-information","relevant_dimensions":["wings","legs"],"bee_group":{"antennae":"X","wings":"1","pattern":"X","legs":"F"},"bonus":1.2800000000000011},{"rt":1422.6000000089407,"stimulus":"bees-with-color/bee-B2SF.svg","response":0,"trial_type":"image-button-response","trial_index":101,"time_elapsed":240101,"internal_node_id":"0.0-4.0-0.47","subject_id":"61758e857911e6827ce69fbe","study_id":"6197b3f67c2b5cd3b6d9596a","session_id":"6197ca0fc14cc19cdbef8b2c","condition":"full-information","relevant_dimensions":["wings","legs"],"bee_group":{"antennae":"X","wings":"1","pattern":"X","legs":"F"},"action":"harvest","summary":"good-harvest","bonus":1.2800000000000011},{"rt":694.5,"stimulus":"\n                    <p><b>Action: <em>harvest</em></b></p>\n                    <p>This is the bee that you just saw.</p>\n                    <img src=\"bees-with-color/bee-B2SF.svg\" width=\"200\">\n                    <p><span class=\"greenText\"><b>Successful harvest!</b></span><br>Your pay has increased by $0.02. Your bonus pay is now $0.72.</p>\n            ","response":0,"trial_type":"html-button-response","trial_index":102,"time_elapsed":240797,"internal_node_id":"0.0-4.0-1.47","subject_id":"61758e857911e6827ce69fbe","study_id":"6197b3f67c2b5cd3b6d9596a","session_id":"6197ca0fc14cc19cdbef8b2c","condition":"full-information","relevant_dimensions":["wings","legs"],"bee_group":{"antennae":"X","wings":"1","pattern":"X","legs":"F"},"bonus":1.2800000000000011},{"rt":845,"stimulus":"bees-with-color/bee-A2DM.svg","response":0,"trial_type":"image-button-response","trial_index":103,"time_elapsed":241643,"internal_node_id":"0.0-4.0-0.48","subject_id":"61758e857911e6827ce69fbe","study_id":"6197b3f67c2b5cd3b6d9596a","session_id":"6197ca0fc14cc19cdbef8b2c","condition":"full-information","relevant_dimensions":["wings","legs"],"bee_group":{"antennae":"X","wings":"1","pattern":"X","legs":"F"},"action":"harvest","summary":"good-harvest","bonus":1.2800000000000011},{"rt":706.4000000059605,"stimulus":"\n                    <p><b>Action: <em>harvest</em></b></p>\n                    <p>This is the bee that you just saw.</p>\n                    <img src=\"bees-with-color/bee-A2DM.svg\" width=\"200\">\n                    <p><span class=\"greenText\"><b>Successful harvest!</b></span><br>Your pay has increased by $0.02. Your bonus pay is now $0.74.</p>\n            ","response":0,"trial_type":"html-button-response","trial_index":104,"time_elapsed":242351,"internal_node_id":"0.0-4.0-1.48","subject_id":"61758e857911e6827ce69fbe","study_id":"6197b3f67c2b5cd3b6d9596a","session_id":"6197ca0fc14cc19cdbef8b2c","condition":"full-information","relevant_dimensions":["wings","legs"],"bee_group":{"antennae":"X","wings":"1","pattern":"X","legs":"F"},"bonus":1.2800000000000011},{"rt":1084.7999999970198,"stimulus":"bees-with-color/bee-B1DM.svg","response":0,"trial_type":"image-button-response","trial_index":105,"time_elapsed":243437,"internal_node_id":"0.0-4.0-0.49","subject_id":"61758e857911e6827ce69fbe","study_id":"6197b3f67c2b5cd3b6d9596a","session_id":"6197ca0fc14cc19cdbef8b2c","condition":"full-information","relevant_dimensions":["wings","legs"],"bee_group":{"antennae":"X","wings":"1","pattern":"X","legs":"F"},"action":"harvest","summary":"good-harvest","bonus":1.2800000000000011},{"rt":556.2000000029802,"stimulus":"\n                    <p><b>Action: <em>harvest</em></b></p>\n                    <p>This is the bee that you just saw.</p>\n                    <img src=\"bees-with-color/bee-B1DM.svg\" width=\"200\">\n                    <p><span class=\"greenText\"><b>Successful harvest!</b></span><br>Your pay has increased by $0.02. Your bonus pay is now $0.76.</p>\n            ","response":0,"trial_type":"html-button-response","trial_index":106,"time_elapsed":243995,"internal_node_id":"0.0-4.0-1.49","subject_id":"61758e857911e6827ce69fbe","study_id":"6197b3f67c2b5cd3b6d9596a","session_id":"6197ca0fc14cc19cdbef8b2c","condition":"full-information","relevant_dimensions":["wings","legs"],"bee_group":{"antennae":"X","wings":"1","pattern":"X","legs":"F"},"bonus":1.2800000000000011},{"rt":787.3000000119209,"stimulus":"bees-with-color/bee-A2DF.svg","response":0,"trial_type":"image-button-response","trial_index":107,"time_elapsed":244783,"internal_node_id":"0.0-4.0-0.50","subject_id":"61758e857911e6827ce69fbe","study_id":"6197b3f67c2b5cd3b6d9596a","session_id":"6197ca0fc14cc19cdbef8b2c","condition":"full-information","relevant_dimensions":["wings","legs"],"bee_group":{"antennae":"X","wings":"1","pattern":"X","legs":"F"},"action":"harvest","summary":"good-harvest","bonus":1.2800000000000011},{"rt":658.3999999910593,"stimulus":"\n                    <p><b>Action: <em>harvest</em></b></p>\n                    <p>This is the bee that you just saw.</p>\n                    <img src=\"bees-with-color/bee-A2DF.svg\" width=\"200\">\n                    <p><span class=\"greenText\"><b>Successful harvest!</b></span><br>Your pay has increased by $0.02. Your bonus pay is now $0.78.</p>\n            ","response":0,"trial_type":"html-button-response","trial_index":108,"time_elapsed":245443,"internal_node_id":"0.0-4.0-1.50","subject_id":"61758e857911e6827ce69fbe","study_id":"6197b3f67c2b5cd3b6d9596a","session_id":"6197ca0fc14cc19cdbef8b2c","condition":"full-information","relevant_dimensions":["wings","legs"],"bee_group":{"antennae":"X","wings":"1","pattern":"X","legs":"F"},"bonus":1.2800000000000011},{"rt":1135,"stimulus":"bees-with-color/bee-B1DF.svg","response":1,"trial_type":"image-button-response","trial_index":109,"time_elapsed":246579,"internal_node_id":"0.0-4.0-0.51","subject_id":"61758e857911e6827ce69fbe","study_id":"6197b3f67c2b5cd3b6d9596a","session_id":"6197ca0fc14cc19cdbef8b2c","condition":"full-information","relevant_dimensions":["wings","legs"],"bee_group":{"antennae":"X","wings":"1","pattern":"X","legs":"F"},"action":"avoid","summary":"good-avoid","bonus":1.2800000000000011},{"rt":498.30000001192093,"stimulus":"\n                    <p><b>Action: <em>avoid</em></b></p>\n                    <p>This is the bee that you just saw.</p>\n                    <img src=\"bees-with-color/bee-B1DF.svg\" width=\"200\">\n                    <p><span class=\"greenText\">Good choice!</span>  This bee would have stung you.<br>Your bonus pay is unchanged, and remains at $0.78.</p>\n            ","response":0,"trial_type":"html-button-response","trial_index":110,"time_elapsed":247079,"internal_node_id":"0.0-4.0-1.51","subject_id":"61758e857911e6827ce69fbe","study_id":"6197b3f67c2b5cd3b6d9596a","session_id":"6197ca0fc14cc19cdbef8b2c","condition":"full-information","relevant_dimensions":["wings","legs"],"bee_group":{"antennae":"X","wings":"1","pattern":"X","legs":"F"},"bonus":1.2800000000000011},{"rt":1306.6000000089407,"stimulus":"bees-with-color/bee-A1DM.svg","response":0,"trial_type":"image-button-response","trial_index":111,"time_elapsed":248387,"internal_node_id":"0.0-4.0-0.52","subject_id":"61758e857911e6827ce69fbe","study_id":"6197b3f67c2b5cd3b6d9596a","session_id":"6197ca0fc14cc19cdbef8b2c","condition":"full-information","relevant_dimensions":["wings","legs"],"bee_group":{"antennae":"X","wings":"1","pattern":"X","legs":"F"},"action":"harvest","summary":"good-harvest","bonus":1.2800000000000011},{"rt":908.2999999970198,"stimulus":"\n                    <p><b>Action: <em>harvest</em></b></p>\n                    <p>This is the bee that you just saw.</p>\n                    <img src=\"bees-with-color/bee-A1DM.svg\" width=\"200\">\n                    <p><span class=\"greenText\"><b>Successful harvest!</b></span><br>Your pay has increased by $0.02. Your bonus pay is now $0.80.</p>\n            ","response":0,"trial_type":"html-button-response","trial_index":112,"time_elapsed":249297,"internal_node_id":"0.0-4.0-1.52","subject_id":"61758e857911e6827ce69fbe","study_id":"6197b3f67c2b5cd3b6d9596a","session_id":"6197ca0fc14cc19cdbef8b2c","condition":"full-information","relevant_dimensions":["wings","legs"],"bee_group":{"antennae":"X","wings":"1","pattern":"X","legs":"F"},"bonus":1.2800000000000011},{"rt":1708.7999999970198,"stimulus":"bees-with-color/bee-A2SM.svg","response":0,"trial_type":"image-button-response","trial_index":113,"time_elapsed":251007,"internal_node_id":"0.0-4.0-0.53","subject_id":"61758e857911e6827ce69fbe","study_id":"6197b3f67c2b5cd3b6d9596a","session_id":"6197ca0fc14cc19cdbef8b2c","condition":"full-information","relevant_dimensions":["wings","legs"],"bee_group":{"antennae":"X","wings":"1","pattern":"X","legs":"F"},"action":"harvest","summary":"good-harvest","bonus":1.2800000000000011},{"rt":1680.5,"stimulus":"\n                    <p><b>Action: <em>harvest</em></b></p>\n                    <p>This is the bee that you just saw.</p>\n                    <img src=\"bees-with-color/bee-A2SM.svg\" width=\"200\">\n                    <p><span class=\"greenText\"><b>Successful harvest!</b></span><br>Your pay has increased by $0.02. Your bonus pay is now $0.82.</p>\n            ","response":0,"trial_type":"html-button-response","trial_index":114,"time_elapsed":252689,"internal_node_id":"0.0-4.0-1.53","subject_id":"61758e857911e6827ce69fbe","study_id":"6197b3f67c2b5cd3b6d9596a","session_id":"6197ca0fc14cc19cdbef8b2c","condition":"full-information","relevant_dimensions":["wings","legs"],"bee_group":{"antennae":"X","wings":"1","pattern":"X","legs":"F"},"bonus":1.2800000000000011},{"rt":1866.2000000029802,"stimulus":"bees-with-color/bee-B1SF.svg","response":1,"trial_type":"image-button-response","trial_index":115,"time_elapsed":254557,"internal_node_id":"0.0-4.0-0.54","subject_id":"61758e857911e6827ce69fbe","study_id":"6197b3f67c2b5cd3b6d9596a","session_id":"6197ca0fc14cc19cdbef8b2c","condition":"full-information","relevant_dimensions":["wings","legs"],"bee_group":{"antennae":"X","wings":"1","pattern":"X","legs":"F"},"action":"avoid","summary":"good-avoid","bonus":1.2800000000000011},{"rt":39181.90000000596,"stimulus":"\n                    <p><b>Action: <em>avoid</em></b></p>\n                    <p>This is the bee that you just saw.</p>\n                    <img src=\"bees-with-color/bee-B1SF.svg\" width=\"200\">\n                    <p><span class=\"greenText\">Good choice!</span>  This bee would have stung you.<br>Your bonus pay is unchanged, and remains at $0.82.</p>\n            ","response":0,"trial_type":"html-button-response","trial_index":116,"time_elapsed":293741,"internal_node_id":"0.0-4.0-1.54","subject_id":"61758e857911e6827ce69fbe","study_id":"6197b3f67c2b5cd3b6d9596a","session_id":"6197ca0fc14cc19cdbef8b2c","condition":"full-information","relevant_dimensions":["wings","legs"],"bee_group":{"antennae":"X","wings":"1","pattern":"X","legs":"F"},"bonus":1.2800000000000011},{"rt":855.7000000029802,"stimulus":"bees-with-color/bee-B2SM.svg","response":0,"trial_type":"image-button-response","trial_index":117,"time_elapsed":294598,"internal_node_id":"0.0-4.0-0.55","subject_id":"61758e857911e6827ce69fbe","study_id":"6197b3f67c2b5cd3b6d9596a","session_id":"6197ca0fc14cc19cdbef8b2c","condition":"full-information","relevant_dimensions":["wings","legs"],"bee_group":{"antennae":"X","wings":"1","pattern":"X","legs":"F"},"action":"harvest","summary":"good-harvest","bonus":1.2800000000000011},{"rt":502,"stimulus":"\n                    <p><b>Action: <em>harvest</em></b></p>\n                    <p>This is the bee that you just saw.</p>\n                    <img src=\"bees-with-color/bee-B2SM.svg\" width=\"200\">\n                    <p><span class=\"greenText\"><b>Successful harvest!</b></span><br>Your pay has increased by $0.02. Your bonus pay is now $0.84.</p>\n            ","response":0,"trial_type":"html-button-response","trial_index":118,"time_elapsed":295101,"internal_node_id":"0.0-4.0-1.55","subject_id":"61758e857911e6827ce69fbe","study_id":"6197b3f67c2b5cd3b6d9596a","session_id":"6197ca0fc14cc19cdbef8b2c","condition":"full-information","relevant_dimensions":["wings","legs"],"bee_group":{"antennae":"X","wings":"1","pattern":"X","legs":"F"},"bonus":1.2800000000000011},{"rt":578.7999999970198,"stimulus":"bees-with-color/bee-B2DM.svg","response":0,"trial_type":"image-button-response","trial_index":119,"time_elapsed":295681,"internal_node_id":"0.0-4.0-0.56","subject_id":"61758e857911e6827ce69fbe","study_id":"6197b3f67c2b5cd3b6d9596a","session_id":"6197ca0fc14cc19cdbef8b2c","condition":"full-information","relevant_dimensions":["wings","legs"],"bee_group":{"antennae":"X","wings":"1","pattern":"X","legs":"F"},"action":"harvest","summary":"good-harvest","bonus":1.2800000000000011},{"rt":436.30000001192093,"stimulus":"\n                    <p><b>Action: <em>harvest</em></b></p>\n                    <p>This is the bee that you just saw.</p>\n                    <img src=\"bees-with-color/bee-B2DM.svg\" width=\"200\">\n                    <p><span class=\"greenText\"><b>Successful harvest!</b></span><br>Your pay has increased by $0.02. Your bonus pay is now $0.86.</p>\n            ","response":0,"trial_type":"html-button-response","trial_index":120,"time_elapsed":296119,"internal_node_id":"0.0-4.0-1.56","subject_id":"61758e857911e6827ce69fbe","study_id":"6197b3f67c2b5cd3b6d9596a","session_id":"6197ca0fc14cc19cdbef8b2c","condition":"full-information","relevant_dimensions":["wings","legs"],"bee_group":{"antennae":"X","wings":"1","pattern":"X","legs":"F"},"bonus":1.2800000000000011},{"rt":842.3999999910593,"stimulus":"bees-with-color/bee-A1DF.svg","response":1,"trial_type":"image-button-response","trial_index":121,"time_elapsed":296963,"internal_node_id":"0.0-4.0-0.57","subject_id":"61758e857911e6827ce69fbe","study_id":"6197b3f67c2b5cd3b6d9596a","session_id":"6197ca0fc14cc19cdbef8b2c","condition":"full-information","relevant_dimensions":["wings","legs"],"bee_group":{"antennae":"X","wings":"1","pattern":"X","legs":"F"},"action":"avoid","summary":"good-avoid","bonus":1.2800000000000011},{"rt":662.3000000119209,"stimulus":"\n                    <p><b>Action: <em>avoid</em></b></p>\n                    <p>This is the bee that you just saw.</p>\n                    <img src=\"bees-with-color/bee-A1DF.svg\" width=\"200\">\n                    <p><span class=\"greenText\">Good choice!</span>  This bee would have stung you.<br>Your bonus pay is unchanged, and remains at $0.86.</p>\n            ","response":0,"trial_type":"html-button-response","trial_index":122,"time_elapsed":297627,"internal_node_id":"0.0-4.0-1.57","subject_id":"61758e857911e6827ce69fbe","study_id":"6197b3f67c2b5cd3b6d9596a","session_id":"6197ca0fc14cc19cdbef8b2c","condition":"full-information","relevant_dimensions":["wings","legs"],"bee_group":{"antennae":"X","wings":"1","pattern":"X","legs":"F"},"bonus":1.2800000000000011},{"rt":1090.5999999940395,"stimulus":"bees-with-color/bee-B1SM.svg","response":0,"trial_type":"image-button-response","trial_index":123,"time_elapsed":298719,"internal_node_id":"0.0-4.0-0.58","subject_id":"61758e857911e6827ce69fbe","study_id":"6197b3f67c2b5cd3b6d9596a","session_id":"6197ca0fc14cc19cdbef8b2c","condition":"full-information","relevant_dimensions":["wings","legs"],"bee_group":{"antennae":"X","wings":"1","pattern":"X","legs":"F"},"action":"harvest","summary":"good-harvest","bonus":1.2800000000000011},{"rt":649.7999999970198,"stimulus":"\n                    <p><b>Action: <em>harvest</em></b></p>\n                    <p>This is the bee that you just saw.</p>\n                    <img src=\"bees-with-color/bee-B1SM.svg\" width=\"200\">\n                    <p><span class=\"greenText\"><b>Successful harvest!</b></span><br>Your pay has increased by $0.02. Your bonus pay is now $0.88.</p>\n            ","response":0,"trial_type":"html-button-response","trial_index":124,"time_elapsed":299371,"internal_node_id":"0.0-4.0-1.58","subject_id":"61758e857911e6827ce69fbe","study_id":"6197b3f67c2b5cd3b6d9596a","session_id":"6197ca0fc14cc19cdbef8b2c","condition":"full-information","relevant_dimensions":["wings","legs"],"bee_group":{"antennae":"X","wings":"1","pattern":"X","legs":"F"},"bonus":1.2800000000000011},{"rt":1166.7000000029802,"stimulus":"bees-with-color/bee-B2SF.svg","response":1,"trial_type":"image-button-response","trial_index":125,"time_elapsed":300539,"internal_node_id":"0.0-4.0-0.59","subject_id":"61758e857911e6827ce69fbe","study_id":"6197b3f67c2b5cd3b6d9596a","session_id":"6197ca0fc14cc19cdbef8b2c","condition":"full-information","relevant_dimensions":["wings","legs"],"bee_group":{"antennae":"X","wings":"1","pattern":"X","legs":"F"},"action":"avoid","summary":"bad-avoid","bonus":1.2800000000000011},{"rt":748,"stimulus":"\n                    <p><b>Action: <em>avoid</em></b></p>\n                    <p>This is the bee that you just saw.</p>\n                    <img src=\"bees-with-color/bee-B2SF.svg\" width=\"200\">\n                    <p><span class=\"redText\">Bad choice,</span> the bee was friendly.<br>Your bonus pay is unchanged, and remains at $0.88.</p>\n            ","response":0,"trial_type":"html-button-response","trial_index":126,"time_elapsed":301289,"internal_node_id":"0.0-4.0-1.59","subject_id":"61758e857911e6827ce69fbe","study_id":"6197b3f67c2b5cd3b6d9596a","session_id":"6197ca0fc14cc19cdbef8b2c","condition":"full-information","relevant_dimensions":["wings","legs"],"bee_group":{"antennae":"X","wings":"1","pattern":"X","legs":"F"},"bonus":1.2800000000000011},{"rt":1250.6000000089407,"stimulus":"bees-with-color/bee-B2DF.svg","response":0,"trial_type":"image-button-response","trial_index":127,"time_elapsed":302541,"internal_node_id":"0.0-4.0-0.60","subject_id":"61758e857911e6827ce69fbe","study_id":"6197b3f67c2b5cd3b6d9596a","session_id":"6197ca0fc14cc19cdbef8b2c","condition":"full-information","relevant_dimensions":["wings","legs"],"bee_group":{"antennae":"X","wings":"1","pattern":"X","legs":"F"},"action":"harvest","summary":"good-harvest","bonus":1.2800000000000011},{"rt":608.9000000059605,"stimulus":"\n                    <p><b>Action: <em>harvest</em></b></p>\n                    <p>This is the bee that you just saw.</p>\n                    <img src=\"bees-with-color/bee-B2DF.svg\" width=\"200\">\n                    <p><span class=\"greenText\"><b>Successful harvest!</b></span><br>Your pay has increased by $0.02. Your bonus pay is now $0.90.</p>\n            ","response":0,"trial_type":"html-button-response","trial_index":128,"time_elapsed":303152,"internal_node_id":"0.0-4.0-1.60","subject_id":"61758e857911e6827ce69fbe","study_id":"6197b3f67c2b5cd3b6d9596a","session_id":"6197ca0fc14cc19cdbef8b2c","condition":"full-information","relevant_dimensions":["wings","legs"],"bee_group":{"antennae":"X","wings":"1","pattern":"X","legs":"F"},"bonus":1.2800000000000011},{"rt":13539.90000000596,"stimulus":"bees-with-color/bee-A1SM.svg","response":0,"trial_type":"image-button-response","trial_index":129,"time_elapsed":316693,"internal_node_id":"0.0-4.0-0.61","subject_id":"61758e857911e6827ce69fbe","study_id":"6197b3f67c2b5cd3b6d9596a","session_id":"6197ca0fc14cc19cdbef8b2c","condition":"full-information","relevant_dimensions":["wings","legs"],"bee_group":{"antennae":"X","wings":"1","pattern":"X","legs":"F"},"action":"harvest","summary":"good-harvest","bonus":1.2800000000000011},{"rt":846.0999999940395,"stimulus":"\n                    <p><b>Action: <em>harvest</em></b></p>\n                    <p>This is the bee that you just saw.</p>\n                    <img src=\"bees-with-color/bee-A1SM.svg\" width=\"200\">\n                    <p><span class=\"greenText\"><b>Successful harvest!</b></span><br>Your pay has increased by $0.02. Your bonus pay is now $0.92.</p>\n            ","response":0,"trial_type":"html-button-response","trial_index":130,"time_elapsed":317541,"internal_node_id":"0.0-4.0-1.61","subject_id":"61758e857911e6827ce69fbe","study_id":"6197b3f67c2b5cd3b6d9596a","session_id":"6197ca0fc14cc19cdbef8b2c","condition":"full-information","relevant_dimensions":["wings","legs"],"bee_group":{"antennae":"X","wings":"1","pattern":"X","legs":"F"},"bonus":1.2800000000000011},{"rt":1145.9000000059605,"stimulus":"bees-with-color/bee-A2SF.svg","response":0,"trial_type":"image-button-response","trial_index":131,"time_elapsed":318689,"internal_node_id":"0.0-4.0-0.62","subject_id":"61758e857911e6827ce69fbe","study_id":"6197b3f67c2b5cd3b6d9596a","session_id":"6197ca0fc14cc19cdbef8b2c","condition":"full-information","relevant_dimensions":["wings","legs"],"bee_group":{"antennae":"X","wings":"1","pattern":"X","legs":"F"},"action":"harvest","summary":"good-harvest","bonus":1.2800000000000011},{"rt":611.2999999970198,"stimulus":"\n                    <p><b>Action: <em>harvest</em></b></p>\n                    <p>This is the bee that you just saw.</p>\n                    <img src=\"bees-with-color/bee-A2SF.svg\" width=\"200\">\n                    <p><span class=\"greenText\"><b>Successful harvest!</b></span><br>Your pay has increased by $0.02. Your bonus pay is now $0.94.</p>\n            ","response":0,"trial_type":"html-button-response","trial_index":132,"time_elapsed":319302,"internal_node_id":"0.0-4.0-1.62","subject_id":"61758e857911e6827ce69fbe","study_id":"6197b3f67c2b5cd3b6d9596a","session_id":"6197ca0fc14cc19cdbef8b2c","condition":"full-information","relevant_dimensions":["wings","legs"],"bee_group":{"antennae":"X","wings":"1","pattern":"X","legs":"F"},"bonus":1.2800000000000011},{"rt":7358,"stimulus":"bees-with-color/bee-A1SF.svg","response":0,"trial_type":"image-button-response","trial_index":133,"time_elapsed":326661,"internal_node_id":"0.0-4.0-0.63","subject_id":"61758e857911e6827ce69fbe","study_id":"6197b3f67c2b5cd3b6d9596a","session_id":"6197ca0fc14cc19cdbef8b2c","condition":"full-information","relevant_dimensions":["wings","legs"],"bee_group":{"antennae":"X","wings":"1","pattern":"X","legs":"F"},"action":"harvest","summary":"bad-harvest","bonus":1.2800000000000011},{"rt":1392.1000000089407,"stimulus":"\n                    <p><b>Action: <em>harvest</em></b></p>\n                    <p>This is the bee that you just saw.</p>\n                    <img src=\"bees-with-color/bee-A1SF.svg\" width=\"200\">\n                    <p><span class=\"redText\">Bad choice, the bee was angry.</span><br><b>You have been stung!</b><br>Your pay has been decreased by $0.10. Your bonus pay is now $0.84.</p>\n            ","response":0,"trial_type":"html-button-response","trial_index":134,"time_elapsed":328055,"internal_node_id":"0.0-4.0-1.63","subject_id":"61758e857911e6827ce69fbe","study_id":"6197b3f67c2b5cd3b6d9596a","session_id":"6197ca0fc14cc19cdbef8b2c","condition":"full-information","relevant_dimensions":["wings","legs"],"bee_group":{"antennae":"X","wings":"1","pattern":"X","legs":"F"},"bonus":1.2800000000000011},{"rt":6099.5999999940395,"stimulus":"You have completed the first part of this experiment.<br><br>You will now begin a shorter second part, in which you will receive no feedback.<br>The same rules regarding bonus pay apply.<br><br>Press any key to begin.","response":"j","trial_type":"html-keyboard-response","trial_index":135,"time_elapsed":334157,"internal_node_id":"0.0-5.0","subject_id":"61758e857911e6827ce69fbe","study_id":"6197b3f67c2b5cd3b6d9596a","session_id":"6197ca0fc14cc19cdbef8b2c","condition":"full-information","relevant_dimensions":["wings","legs"],"bee_group":{"antennae":"X","wings":"1","pattern":"X","legs":"F"},"bonus":1.2800000000000011},{"rt":10057.10000000894,"stimulus":"bees-with-color/bee-A1SF.svg","response":1,"trial_type":"image-button-response","trial_index":136,"time_elapsed":344219,"internal_node_id":"0.0-6.0-0.0","subject_id":"61758e857911e6827ce69fbe","study_id":"6197b3f67c2b5cd3b6d9596a","session_id":"6197ca0fc14cc19cdbef8b2c","condition":"full-information","relevant_dimensions":["wings","legs"],"bee_group":{"antennae":"X","wings":"1","pattern":"X","legs":"F"},"bonus":1.2800000000000011},{"rt":1337.4000000059605,"stimulus":"bees-with-color/bee-B2SM.svg","response":0,"trial_type":"image-button-response","trial_index":137,"time_elapsed":345559,"internal_node_id":"0.0-6.0-0.1","subject_id":"61758e857911e6827ce69fbe","study_id":"6197b3f67c2b5cd3b6d9596a","session_id":"6197ca0fc14cc19cdbef8b2c","condition":"full-information","relevant_dimensions":["wings","legs"],"bee_group":{"antennae":"X","wings":"1","pattern":"X","legs":"F"},"bonus":1.2800000000000011},{"rt":855.8999999910593,"stimulus":"bees-with-color/bee-A1SM.svg","response":0,"trial_type":"image-button-response","trial_index":138,"time_elapsed":346417,"internal_node_id":"0.0-6.0-0.2","subject_id":"61758e857911e6827ce69fbe","study_id":"6197b3f67c2b5cd3b6d9596a","session_id":"6197ca0fc14cc19cdbef8b2c","condition":"full-information","relevant_dimensions":["wings","legs"],"bee_group":{"antennae":"X","wings":"1","pattern":"X","legs":"F"},"bonus":1.2800000000000011},{"rt":706,"stimulus":"bees-with-color/bee-B1SM.svg","response":0,"trial_type":"image-button-response","trial_index":139,"time_elapsed":347125,"internal_node_id":"0.0-6.0-0.3","subject_id":"61758e857911e6827ce69fbe","study_id":"6197b3f67c2b5cd3b6d9596a","session_id":"6197ca0fc14cc19cdbef8b2c","condition":"full-information","relevant_dimensions":["wings","legs"],"bee_group":{"antennae":"X","wings":"1","pattern":"X","legs":"F"},"bonus":1.2800000000000011},{"rt":1103.800000011921,"stimulus":"bees-with-color/bee-B2DF.svg","response":0,"trial_type":"image-button-response","trial_index":140,"time_elapsed":348231,"internal_node_id":"0.0-6.0-0.4","subject_id":"61758e857911e6827ce69fbe","study_id":"6197b3f67c2b5cd3b6d9596a","session_id":"6197ca0fc14cc19cdbef8b2c","condition":"full-information","relevant_dimensions":["wings","legs"],"bee_group":{"antennae":"X","wings":"1","pattern":"X","legs":"F"},"bonus":1.2800000000000011},{"rt":867.9000000059605,"stimulus":"bees-with-color/bee-B2SF.svg","response":1,"trial_type":"image-button-response","trial_index":141,"time_elapsed":349101,"internal_node_id":"0.0-6.0-0.5","subject_id":"61758e857911e6827ce69fbe","study_id":"6197b3f67c2b5cd3b6d9596a","session_id":"6197ca0fc14cc19cdbef8b2c","condition":"full-information","relevant_dimensions":["wings","legs"],"bee_group":{"antennae":"X","wings":"1","pattern":"X","legs":"F"},"bonus":1.2800000000000011},{"rt":739.5,"stimulus":"bees-with-color/bee-B1DM.svg","response":0,"trial_type":"image-button-response","trial_index":142,"time_elapsed":349843,"internal_node_id":"0.0-6.0-0.6","subject_id":"61758e857911e6827ce69fbe","study_id":"6197b3f67c2b5cd3b6d9596a","session_id":"6197ca0fc14cc19cdbef8b2c","condition":"full-information","relevant_dimensions":["wings","legs"],"bee_group":{"antennae":"X","wings":"1","pattern":"X","legs":"F"},"bonus":1.2800000000000011},{"rt":1072.2999999970198,"stimulus":"bees-with-color/bee-B1DF.svg","response":1,"trial_type":"image-button-response","trial_index":143,"time_elapsed":350918,"internal_node_id":"0.0-6.0-0.7","subject_id":"61758e857911e6827ce69fbe","study_id":"6197b3f67c2b5cd3b6d9596a","session_id":"6197ca0fc14cc19cdbef8b2c","condition":"full-information","relevant_dimensions":["wings","legs"],"bee_group":{"antennae":"X","wings":"1","pattern":"X","legs":"F"},"bonus":1.2800000000000011},{"rt":579,"stimulus":"bees-with-color/bee-A2SF.svg","response":0,"trial_type":"image-button-response","trial_index":144,"time_elapsed":351499,"internal_node_id":"0.0-6.0-0.8","subject_id":"61758e857911e6827ce69fbe","study_id":"6197b3f67c2b5cd3b6d9596a","session_id":"6197ca0fc14cc19cdbef8b2c","condition":"full-information","relevant_dimensions":["wings","legs"],"bee_group":{"antennae":"X","wings":"1","pattern":"X","legs":"F"},"bonus":1.2800000000000011},{"rt":930.1000000089407,"stimulus":"bees-with-color/bee-A1DM.svg","response":0,"trial_type":"image-button-response","trial_index":145,"time_elapsed":352431,"internal_node_id":"0.0-6.0-0.9","subject_id":"61758e857911e6827ce69fbe","study_id":"6197b3f67c2b5cd3b6d9596a","session_id":"6197ca0fc14cc19cdbef8b2c","condition":"full-information","relevant_dimensions":["wings","legs"],"bee_group":{"antennae":"X","wings":"1","pattern":"X","legs":"F"},"bonus":1.2800000000000011},{"rt":1353.7000000029802,"stimulus":"bees-with-color/bee-A2DF.svg","response":0,"trial_type":"image-button-response","trial_index":146,"time_elapsed":353787,"internal_node_id":"0.0-6.0-0.10","subject_id":"61758e857911e6827ce69fbe","study_id":"6197b3f67c2b5cd3b6d9596a","session_id":"6197ca0fc14cc19cdbef8b2c","condition":"full-information","relevant_dimensions":["wings","legs"],"bee_group":{"antennae":"X","wings":"1","pattern":"X","legs":"F"},"bonus":1.2800000000000011},{"rt":618.4000000059605,"stimulus":"bees-with-color/bee-A2DM.svg","response":0,"trial_type":"image-button-response","trial_index":147,"time_elapsed":354407,"internal_node_id":"0.0-6.0-0.11","subject_id":"61758e857911e6827ce69fbe","study_id":"6197b3f67c2b5cd3b6d9596a","session_id":"6197ca0fc14cc19cdbef8b2c","condition":"full-information","relevant_dimensions":["wings","legs"],"bee_group":{"antennae":"X","wings":"1","pattern":"X","legs":"F"},"bonus":1.2800000000000011},{"rt":853.5,"stimulus":"bees-with-color/bee-B1SF.svg","response":1,"trial_type":"image-button-response","trial_index":148,"time_elapsed":355263,"internal_node_id":"0.0-6.0-0.12","subject_id":"61758e857911e6827ce69fbe","study_id":"6197b3f67c2b5cd3b6d9596a","session_id":"6197ca0fc14cc19cdbef8b2c","condition":"full-information","relevant_dimensions":["wings","legs"],"bee_group":{"antennae":"X","wings":"1","pattern":"X","legs":"F"},"bonus":1.2800000000000011},{"rt":1418,"stimulus":"bees-with-color/bee-A1DF.svg","response":1,"trial_type":"image-button-response","trial_index":149,"time_elapsed":356684,"internal_node_id":"0.0-6.0-0.13","subject_id":"61758e857911e6827ce69fbe","study_id":"6197b3f67c2b5cd3b6d9596a","session_id":"6197ca0fc14cc19cdbef8b2c","condition":"full-information","relevant_dimensions":["wings","legs"],"bee_group":{"antennae":"X","wings":"1","pattern":"X","legs":"F"},"bonus":1.2800000000000011},{"rt":678.5,"stimulus":"bees-with-color/bee-B2DM.svg","response":0,"trial_type":"image-button-response","trial_index":150,"time_elapsed":357364,"internal_node_id":"0.0-6.0-0.14","subject_id":"61758e857911e6827ce69fbe","study_id":"6197b3f67c2b5cd3b6d9596a","session_id":"6197ca0fc14cc19cdbef8b2c","condition":"full-information","relevant_dimensions":["wings","legs"],"bee_group":{"antennae":"X","wings":"1","pattern":"X","legs":"F"},"bonus":1.2800000000000011},{"rt":937.9000000059605,"stimulus":"bees-with-color/bee-A2SM.svg","response":0,"trial_type":"image-button-response","trial_index":151,"time_elapsed":358303,"internal_node_id":"0.0-6.0-0.15","subject_id":"61758e857911e6827ce69fbe","study_id":"6197b3f67c2b5cd3b6d9596a","session_id":"6197ca0fc14cc19cdbef8b2c","condition":"full-information","relevant_dimensions":["wings","legs"],"bee_group":{"antennae":"X","wings":"1","pattern":"X","legs":"F"},"bonus":1.2800000000000011},{"rt":2276.2999999970198,"stimulus":"bees-with-color/bee-A2SF.svg","response":0,"trial_type":"image-button-response","trial_index":152,"time_elapsed":360582,"internal_node_id":"0.0-6.0-0.16","subject_id":"61758e857911e6827ce69fbe","study_id":"6197b3f67c2b5cd3b6d9596a","session_id":"6197ca0fc14cc19cdbef8b2c","condition":"full-information","relevant_dimensions":["wings","legs"],"bee_group":{"antennae":"X","wings":"1","pattern":"X","legs":"F"},"bonus":1.2800000000000011},{"rt":1221.2000000029802,"stimulus":"bees-with-color/bee-B2DF.svg","response":0,"trial_type":"image-button-response","trial_index":153,"time_elapsed":361804,"internal_node_id":"0.0-6.0-0.17","subject_id":"61758e857911e6827ce69fbe","study_id":"6197b3f67c2b5cd3b6d9596a","session_id":"6197ca0fc14cc19cdbef8b2c","condition":"full-information","relevant_dimensions":["wings","legs"],"bee_group":{"antennae":"X","wings":"1","pattern":"X","legs":"F"},"bonus":1.2800000000000011},{"rt":575.8000000119209,"stimulus":"bees-with-color/bee-B1DM.svg","response":0,"trial_type":"image-button-response","trial_index":154,"time_elapsed":362382,"internal_node_id":"0.0-6.0-0.18","subject_id":"61758e857911e6827ce69fbe","study_id":"6197b3f67c2b5cd3b6d9596a","session_id":"6197ca0fc14cc19cdbef8b2c","condition":"full-information","relevant_dimensions":["wings","legs"],"bee_group":{"antennae":"X","wings":"1","pattern":"X","legs":"F"},"bonus":1.2800000000000011},{"rt":798.2000000029802,"stimulus":"bees-with-color/bee-A2SM.svg","response":0,"trial_type":"image-button-response","trial_index":155,"time_elapsed":363182,"internal_node_id":"0.0-6.0-0.19","subject_id":"61758e857911e6827ce69fbe","study_id":"6197b3f67c2b5cd3b6d9596a","session_id":"6197ca0fc14cc19cdbef8b2c","condition":"full-information","relevant_dimensions":["wings","legs"],"bee_group":{"antennae":"X","wings":"1","pattern":"X","legs":"F"},"bonus":1.2800000000000011},{"rt":1224,"stimulus":"bees-with-color/bee-B1DF.svg","response":1,"trial_type":"image-button-response","trial_index":156,"time_elapsed":364408,"internal_node_id":"0.0-6.0-0.20","subject_id":"61758e857911e6827ce69fbe","study_id":"6197b3f67c2b5cd3b6d9596a","session_id":"6197ca0fc14cc19cdbef8b2c","condition":"full-information","relevant_dimensions":["wings","legs"],"bee_group":{"antennae":"X","wings":"1","pattern":"X","legs":"F"},"bonus":1.2800000000000011},{"rt":606,"stimulus":"bees-with-color/bee-A1SM.svg","response":0,"trial_type":"image-button-response","trial_index":157,"time_elapsed":365015,"internal_node_id":"0.0-6.0-0.21","subject_id":"61758e857911e6827ce69fbe","study_id":"6197b3f67c2b5cd3b6d9596a","session_id":"6197ca0fc14cc19cdbef8b2c","condition":"full-information","relevant_dimensions":["wings","legs"],"bee_group":{"antennae":"X","wings":"1","pattern":"X","legs":"F"},"bonus":1.2800000000000011},{"rt":3040.2999999970198,"stimulus":"bees-with-color/bee-A1SF.svg","response":1,"trial_type":"image-button-response","trial_index":158,"time_elapsed":368057,"internal_node_id":"0.0-6.0-0.22","subject_id":"61758e85