[{"success":true,"trial_type":"fullscreen","trial_index":0,"time_elapsed":80221,"internal_node_id":"0.0-0.0","subject_id":"5c014b9ef70a16000191765c","study_id":"60edd13110225f80f9f3709b","session_id":"6196c4a7576d470aed92d8f7","condition":"contingent","relevant_dimensions":["pattern","legs"],"bee_group":{"antennae":"X","wings":"X","pattern":"D","legs":"M"},"bonus":1.2000000000000013},{"success":true,"timeout":false,"failed_images":[],"failed_audio":[],"failed_video":[],"trial_type":"preload","trial_index":1,"time_elapsed":81611,"internal_node_id":"0.0-1.0","subject_id":"5c014b9ef70a16000191765c","study_id":"60edd13110225f80f9f3709b","session_id":"6196c4a7576d470aed92d8f7","condition":"contingent","relevant_dimensions":["pattern","legs"],"bee_group":{"antennae":"X","wings":"X","pattern":"D","legs":"M"},"bonus":1.2000000000000013},{"rt":3049.199999999255,"stimulus":"Welcome! Press any key to begin.","response":" ","trial_type":"html-keyboard-response","trial_index":2,"time_elapsed":84661,"internal_node_id":"0.0-2.0","subject_id":"5c014b9ef70a16000191765c","study_id":"60edd13110225f80f9f3709b","session_id":"6196c4a7576d470aed92d8f7","condition":"contingent","relevant_dimensions":["pattern","legs"],"bee_group":{"antennae":"X","wings":"X","pattern":"D","legs":"M"},"bonus":1.2000000000000013},{"view_history":[{"page_index":0,"viewing_time":3912.699999999255},{"page_index":1,"viewing_time":8174.89999999851},{"page_index":2,"viewing_time":90025.70000000298},{"page_index":3,"viewing_time":21818.199999999255},{"page_index":4,"viewing_time":9160.699999999255},{"page_index":5,"viewing_time":29799.10000000149},{"page_index":6,"viewing_time":7322.39999999851},{"page_index":7,"viewing_time":3695.699999999255},{"page_index":8,"viewing_time":2666.60000000149},{"page_index":9,"viewing_time":2834.5},{"page_index":10,"viewing_time":1719},{"page_index":11,"viewing_time":8849.099999997765},{"page_index":12,"viewing_time":7548.400000002235},{"page_index":13,"viewing_time":2223.89999999851},{"page_index":14,"viewing_time":2253.199999999255}],"rt":202004.5,"trial_type":"instructions","trial_index":3,"time_elapsed":286660,"internal_node_id":"0.0-3.0-0.0","subject_id":"5c014b9ef70a16000191765c","study_id":"60edd13110225f80f9f3709b","session_id":"6196c4a7576d470aed92d8f7","condition":"contingent","relevant_dimensions":["pattern","legs"],"bee_group":{"antennae":"X","wings":"X","pattern":"D","legs":"M"},"bonus":1.2000000000000013},{"rt":22452,"response":{"Q0":["Two or six legs","Stripes or spots on body","Single or double wings","Antennae or no antennae"]},"question_order":[0],"trial_type":"survey-multi-select","trial_index":4,"time_elapsed":309118,"internal_node_id":"0.0-3.0-1.0","subject_id":"5c014b9ef70a16000191765c","study_id":"60edd13110225f80f9f3709b","session_id":"6196c4a7576d470aed92d8f7","condition":"contingent","relevant_dimensions":["pattern","legs"],"bee_group":{"antennae":"X","wings":"X","pattern":"D","legs":"M"},"correct":true,"bonus":1.2000000000000013},{"rt":23387.199999999255,"response":{"Q1":"No.","Q2":"Based on the four features of the bee.","Q3":"You do not learn if it was friendly or dangerous, and do not alter your bonus."},"question_order":[0,1,2],"trial_type":"survey-multi-choice","trial_index":5,"time_elapsed":332507,"internal_node_id":"0.0-3.0-2.0","subject_id":"5c014b9ef70a16000191765c","study_id":"60edd13110225f80f9f3709b","session_id":"6196c4a7576d470aed92d8f7","condition":"contingent","relevant_dimensions":["pattern","legs"],"bee_group":{"antennae":"X","wings":"X","pattern":"D","legs":"M"},"correct":true,"bonus":1.2000000000000013},{"rt":2694.300000000745,"stimulus":"<p>Congrats, you got everything right<br>When you're ready, click the button below to continue to the experiment.</p>","response":0,"trial_type":"html-button-response","trial_index":6,"time_elapsed":335204,"internal_node_id":"0.0-3.0-3.0","subject_id":"5c014b9ef70a16000191765c","study_id":"60edd13110225f80f9f3709b","session_id":"6196c4a7576d470aed92d8f7","condition":"contingent","relevant_dimensions":["pattern","legs"],"bee_group":{"antennae":"X","wings":"X","pattern":"D","legs":"M"},"bonus":1.2000000000000013},{"rt":2911.400000002235,"stimulus":"bees-with-color/bee-B1SF.svg","response":0,"trial_type":"image-button-response","trial_index":7,"time_elapsed":338119,"internal_node_id":"0.0-4.0-0.0","subject_id":"5c014b9ef70a16000191765c","study_id":"60edd13110225f80f9f3709b","session_id":"6196c4a7576d470aed92d8f7","condition":"contingent","relevant_dimensions":["pattern","legs"],"bee_group":{"antennae":"X","wings":"X","pattern":"D","legs":"M"},"action":"harvest","summary":"good-harvest","bonus":1.2000000000000013},{"rt":4881.29999999702,"stimulus":"\n                    <p><b>Action: <em>harvest</em></b></p>\n                    <p>This is the bee that you just saw.</p>\n                    <img src=\"bees-with-color/bee-B1SF.svg\" width=\"200\">\n                    <p><span class=\"greenText\"><b>Successful harvest!</b></span><br>Your pay has increased by $0.02. Your bonus pay is now $0.56.</p>\n            ","response":0,"trial_type":"html-button-response","trial_index":8,"time_elapsed":343002,"internal_node_id":"0.0-4.0-1.0","subject_id":"5c014b9ef70a16000191765c","study_id":"60edd13110225f80f9f3709b","session_id":"6196c4a7576d470aed92d8f7","condition":"contingent","relevant_dimensions":["pattern","legs"],"bee_group":{"antennae":"X","wings":"X","pattern":"D","legs":"M"},"bonus":1.2000000000000013},{"rt":2213.599999997765,"stimulus":"bees-with-color/bee-A2DF.svg","response":1,"trial_type":"image-button-response","trial_index":9,"time_elapsed":345218,"internal_node_id":"0.0-4.0-0.1","subject_id":"5c014b9ef70a16000191765c","study_id":"60edd13110225f80f9f3709b","session_id":"6196c4a7576d470aed92d8f7","condition":"contingent","relevant_dimensions":["pattern","legs"],"bee_group":{"antennae":"X","wings":"X","pattern":"D","legs":"M"},"action":"avoid","summary":"bad-avoid","bonus":1.2000000000000013},{"rt":3456.5,"stimulus":"\n                    <p><b>Action: <em>avoid</em></b></p>\n                    <p>This is the bee that you just saw.</p>\n                    <img src=\"bees-with-color/bee-A2DF.svg\" width=\"200\">\n                    <p><br>Your bonus pay is unchanged, and remains at $0.56.</p>\n            ","response":0,"trial_type":"html-button-response","trial_index":10,"time_elapsed":348677,"internal_node_id":"0.0-4.0-1.1","subject_id":"5c014b9ef70a16000191765c","study_id":"60edd13110225f80f9f3709b","session_id":"6196c4a7576d470aed92d8f7","condition":"contingent","relevant_dimensions":["pattern","legs"],"bee_group":{"antennae":"X","wings":"X","pattern":"D","legs":"M"},"bonus":1.2000000000000013},{"rt":2479,"stimulus":"bees-with-color/bee-A2DM.svg","response":0,"trial_type":"image-button-response","trial_index":11,"time_elapsed":351158,"internal_node_id":"0.0-4.0-0.2","subject_id":"5c014b9ef70a16000191765c","study_id":"60edd13110225f80f9f3709b","session_id":"6196c4a7576d470aed92d8f7","condition":"contingent","relevant_dimensions":["pattern","legs"],"bee_group":{"antennae":"X","wings":"X","pattern":"D","legs":"M"},"action":"harvest","summary":"bad-harvest","bonus":1.2000000000000013},{"rt":3683.199999999255,"stimulus":"\n                    <p><b>Action: <em>harvest</em></b></p>\n                    <p>This is the bee that you just saw.</p>\n                    <img src=\"bees-with-color/bee-A2DM.svg\" width=\"200\">\n                    <p><span class=\"redText\">Bad choice, the bee was angry.</span><br><b>You have been stung!</b><br>Your pay has been decreased by $0.10. Your bonus pay is now $0.46.</p>\n            ","response":0,"trial_type":"html-button-response","trial_index":12,"time_elapsed":354843,"internal_node_id":"0.0-4.0-1.2","subject_id":"5c014b9ef70a16000191765c","study_id":"60edd13110225f80f9f3709b","session_id":"6196c4a7576d470aed92d8f7","condition":"contingent","relevant_dimensions":["pattern","legs"],"bee_group":{"antennae":"X","wings":"X","pattern":"D","legs":"M"},"bonus":1.2000000000000013},{"rt":1899.0999999977648,"stimulus":"bees-with-color/bee-A2SM.svg","response":0,"trial_type":"image-button-response","trial_index":13,"time_elapsed":356744,"internal_node_id":"0.0-4.0-0.3","subject_id":"5c014b9ef70a16000191765c","study_id":"60edd13110225f80f9f3709b","session_id":"6196c4a7576d470aed92d8f7","condition":"contingent","relevant_dimensions":["pattern","legs"],"bee_group":{"antennae":"X","wings":"X","pattern":"D","legs":"M"},"action":"harvest","summary":"good-harvest","bonus":1.2000000000000013},{"rt":1771.300000000745,"stimulus":"\n                    <p><b>Action: <em>harvest</em></b></p>\n                    <p>This is the bee that you just saw.</p>\n                    <img src=\"bees-with-color/bee-A2SM.svg\" width=\"200\">\n                    <p><span class=\"greenText\"><b>Successful harvest!</b></span><br>Your pay has increased by $0.02. Your bonus pay is now $0.48.</p>\n            ","response":0,"trial_type":"html-button-response","trial_index":14,"time_elapsed":358517,"internal_node_id":"0.0-4.0-1.3","subject_id":"5c014b9ef70a16000191765c","study_id":"60edd13110225f80f9f3709b","session_id":"6196c4a7576d470aed92d8f7","condition":"contingent","relevant_dimensions":["pattern","legs"],"bee_group":{"antennae":"X","wings":"X","pattern":"D","legs":"M"},"bonus":1.2000000000000013},{"rt":1720.1000000014901,"stimulus":"bees-with-color/bee-B2DM.svg","response":1,"trial_type":"image-button-response","trial_index":15,"time_elapsed":360240,"internal_node_id":"0.0-4.0-0.4","subject_id":"5c014b9ef70a16000191765c","study_id":"60edd13110225f80f9f3709b","session_id":"6196c4a7576d470aed92d8f7","condition":"contingent","relevant_dimensions":["pattern","legs"],"bee_group":{"antennae":"X","wings":"X","pattern":"D","legs":"M"},"action":"avoid","summary":"good-avoid","bonus":1.2000000000000013},{"rt":3267,"stimulus":"\n                    <p><b>Action: <em>avoid</em></b></p>\n                    <p>This is the bee that you just saw.</p>\n                    <img src=\"bees-with-color/bee-B2DM.svg\" width=\"200\">\n                    <p><br>Your bonus pay is unchanged, and remains at $0.48.</p>\n            ","response":0,"trial_type":"html-button-response","trial_index":16,"time_elapsed":363509,"internal_node_id":"0.0-4.0-1.4","subject_id":"5c014b9ef70a16000191765c","study_id":"60edd13110225f80f9f3709b","session_id":"6196c4a7576d470aed92d8f7","condition":"contingent","relevant_dimensions":["pattern","legs"],"bee_group":{"antennae":"X","wings":"X","pattern":"D","legs":"M"},"bonus":1.2000000000000013},{"rt":1563.9000000022352,"stimulus":"bees-with-color/bee-B1DF.svg","response":1,"trial_type":"image-button-response","trial_index":17,"time_elapsed":365074,"internal_node_id":"0.0-4.0-0.5","subject_id":"5c014b9ef70a16000191765c","study_id":"60edd13110225f80f9f3709b","session_id":"6196c4a7576d470aed92d8f7","condition":"contingent","relevant_dimensions":["pattern","legs"],"bee_group":{"antennae":"X","wings":"X","pattern":"D","legs":"M"},"action":"avoid","summary":"bad-avoid","bonus":1.2000000000000013},{"rt":1346.3999999985099,"stimulus":"\n                    <p><b>Action: <em>avoid</em></b></p>\n                    <p>This is the bee that you just saw.</p>\n                    <img src=\"bees-with-color/bee-B1DF.svg\" width=\"200\">\n                    <p><br>Your bonus pay is unchanged, and remains at $0.48.</p>\n            ","response":0,"trial_type":"html-button-response","trial_index":18,"time_elapsed":366422,"internal_node_id":"0.0-4.0-1.5","subject_id":"5c014b9ef70a16000191765c","study_id":"60edd13110225f80f9f3709b","session_id":"6196c4a7576d470aed92d8f7","condition":"contingent","relevant_dimensions":["pattern","legs"],"bee_group":{"antennae":"X","wings":"X","pattern":"D","legs":"M"},"bonus":1.2000000000000013},{"rt":1515.699999999255,"stimulus":"bees-with-color/bee-B2SM.svg","response":0,"trial_type":"image-button-response","trial_index":19,"time_elapsed":367940,"internal_node_id":"0.0-4.0-0.6","subject_id":"5c014b9ef70a16000191765c","study_id":"60edd13110225f80f9f3709b","session_id":"6196c4a7576d470aed92d8f7","condition":"contingent","relevant_dimensions":["pattern","legs"],"bee_group":{"antennae":"X","wings":"X","pattern":"D","legs":"M"},"action":"harvest","summary":"good-harvest","bonus":1.2000000000000013},{"rt":1264.699999999255,"stimulus":"\n                    <p><b>Action: <em>harvest</em></b></p>\n                    <p>This is the bee that you just saw.</p>\n                    <img src=\"bees-with-color/bee-B2SM.svg\" width=\"200\">\n                    <p><span class=\"greenText\"><b>Successful harvest!</b></span><br>Your pay has increased by $0.02. Your bonus pay is now $0.50.</p>\n            ","response":0,"trial_type":"html-button-response","trial_index":20,"time_elapsed":369206,"internal_node_id":"0.0-4.0-1.6","subject_id":"5c014b9ef70a16000191765c","study_id":"60edd13110225f80f9f3709b","session_id":"6196c4a7576d470aed92d8f7","condition":"contingent","relevant_dimensions":["pattern","legs"],"bee_group":{"antennae":"X","wings":"X","pattern":"D","legs":"M"},"bonus":1.2000000000000013},{"rt":1312.3999999985099,"stimulus":"bees-with-color/bee-B1SM.svg","response":0,"trial_type":"image-button-response","trial_index":21,"time_elapsed":370520,"internal_node_id":"0.0-4.0-0.7","subject_id":"5c014b9ef70a16000191765c","study_id":"60edd13110225f80f9f3709b","session_id":"6196c4a7576d470aed92d8f7","condition":"contingent","relevant_dimensions":["pattern","legs"],"bee_group":{"antennae":"X","wings":"X","pattern":"D","legs":"M"},"action":"harvest","summary":"good-harvest","bonus":1.2000000000000013},{"rt":1596.2000000029802,"stimulus":"\n                    <p><b>Action: <em>harvest</em></b></p>\n                    <p>This is the bee that you just saw.</p>\n                    <img src=\"bees-with-color/bee-B1SM.svg\" width=\"200\">\n                    <p><span class=\"greenText\"><b>Successful harvest!</b></span><br>Your pay has increased by $0.02. Your bonus pay is now $0.52.</p>\n            ","response":0,"trial_type":"html-button-response","trial_index":22,"time_elapsed":372118,"internal_node_id":"0.0-4.0-1.7","subject_id":"5c014b9ef70a16000191765c","study_id":"60edd13110225f80f9f3709b","session_id":"6196c4a7576d470aed92d8f7","condition":"contingent","relevant_dimensions":["pattern","legs"],"bee_group":{"antennae":"X","wings":"X","pattern":"D","legs":"M"},"bonus":1.2000000000000013},{"rt":2343.800000000745,"stimulus":"bees-with-color/bee-B1DM.svg","response":1,"trial_type":"image-button-response","trial_index":23,"time_elapsed":374464,"internal_node_id":"0.0-4.0-0.8","subject_id":"5c014b9ef70a16000191765c","study_id":"60edd13110225f80f9f3709b","session_id":"6196c4a7576d470aed92d8f7","condition":"contingent","relevant_dimensions":["pattern","legs"],"bee_group":{"antennae":"X","wings":"X","pattern":"D","legs":"M"},"action":"avoid","summary":"good-avoid","bonus":1.2000000000000013},{"rt":1303.300000000745,"stimulus":"\n                    <p><b>Action: <em>avoid</em></b></p>\n                    <p>This is the bee that you just saw.</p>\n                    <img src=\"bees-with-color/bee-B1DM.svg\" width=\"200\">\n                    <p><br>Your bonus pay is unchanged, and remains at $0.52.</p>\n            ","response":0,"trial_type":"html-button-response","trial_index":24,"time_elapsed":375769,"internal_node_id":"0.0-4.0-1.8","subject_id":"5c014b9ef70a16000191765c","study_id":"60edd13110225f80f9f3709b","session_id":"6196c4a7576d470aed92d8f7","condition":"contingent","relevant_dimensions":["pattern","legs"],"bee_group":{"antennae":"X","wings":"X","pattern":"D","legs":"M"},"bonus":1.2000000000000013},{"rt":1774.8999999985099,"stimulus":"bees-with-color/bee-A2SF.svg","response":0,"trial_type":"image-button-response","trial_index":25,"time_elapsed":377546,"internal_node_id":"0.0-4.0-0.9","subject_id":"5c014b9ef70a16000191765c","study_id":"60edd13110225f80f9f3709b","session_id":"6196c4a7576d470aed92d8f7","condition":"contingent","relevant_dimensions":["pattern","legs"],"bee_group":{"antennae":"X","wings":"X","pattern":"D","legs":"M"},"action":"harvest","summary":"good-harvest","bonus":1.2000000000000013},{"rt":1484.2000000029802,"stimulus":"\n                    <p><b>Action: <em>harvest</em></b></p>\n                    <p>This is the bee that you just saw.</p>\n                    <img src=\"bees-with-color/bee-A2SF.svg\" width=\"200\">\n                    <p><span class=\"greenText\"><b>Successful harvest!</b></span><br>Your pay has increased by $0.02. Your bonus pay is now $0.54.</p>\n            ","response":0,"trial_type":"html-button-response","trial_index":26,"time_elapsed":379032,"internal_node_id":"0.0-4.0-1.9","subject_id":"5c014b9ef70a16000191765c","study_id":"60edd13110225f80f9f3709b","session_id":"6196c4a7576d470aed92d8f7","condition":"contingent","relevant_dimensions":["pattern","legs"],"bee_group":{"antennae":"X","wings":"X","pattern":"D","legs":"M"},"bonus":1.2000000000000013},{"rt":1758.5999999977648,"stimulus":"bees-with-color/bee-A1DF.svg","response":1,"trial_type":"image-button-response","trial_index":27,"time_elapsed":380792,"internal_node_id":"0.0-4.0-0.10","subject_id":"5c014b9ef70a16000191765c","study_id":"60edd13110225f80f9f3709b","session_id":"6196c4a7576d470aed92d8f7","condition":"contingent","relevant_dimensions":["pattern","legs"],"bee_group":{"antennae":"X","wings":"X","pattern":"D","legs":"M"},"action":"avoid","summary":"bad-avoid","bonus":1.2000000000000013},{"rt":1292.0999999977648,"stimulus":"\n                    <p><b>Action: <em>avoid</em></b></p>\n                    <p>This is the bee that you just saw.</p>\n                    <img src=\"bees-with-color/bee-A1DF.svg\" width=\"200\">\n                    <p><br>Your bonus pay is unchanged, and remains at $0.54.</p>\n            ","response":0,"trial_type":"html-button-response","trial_index":28,"time_elapsed":382086,"internal_node_id":"0.0-4.0-1.10","subject_id":"5c014b9ef70a16000191765c","study_id":"60edd13110225f80f9f3709b","session_id":"6196c4a7576d470aed92d8f7","condition":"contingent","relevant_dimensions":["pattern","legs"],"bee_group":{"antennae":"X","wings":"X","pattern":"D","legs":"M"},"bonus":1.2000000000000013},{"rt":2514,"stimulus":"bees-with-color/bee-A1SF.svg","response":0,"trial_type":"image-button-response","trial_index":29,"time_elapsed":384602,"internal_node_id":"0.0-4.0-0.11","subject_id":"5c014b9ef70a16000191765c","study_id":"60edd13110225f80f9f3709b","session_id":"6196c4a7576d470aed92d8f7","condition":"contingent","relevant_dimensions":["pattern","legs"],"bee_group":{"antennae":"X","wings":"X","pattern":"D","legs":"M"},"action":"harvest","summary":"good-harvest","bonus":1.2000000000000013},{"rt":1731.800000000745,"stimulus":"\n                    <p><b>Action: <em>harvest</em></b></p>\n                    <p>This is the bee that you just saw.</p>\n                    <img src=\"bees-with-color/bee-A1SF.svg\" width=\"200\">\n                    <p><span class=\"greenText\"><b>Successful harvest!</b></span><br>Your pay has increased by $0.02. Your bonus pay is now $0.56.</p>\n            ","response":0,"trial_type":"html-button-response","trial_index":30,"time_elapsed":386335,"internal_node_id":"0.0-4.0-1.11","subject_id":"5c014b9ef70a16000191765c","study_id":"60edd13110225f80f9f3709b","session_id":"6196c4a7576d470aed92d8f7","condition":"contingent","relevant_dimensions":["pattern","legs"],"bee_group":{"antennae":"X","wings":"X","pattern":"D","legs":"M"},"bonus":1.2000000000000013},{"rt":2610.300000000745,"stimulus":"bees-with-color/bee-B2DF.svg","response":0,"trial_type":"image-button-response","trial_index":31,"time_elapsed":388948,"internal_node_id":"0.0-4.0-0.12","subject_id":"5c014b9ef70a16000191765c","study_id":"60edd13110225f80f9f3709b","session_id":"6196c4a7576d470aed92d8f7","condition":"contingent","relevant_dimensions":["pattern","legs"],"bee_group":{"antennae":"X","wings":"X","pattern":"D","legs":"M"},"action":"harvest","summary":"good-harvest","bonus":1.2000000000000013},{"rt":1651.300000000745,"stimulus":"\n                    <p><b>Action: <em>harvest</em></b></p>\n                    <p>This is the bee that you just saw.</p>\n                    <img src=\"bees-with-color/bee-B2DF.svg\" width=\"200\">\n                    <p><span class=\"greenText\"><b>Successful harvest!</b></span><br>Your pay has increased by $0.02. Your bonus pay is now $0.58.</p>\n            ","response":0,"trial_type":"html-button-response","trial_index":32,"time_elapsed":390601,"internal_node_id":"0.0-4.0-1.12","subject_id":"5c014b9ef70a16000191765c","study_id":"60edd13110225f80f9f3709b","session_id":"6196c4a7576d470aed92d8f7","condition":"contingent","relevant_dimensions":["pattern","legs"],"bee_group":{"antennae":"X","wings":"X","pattern":"D","legs":"M"},"bonus":1.2000000000000013},{"rt":1581,"stimulus":"bees-with-color/bee-B2SF.svg","response":0,"trial_type":"image-button-response","trial_index":33,"time_elapsed":392184,"internal_node_id":"0.0-4.0-0.13","subject_id":"5c014b9ef70a16000191765c","study_id":"60edd13110225f80f9f3709b","session_id":"6196c4a7576d470aed92d8f7","condition":"contingent","relevant_dimensions":["pattern","legs"],"bee_group":{"antennae":"X","wings":"X","pattern":"D","legs":"M"},"action":"harvest","summary":"good-harvest","bonus":1.2000000000000013},{"rt":1434.8999999985099,"stimulus":"\n                    <p><b>Action: <em>harvest</em></b></p>\n                    <p>This is the bee that you just saw.</p>\n                    <img src=\"bees-with-color/bee-B2SF.svg\" width=\"200\">\n                    <p><span class=\"greenText\"><b>Successful harvest!</b></span><br>Your pay has increased by $0.02. Your bonus pay is now $0.60.</p>\n            ","response":0,"trial_type":"html-button-response","trial_index":34,"time_elapsed":393620,"internal_node_id":"0.0-4.0-1.13","subject_id":"5c014b9ef70a16000191765c","study_id":"60edd13110225f80f9f3709b","session_id":"6196c4a7576d470aed92d8f7","condition":"contingent","relevant_dimensions":["pattern","legs"],"bee_group":{"antennae":"X","wings":"X","pattern":"D","legs":"M"},"bonus":1.2000000000000013},{"rt":3419,"stimulus":"bees-with-color/bee-A1DM.svg","response":1,"trial_type":"image-button-response","trial_index":35,"time_elapsed":397042,"internal_node_id":"0.0-4.0-0.14","subject_id":"5c014b9ef70a16000191765c","study_id":"60edd13110225f80f9f3709b","session_id":"6196c4a7576d470aed92d8f7","condition":"contingent","relevant_dimensions":["pattern","legs"],"bee_group":{"antennae":"X","wings":"X","pattern":"D","legs":"M"},"action":"avoid","summary":"good-avoid","bonus":1.2000000000000013},{"rt":4292.5,"stimulus":"\n                    <p><b>Action: <em>avoid</em></b></p>\n                    <p>This is the bee that you just saw.</p>\n                    <img src=\"bees-with-color/bee-A1DM.svg\" width=\"200\">\n                    <p><br>Your bonus pay is unchanged, and remains at $0.60.</p>\n            ","response":0,"trial_type":"html-button-response","trial_index":36,"time_elapsed":401335,"internal_node_id":"0.0-4.0-1.14","subject_id":"5c014b9ef70a16000191765c","study_id":"60edd13110225f80f9f3709b","session_id":"6196c4a7576d470aed92d8f7","condition":"contingent","relevant_dimensions":["pattern","legs"],"bee_group":{"antennae":"X","wings":"X","pattern":"D","legs":"M"},"bonus":1.2000000000000013},{"rt":1967.800000000745,"stimulus":"bees-with-color/bee-A1SM.svg","response":0,"trial_type":"image-button-response","trial_index":37,"time_elapsed":403305,"internal_node_id":"0.0-4.0-0.15","subject_id":"5c014b9ef70a16000191765c","study_id":"60edd13110225f80f9f3709b","session_id":"6196c4a7576d470aed92d8f7","condition":"contingent","relevant_dimensions":["pattern","legs"],"bee_group":{"antennae":"X","wings":"X","pattern":"D","legs":"M"},"action":"harvest","summary":"good-harvest","bonus":1.2000000000000013},{"rt":1630,"stimulus":"\n                    <p><b>Action: <em>harvest</em></b></p>\n                    <p>This is the bee that you just saw.</p>\n                    <img src=\"bees-with-color/bee-A1SM.svg\" width=\"200\">\n                    <p><span class=\"greenText\"><b>Successful harvest!</b></span><br>Your pay has increased by $0.02. Your bonus pay is now $0.62.</p>\n            ","response":0,"trial_type":"html-button-response","trial_index":38,"time_elapsed":404937,"internal_node_id":"0.0-4.0-1.15","subject_id":"5c014b9ef70a16000191765c","study_id":"60edd13110225f80f9f3709b","session_id":"6196c4a7576d470aed92d8f7","condition":"contingent","relevant_dimensions":["pattern","legs"],"bee_group":{"antennae":"X","wings":"X","pattern":"D","legs":"M"},"bonus":1.2000000000000013},{"rt":2499.699999999255,"stimulus":"bees-with-color/bee-B1DM.svg","response":0,"trial_type":"image-button-response","trial_index":39,"time_elapsed":407438,"internal_node_id":"0.0-4.0-0.16","subject_id":"5c014b9ef70a16000191765c","study_id":"60edd13110225f80f9f3709b","session_id":"6196c4a7576d470aed92d8f7","condition":"contingent","relevant_dimensions":["pattern","legs"],"bee_group":{"antennae":"X","wings":"X","pattern":"D","legs":"M"},"action":"harvest","summary":"bad-harvest","bonus":1.2000000000000013},{"rt":2360.39999999851,"stimulus":"\n                    <p><b>Action: <em>harvest</em></b></p>\n                    <p>This is the bee that you just saw.</p>\n                    <img src=\"bees-with-color/bee-B1DM.svg\" width=\"200\">\n                    <p><span class=\"redText\">Bad choice, the bee was angry.</span><br><b>You have been stung!</b><br>Your pay has been decreased by $0.10. Your bonus pay is now $0.52.</p>\n            ","response":0,"trial_type":"html-button-response","trial_index":40,"time_elapsed":409800,"internal_node_id":"0.0-4.0-1.16","subject_id":"5c014b9ef70a16000191765c","study_id":"60edd13110225f80f9f3709b","session_id":"6196c4a7576d470aed92d8f7","condition":"contingent","relevant_dimensions":["pattern","legs"],"bee_group":{"antennae":"X","wings":"X","pattern":"D","legs":"M"},"bonus":1.2000000000000013},{"rt":1872.3999999985099,"stimulus":"bees-with-color/bee-B1SF.svg","response":0,"trial_type":"image-button-response","trial_index":41,"time_elapsed":411675,"internal_node_id":"0.0-4.0-0.17","subject_id":"5c014b9ef70a16000191765c","study_id":"60edd13110225f80f9f3709b","session_id":"6196c4a7576d470aed92d8f7","condition":"contingent","relevant_dimensions":["pattern","legs"],"bee_group":{"antennae":"X","wings":"X","pattern":"D","legs":"M"},"action":"harvest","summary":"good-harvest","bonus":1.2000000000000013},{"rt":1543.5,"stimulus":"\n                    <p><b>Action: <em>harvest</em></b></p>\n                    <p>This is the bee that you just saw.</p>\n                    <img src=\"bees-with-color/bee-B1SF.svg\" width=\"200\">\n                    <p><span class=\"greenText\"><b>Successful harvest!</b></span><br>Your pay has increased by $0.02. Your bonus pay is now $0.54.</p>\n            ","response":0,"trial_type":"html-button-response","trial_index":42,"time_elapsed":413220,"internal_node_id":"0.0-4.0-1.17","subject_id":"5c014b9ef70a16000191765c","study_id":"60edd13110225f80f9f3709b","session_id":"6196c4a7576d470aed92d8f7","condition":"contingent","relevant_dimensions":["pattern","legs"],"bee_group":{"antennae":"X","wings":"X","pattern":"D","legs":"M"},"bonus":1.2000000000000013},{"rt":2083.2000000029802,"stimulus":"bees-with-color/bee-B2SM.svg","response":0,"trial_type":"image-button-response","trial_index":43,"time_elapsed":415305,"internal_node_id":"0.0-4.0-0.18","subject_id":"5c014b9ef70a16000191765c","study_id":"60edd13110225f80f9f3709b","session_id":"6196c4a7576d470aed92d8f7","condition":"contingent","relevant_dimensions":["pattern","legs"],"bee_group":{"antennae":"X","wings":"X","pattern":"D","legs":"M"},"action":"harvest","summary":"good-harvest","bonus":1.2000000000000013},{"rt":1815.800000000745,"stimulus":"\n                    <p><b>Action: <em>harvest</em></b></p>\n                    <p>This is the bee that you just saw.</p>\n                    <img src=\"bees-with-color/bee-B2SM.svg\" width=\"200\">\n                    <p><span class=\"greenText\"><b>Successful harvest!</b></span><br>Your pay has increased by $0.02. Your bonus pay is now $0.56.</p>\n            ","response":0,"trial_type":"html-button-response","trial_index":44,"time_elapsed":417122,"internal_node_id":"0.0-4.0-1.18","subject_id":"5c014b9ef70a16000191765c","study_id":"60edd13110225f80f9f3709b","session_id":"6196c4a7576d470aed92d8f7","condition":"contingent","relevant_dimensions":["pattern","legs"],"bee_group":{"antennae":"X","wings":"X","pattern":"D","legs":"M"},"bonus":1.2000000000000013},{"rt":2065.199999999255,"stimulus":"bees-with-color/bee-A1DF.svg","response":0,"trial_type":"image-button-response","trial_index":45,"time_elapsed":419189,"internal_node_id":"0.0-4.0-0.19","subject_id":"5c014b9ef70a16000191765c","study_id":"60edd13110225f80f9f3709b","session_id":"6196c4a7576d470aed92d8f7","condition":"contingent","relevant_dimensions":["pattern","legs"],"bee_group":{"antennae":"X","wings":"X","pattern":"D","legs":"M"},"action":"harvest","summary":"good-harvest","bonus":1.2000000000000013},{"rt":1555.3999999985099,"stimulus":"\n                    <p><b>Action: <em>harvest</em></b></p>\n                    <p>This is the bee that you just saw.</p>\n                    <img src=\"bees-with-color/bee-A1DF.svg\" width=\"200\">\n                    <p><span class=\"greenText\"><b>Successful harvest!</b></span><br>Your pay has increased by $0.02. Your bonus pay is now $0.58.</p>\n            ","response":0,"trial_type":"html-button-response","trial_index":46,"time_elapsed":420747,"internal_node_id":"0.0-4.0-1.19","subject_id":"5c014b9ef70a16000191765c","study_id":"60edd13110225f80f9f3709b","session_id":"6196c4a7576d470aed92d8f7","condition":"contingent","relevant_dimensions":["pattern","legs"],"bee_group":{"antennae":"X","wings":"X","pattern":"D","legs":"M"},"bonus":1.2000000000000013},{"rt":1676.8999999985099,"stimulus":"bees-with-color/bee-B2DM.svg","response":0,"trial_type":"image-button-response","trial_index":47,"time_elapsed":422425,"internal_node_id":"0.0-4.0-0.20","subject_id":"5c014b9ef70a16000191765c","study_id":"60edd13110225f80f9f3709b","session_id":"6196c4a7576d470aed92d8f7","condition":"contingent","relevant_dimensions":["pattern","legs"],"bee_group":{"antennae":"X","wings":"X","pattern":"D","legs":"M"},"action":"harvest","summary":"bad-harvest","bonus":1.2000000000000013},{"rt":3449.199999999255,"stimulus":"\n                    <p><b>Action: <em>harvest</em></b></p>\n                    <p>This is the bee that you just saw.</p>\n                    <img src=\"bees-with-color/bee-B2DM.svg\" width=\"200\">\n                    <p><span class=\"redText\">Bad choice, the bee was angry.</span><br><b>You have been stung!</b><br>Your pay has been decreased by $0.10. Your bonus pay is now $0.48.</p>\n            ","response":0,"trial_type":"html-button-response","trial_index":48,"time_elapsed":425876,"internal_node_id":"0.0-4.0-1.20","subject_id":"5c014b9ef70a16000191765c","study_id":"60edd13110225f80f9f3709b","session_id":"6196c4a7576d470aed92d8f7","condition":"contingent","relevant_dimensions":["pattern","legs"],"bee_group":{"antennae":"X","wings":"X","pattern":"D","legs":"M"},"bonus":1.2000000000000013},{"rt":1752,"stimulus":"bees-with-color/bee-A2SM.svg","response":0,"trial_type":"image-button-response","trial_index":49,"time_elapsed":427630,"internal_node_id":"0.0-4.0-0.21","subject_id":"5c014b9ef70a16000191765c","study_id":"60edd13110225f80f9f3709b","session_id":"6196c4a7576d470aed92d8f7","condition":"contingent","relevant_dimensions":["pattern","legs"],"bee_group":{"antennae":"X","wings":"X","pattern":"D","legs":"M"},"action":"harvest","summary":"good-harvest","bonus":1.2000000000000013},{"rt":1357.4000000022352,"stimulus":"\n                    <p><b>Action: <em>harvest</em></b></p>\n                    <p>This is the bee that you just saw.</p>\n                    <img src=\"bees-with-color/bee-A2SM.svg\" width=\"200\">\n                    <p><span class=\"greenText\"><b>Successful harvest!</b></span><br>Your pay has increased by $0.02. Your bonus pay is now $0.50.</p>\n            ","response":0,"trial_type":"html-button-response","trial_index":50,"time_elapsed":428989,"internal_node_id":"0.0-4.0-1.21","subject_id":"5c014b9ef70a16000191765c","study_id":"60edd13110225f80f9f3709b","session_id":"6196c4a7576d470aed92d8f7","condition":"contingent","relevant_dimensions":["pattern","legs"],"bee_group":{"antennae":"X","wings":"X","pattern":"D","legs":"M"},"bonus":1.2000000000000013},{"rt":2221.900000002235,"stimulus":"bees-with-color/bee-A1SM.svg","response":0,"trial_type":"image-button-response","trial_index":51,"time_elapsed":431213,"internal_node_id":"0.0-4.0-0.22","subject_id":"5c014b9ef70a16000191765c","study_id":"60edd13110225f80f9f3709b","session_id":"6196c4a7576d470aed92d8f7","condition":"contingent","relevant_dimensions":["pattern","legs"],"bee_group":{"antennae":"X","wings":"X","pattern":"D","legs":"M"},"action":"harvest","summary":"good-harvest","bonus":1.2000000000000013},{"rt":1237.9000000022352,"stimulus":"\n                    <p><b>Action: <em>harvest</em></b></p>\n                    <p>This is the bee that you just saw.</p>\n                    <img src=\"bees-with-color/bee-A1SM.svg\" width=\"200\">\n                    <p><span class=\"greenText\"><b>Successful harvest!</b></span><br>Your pay has increased by $0.02. Your bonus pay is now $0.52.</p>\n            ","response":0,"trial_type":"html-button-response","trial_index":52,"time_elapsed":432452,"internal_node_id":"0.0-4.0-1.22","subject_id":"5c014b9ef70a16000191765c","study_id":"60edd13110225f80f9f3709b","session_id":"6196c4a7576d470aed92d8f7","condition":"contingent","relevant_dimensions":["pattern","legs"],"bee_group":{"antennae":"X","wings":"X","pattern":"D","legs":"M"},"bonus":1.2000000000000013},{"rt":2219.800000000745,"stimulus":"bees-with-color/bee-A1SF.svg","response":0,"trial_type":"image-button-response","trial_index":53,"time_elapsed":434674,"internal_node_id":"0.0-4.0-0.23","subject_id":"5c014b9ef70a16000191765c","study_id":"60edd13110225f80f9f3709b","session_id":"6196c4a7576d470aed92d8f7","condition":"contingent","relevant_dimensions":["pattern","legs"],"bee_group":{"antennae":"X","wings":"X","pattern":"D","legs":"M"},"action":"harvest","summary":"good-harvest","bonus":1.2000000000000013},{"rt":1496.5,"stimulus":"\n                    <p><b>Action: <em>harvest</em></b></p>\n                    <p>This is the bee that you just saw.</p>\n                    <img src=\"bees-with-color/bee-A1SF.svg\" width=\"200\">\n                    <p><span class=\"greenText\"><b>Successful harvest!</b></span><br>Your pay has increased by $0.02. Your bonus pay is now $0.54.</p>\n            ","response":0,"trial_type":"html-button-response","trial_index":54,"time_elapsed":436172,"internal_node_id":"0.0-4.0-1.23","subject_id":"5c014b9ef70a16000191765c","study_id":"60edd13110225f80f9f3709b","session_id":"6196c4a7576d470aed92d8f7","condition":"contingent","relevant_dimensions":["pattern","legs"],"bee_group":{"antennae":"X","wings":"X","pattern":"D","legs":"M"},"bonus":1.2000000000000013},{"rt":1831.9000000022352,"stimulus":"bees-with-color/bee-A1DM.svg","response":1,"trial_type":"image-button-response","trial_index":55,"time_elapsed":438006,"internal_node_id":"0.0-4.0-0.24","subject_id":"5c014b9ef70a16000191765c","study_id":"60edd13110225f80f9f3709b","session_id":"6196c4a7576d470aed92d8f7","condition":"contingent","relevant_dimensions":["pattern","legs"],"bee_group":{"antennae":"X","wings":"X","pattern":"D","legs":"M"},"action":"avoid","summary":"good-avoid","bonus":1.2000000000000013},{"rt":1451.8999999985099,"stimulus":"\n                    <p><b>Action: <em>avoid</em></b></p>\n                    <p>This is the bee that you just saw.</p>\n                    <img src=\"bees-with-color/bee-A1DM.svg\" width=\"200\">\n                    <p><br>Your bonus pay is unchanged, and remains at $0.54.</p>\n            ","response":0,"trial_type":"html-button-response","trial_index":56,"time_elapsed":439460,"internal_node_id":"0.0-4.0-1.24","subject_id":"5c014b9ef70a16000191765c","study_id":"60edd13110225f80f9f3709b","session_id":"6196c4a7576d470aed92d8f7","condition":"contingent","relevant_dimensions":["pattern","legs"],"bee_group":{"antennae":"X","wings":"X","pattern":"D","legs":"M"},"bonus":1.2000000000000013},{"rt":1261.8999999985099,"stimulus":"bees-with-color/bee-B1SM.svg","response":0,"trial_type":"image-button-response","trial_index":57,"time_elapsed":440724,"internal_node_id":"0.0-4.0-0.25","subject_id":"5c014b9ef70a16000191765c","study_id":"60edd13110225f80f9f3709b","session_id":"6196c4a7576d470aed92d8f7","condition":"contingent","relevant_dimensions":["pattern","legs"],"bee_group":{"antennae":"X","wings":"X","pattern":"D","legs":"M"},"action":"harvest","summary":"good-harvest","bonus":1.2000000000000013},{"rt":1251.0999999977648,"stimulus":"\n                    <p><b>Action: <em>harvest</em></b></p>\n                    <p>This is the bee that you just saw.</p>\n                    <img src=\"bees-with-color/bee-B1SM.svg\" width=\"200\">\n                    <p><span class=\"greenText\"><b>Successful harvest!</b></span><br>Your pay has increased by $0.02. Your bonus pay is now $0.56.</p>\n            ","response":0,"trial_type":"html-button-response","trial_index":58,"time_elapsed":441977,"internal_node_id":"0.0-4.0-1.25","subject_id":"5c014b9ef70a16000191765c","study_id":"60edd13110225f80f9f3709b","session_id":"6196c4a7576d470aed92d8f7","condition":"contingent","relevant_dimensions":["pattern","legs"],"bee_group":{"antennae":"X","wings":"X","pattern":"D","legs":"M"},"bonus":1.2000000000000013},{"rt":2863.900000002235,"stimulus":"bees-with-color/bee-B1DF.svg","response":1,"trial_type":"image-button-response","trial_index":59,"time_elapsed":444842,"internal_node_id":"0.0-4.0-0.26","subject_id":"5c014b9ef70a16000191765c","study_id":"60edd13110225f80f9f3709b","session_id":"6196c4a7576d470aed92d8f7","condition":"contingent","relevant_dimensions":["pattern","legs"],"bee_group":{"antennae":"X","wings":"X","pattern":"D","legs":"M"},"action":"avoid","summary":"bad-avoid","bonus":1.2000000000000013},{"rt":1236.0999999977648,"stimulus":"\n                    <p><b>Action: <em>avoid</em></b></p>\n                    <p>This is the bee that you just saw.</p>\n                    <img src=\"bees-with-color/bee-B1DF.svg\" width=\"200\">\n                    <p><br>Your bonus pay is unchanged, and remains at $0.56.</p>\n            ","response":0,"trial_type":"html-button-response","trial_index":60,"time_elapsed":446080,"internal_node_id":"0.0-4.0-1.26","subject_id":"5c014b9ef70a16000191765c","study_id":"60edd13110225f80f9f3709b","session_id":"6196c4a7576d470aed92d8f7","condition":"contingent","relevant_dimensions":["pattern","legs"],"bee_group":{"antennae":"X","wings":"X","pattern":"D","legs":"M"},"bonus":1.2000000000000013},{"rt":4161.10000000149,"stimulus":"bees-with-color/bee-A2DF.svg","response":0,"trial_type":"image-button-response","trial_index":61,"time_elapsed":450243,"internal_node_id":"0.0-4.0-0.27","subject_id":"5c014b9ef70a16000191765c","study_id":"60edd13110225f80f9f3709b","session_id":"6196c4a7576d470aed92d8f7","condition":"contingent","relevant_dimensions":["pattern","legs"],"bee_group":{"antennae":"X","wings":"X","pattern":"D","legs":"M"},"action":"harvest","summary":"good-harvest","bonus":1.2000000000000013},{"rt":1491.3999999985099,"stimulus":"\n                    <p><b>Action: <em>harvest</em></b></p>\n                    <p>This is the bee that you just saw.</p>\n                    <img src=\"bees-with-color/bee-A2DF.svg\" width=\"200\">\n                    <p><span class=\"greenText\"><b>Successful harvest!</b></span><br>Your pay has increased by $0.02. Your bonus pay is now $0.58.</p>\n            ","response":0,"trial_type":"html-button-response","trial_index":62,"time_elapsed":451736,"internal_node_id":"0.0-4.0-1.27","subject_id":"5c014b9ef70a16000191765c","study_id":"60edd13110225f80f9f3709b","session_id":"6196c4a7576d470aed92d8f7","condition":"contingent","relevant_dimensions":["pattern","legs"],"bee_group":{"antennae":"X","wings":"X","pattern":"D","legs":"M"},"bonus":1.2000000000000013},{"rt":1427.6000000014901,"stimulus":"bees-with-color/bee-B2SF.svg","response":0,"trial_type":"image-button-response","trial_index":63,"time_elapsed":453166,"internal_node_id":"0.0-4.0-0.28","subject_id":"5c014b9ef70a16000191765c","study_id":"60edd13110225f80f9f3709b","session_id":"6196c4a7576d470aed92d8f7","condition":"contingent","relevant_dimensions":["pattern","legs"],"bee_group":{"antennae":"X","wings":"X","pattern":"D","legs":"M"},"action":"harvest","summary":"good-harvest","bonus":1.2000000000000013},{"rt":1436.199999999255,"stimulus":"\n                    <p><b>Action: <em>harvest</em></b></p>\n                    <p>This is the bee that you just saw.</p>\n                    <img src=\"bees-with-color/bee-B2SF.svg\" width=\"200\">\n                    <p><span class=\"greenText\"><b>Successful harvest!</b></span><br>Your pay has increased by $0.02. Your bonus pay is now $0.60.</p>\n            ","response":0,"trial_type":"html-button-response","trial_index":64,"time_elapsed":454603,"internal_node_id":"0.0-4.0-1.28","subject_id":"5c014b9ef70a16000191765c","study_id":"60edd13110225f80f9f3709b","session_id":"6196c4a7576d470aed92d8f7","condition":"contingent","relevant_dimensions":["pattern","legs"],"bee_group":{"antennae":"X","wings":"X","pattern":"D","legs":"M"},"bonus":1.2000000000000013},{"rt":1446.6000000014901,"stimulus":"bees-with-color/bee-B2DF.svg","response":0,"trial_type":"image-button-response","trial_index":65,"time_elapsed":456052,"internal_node_id":"0.0-4.0-0.29","subject_id":"5c014b9ef70a16000191765c","study_id":"60edd13110225f80f9f3709b","session_id":"6196c4a7576d470aed92d8f7","condition":"contingent","relevant_dimensions":["pattern","legs"],"bee_group":{"antennae":"X","wings":"X","pattern":"D","legs":"M"},"action":"harvest","summary":"good-harvest","bonus":1.2000000000000013},{"rt":1308.3999999985099,"stimulus":"\n                    <p><b>Action: <em>harvest</em></b></p>\n                    <p>This is the bee that you just saw.</p>\n                    <img src=\"bees-with-color/bee-B2DF.svg\" width=\"200\">\n                    <p><span class=\"greenText\"><b>Successful harvest!</b></span><br>Your pay has increased by $0.02. Your bonus pay is now $0.62.</p>\n            ","response":0,"trial_type":"html-button-response","trial_index":66,"time_elapsed":457362,"internal_node_id":"0.0-4.0-1.29","subject_id":"5c014b9ef70a16000191765c","study_id":"60edd13110225f80f9f3709b","session_id":"6196c4a7576d470aed92d8f7","condition":"contingent","relevant_dimensions":["pattern","legs"],"bee_group":{"antennae":"X","wings":"X","pattern":"D","legs":"M"},"bonus":1.2000000000000013},{"rt":2121.199999999255,"stimulus":"bees-with-color/bee-A2DM.svg","response":1,"trial_type":"image-button-response","trial_index":67,"time_elapsed":459484,"internal_node_id":"0.0-4.0-0.30","subject_id":"5c014b9ef70a16000191765c","study_id":"60edd13110225f80f9f3709b","session_id":"6196c4a7576d470aed92d8f7","condition":"contingent","relevant_dimensions":["pattern","legs"],"bee_group":{"antennae":"X","wings":"X","pattern":"D","legs":"M"},"action":"avoid","summary":"good-avoid","bonus":1.2000000000000013},{"rt":1375.300000000745,"stimulus":"\n                    <p><b>Action: <em>avoid</em></b></p>\n                    <p>This is the bee that you just saw.</p>\n                    <img src=\"bees-with-color/bee-A2DM.svg\" width=\"200\">\n                    <p><br>Your bonus pay is unchanged, and remains at $0.62.</p>\n            ","response":0,"trial_type":"html-button-response","trial_index":68,"time_elapsed":460861,"internal_node_id":"0.0-4.0-1.30","subject_id":"5c014b9ef70a16000191765c","study_id":"60edd13110225f80f9f3709b","session_id":"6196c4a7576d470aed92d8f7","condition":"contingent","relevant_dimensions":["pattern","legs"],"bee_group":{"antennae":"X","wings":"X","pattern":"D","legs":"M"},"bonus":1.2000000000000013},{"rt":1543.199999999255,"stimulus":"bees-with-color/bee-A2SF.svg","response":0,"trial_type":"image-button-response","trial_index":69,"time_elapsed":462407,"internal_node_id":"0.0-4.0-0.31","subject_id":"5c014b9ef70a16000191765c","study_id":"60edd13110225f80f9f3709b","session_id":"6196c4a7576d470aed92d8f7","condition":"contingent","relevant_dimensions":["pattern","legs"],"bee_group":{"antennae":"X","wings":"X","pattern":"D","legs":"M"},"action":"harvest","summary":"good-harvest","bonus":1.2000000000000013},{"rt":1623.8999999985099,"stimulus":"\n                    <p><b>Action: <em>harvest</em></b></p>\n                    <p>This is the bee that you just saw.</p>\n                    <img src=\"bees-with-color/bee-A2SF.svg\" width=\"200\">\n                    <p><span class=\"greenText\"><b>Successful harvest!</b></span><br>Your pay has increased by $0.02. Your bonus pay is now $0.64.</p>\n            ","response":0,"trial_type":"html-button-response","trial_index":70,"time_elapsed":464032,"internal_node_id":"0.0-4.0-1.31","subject_id":"5c014b9ef70a16000191765c","study_id":"60edd13110225f80f9f3709b","session_id":"6196c4a7576d470aed92d8f7","condition":"contingent","relevant_dimensions":["pattern","legs"],"bee_group":{"antennae":"X","wings":"X","pattern":"D","legs":"M"},"bonus":1.2000000000000013},{"rt":15570.5,"stimulus":"bees-with-color/bee-A1DM.svg","response":0,"trial_type":"image-button-response","trial_index":71,"time_elapsed":479604,"internal_node_id":"0.0-4.0-0.32","subject_id":"5c014b9ef70a16000191765c","study_id":"60edd13110225f80f9f3709b","session_id":"6196c4a7576d470aed92d8f7","condition":"contingent","relevant_dimensions":["pattern","legs"],"bee_group":{"antennae":"X","wings":"X","pattern":"D","legs":"M"},"action":"harvest","summary":"bad-harvest","bonus":1.2000000000000013},{"rt":1310.3999999985099,"stimulus":"\n                    <p><b>Action: <em>harvest</em></b></p>\n                    <p>This is the bee that you just saw.</p>\n                    <img src=\"bees-with-color/bee-A1DM.svg\" width=\"200\">\n                    <p><span class=\"redText\">Bad choice, the bee was angry.</span><br><b>You have been stung!</b><br>Your pay has been decreased by $0.10. Your bonus pay is now $0.54.</p>\n            ","response":0,"trial_type":"html-button-response","trial_index":72,"time_elapsed":480916,"internal_node_id":"0.0-4.0-1.32","subject_id":"5c014b9ef70a16000191765c","study_id":"60edd13110225f80f9f3709b","session_id":"6196c4a7576d470aed92d8f7","condition":"contingent","relevant_dimensions":["pattern","legs"],"bee_group":{"antennae":"X","wings":"X","pattern":"D","legs":"M"},"bonus":1.2000000000000013},{"rt":1624.800000000745,"stimulus":"bees-with-color/bee-A2DF.svg","response":0,"trial_type":"image-button-response","trial_index":73,"time_elapsed":482543,"internal_node_id":"0.0-4.0-0.33","subject_id":"5c014b9ef70a16000191765c","study_id":"60edd13110225f80f9f3709b","session_id":"6196c4a7576d470aed92d8f7","condition":"contingent","relevant_dimensions":["pattern","legs"],"bee_group":{"antennae":"X","wings":"X","pattern":"D","legs":"M"},"action":"harvest","summary":"good-harvest","bonus":1.2000000000000013},{"rt":1261.5,"stimulus":"\n                    <p><b>Action: <em>harvest</em></b></p>\n                    <p>This is the bee that you just saw.</p>\n                    <img src=\"bees-with-color/bee-A2DF.svg\" width=\"200\">\n                    <p><span class=\"greenText\"><b>Successful harvest!</b></span><br>Your pay has increased by $0.02. Your bonus pay is now $0.56.</p>\n            ","response":0,"trial_type":"html-button-response","trial_index":74,"time_elapsed":483806,"internal_node_id":"0.0-4.0-1.33","subject_id":"5c014b9ef70a16000191765c","study_id":"60edd13110225f80f9f3709b","session_id":"6196c4a7576d470aed92d8f7","condition":"contingent","relevant_dimensions":["pattern","legs"],"bee_group":{"antennae":"X","wings":"X","pattern":"D","legs":"M"},"bonus":1.2000000000000013},{"rt":1568.5,"stimulus":"bees-with-color/bee-B1DM.svg","response":1,"trial_type":"image-button-response","trial_index":75,"time_elapsed":485376,"internal_node_id":"0.0-4.0-0.34","subject_id":"5c014b9ef70a16000191765c","study_id":"60edd13110225f80f9f3709b","session_id":"6196c4a7576d470aed92d8f7","condition":"contingent","relevant_dimensions":["pattern","legs"],"bee_group":{"antennae":"X","wings":"X","pattern":"D","legs":"M"},"action":"avoid","summary":"good-avoid","bonus":1.2000000000000013},{"rt":1382.300000000745,"stimulus":"\n                    <p><b>Action: <em>avoid</em></b></p>\n                    <p>This is the bee that you just saw.</p>\n                    <img src=\"bees-with-color/bee-B1DM.svg\" width=\"200\">\n                    <p><br>Your bonus pay is unchanged, and remains at $0.56.</p>\n            ","response":0,"trial_type":"html-button-response","trial_index":76,"time_elapsed":486760,"internal_node_id":"0.0-4.0-1.34","subject_id":"5c014b9ef70a16000191765c","study_id":"60edd13110225f80f9f3709b","session_id":"6196c4a7576d470aed92d8f7","condition":"contingent","relevant_dimensions":["pattern","legs"],"bee_group":{"antennae":"X","wings":"X","pattern":"D","legs":"M"},"bonus":1.2000000000000013},{"rt":1277.8999999985099,"stimulus":"bees-with-color/bee-B2SF.svg","response":0,"trial_type":"image-button-response","trial_index":77,"time_elapsed":488039,"internal_node_id":"0.0-4.0-0.35","subject_id":"5c014b9ef70a16000191765c","study_id":"60edd13110225f80f9f3709b","session_id":"6196c4a7576d470aed92d8f7","condition":"contingent","relevant_dimensions":["pattern","legs"],"bee_group":{"antennae":"X","wings":"X","pattern":"D","legs":"M"},"action":"harvest","summary":"good-harvest","bonus":1.2000000000000013},{"rt":1671.699999999255,"stimulus":"\n                    <p><b>Action: <em>harvest</em></b></p>\n                    <p>This is the bee that you just saw.</p>\n                    <img src=\"bees-with-color/bee-B2SF.svg\" width=\"200\">\n                    <p><span class=\"greenText\"><b>Successful harvest!</b></span><br>Your pay has increased by $0.02. Your bonus pay is now $0.58.</p>\n            ","response":0,"trial_type":"html-button-response","trial_index":78,"time_elapsed":489713,"internal_node_id":"0.0-4.0-1.35","subject_id":"5c014b9ef70a16000191765c","study_id":"60edd13110225f80f9f3709b","session_id":"6196c4a7576d470aed92d8f7","condition":"contingent","relevant_dimensions":["pattern","legs"],"bee_group":{"antennae":"X","wings":"X","pattern":"D","legs":"M"},"bonus":1.2000000000000013},{"rt":1689,"stimulus":"bees-with-color/bee-B2DF.svg","response":0,"trial_type":"image-button-response","trial_index":79,"time_elapsed":491404,"internal_node_id":"0.0-4.0-0.36","subject_id":"5c014b9ef70a16000191765c","study_id":"60edd13110225f80f9f3709b","session_id":"6196c4a7576d470aed92d8f7","condition":"contingent","relevant_dimensions":["pattern","legs"],"bee_group":{"antennae":"X","wings":"X","pattern":"D","legs":"M"},"action":"harvest","summary":"good-harvest","bonus":1.2000000000000013},{"rt":1438.2999999970198,"stimulus":"\n                    <p><b>Action: <em>harvest</em></b></p>\n                    <p>This is the bee that you just saw.</p>\n                    <img src=\"bees-with-color/bee-B2DF.svg\" width=\"200\">\n                    <p><span class=\"greenText\"><b>Successful harvest!</b></span><br>Your pay has increased by $0.02. Your bonus pay is now $0.60.</p>\n            ","response":0,"trial_type":"html-button-response","trial_index":80,"time_elapsed":492844,"internal_node_id":"0.0-4.0-1.36","subject_id":"5c014b9ef70a16000191765c","study_id":"60edd13110225f80f9f3709b","session_id":"6196c4a7576d470aed92d8f7","condition":"contingent","relevant_dimensions":["pattern","legs"],"bee_group":{"antennae":"X","wings":"X","pattern":"D","legs":"M"},"bonus":1.2000000000000013},{"rt":6698.29999999702,"stimulus":"bees-with-color/bee-A1SM.svg","response":0,"trial_type":"image-button-response","trial_index":81,"time_elapsed":499544,"internal_node_id":"0.0-4.0-0.37","subject_id":"5c014b9ef70a16000191765c","study_id":"60edd13110225f80f9f3709b","session_id":"6196c4a7576d470aed92d8f7","condition":"contingent","relevant_dimensions":["pattern","legs"],"bee_group":{"antennae":"X","wings":"X","pattern":"D","legs":"M"},"action":"harvest","summary":"good-harvest","bonus":1.2000000000000013},{"rt":1553.1000000014901,"stimulus":"\n                    <p><b>Action: <em>harvest</em></b></p>\n                    <p>This is the bee that you just saw.</p>\n                    <img src=\"bees-with-color/bee-A1SM.svg\" width=\"200\">\n                    <p><span class=\"greenText\"><b>Successful harvest!</b></span><br>Your pay has increased by $0.02. Your bonus pay is now $0.62.</p>\n            ","response":0,"trial_type":"html-button-response","trial_index":82,"time_elapsed":501098,"internal_node_id":"0.0-4.0-1.37","subject_id":"5c014b9ef70a16000191765c","study_id":"60edd13110225f80f9f3709b","session_id":"6196c4a7576d470aed92d8f7","condition":"contingent","relevant_dimensions":["pattern","legs"],"bee_group":{"antennae":"X","wings":"X","pattern":"D","legs":"M"},"bonus":1.2000000000000013},{"rt":1751.5999999977648,"stimulus":"bees-with-color/bee-A2SF.svg","response":0,"trial_type":"image-button-response","trial_index":83,"time_elapsed":502852,"internal_node_id":"0.0-4.0-0.38","subject_id":"5c014b9ef70a16000191765c","study_id":"60edd13110225f80f9f3709b","session_id":"6196c4a7576d470aed92d8f7","condition":"contingent","relevant_dimensions":["pattern","legs"],"bee_group":{"antennae":"X","wings":"X","pattern":"D","legs":"M"},"action":"harvest","summary":"good-harvest","bonus":1.2000000000000013},{"rt":1319.800000000745,"stimulus":"\n                    <p><b>Action: <em>harvest</em></b></p>\n                    <p>This is the bee that you just saw.</p>\n                    <img src=\"bees-with-color/bee-A2SF.svg\" width=\"200\">\n                    <p><span class=\"greenText\"><b>Successful harvest!</b></span><br>Your pay has increased by $0.02. Your bonus pay is now $0.64.</p>\n            ","response":0,"trial_type":"html-button-response","trial_index":84,"time_elapsed":504173,"internal_node_id":"0.0-4.0-1.38","subject_id":"5c014b9ef70a16000191765c","study_id":"60edd13110225f80f9f3709b","session_id":"6196c4a7576d470aed92d8f7","condition":"contingent","relevant_dimensions":["pattern","legs"],"bee_group":{"antennae":"X","wings":"X","pattern":"D","legs":"M"},"bonus":1.2000000000000013},{"rt":1974.6000000014901,"stimulus":"bees-with-color/bee-A2SM.svg","response":0,"trial_type":"image-button-response","trial_index":85,"time_elapsed":506149,"internal_node_id":"0.0-4.0-0.39","subject_id":"5c014b9ef70a16000191765c","study_id":"60edd13110225f80f9f3709b","session_id":"6196c4a7576d470aed92d8f7","condition":"contingent","relevant_dimensions":["pattern","legs"],"bee_group":{"antennae":"X","wings":"X","pattern":"D","legs":"M"},"action":"harvest","summary":"good-harvest","bonus":1.2000000000000013},{"rt":1409.9000000022352,"stimulus":"\n                    <p><b>Action: <em>harvest</em></b></p>\n                    <p>This is the bee that you just saw.</p>\n                    <img src=\"bees-with-color/bee-A2SM.svg\" width=\"200\">\n                    <p><span class=\"greenText\"><b>Successful harvest!</b></span><br>Your pay has increased by $0.02. Your bonus pay is now $0.66.</p>\n            ","response":0,"trial_type":"html-button-response","trial_index":86,"time_elapsed":507561,"internal_node_id":"0.0-4.0-1.39","subject_id":"5c014b9ef70a16000191765c","study_id":"60edd13110225f80f9f3709b","session_id":"6196c4a7576d470aed92d8f7","condition":"contingent","relevant_dimensions":["pattern","legs"],"bee_group":{"antennae":"X","wings":"X","pattern":"D","legs":"M"},"bonus":1.2000000000000013},{"rt":1758.3999999985099,"stimulus":"bees-with-color/bee-B1SF.svg","response":0,"trial_type":"image-button-response","trial_index":87,"time_elapsed":509321,"internal_node_id":"0.0-4.0-0.40","subject_id":"5c014b9ef70a16000191765c","study_id":"60edd13110225f80f9f3709b","session_id":"6196c4a7576d470aed92d8f7","condition":"contingent","relevant_dimensions":["pattern","legs"],"bee_group":{"antennae":"X","wings":"X","pattern":"D","legs":"M"},"action":"harvest","summary":"good-harvest","bonus":1.2000000000000013},{"rt":1586.5,"stimulus":"\n                    <p><b>Action: <em>harvest</em></b></p>\n                    <p>This is the bee that you just saw.</p>\n                    <img src=\"bees-with-color/bee-B1SF.svg\" width=\"200\">\n                    <p><span class=\"greenText\"><b>Successful harvest!</b></span><br>Your pay has increased by $0.02. Your bonus pay is now $0.68.</p>\n            ","response":0,"trial_type":"html-button-response","trial_index":88,"time_elapsed":510909,"internal_node_id":"0.0-4.0-1.40","subject_id":"5c014b9ef70a16000191765c","study_id":"60edd13110225f80f9f3709b","session_id":"6196c4a7576d470aed92d8f7","condition":"contingent","relevant_dimensions":["pattern","legs"],"bee_group":{"antennae":"X","wings":"X","pattern":"D","legs":"M"},"bonus":1.2000000000000013},{"rt":1566.5,"stimulus":"bees-with-color/bee-A1SF.svg","response":0,"trial_type":"image-button-response","trial_index":89,"time_elapsed":512477,"internal_node_id":"0.0-4.0-0.41","subject_id":"5c014b9ef70a16000191765c","study_id":"60edd13110225f80f9f3709b","session_id":"6196c4a7576d470aed92d8f7","condition":"contingent","relevant_dimensions":["pattern","legs"],"bee_group":{"antennae":"X","wings":"X","pattern":"D","legs":"M"},"action":"harvest","summary":"good-harvest","bonus":1.2000000000000013},{"rt":1474.5,"stimulus":"\n                    <p><b>Action: <em>harvest</em></b></p>\n                    <p>This is the bee that you just saw.</p>\n                    <img src=\"bees-with-color/bee-A1SF.svg\" width=\"200\">\n                    <p><span class=\"greenText\"><b>Successful harvest!</b></span><br>Your pay has increased by $0.02. Your bonus pay is now $0.70.</p>\n            ","response":0,"trial_type":"html-button-response","trial_index":90,"time_elapsed":513953,"internal_node_id":"0.0-4.0-1.41","subject_id":"5c014b9ef70a16000191765c","study_id":"60edd13110225f80f9f3709b","session_id":"6196c4a7576d470aed92d8f7","condition":"contingent","relevant_dimensions":["pattern","legs"],"bee_group":{"antennae":"X","wings":"X","pattern":"D","legs":"M"},"bonus":1.2000000000000013},{"rt":3733,"stimulus":"bees-with-color/bee-B2DM.svg","response":1,"trial_type":"image-button-response","trial_index":91,"time_elapsed":517688,"internal_node_id":"0.0-4.0-0.42","subject_id":"5c014b9ef70a16000191765c","study_id":"60edd13110225f80f9f3709b","session_id":"6196c4a7576d470aed92d8f7","condition":"contingent","relevant_dimensions":["pattern","legs"],"bee_group":{"antennae":"X","wings":"X","pattern":"D","legs":"M"},"action":"avoid","summary":"good-avoid","bonus":1.2000000000000013},{"rt":1443.4000000022352,"stimulus":"\n                    <p><b>Action: <em>avoid</em></b></p>\n                    <p>This is the bee that you just saw.</p>\n                    <img src=\"bees-with-color/bee-B2DM.svg\" width=\"200\">\n                    <p><br>Your bonus pay is unchanged, and remains at $0.70.</p>\n            ","response":0,"trial_type":"html-button-response","trial_index":92,"time_elapsed":519133,"internal_node_id":"0.0-4.0-1.42","subject_id":"5c014b9ef70a16000191765c","study_id":"60edd13110225f80f9f3709b","session_id":"6196c4a7576d470aed92d8f7","condition":"contingent","relevant_dimensions":["pattern","legs"],"bee_group":{"antennae":"X","wings":"X","pattern":"D","legs":"M"},"bonus":1.2000000000000013},{"rt":2023.699999999255,"stimulus":"bees-with-color/bee-A1DF.svg","response":0,"trial_type":"image-button-response","trial_index":93,"time_elapsed":521159,"internal_node_id":"0.0-4.0-0.43","subject_id":"5c014b9ef70a16000191765c","study_id":"60edd13110225f80f9f3709b","session_id":"6196c4a7576d470aed92d8f7","condition":"contingent","relevant_dimensions":["pattern","legs"],"bee_group":{"antennae":"X","wings":"X","pattern":"D","legs":"M"},"action":"harvest","summary":"good-harvest","bonus":1.2000000000000013},{"rt":1298.300000000745,"stimulus":"\n                    <p><b>Action: <em>harvest</em></b></p>\n                    <p>This is the bee that you just saw.</p>\n                    <img src=\"bees-with-color/bee-A1DF.svg\" width=\"200\">\n                    <p><span class=\"greenText\"><b>Successful harvest!</b></span><br>Your pay has increased by $0.02. Your bonus pay is now $0.72.</p>\n            ","response":0,"trial_type":"html-button-response","trial_index":94,"time_elapsed":522459,"internal_node_id":"0.0-4.0-1.43","subject_id":"5c014b9ef70a16000191765c","study_id":"60edd13110225f80f9f3709b","session_id":"6196c4a7576d470aed92d8f7","condition":"contingent","relevant_dimensions":["pattern","legs"],"bee_group":{"antennae":"X","wings":"X","pattern":"D","legs":"M"},"bonus":1.2000000000000013},{"rt":1378.2999999970198,"stimulus":"bees-with-color/bee-B2SM.svg","response":0,"trial_type":"image-button-response","trial_index":95,"time_elapsed":523839,"internal_node_id":"0.0-4.0-0.44","subject_id":"5c014b9ef70a16000191765c","study_id":"60edd13110225f80f9f3709b","session_id":"6196c4a7576d470aed92d8f7","condition":"contingent","relevant_dimensions":["pattern","legs"],"bee_group":{"antennae":"X","wings":"X","pattern":"D","legs":"M"},"action":"harvest","summary":"good-harvest","bonus":1.2000000000000013},{"rt":1312.300000000745,"stimulus":"\n                    <p><b>Action: <em>harvest</em></b></p>\n                    <p>This is the bee that you just saw.</p>\n                    <img src=\"bees-with-color/bee-B2SM.svg\" width=\"200\">\n                    <p><span class=\"greenText\"><b>Successful harvest!</b></span><br>Your pay has increased by $0.02. Your bonus pay is now $0.74.</p>\n            ","response":0,"trial_type":"html-button-response","trial_index":96,"time_elapsed":525153,"internal_node_id":"0.0-4.0-1.44","subject_id":"5c014b9ef70a16000191765c","study_id":"60edd13110225f80f9f3709b","session_id":"6196c4a7576d470aed92d8f7","condition":"contingent","relevant_dimensions":["pattern","legs"],"bee_group":{"antennae":"X","wings":"X","pattern":"D","legs":"M"},"bonus":1.2000000000000013},{"rt":1934,"stimulus":"bees-with-color/bee-B1DF.svg","response":0,"trial_type":"image-button-response","trial_index":97,"time_elapsed":527089,"internal_node_id":"0.0-4.0-0.45","subject_id":"5c014b9ef70a16000191765c","study_id":"60edd13110225f80f9f3709b","session_id":"6196c4a7576d470aed92d8f7","condition":"contingent","relevant_dimensions":["pattern","legs"],"bee_group":{"antennae":"X","wings":"X","pattern":"D","legs":"M"},"action":"harvest","summary":"good-harvest","bonus":1.2000000000000013},{"rt":1524.4000000022352,"stimulus":"\n                    <p><b>Action: <em>harvest</em></b></p>\n                    <p>This is the bee that you just saw.</p>\n                    <img src=\"bees-with-color/bee-B1DF.svg\" width=\"200\">\n                    <p><span class=\"greenText\"><b>Successful harvest!</b></span><br>Your pay has increased by $0.02. Your bonus pay is now $0.76.</p>\n            ","response":0,"trial_type":"html-button-response","trial_index":98,"time_elapsed":528615,"internal_node_id":"0.0-4.0-1.45","subject_id":"5c014b9ef70a16000191765c","study_id":"60edd13110225f80f9f3709b","session_id":"6196c4a7576d470aed92d8f7","condition":"contingent","relevant_dimensions":["pattern","legs"],"bee_group":{"antennae":"X","wings":"X","pattern":"D","legs":"M"},"bonus":1.2000000000000013},{"rt":2173,"stimulus":"bees-with-color/bee-A2DM.svg","response":1,"trial_type":"image-button-response","trial_index":99,"time_elapsed":530789,"internal_node_id":"0.0-4.0-0.46","subject_id":"5c014b9ef70a16000191765c","study_id":"60edd13110225f80f9f3709b","session_id":"6196c4a7576d470aed92d8f7","condition":"contingent","relevant_dimensions":["pattern","legs"],"bee_group":{"antennae":"X","wings":"X","pattern":"D","legs":"M"},"action":"avoid","summary":"good-avoid","bonus":1.2000000000000013},{"rt":1159.300000000745,"stimulus":"\n                    <p><b>Action: <em>avoid</em></b></p>\n                    <p>This is the bee that you just saw.</p>\n                    <img src=\"bees-with-color/bee-A2DM.svg\" width=\"200\">\n                    <p><br>Your bonus pay is unchanged, and remains at $0.76.</p>\n            ","response":0,"trial_type":"html-button-response","trial_index":100,"time_elapsed":531951,"internal_node_id":"0.0-4.0-1.46","subject_id":"5c014b9ef70a16000191765c","study_id":"60edd13110225f80f9f3709b","session_id":"6196c4a7576d470aed92d8f7","condition":"contingent","relevant_dimensions":["pattern","legs"],"bee_group":{"antennae":"X","wings":"X","pattern":"D","legs":"M"},"bonus":1.2000000000000013},{"rt":1285.5,"stimulus":"bees-with-color/bee-B1SM.svg","response":0,"trial_type":"image-button-response","trial_index":101,"time_elapsed":533238,"internal_node_id":"0.0-4.0-0.47","subject_id":"5c014b9ef70a16000191765c","study_id":"60edd13110225f80f9f3709b","session_id":"6196c4a7576d470aed92d8f7","condition":"contingent","relevant_dimensions":["pattern","legs"],"bee_group":{"antennae":"X","wings":"X","pattern":"D","legs":"M"},"action":"harvest","summary":"good-harvest","bonus":1.2000000000000013},{"rt":1240.0999999977648,"stimulus":"\n                    <p><b>Action: <em>harvest</em></b></p>\n                    <p>This is the bee that you just saw.</p>\n                    <img src=\"bees-with-color/bee-B1SM.svg\" width=\"200\">\n                    <p><span class=\"greenText\"><b>Successful harvest!</b></span><br>Your pay has increased by $0.02. Your bonus pay is now $0.78.</p>\n            ","response":0,"trial_type":"html-button-response","trial_index":102,"time_elapsed":534480,"internal_node_id":"0.0-4.0-1.47","subject_id":"5c014b9ef70a16000191765c","study_id":"60edd13110225f80f9f3709b","session_id":"6196c4a7576d470aed92d8f7","condition":"contingent","relevant_dimensions":["pattern","legs"],"bee_group":{"antennae":"X","wings":"X","pattern":"D","legs":"M"},"bonus":1.2000000000000013},{"rt":2097.10000000149,"stimulus":"bees-with-color/bee-B1DM.svg","response":0,"trial_type":"image-button-response","trial_index":103,"time_elapsed":536578,"internal_node_id":"0.0-4.0-0.48","subject_id":"5c014b9ef70a16000191765c","study_id":"60edd13110225f80f9f3709b","session_id":"6196c4a7576d470aed92d8f7","condition":"contingent","relevant_dimensions":["pattern","legs"],"bee_group":{"antennae":"X","wings":"X","pattern":"D","legs":"M"},"action":"harvest","summary":"bad-harvest","bonus":1.2000000000000013},{"rt":2012.5,"stimulus":"\n                    <p><b>Action: <em>harvest</em></b></p>\n                    <p>This is the bee that you just saw.</p>\n                    <img src=\"bees-with-color/bee-B1DM.svg\" width=\"200\">\n                    <p><span class=\"redText\">Bad choice, the bee was angry.</span><br><b>You have been stung!</b><br>Your pay has been decreased by $0.10. Your bonus pay is now $0.68.</p>\n            ","response":0,"trial_type":"html-button-response","trial_index":104,"time_elapsed":538592,"internal_node_id":"0.0-4.0-1.48","subject_id":"5c014b9ef70a16000191765c","study_id":"60edd13110225f80f9f3709b","session_id":"6196c4a7576d470aed92d8f7","condition":"contingent","relevant_dimensions":["pattern","legs"],"bee_group":{"antennae":"X","wings":"X","pattern":"D","legs":"M"},"bonus":1.2000000000000013},{"rt":1631.8999999985099,"stimulus":"bees-with-color/bee-B1SM.svg","response":0,"trial_type":"image-button-response","trial_index":105,"time_elapsed":540226,"internal_node_id":"0.0-4.0-0.49","subject_id":"5c014b9ef70a16000191765c","study_id":"60edd13110225f80f9f3709b","session_id":"6196c4a7576d470aed92d8f7","condition":"contingent","relevant_dimensions":["pattern","legs"],"bee_group":{"antennae":"X","wings":"X","pattern":"D","legs":"M"},"action":"harvest","summary":"good-harvest","bonus":1.2000000000000013},{"rt":1194.5,"stimulus":"\n                    <p><b>Action: <em>harvest</em></b></p>\n                    <p>This is the bee that you just saw.</p>\n                    <img src=\"bees-with-color/bee-B1SM.svg\" width=\"200\">\n                    <p><span class=\"greenText\"><b>Successful harvest!</b></span><br>Your pay has increased by $0.02. Your bonus pay is now $0.70.</p>\n            ","response":0,"trial_type":"html-button-response","trial_index":106,"time_elapsed":541422,"internal_node_id":"0.0-4.0-1.49","subject_id":"5c014b9ef70a16000191765c","study_id":"60edd13110225f80f9f3709b","session_id":"6196c4a7576d470aed92d8f7","condition":"contingent","relevant_dimensions":["pattern","legs"],"bee_group":{"antennae":"X","wings":"X","pattern":"D","legs":"M"},"bonus":1.2000000000000013},{"rt":1405,"stimulus":"bees-with-color/bee-A2DF.svg","response":0,"trial_type":"image-button-response","trial_index":107,"time_elapsed":542829,"internal_node_id":"0.0-4.0-0.50","subject_id":"5c014b9ef70a16000191765c","study_id":"60edd13110225f80f9f3709b","session_id":"6196c4a7576d470aed92d8f7","condition":"contingent","relevant_dimensions":["pattern","legs"],"bee_group":{"antennae":"X","wings":"X","pattern":"D","legs":"M"},"action":"harvest","summary":"good-harvest","bonus":1.2000000000000013},{"rt":1069.199999999255,"stimulus":"\n                    <p><b>Action: <em>harvest</em></b></p>\n                    <p>This is the bee that you just saw.</p>\n                    <img src=\"bees-with-color/bee-A2DF.svg\" width=\"200\">\n                    <p><span class=\"greenText\"><b>Successful harvest!</b></span><br>Your pay has increased by $0.02. Your bonus pay is now $0.72.</p>\n            ","response":0,"trial_type":"html-button-response","trial_index":108,"time_elapsed":543900,"internal_node_id":"0.0-4.0-1.50","subject_id":"5c014b9ef70a16000191765c","study_id":"60edd13110225f80f9f3709b","session_id":"6196c4a7576d470aed92d8f7","condition":"contingent","relevant_dimensions":["pattern","legs"],"bee_group":{"antennae":"X","wings":"X","pattern":"D","legs":"M"},"bonus":1.2000000000000013},{"rt":1540.5999999977648,"stimulus":"bees-with-color/bee-A1DM.svg","response":1,"trial_type":"image-button-response","trial_index":109,"time_elapsed":545442,"internal_node_id":"0.0-4.0-0.51","subject_id":"5c014b9ef70a16000191765c","study_id":"60edd13110225f80f9f3709b","session_id":"6196c4a7576d470aed92d8f7","condition":"contingent","relevant_dimensions":["pattern","legs"],"bee_group":{"antennae":"X","wings":"X","pattern":"D","legs":"M"},"action":"avoid","summary":"good-avoid","bonus":1.2000000000000013},{"rt":1076,"stimulus":"\n                    <p><b>Action: <em>avoid</em></b></p>\n                    <p>This is the bee that you just saw.</p>\n                    <img src=\"bees-with-color/bee-A1DM.svg\" width=\"200\">\n                    <p><br>Your bonus pay is unchanged, and remains at $0.72.</p>\n            ","response":0,"trial_type":"html-button-response","trial_index":110,"time_elapsed":546520,"internal_node_id":"0.0-4.0-1.51","subject_id":"5c014b9ef70a16000191765c","study_id":"60edd13110225f80f9f3709b","session_id":"6196c4a7576d470aed92d8f7","condition":"contingent","relevant_dimensions":["pattern","legs"],"bee_group":{"antennae":"X","wings":"X","pattern":"D","legs":"M"},"bonus":1.2000000000000013},{"rt":1124.6000000014901,"stimulus":"bees-with-color/bee-B2SF.svg","response":0,"trial_type":"image-button-response","trial_index":111,"time_elapsed":547646,"internal_node_id":"0.0-4.0-0.52","subject_id":"5c014b9ef70a16000191765c","study_id":"60edd13110225f80f9f3709b","session_id":"6196c4a7576d470aed92d8f7","condition":"contingent","relevant_dimensions":["pattern","legs"],"bee_group":{"antennae":"X","wings":"X","pattern":"D","legs":"M"},"action":"harvest","summary":"good-harvest","bonus":1.2000000000000013},{"rt":1286.3999999985099,"stimulus":"\n                    <p><b>Action: <em>harvest</em></b></p>\n                    <p>This is the bee that you just saw.</p>\n                    <img src=\"bees-with-color/bee-B2SF.svg\" width=\"200\">\n                    <p><span class=\"greenText\"><b>Successful harvest!</b></span><br>Your pay has increased by $0.02. Your bonus pay is now $0.74.</p>\n            ","response":0,"trial_type":"html-button-response","trial_index":112,"time_elapsed":548934,"internal_node_id":"0.0-4.0-1.52","subject_id":"5c014b9ef70a16000191765c","study_id":"60edd13110225f80f9f3709b","session_id":"6196c4a7576d470aed92d8f7","condition":"contingent","relevant_dimensions":["pattern","legs"],"bee_group":{"antennae":"X","wings":"X","pattern":"D","legs":"M"},"bonus":1.2000000000000013},{"rt":1228.800000000745,"stimulus":"bees-with-color/bee-B1SF.svg","response":0,"trial_type":"image-button-response","trial_index":113,"time_elapsed":550164,"internal_node_id":"0.0-4.0-0.53","subject_id":"5c014b9ef70a16000191765c","study_id":"60edd13110225f80f9f3709b","session_id":"6196c4a7576d470aed92d8f7","condition":"contingent","relevant_dimensions":["pattern","legs"],"bee_group":{"antennae":"X","wings":"X","pattern":"D","legs":"M"},"action":"harvest","summary":"good-harvest","bonus":1.2000000000000013},{"rt":1118.300000000745,"stimulus":"\n                    <p><b>Action: <em>harvest</em></b></p>\n                    <p>This is the bee that you just saw.</p>\n                    <img src=\"bees-with-color/bee-B1SF.svg\" width=\"200\">\n                    <p><span class=\"greenText\"><b>Successful harvest!</b></span><br>Your pay has increased by $0.02. Your bonus pay is now $0.76.</p>\n            ","response":0,"trial_type":"html-button-response","trial_index":114,"time_elapsed":551284,"internal_node_id":"0.0-4.0-1.53","subject_id":"5c014b9ef70a16000191765c","study_id":"60edd13110225f80f9f3709b","session_id":"6196c4a7576d470aed92d8f7","condition":"contingent","relevant_dimensions":["pattern","legs"],"bee_group":{"antennae":"X","wings":"X","pattern":"D","legs":"M"},"bonus":1.2000000000000013},{"rt":1470.1000000014901,"stimulus":"bees-with-color/bee-A2SM.svg","response":0,"trial_type":"image-button-response","trial_index":115,"time_elapsed":552756,"internal_node_id":"0.0-4.0-0.54","subject_id":"5c014b9ef70a16000191765c","study_id":"60edd13110225f80f9f3709b","session_id":"6196c4a7576d470aed92d8f7","condition":"contingent","relevant_dimensions":["pattern","legs"],"bee_group":{"antennae":"X","wings":"X","pattern":"D","legs":"M"},"action":"harvest","summary":"good-harvest","bonus":1.2000000000000013},{"rt":2281.900000002235,"stimulus":"\n                    <p><b>Action: <em>harvest</em></b></p>\n                    <p>This is the bee that you just saw.</p>\n                    <img src=\"bees-with-color/bee-A2SM.svg\" width=\"200\">\n                    <p><span class=\"greenText\"><b>Successful harvest!</b></span><br>Your pay has increased by $0.02. Your bonus pay is now $0.78.</p>\n            ","response":0,"trial_type":"html-button-response","trial_index":116,"time_elapsed":555039,"internal_node_id":"0.0-4.0-1.54","subject_id":"5c014b9ef70a16000191765c","study_id":"60edd13110225f80f9f3709b","session_id":"6196c4a7576d470aed92d8f7","condition":"contingent","relevant_dimensions":["pattern","legs"],"bee_group":{"antennae":"X","wings":"X","pattern":"D","legs":"M"},"bonus":1.2000000000000013},{"rt":1928.800000000745,"stimulus":"bees-with-color/bee-A1SM.svg","response":0,"trial_type":"image-button-response","trial_index":117,"time_elapsed":556970,"internal_node_id":"0.0-4.0-0.55","subject_id":"5c014b9ef70a16000191765c","study_id":"60edd13110225f80f9f3709b","session_id":"6196c4a7576d470aed92d8f7","condition":"contingent","relevant_dimensions":["pattern","legs"],"bee_group":{"antennae":"X","wings":"X","pattern":"D","legs":"M"},"action":"harvest","summary":"good-harvest","bonus":1.2000000000000013},{"rt":1182.1000000014901,"stimulus":"\n                    <p><b>Action: <em>harvest</em></b></p>\n                    <p>This is the bee that you just saw.</p>\n                    <img src=\"bees-with-color/bee-A1SM.svg\" width=\"200\">\n                    <p><span class=\"greenText\"><b>Successful harvest!</b></span><br>Your pay has increased by $0.02. Your bonus pay is now $0.80.</p>\n            ","response":0,"trial_type":"html-button-response","trial_index":118,"time_elapsed":558153,"internal_node_id":"0.0-4.0-1.55","subject_id":"5c014b9ef70a16000191765c","study_id":"60edd13110225f80f9f3709b","session_id":"6196c4a7576d470aed92d8f7","condition":"contingent","relevant_dimensions":["pattern","legs"],"bee_group":{"antennae":"X","wings":"X","pattern":"D","legs":"M"},"bonus":1.2000000000000013},{"rt":3911.10000000149,"stimulus":"bees-with-color/bee-A2DM.svg","response":1,"trial_type":"image-button-response","trial_index":119,"time_elapsed":562066,"internal_node_id":"0.0-4.0-0.56","subject_id":"5c014b9ef70a16000191765c","study_id":"60edd13110225f80f9f3709b","session_id":"6196c4a7576d470aed92d8f7","condition":"contingent","relevant_dimensions":["pattern","legs"],"bee_group":{"antennae":"X","wings":"X","pattern":"D","legs":"M"},"action":"avoid","summary":"good-avoid","bonus":1.2000000000000013},{"rt":1250.8999999985099,"stimulus":"\n                    <p><b>Action: <em>avoid</em></b></p>\n                    <p>This is the bee that you just saw.</p>\n                    <img src=\"bees-with-color/bee-A2DM.svg\" width=\"200\">\n                    <p><br>Your bonus pay is unchanged, and remains at $0.80.</p>\n            ","response":0,"trial_type":"html-button-response","trial_index":120,"time_elapsed":563319,"internal_node_id":"0.0-4.0-1.56","subject_id":"5c014b9ef70a16000191765c","study_id":"60edd13110225f80f9f3709b","session_id":"6196c4a7576d470aed92d8f7","condition":"contingent","relevant_dimensions":["pattern","legs"],"bee_group":{"antennae":"X","wings":"X","pattern":"D","legs":"M"},"bonus":1.2000000000000013},{"rt":1656.800000000745,"stimulus":"bees-with-color/bee-B2SM.svg","response":0,"trial_type":"image-button-response","trial_index":121,"time_elapsed":564977,"internal_node_id":"0.0-4.0-0.57","subject_id":"5c014b9ef70a16000191765c","study_id":"60edd13110225f80f9f3709b","session_id":"6196c4a7576d470aed92d8f7","condition":"contingent","relevant_dimensions":["pattern","legs"],"bee_group":{"antennae":"X","wings":"X","pattern":"D","legs":"M"},"action":"harvest","summary":"good-harvest","bonus":1.2000000000000013},{"rt":1224.5,"stimulus":"\n                    <p><b>Action: <em>harvest</em></b></p>\n                    <p>This is the bee that you just saw.</p>\n                    <img src=\"bees-with-color/bee-B2SM.svg\" width=\"200\">\n                    <p><span class=\"greenText\"><b>Successful harvest!</b></span><br>Your pay has increased by $0.02. Your bonus pay is now $0.82.</p>\n            ","response":0,"trial_type":"html-button-response","trial_index":122,"time_elapsed":566203,"internal_node_id":"0.0-4.0-1.57","subject_id":"5c014b9ef70a16000191765c","study_id":"60edd13110225f80f9f3709b","session_id":"6196c4a7576d470aed92d8f7","condition":"contingent","relevant_dimensions":["pattern","legs"],"bee_group":{"antennae":"X","wings":"X","pattern":"D","legs":"M"},"bonus":1.2000000000000013},{"rt":2118.300000000745,"stimulus":"bees-with-color/bee-B1DF.svg","response":0,"trial_type":"image-button-response","trial_index":123,"time_elapsed":568323,"internal_node_id":"0.0-4.0-0.58","subject_id":"5c014b9ef70a16000191765c","study_id":"60edd13110225f80f9f3709b","session_id":"6196c4a7576d470aed92d8f7","condition":"contingent","relevant_dimensions":["pattern","legs"],"bee_group":{"antennae":"X","wings":"X","pattern":"D","legs":"M"},"action":"harvest","summary":"good-harvest","bonus":1.2000000000000013},{"rt":1270,"stimulus":"\n                    <p><b>Action: <em>harvest</em></b></p>\n                    <p>This is the bee that you just saw.</p>\n                    <img src=\"bees-with-color/bee-B1DF.svg\" width=\"200\">\n                    <p><span class=\"greenText\"><b>Successful harvest!</b></span><br>Your pay has increased by $0.02. Your bonus pay is now $0.84.</p>\n            ","response":0,"trial_type":"html-button-response","trial_index":124,"time_elapsed":569595,"internal_node_id":"0.0-4.0-1.58","subject_id":"5c014b9ef70a16000191765c","study_id":"60edd13110225f80f9f3709b","session_id":"6196c4a7576d470aed92d8f7","condition":"contingent","relevant_dimensions":["pattern","legs"],"bee_group":{"antennae":"X","wings":"X","pattern":"D","legs":"M"},"bonus":1.2000000000000013},{"rt":1554.199999999255,"stimulus":"bees-with-color/bee-A1SF.svg","response":0,"trial_type":"image-button-response","trial_index":125,"time_elapsed":571151,"internal_node_id":"0.0-4.0-0.59","subject_id":"5c014b9ef70a16000191765c","study_id":"60edd13110225f80f9f3709b","session_id":"6196c4a7576d470aed92d8f7","condition":"contingent","relevant_dimensions":["pattern","legs"],"bee_group":{"antennae":"X","wings":"X","pattern":"D","legs":"M"},"action":"harvest","summary":"good-harvest","bonus":1.2000000000000013},{"rt":1743.5999999977648,"stimulus":"\n                    <p><b>Action: <em>harvest</em></b></p>\n                    <p>This is the bee that you just saw.</p>\n                    <img src=\"bees-with-color/bee-A1SF.svg\" width=\"200\">\n                    <p><span class=\"greenText\"><b>Successful harvest!</b></span><br>Your pay has increased by $0.02. Your bonus pay is now $0.86.</p>\n            ","response":0,"trial_type":"html-button-response","trial_index":126,"time_elapsed":572897,"internal_node_id":"0.0-4.0-1.59","subject_id":"5c014b9ef70a16000191765c","study_id":"60edd13110225f80f9f3709b","session_id":"6196c4a7576d470aed92d8f7","condition":"contingent","relevant_dimensions":["pattern","legs"],"bee_group":{"antennae":"X","wings":"X","pattern":"D","legs":"M"},"bonus":1.2000000000000013},{"rt":1619.1000000014901,"stimulus":"bees-with-color/bee-B2DF.svg","response":0,"trial_type":"image-button-response","trial_index":127,"time_elapsed":574517,"internal_node_id":"0.0-4.0-0.60","subject_id":"5c014b9ef70a16000191765c","study_id":"60edd13110225f80f9f3709b","session_id":"6196c4a7576d470aed92d8f7","condition":"contingent","relevant_dimensions":["pattern","legs"],"bee_group":{"antennae":"X","wings":"X","pattern":"D","legs":"M"},"action":"harvest","summary":"good-harvest","bonus":1.2000000000000013},{"rt":1198.2999999970198,"stimulus":"\n                    <p><b>Action: <em>harvest</em></b></p>\n                    <p>This is the bee that you just saw.</p>\n                    <img src=\"bees-with-color/bee-B2DF.svg\" width=\"200\">\n                    <p><span class=\"greenText\"><b>Successful harvest!</b></span><br>Your pay has increased by $0.02. Your bonus pay is now $0.88.</p>\n            ","response":0,"trial_type":"html-button-response","trial_index":128,"time_elapsed":575717,"internal_node_id":"0.0-4.0-1.60","subject_id":"5c014b9ef70a16000191765c","study_id":"60edd13110225f80f9f3709b","session_id":"6196c4a7576d470aed92d8f7","condition":"contingent","relevant_dimensions":["pattern","legs"],"bee_group":{"antennae":"X","wings":"X","pattern":"D","legs":"M"},"bonus":1.2000000000000013},{"rt":1408.300000000745,"stimulus":"bees-with-color/bee-A1DF.svg","response":0,"trial_type":"image-button-response","trial_index":129,"time_elapsed":577127,"internal_node_id":"0.0-4.0-0.61","subject_id":"5c014b9ef70a16000191765c","study_id":"60edd13110225f80f9f3709b","session_id":"6196c4a7576d470aed92d8f7","condition":"contingent","relevant_dimensions":["pattern","legs"],"bee_group":{"antennae":"X","wings":"X","pattern":"D","legs":"M"},"action":"harvest","summary":"good-harvest","bonus":1.2000000000000013},{"rt":1472.199999999255,"stimulus":"\n                    <p><b>Action: <em>harvest</em></b></p>\n                    <p>This is the bee that you just saw.</p>\n                    <img src=\"bees-with-color/bee-A1DF.svg\" width=\"200\">\n                    <p><span class=\"greenText\"><b>Successful harvest!</b></span><br>Your pay has increased by $0.02. Your bonus pay is now $0.90.</p>\n            ","response":0,"trial_type":"html-button-response","trial_index":130,"time_elapsed":578601,"internal_node_id":"0.0-4.0-1.61","subject_id":"5c014b9ef70a16000191765c","study_id":"60edd13110225f80f9f3709b","session_id":"6196c4a7576d470aed92d8f7","condition":"contingent","relevant_dimensions":["pattern","legs"],"bee_group":{"antennae":"X","wings":"X","pattern":"D","legs":"M"},"bonus":1.2000000000000013},{"rt":1648.8999999985099,"stimulus":"bees-with-color/bee-B2DM.svg","response":0,"trial_type":"image-button-response","trial_index":131,"time_elapsed":580251,"internal_node_id":"0.0-4.0-0.62","subject_id":"5c014b9ef70a16000191765c","study_id":"60edd13110225f80f9f3709b","session_id":"6196c4a7576d470aed92d8f7","condition":"contingent","relevant_dimensions":["pattern","legs"],"bee_group":{"antennae":"X","wings":"X","pattern":"D","legs":"M"},"action":"harvest","summary":"bad-harvest","bonus":1.2000000000000013},{"rt":5537.5,"stimulus":"\n                    <p><b>Action: <em>harvest</em></b></p>\n                    <p>This is the bee that you just saw.</p>\n                    <img src=\"bees-with-color/bee-B2DM.svg\" width=\"200\">\n                    <p><span class=\"redText\">Bad choice, the bee was angry.</span><br><b>You have been stung!</b><br>Your pay has been decreased by $0.10. Your bonus pay is now $0.80.</p>\n            ","response":0,"trial_type":"html-button-response","trial_index":132,"time_elapsed":585790,"internal_node_id":"0.0-4.0-1.62","subject_id":"5c014b9ef70a16000191765c","study_id":"60edd13110225f80f9f3709b","session_id":"6196c4a7576d470aed92d8f7","condition":"contingent","relevant_dimensions":["pattern","legs"],"bee_group":{"antennae":"X","wings":"X","pattern":"D","legs":"M"},"bonus":1.2000000000000013},{"rt":1573.1000000014901,"stimulus":"bees-with-color/bee-A2SF.svg","response":0,"trial_type":"image-button-response","trial_index":133,"time_elapsed":587365,"internal_node_id":"0.0-4.0-0.63","subject_id":"5c014b9ef70a16000191765c","study_id":"60edd13110225f80f9f3709b","session_id":"6196c4a7576d470aed92d8f7","condition":"contingent","relevant_dimensions":["pattern","legs"],"bee_group":{"antennae":"X","wings":"X","pattern":"D","legs":"M"},"action":"harvest","summary":"good-harvest","bonus":1.2000000000000013},{"rt":1143,"stimulus":"\n                    <p><b>Action: <em>harvest</em></b></p>\n                    <p>This is the bee that you just saw.</p>\n                    <img src=\"bees-with-color/bee-A2SF.svg\" width=\"200\">\n                    <p><span class=\"greenText\"><b>Successful harvest!</b></span><br>Your pay has increased by $0.02. Your bonus pay is now $0.82.</p>\n            ","response":0,"trial_type":"html-button-response","trial_index":134,"time_elapsed":588510,"internal_node_id":"0.0-4.0-1.63","subject_id":"5c014b9ef70a16000191765c","study_id":"60edd13110225f80f9f3709b","session_id":"6196c4a7576d470aed92d8f7","condition":"contingent","relevant_dimensions":["pattern","legs"],"bee_group":{"antennae":"X","wings":"X","pattern":"D","legs":"M"},"bonus":1.2000000000000013},{"rt":6109.89999999851,"stimulus":"You have completed the first part of this experiment.<br><br>You will now begin a shorter second part, in which you will receive no feedback.<br>The same rules regarding bonus pay apply.<br><br>Press any key to begin.","response":" ","trial_type":"html-keyboard-response","trial_index":135,"time_elapsed":594621,"internal_node_id":"0.0-5.0","subject_id":"5c014b9ef70a16000191765c","study_id":"60edd13110225f80f9f3709b","session_id":"6196c4a7576d470aed92d8f7","condition":"contingent","relevant_dimensions":["pattern","legs"],"bee_group":{"antennae":"X","wings":"X","pattern":"D","legs":"M"},"bonus":1.2000000000000013},{"rt":1832.300000000745,"stimulus":"bees-with-color/bee-B1SF.svg","response":0,"trial_type":"image-button-response","trial_index":136,"time_elapsed":596464,"internal_node_id":"0.0-6.0-0.0","subject_id":"5c014b9ef70a16000191765c","study_id":"60edd13110225f80f9f3709b","session_id":"6196c4a7576d470aed92d8f7","condition":"contingent","relevant_dimensions":["pattern","legs"],"bee_group":{"antennae":"X","wings":"X","pattern":"D","legs":"M"},"bonus":1.2000000000000013},{"rt":2402.89999999851,"stimulus":"bees-with-color/bee-A2DF.svg","response":0,"trial_type":"image-button-response","trial_index":137,"time_elapsed":598869,"internal_node_id":"0.0-6.0-0.1","subject_id":"5c014b9ef70a16000191765c","study_id":"60edd13110225f80f9f3709b","session_id":"6196c4a7576d470aed92d8f7","condition":"contingent","relevant_dimensions":["pattern","legs"],"bee_group":{"antennae":"X","wings":"X","pattern":"D","legs":"M"},"bonus":1.2000000000000013},{"rt":2401.300000000745,"stimulus":"bees-with-color/bee-A2DM.svg","response":1,"trial_type":"image-button-response","trial_index":138,"time_elapsed":601274,"internal_node_id":"0.0-6.0-0.2","subject_id":"5c014b9ef70a16000191765c","study_id":"60edd13110225f80f9f3709b","session_id":"6196c4a7576d470aed92d8f7","condition":"contingent","relevant_dimensions":["pattern","legs"],"bee_group":{"antennae":"X","wings":"X","pattern":"D","legs":"M"},"bonus":1.2000000000000013},{"rt":1115,"stimulus":"bees-with-color/bee-B2SF.svg","response":0,"trial_type":"image-button-response","trial_index":139,"time_elapsed":602391,"internal_node_id":"0.0-6.0-0.3","subject_id":"5c014b9ef70a16000191765c","study_id":"60edd13110225f80f9f3709b","session_id":"6196c4a7576d470aed92d8f7","condition":"contingent","relevant_dimensions":["pattern","legs"],"bee_group":{"antennae":"X","wings":"X","pattern":"D","legs":"M"},"bonus":1.2000000000000013},{"rt":1661.300000000745,"stimulus":"bees-with-color/bee-A1DM.svg","response":1,"trial_type":"image-button-response","trial_index":140,"time_elapsed":604055,"internal_node_id":"0.0-6.0-0.4","subject_id":"5c014b9ef70a16000191765c","study_id":"60edd13110225f80f9f3709b","session_id":"6196c4a7576d470aed92d8f7","condition":"contingent","relevant_dimensions":["pattern","legs"],"bee_group":{"antennae":"X","wings":"X","pattern":"D","legs":"M"},"bonus":1.2000000000000013},{"rt":1715.5,"stimulus":"bees-with-color/bee-B1DF.svg","response":0,"trial_type":"image-button-response","trial_index":141,"time_elapsed":605773,"internal_node_id":"0.0-6.0-0.5","subject_id":"5c014b9ef70a16000191765c","study_id":"60edd13110225f80f9f3709b","session_id":"6196c4a7576d470aed92d8f7","condition":"contingent","relevant_dimensions":["pattern","legs"],"bee_group":{"antennae":"X","wings":"X","pattern":"D","legs":"M"},"bonus":1.2000000000000013},{"rt":1162.5,"stimulus":"bees-with-color/bee-A1SF.svg","response":0,"trial_type":"image-button-response","trial_index":142,"time_elapsed":606938,"internal_node_id":"0.0-6.0-0.6","subject_id":"5c014b9ef70a16000191765c","study_id":"60edd13110225f80f9f3709b","session_id":"6196c4a7576d470aed92d8f7","condition":"contingent","relevant_dimensions":["pattern","legs"],"bee_group":{"antennae":"X","wings":"X","pattern":"D","legs":"M"},"bonus":1.2000000000000013},{"rt":890.2000000029802,"stimulus":"bees-with-color/bee-B2DF.svg","response":0,"trial_type":"image-button-response","trial_index":143,"time_elapsed":607831,"internal_node_id":"0.0-6.0-0.7","subject_id":"5c014b9ef70a16000191765c","study_id":"60edd13110225f80f9f3709b","session_id":"6196c4a7576d470aed92d8f7","condition":"contingent","relevant_dimensions":["pattern","legs"],"bee_group":{"antennae":"X","wings":"X","pattern":"D","legs":"M"},"bonus":1.2000000000000013},{"rt":911.3000000007451,"stimulus":"bees-with-color/bee-B1SM.svg","response":0,"trial_type":"image-button-response","trial_index":144,"time_elapsed":608745,"internal_node_id":"0.0-6.0-0.8","subject_id":"5c014b9ef70a16000191765c","study_id":"60edd13110225f80f9f3709b","session_id":"6196c4a7576d470aed92d8f7","condition":"contingent","relevant_dimensions":["pattern","legs"],"bee_group":{"antennae":"X","wings":"X","pattern":"D","legs":"M"},"bonus":1.2000000000000013},{"rt":647.5999999977648,"stimulus":"bees-with-color/bee-B2SM.svg","response":0,"trial_type":"image-button-response","trial_index":145,"time_elapsed":609395,"internal_node_id":"0.0-6.0-0.9","subject_id":"5c014b9ef70a16000191765c","study_id":"60edd13110225f80f9f3709b","session_id":"6196c4a7576d470aed92d8f7","condition":"contingent","relevant_dimensions":["pattern","legs"],"bee_group":{"antennae":"X","wings":"X","pattern":"D","legs":"M"},"bonus":1.2000000000000013},{"rt":1529.699999999255,"stimulus":"bees-with-color/bee-B1DM.svg","response":0,"trial_type":"image-button-response","trial_index":146,"time_elapsed":610929,"internal_node_id":"0.0-6.0-0.10","subject_id":"5c014b9ef70a16000191765c","study_id":"60edd13110225f80f9f3709b","session_id":"6196c4a7576d470aed92d8f7","condition":"contingent","relevant_dimensions":["pattern","legs"],"bee_group":{"antennae":"X","wings":"X","pattern":"D","legs":"M"},"bonus":1.2000000000000013},{"rt":814.6999999992549,"stimulus":"bees-with-color/bee-A2SM.svg","response":0,"trial_type":"image-button-response","trial_index":147,"time_elapsed":611747,"internal_node_id":"0.0-6.0-0.11","subject_id":"5c014b9ef70a16000191765c","study_id":"60edd13110225f80f9f3709b","session_id":"6196c4a7576d470aed92d8f7","condition":"contingent","relevant_dimensions":["pattern","legs"],"bee_group":{"antennae":"X","wings":"X","pattern":"D","legs":"M"},"bonus":1.2000000000000013},{"rt":1717,"stimulus":"bees-with-color/bee-B2DM.svg","response":1,"trial_type":"image-button-response","trial_index":148,"time_elapsed":613466,"internal_node_id":"0.0-6.0-0.12","subject_id":"5c014b9ef70a16000191765c","study_id":"60edd13110225f80f9f3709b","session_id":"6196c4a7576d470aed92d8f7","condition":"contingent","relevant_dimensions":["pattern","legs"],"bee_group":{"antennae":"X","wings":"X","pattern":"D","legs":"M"},"bonus":1.2000000000000013},{"rt":1032.7999999970198,"stimulus":"bees-with-color/bee-A1SM.svg","response":0,"trial_type":"image-button-response","trial_index":149,"time_elapsed":614502,"internal_node_id":"0.0-6.0-0.13","subject_id":"5c014b9ef70a16000191765c","study_id":"60edd13110225f80f9f3709b","session_id":"6196c4a7576d470aed92d8f7","condition":"contingent","relevant_dimensions":["pattern","legs"],"bee_group":{"antennae":"X","wings":"X","pattern":"D","legs":"M"},"bonus":1.2000000000000013},{"rt":906.0999999977648,"stimulus":"bees-with-color/bee-A1DF.svg","response":0,"trial_type":"image-button-response","trial_index":150,"time_elapsed":615411,"internal_node_id":"0.0-6.0-0.14","subject_id":"5c014b9ef70a16000191765c","study_id":"60edd13110225f80f9f3709b","session_id":"6196c4a7576d470aed92d8f7","condition":"contingent","relevant_dimensions":["pattern","legs"],"bee_group":{"antennae":"X","wings":"X","pattern":"D","legs":"M"},"bonus":1.2000000000000013},{"rt":711.5,"stimulus":"bees-with-color/bee-A2SF.svg","response":0,"trial_type":"image-button-response","trial_index":151,"time_elapsed":616125,"internal_node_id":"0.0-6.0-0.15","subject_id":"5c014b9ef70a16000191765c","study_id":"60edd13110225f80f9f3709b","session_id":"6196c4a7576d470aed92d8f7","condition":"contingent","relevant_dimensions":["pattern","legs"],"bee_group":{"antennae":"X","wings":"X","pattern":"D","legs":"M"},"bonus":1.2000000000000013},{"rt":618,"stimulus":"bees-with-color/bee-A2SF.svg","response":0,"trial_type":"image-button-response","trial_index":152,"time_elapsed":616745,"internal_node_id":"0.0-6.0-0.16","subject_id":"5c014b9ef70a16000191765c","study_id":"60edd13110225f80f9f3709b","session_id":"6196c4a7576d470aed92d8f7","condition":"contingent","relevant_dimensions":["pattern","legs"],"bee_group":{"antennae":"X","wings":"X","pattern":"D","legs":"M"},"bonus":1.2000000000000013},{"rt":2376.10000000149,"stimulus":"bees-with-color/bee-A1DM.svg","response":1,"trial_type":"image-button-response","trial_index":153,"time_elapsed":619123,"internal_node_id":"0.0-6.0-0.17","subject_id":"5c014b9ef70a16000191765c","study_id":"60edd13110225f80f9f3709b","session_id":"6196c4a7576d470aed92d8f7","condition":"contingent","relevant_dimensions":["pattern","legs"],"bee_group":{"antennae":"X","wings":"X","pattern":"D","legs":"M"},"bonus":1.2000000000000013},{"rt":1357.6000000014901,"stimulus":"bees-with-color/bee-A1DF.svg","response":0,"trial_type":"image-button-response","trial_index":154,"time_elapsed":620483,"internal_node_id":"0.0-6.0-0.18","subject_id":"5c014b9ef70a16000191765c","study_id":"60edd13110225f80f9f3709b","session_id":"6196c4a7576d470aed92d8f7","condition":"contingent","relevant_dimensions":["pattern","legs"],"bee_group":{"antennae":"X","wings":"X","pattern":"D","legs":"M"},"bonus":1.2000000000000013},{"rt":840.1000000014901,"stimulus":"bees-with-color/bee-B1SM.svg","response":0,"trial_type":"image-button-response","trial_index":155,"time_elapsed":621325,"internal_node_id":"0.0-6.0-0.19","subject_id":"5c014b9ef70a16000191765c","study_id":"60edd13110225f80f9f3709b","session_id":"6196c4a7576d470aed92d8f7","condition":"contingent","relevant_dimensions":["pattern","legs"],"bee_group":{"antennae":"X","wings":"X","pattern":"D","legs":"M"},"bonus":1.2000000000000013},{"rt":639.8000000007451,"stimulus":"bees-with-color/bee-A1SF.svg","response":0,"trial_type":"image-button-response","trial_index":156,"time_elapsed":621967,"internal_node_id":"0.0-6.0-0.20","subject_id":"5c014b9ef70a16000191765c","study_id":"60edd13110225f80f9f3709b","session_id":"6196c4a7576d470aed92d8f7","condition":"contingent","relevant_dimensions":["pattern","legs"],"bee_group":{"antennae":"X","wings":"X","pattern":"D","legs":"M"},"bonus":1.2000000000000013},{"rt":576,"stimulus":"bees-with-color/bee-A2SM.svg","response":0,"trial_type":"image-button-response","trial_index":157,"time_elapsed":622545,"internal_node_id":"0.0-6.0-0.21","subject_id":"5c014b9ef70a16000191765c","study_id":"60edd13110225f80f9f3709b","session_id":"6196c4a7576d470aed92d8f7","condition":"contingent","relevant_dimensions":["pattern","legs"],"bee_group":{"antennae":"X","wings":"X","pattern":"D","legs":"M"},"bonus":1.2000000000000013},{"rt":1744,"stimulus":"bees-with-color/bee-A2DM.svg","response":1,"trial_type":"image-button-response","trial_index":158,"time_elapsed":624291,"internal_node_id":"0.0-6.0-0.22","subject_id":"5c014b9ef70a16000191765c","study_id":"60edd13110225f80f9f3709b","session_id":"6196c4a7576d470aed92d8f7","condition":"contingent","relevant_dimensions":["pattern","legs"],"bee_group":{"antennae":"X","wings":"X","pattern":"D","legs":"M"},"bonus":1.2000000000000013},{"rt":1235.699999999255,"stimulus":"bees-with-color/bee-B1SF.svg","response":0,"trial_type":"image-button-response","trial_index":159,"time_elapsed":625529,"internal_node_id":"0.0-6.0-0.23","subject_id":"5c014b9ef70a16000191765c","study_id":"60edd13110225f80f9f3709b","session_id":"6196c4a7576d470aed92d8f7","condition":"contingent","relevant_dimensions":["pattern","legs"],"bee_group":{"antennae":"X","wings":"X","pattern":"D","legs":"M"},"bonus":1.2000000000000013},{"rt":760.8000000007451,"stimulus":"bees-with-color/bee-A2DF.svg","response":0,"trial_type":"image-button-response","trial_index":160,"time_elapsed":626292,"internal_node_id":"0.0-6.0-0.24","subject_id":"5c014b9ef70a16000191765c","study_id":"60edd13110225f80f9f3709b","session_id":"6196c4a7576d470aed92d8f7","condition":"contingent","relevant_dimensions":["pattern","legs"],"bee_group":{"antennae":"X","wings":"X","pattern":"D","legs":"M"},"bonus":1.2000000000000013},{"rt":1776.699999999255,"stimulus":"bees-with-color/bee-B1DM.svg","response":1,"trial_type":"image-button-response","trial_index":161,"time_elapsed":628071,"internal_node_id":"0.0-6.0-0.25","subject_id":"5c014b9ef70a16000191765c","study_id":"60edd13110225f80f9f3709b","session_id":"6196c4a7576d470aed92d8f7","condition":"contingent","relevant_dimensions":["pattern","legs"],"bee_group":{"antennae":"X","wings":"X","pattern":"D","legs":"M"},"bonus":1.2000000000000013