[{"success":true,"trial_type":"fullscreen","trial_index":0,"time_elapsed":6379,"internal_node_id":"0.0-0.0","subject_id":"611129ed9f242456e9abb65b","study_id":"6197b3f67c2b5cd3b6d9596a","session_id":"619be59046bdfb4ffdf677e7","condition":"contingent","relevant_dimensions":["antennae","pattern"],"bee_group":{"antennae":"B","wings":"X","pattern":"S","legs":"X"},"bonus":0.9400000000000011},{"success":true,"timeout":false,"failed_images":[],"failed_audio":[],"failed_video":[],"trial_type":"preload","trial_index":1,"time_elapsed":8218,"internal_node_id":"0.0-1.0","subject_id":"611129ed9f242456e9abb65b","study_id":"6197b3f67c2b5cd3b6d9596a","session_id":"619be59046bdfb4ffdf677e7","condition":"contingent","relevant_dimensions":["antennae","pattern"],"bee_group":{"antennae":"B","wings":"X","pattern":"S","legs":"X"},"bonus":0.9400000000000011},{"rt":3990.900000035763,"stimulus":"Welcome! Press any key to begin.","response":" ","trial_type":"html-keyboard-response","trial_index":2,"time_elapsed":12211,"internal_node_id":"0.0-2.0","subject_id":"611129ed9f242456e9abb65b","study_id":"6197b3f67c2b5cd3b6d9596a","session_id":"619be59046bdfb4ffdf677e7","condition":"contingent","relevant_dimensions":["antennae","pattern"],"bee_group":{"antennae":"B","wings":"X","pattern":"S","legs":"X"},"bonus":0.9400000000000011},{"view_history":[{"page_index":0,"viewing_time":2254.100000023842},{"page_index":1,"viewing_time":9189},{"page_index":2,"viewing_time":14192.5},{"page_index":3,"viewing_time":15262.899999976158},{"page_index":4,"viewing_time":4157.5},{"page_index":5,"viewing_time":3399.600000023842},{"page_index":6,"viewing_time":10785.300000011921},{"page_index":7,"viewing_time":2916.199999988079},{"page_index":8,"viewing_time":2391.600000023842},{"page_index":9,"viewing_time":2074.099999964237},{"page_index":10,"viewing_time":1619},{"page_index":11,"viewing_time":5057.400000035763},{"page_index":12,"viewing_time":3286.2999999523163},{"page_index":13,"viewing_time":1303.2000000476837},{"page_index":14,"viewing_time":1063.7999999523163}],"rt":78953.40000003576,"trial_type":"instructions","trial_index":3,"time_elapsed":91165,"internal_node_id":"0.0-3.0-0.0","subject_id":"611129ed9f242456e9abb65b","study_id":"6197b3f67c2b5cd3b6d9596a","session_id":"619be59046bdfb4ffdf677e7","condition":"contingent","relevant_dimensions":["antennae","pattern"],"bee_group":{"antennae":"B","wings":"X","pattern":"S","legs":"X"},"bonus":0.9400000000000011},{"rt":11104.100000023842,"response":{"Q0":["Two or six legs","Stripes or spots on body","Single or double wings","Antennae or no antennae"]},"question_order":[0],"trial_type":"survey-multi-select","trial_index":4,"time_elapsed":102280,"internal_node_id":"0.0-3.0-1.0","subject_id":"611129ed9f242456e9abb65b","study_id":"6197b3f67c2b5cd3b6d9596a","session_id":"619be59046bdfb4ffdf677e7","condition":"contingent","relevant_dimensions":["antennae","pattern"],"bee_group":{"antennae":"B","wings":"X","pattern":"S","legs":"X"},"correct":true,"bonus":0.9400000000000011},{"rt":17632.899999976158,"response":{"Q1":"No.","Q2":"Based on the four features of the bee.","Q3":"You do not learn if it was friendly or dangerous, and do not alter your bonus."},"question_order":[0,1,2],"trial_type":"survey-multi-choice","trial_index":5,"time_elapsed":119929,"internal_node_id":"0.0-3.0-2.0","subject_id":"611129ed9f242456e9abb65b","study_id":"6197b3f67c2b5cd3b6d9596a","session_id":"619be59046bdfb4ffdf677e7","condition":"contingent","relevant_dimensions":["antennae","pattern"],"bee_group":{"antennae":"B","wings":"X","pattern":"S","legs":"X"},"correct":true,"bonus":0.9400000000000011},{"rt":2307.699999988079,"stimulus":"<p>Congrats, you got everything right<br>When you're ready, click the button below to continue to the experiment.</p>","response":0,"trial_type":"html-button-response","trial_index":6,"time_elapsed":122255,"internal_node_id":"0.0-3.0-3.0","subject_id":"611129ed9f242456e9abb65b","study_id":"6197b3f67c2b5cd3b6d9596a","session_id":"619be59046bdfb4ffdf677e7","condition":"contingent","relevant_dimensions":["antennae","pattern"],"bee_group":{"antennae":"B","wings":"X","pattern":"S","legs":"X"},"bonus":0.9400000000000011},{"rt":3408,"stimulus":"bees-with-color/bee-A2SF.svg","response":0,"trial_type":"image-button-response","trial_index":7,"time_elapsed":125669,"internal_node_id":"0.0-4.0-0.0","subject_id":"611129ed9f242456e9abb65b","study_id":"6197b3f67c2b5cd3b6d9596a","session_id":"619be59046bdfb4ffdf677e7","condition":"contingent","relevant_dimensions":["antennae","pattern"],"bee_group":{"antennae":"B","wings":"X","pattern":"S","legs":"X"},"action":"harvest","summary":"good-harvest","bonus":0.9400000000000011},{"rt":1768.7000000476837,"stimulus":"\n                    <p><b>Action: <em>harvest</em></b></p>\n                    <p>This is the bee that you just saw.</p>\n                    <img src=\"bees-with-color/bee-A2SF.svg\" width=\"200\">\n                    <p><span class=\"greenText\"><b>Successful harvest!</b></span><br>Your pay has increased by $0.02. Your bonus pay is now $0.56.</p>\n            ","response":0,"trial_type":"html-button-response","trial_index":8,"time_elapsed":127469,"internal_node_id":"0.0-4.0-1.0","subject_id":"611129ed9f242456e9abb65b","study_id":"6197b3f67c2b5cd3b6d9596a","session_id":"619be59046bdfb4ffdf677e7","condition":"contingent","relevant_dimensions":["antennae","pattern"],"bee_group":{"antennae":"B","wings":"X","pattern":"S","legs":"X"},"bonus":0.9400000000000011},{"rt":3104.399999976158,"stimulus":"bees-with-color/bee-B1SF.svg","response":0,"trial_type":"image-button-response","trial_index":9,"time_elapsed":130578,"internal_node_id":"0.0-4.0-0.1","subject_id":"611129ed9f242456e9abb65b","study_id":"6197b3f67c2b5cd3b6d9596a","session_id":"619be59046bdfb4ffdf677e7","condition":"contingent","relevant_dimensions":["antennae","pattern"],"bee_group":{"antennae":"B","wings":"X","pattern":"S","legs":"X"},"action":"harvest","summary":"bad-harvest","bonus":0.9400000000000011},{"rt":5366.599999964237,"stimulus":"\n                    <p><b>Action: <em>harvest</em></b></p>\n                    <p>This is the bee that you just saw.</p>\n                    <img src=\"bees-with-color/bee-B1SF.svg\" width=\"200\">\n                    <p><span class=\"redText\">Bad choice, the bee was angry.</span><br><b>You have been stung!</b><br>Your pay has been decreased by $0.10. Your bonus pay is now $0.46.</p>\n            ","response":0,"trial_type":"html-button-response","trial_index":10,"time_elapsed":135950,"internal_node_id":"0.0-4.0-1.1","subject_id":"611129ed9f242456e9abb65b","study_id":"6197b3f67c2b5cd3b6d9596a","session_id":"619be59046bdfb4ffdf677e7","condition":"contingent","relevant_dimensions":["antennae","pattern"],"bee_group":{"antennae":"B","wings":"X","pattern":"S","legs":"X"},"bonus":0.9400000000000011},{"rt":2704,"stimulus":"bees-with-color/bee-B2DF.svg","response":0,"trial_type":"image-button-response","trial_index":11,"time_elapsed":138664,"internal_node_id":"0.0-4.0-0.2","subject_id":"611129ed9f242456e9abb65b","study_id":"6197b3f67c2b5cd3b6d9596a","session_id":"619be59046bdfb4ffdf677e7","condition":"contingent","relevant_dimensions":["antennae","pattern"],"bee_group":{"antennae":"B","wings":"X","pattern":"S","legs":"X"},"action":"harvest","summary":"good-harvest","bonus":0.9400000000000011},{"rt":1382,"stimulus":"\n                    <p><b>Action: <em>harvest</em></b></p>\n                    <p>This is the bee that you just saw.</p>\n                    <img src=\"bees-with-color/bee-B2DF.svg\" width=\"200\">\n                    <p><span class=\"greenText\"><b>Successful harvest!</b></span><br>Your pay has increased by $0.02. Your bonus pay is now $0.48.</p>\n            ","response":0,"trial_type":"html-button-response","trial_index":12,"time_elapsed":140056,"internal_node_id":"0.0-4.0-1.2","subject_id":"611129ed9f242456e9abb65b","study_id":"6197b3f67c2b5cd3b6d9596a","session_id":"619be59046bdfb4ffdf677e7","condition":"contingent","relevant_dimensions":["antennae","pattern"],"bee_group":{"antennae":"B","wings":"X","pattern":"S","legs":"X"},"bonus":0.9400000000000011},{"rt":2933.099999964237,"stimulus":"bees-with-color/bee-B2DM.svg","response":0,"trial_type":"image-button-response","trial_index":13,"time_elapsed":142997,"internal_node_id":"0.0-4.0-0.3","subject_id":"611129ed9f242456e9abb65b","study_id":"6197b3f67c2b5cd3b6d9596a","session_id":"619be59046bdfb4ffdf677e7","condition":"contingent","relevant_dimensions":["antennae","pattern"],"bee_group":{"antennae":"B","wings":"X","pattern":"S","legs":"X"},"action":"harvest","summary":"good-harvest","bonus":0.9400000000000011},{"rt":4408.100000023842,"stimulus":"\n                    <p><b>Action: <em>harvest</em></b></p>\n                    <p>This is the bee that you just saw.</p>\n                    <img src=\"bees-with-color/bee-B2DM.svg\" width=\"200\">\n                    <p><span class=\"greenText\"><b>Successful harvest!</b></span><br>Your pay has increased by $0.02. Your bonus pay is now $0.50.</p>\n            ","response":0,"trial_type":"html-button-response","trial_index":14,"time_elapsed":147410,"internal_node_id":"0.0-4.0-1.3","subject_id":"611129ed9f242456e9abb65b","study_id":"6197b3f67c2b5cd3b6d9596a","session_id":"619be59046bdfb4ffdf677e7","condition":"contingent","relevant_dimensions":["antennae","pattern"],"bee_group":{"antennae":"B","wings":"X","pattern":"S","legs":"X"},"bonus":0.9400000000000011},{"rt":2725.699999988079,"stimulus":"bees-with-color/bee-A1DF.svg","response":1,"trial_type":"image-button-response","trial_index":15,"time_elapsed":150143,"internal_node_id":"0.0-4.0-0.4","subject_id":"611129ed9f242456e9abb65b","study_id":"6197b3f67c2b5cd3b6d9596a","session_id":"619be59046bdfb4ffdf677e7","condition":"contingent","relevant_dimensions":["antennae","pattern"],"bee_group":{"antennae":"B","wings":"X","pattern":"S","legs":"X"},"action":"avoid","summary":"bad-avoid","bonus":0.9400000000000011},{"rt":2048.5,"stimulus":"\n                    <p><b>Action: <em>avoid</em></b></p>\n                    <p>This is the bee that you just saw.</p>\n                    <img src=\"bees-with-color/bee-A1DF.svg\" width=\"200\">\n                    <p><br>Your bonus pay is unchanged, and remains at $0.50.</p>\n            ","response":0,"trial_type":"html-button-response","trial_index":16,"time_elapsed":152199,"internal_node_id":"0.0-4.0-1.4","subject_id":"611129ed9f242456e9abb65b","study_id":"6197b3f67c2b5cd3b6d9596a","session_id":"619be59046bdfb4ffdf677e7","condition":"contingent","relevant_dimensions":["antennae","pattern"],"bee_group":{"antennae":"B","wings":"X","pattern":"S","legs":"X"},"bonus":0.9400000000000011},{"rt":2638.899999976158,"stimulus":"bees-with-color/bee-A2DM.svg","response":0,"trial_type":"image-button-response","trial_index":17,"time_elapsed":154846,"internal_node_id":"0.0-4.0-0.5","subject_id":"611129ed9f242456e9abb65b","study_id":"6197b3f67c2b5cd3b6d9596a","session_id":"619be59046bdfb4ffdf677e7","condition":"contingent","relevant_dimensions":["antennae","pattern"],"bee_group":{"antennae":"B","wings":"X","pattern":"S","legs":"X"},"action":"harvest","summary":"good-harvest","bonus":0.9400000000000011},{"rt":870.3000000119209,"stimulus":"\n                    <p><b>Action: <em>harvest</em></b></p>\n                    <p>This is the bee that you just saw.</p>\n                    <img src=\"bees-with-color/bee-A2DM.svg\" width=\"200\">\n                    <p><span class=\"greenText\"><b>Successful harvest!</b></span><br>Your pay has increased by $0.02. Your bonus pay is now $0.52.</p>\n            ","response":0,"trial_type":"html-button-response","trial_index":18,"time_elapsed":155724,"internal_node_id":"0.0-4.0-1.5","subject_id":"611129ed9f242456e9abb65b","study_id":"6197b3f67c2b5cd3b6d9596a","session_id":"619be59046bdfb4ffdf677e7","condition":"contingent","relevant_dimensions":["antennae","pattern"],"bee_group":{"antennae":"B","wings":"X","pattern":"S","legs":"X"},"bonus":0.9400000000000011},{"rt":1802.3999999761581,"stimulus":"bees-with-color/bee-A2DF.svg","response":0,"trial_type":"image-button-response","trial_index":19,"time_elapsed":157534,"internal_node_id":"0.0-4.0-0.6","subject_id":"611129ed9f242456e9abb65b","study_id":"6197b3f67c2b5cd3b6d9596a","session_id":"619be59046bdfb4ffdf677e7","condition":"contingent","relevant_dimensions":["antennae","pattern"],"bee_group":{"antennae":"B","wings":"X","pattern":"S","legs":"X"},"action":"harvest","summary":"good-harvest","bonus":0.9400000000000011},{"rt":980.6999999880791,"stimulus":"\n                    <p><b>Action: <em>harvest</em></b></p>\n                    <p>This is the bee that you just saw.</p>\n                    <img src=\"bees-with-color/bee-A2DF.svg\" width=\"200\">\n                    <p><span class=\"greenText\"><b>Successful harvest!</b></span><br>Your pay has increased by $0.02. Your bonus pay is now $0.54.</p>\n            ","response":0,"trial_type":"html-button-response","trial_index":20,"time_elapsed":158520,"internal_node_id":"0.0-4.0-1.6","subject_id":"611129ed9f242456e9abb65b","study_id":"6197b3f67c2b5cd3b6d9596a","session_id":"619be59046bdfb4ffdf677e7","condition":"contingent","relevant_dimensions":["antennae","pattern"],"bee_group":{"antennae":"B","wings":"X","pattern":"S","legs":"X"},"bonus":0.9400000000000011},{"rt":1509.300000011921,"stimulus":"bees-with-color/bee-B2SM.svg","response":0,"trial_type":"image-button-response","trial_index":21,"time_elapsed":160036,"internal_node_id":"0.0-4.0-0.7","subject_id":"611129ed9f242456e9abb65b","study_id":"6197b3f67c2b5cd3b6d9596a","session_id":"619be59046bdfb4ffdf677e7","condition":"contingent","relevant_dimensions":["antennae","pattern"],"bee_group":{"antennae":"B","wings":"X","pattern":"S","legs":"X"},"action":"harvest","summary":"bad-harvest","bonus":0.9400000000000011},{"rt":4576.399999976158,"stimulus":"\n                    <p><b>Action: <em>harvest</em></b></p>\n                    <p>This is the bee that you just saw.</p>\n                    <img src=\"bees-with-color/bee-B2SM.svg\" width=\"200\">\n                    <p><span class=\"redText\">Bad choice, the bee was angry.</span><br><b>You have been stung!</b><br>Your pay has been decreased by $0.10. Your bonus pay is now $0.44.</p>\n            ","response":0,"trial_type":"html-button-response","trial_index":22,"time_elapsed":164618,"internal_node_id":"0.0-4.0-1.7","subject_id":"611129ed9f242456e9abb65b","study_id":"6197b3f67c2b5cd3b6d9596a","session_id":"619be59046bdfb4ffdf677e7","condition":"contingent","relevant_dimensions":["antennae","pattern"],"bee_group":{"antennae":"B","wings":"X","pattern":"S","legs":"X"},"bonus":0.9400000000000011},{"rt":2192.900000035763,"stimulus":"bees-with-color/bee-B1DF.svg","response":1,"trial_type":"image-button-response","trial_index":23,"time_elapsed":166820,"internal_node_id":"0.0-4.0-0.8","subject_id":"611129ed9f242456e9abb65b","study_id":"6197b3f67c2b5cd3b6d9596a","session_id":"619be59046bdfb4ffdf677e7","condition":"contingent","relevant_dimensions":["antennae","pattern"],"bee_group":{"antennae":"B","wings":"X","pattern":"S","legs":"X"},"action":"avoid","summary":"bad-avoid","bonus":0.9400000000000011},{"rt":1161.5999999642372,"stimulus":"\n                    <p><b>Action: <em>avoid</em></b></p>\n                    <p>This is the bee that you just saw.</p>\n                    <img src=\"bees-with-color/bee-B1DF.svg\" width=\"200\">\n                    <p><br>Your bonus pay is unchanged, and remains at $0.44.</p>\n            ","response":0,"trial_type":"html-button-response","trial_index":24,"time_elapsed":167992,"internal_node_id":"0.0-4.0-1.8","subject_id":"611129ed9f242456e9abb65b","study_id":"6197b3f67c2b5cd3b6d9596a","session_id":"619be59046bdfb4ffdf677e7","condition":"contingent","relevant_dimensions":["antennae","pattern"],"bee_group":{"antennae":"B","wings":"X","pattern":"S","legs":"X"},"bonus":0.9400000000000011},{"rt":2900.5,"stimulus":"bees-with-color/bee-B1SM.svg","response":1,"trial_type":"image-button-response","trial_index":25,"time_elapsed":170899,"internal_node_id":"0.0-4.0-0.9","subject_id":"611129ed9f242456e9abb65b","study_id":"6197b3f67c2b5cd3b6d9596a","session_id":"619be59046bdfb4ffdf677e7","condition":"contingent","relevant_dimensions":["antennae","pattern"],"bee_group":{"antennae":"B","wings":"X","pattern":"S","legs":"X"},"action":"avoid","summary":"good-avoid","bonus":0.9400000000000011},{"rt":769.6000000238419,"stimulus":"\n                    <p><b>Action: <em>avoid</em></b></p>\n                    <p>This is the bee that you just saw.</p>\n                    <img src=\"bees-with-color/bee-B1SM.svg\" width=\"200\">\n                    <p><br>Your bonus pay is unchanged, and remains at $0.44.</p>\n            ","response":0,"trial_type":"html-button-response","trial_index":26,"time_elapsed":171677,"internal_node_id":"0.0-4.0-1.9","subject_id":"611129ed9f242456e9abb65b","study_id":"6197b3f67c2b5cd3b6d9596a","session_id":"619be59046bdfb4ffdf677e7","condition":"contingent","relevant_dimensions":["antennae","pattern"],"bee_group":{"antennae":"B","wings":"X","pattern":"S","legs":"X"},"bonus":0.9400000000000011},{"rt":3305.699999988079,"stimulus":"bees-with-color/bee-A1SM.svg","response":1,"trial_type":"image-button-response","trial_index":27,"time_elapsed":174989,"internal_node_id":"0.0-4.0-0.10","subject_id":"611129ed9f242456e9abb65b","study_id":"6197b3f67c2b5cd3b6d9596a","session_id":"619be59046bdfb4ffdf677e7","condition":"contingent","relevant_dimensions":["antennae","pattern"],"bee_group":{"antennae":"B","wings":"X","pattern":"S","legs":"X"},"action":"avoid","summary":"bad-avoid","bonus":0.9400000000000011},{"rt":722.3999999761581,"stimulus":"\n                    <p><b>Action: <em>avoid</em></b></p>\n                    <p>This is the bee that you just saw.</p>\n                    <img src=\"bees-with-color/bee-A1SM.svg\" width=\"200\">\n                    <p><br>Your bonus pay is unchanged, and remains at $0.44.</p>\n            ","response":0,"trial_type":"html-button-response","trial_index":28,"time_elapsed":175718,"internal_node_id":"0.0-4.0-1.10","subject_id":"611129ed9f242456e9abb65b","study_id":"6197b3f67c2b5cd3b6d9596a","session_id":"619be59046bdfb4ffdf677e7","condition":"contingent","relevant_dimensions":["antennae","pattern"],"bee_group":{"antennae":"B","wings":"X","pattern":"S","legs":"X"},"bonus":0.9400000000000011},{"rt":1185.5,"stimulus":"bees-with-color/bee-A1DM.svg","response":0,"trial_type":"image-button-response","trial_index":29,"time_elapsed":176910,"internal_node_id":"0.0-4.0-0.11","subject_id":"611129ed9f242456e9abb65b","study_id":"6197b3f67c2b5cd3b6d9596a","session_id":"619be59046bdfb4ffdf677e7","condition":"contingent","relevant_dimensions":["antennae","pattern"],"bee_group":{"antennae":"B","wings":"X","pattern":"S","legs":"X"},"action":"harvest","summary":"good-harvest","bonus":0.9400000000000011},{"rt":1085.699999988079,"stimulus":"\n                    <p><b>Action: <em>harvest</em></b></p>\n                    <p>This is the bee that you just saw.</p>\n                    <img src=\"bees-with-color/bee-A1DM.svg\" width=\"200\">\n                    <p><span class=\"greenText\"><b>Successful harvest!</b></span><br>Your pay has increased by $0.02. Your bonus pay is now $0.46.</p>\n            ","response":0,"trial_type":"html-button-response","trial_index":30,"time_elapsed":178004,"internal_node_id":"0.0-4.0-1.11","subject_id":"611129ed9f242456e9abb65b","study_id":"6197b3f67c2b5cd3b6d9596a","session_id":"619be59046bdfb4ffdf677e7","condition":"contingent","relevant_dimensions":["antennae","pattern"],"bee_group":{"antennae":"B","wings":"X","pattern":"S","legs":"X"},"bonus":0.9400000000000011},{"rt":1146.5,"stimulus":"bees-with-color/bee-B2SF.svg","response":0,"trial_type":"image-button-response","trial_index":31,"time_elapsed":179156,"internal_node_id":"0.0-4.0-0.12","subject_id":"611129ed9f242456e9abb65b","study_id":"6197b3f67c2b5cd3b6d9596a","session_id":"619be59046bdfb4ffdf677e7","condition":"contingent","relevant_dimensions":["antennae","pattern"],"bee_group":{"antennae":"B","wings":"X","pattern":"S","legs":"X"},"action":"harvest","summary":"bad-harvest","bonus":0.9400000000000011},{"rt":1191.800000011921,"stimulus":"\n                    <p><b>Action: <em>harvest</em></b></p>\n                    <p>This is the bee that you just saw.</p>\n                    <img src=\"bees-with-color/bee-B2SF.svg\" width=\"200\">\n                    <p><span class=\"redText\">Bad choice, the bee was angry.</span><br><b>You have been stung!</b><br>Your pay has been decreased by $0.10. Your bonus pay is now $0.36.</p>\n            ","response":0,"trial_type":"html-button-response","trial_index":32,"time_elapsed":180355,"internal_node_id":"0.0-4.0-1.12","subject_id":"611129ed9f242456e9abb65b","study_id":"6197b3f67c2b5cd3b6d9596a","session_id":"619be59046bdfb4ffdf677e7","condition":"contingent","relevant_dimensions":["antennae","pattern"],"bee_group":{"antennae":"B","wings":"X","pattern":"S","legs":"X"},"bonus":0.9400000000000011},{"rt":3429.599999964237,"stimulus":"bees-with-color/bee-A1SF.svg","response":1,"trial_type":"image-button-response","trial_index":33,"time_elapsed":183791,"internal_node_id":"0.0-4.0-0.13","subject_id":"611129ed9f242456e9abb65b","study_id":"6197b3f67c2b5cd3b6d9596a","session_id":"619be59046bdfb4ffdf677e7","condition":"contingent","relevant_dimensions":["antennae","pattern"],"bee_group":{"antennae":"B","wings":"X","pattern":"S","legs":"X"},"action":"avoid","summary":"bad-avoid","bonus":0.9400000000000011},{"rt":1062.199999988079,"stimulus":"\n                    <p><b>Action: <em>avoid</em></b></p>\n                    <p>This is the bee that you just saw.</p>\n                    <img src=\"bees-with-color/bee-A1SF.svg\" width=\"200\">\n                    <p><br>Your bonus pay is unchanged, and remains at $0.36.</p>\n            ","response":0,"trial_type":"html-button-response","trial_index":34,"time_elapsed":184859,"internal_node_id":"0.0-4.0-1.13","subject_id":"611129ed9f242456e9abb65b","study_id":"6197b3f67c2b5cd3b6d9596a","session_id":"619be59046bdfb4ffdf677e7","condition":"contingent","relevant_dimensions":["antennae","pattern"],"bee_group":{"antennae":"B","wings":"X","pattern":"S","legs":"X"},"bonus":0.9400000000000011},{"rt":1669.300000011921,"stimulus":"bees-with-color/bee-B1DM.svg","response":0,"trial_type":"image-button-response","trial_index":35,"time_elapsed":186534,"internal_node_id":"0.0-4.0-0.14","subject_id":"611129ed9f242456e9abb65b","study_id":"6197b3f67c2b5cd3b6d9596a","session_id":"619be59046bdfb4ffdf677e7","condition":"contingent","relevant_dimensions":["antennae","pattern"],"bee_group":{"antennae":"B","wings":"X","pattern":"S","legs":"X"},"action":"harvest","summary":"good-harvest","bonus":0.9400000000000011},{"rt":863.6999999880791,"stimulus":"\n                    <p><b>Action: <em>harvest</em></b></p>\n                    <p>This is the bee that you just saw.</p>\n                    <img src=\"bees-with-color/bee-B1DM.svg\" width=\"200\">\n                    <p><span class=\"greenText\"><b>Successful harvest!</b></span><br>Your pay has increased by $0.02. Your bonus pay is now $0.38.</p>\n            ","response":0,"trial_type":"html-button-response","trial_index":36,"time_elapsed":187406,"internal_node_id":"0.0-4.0-1.14","subject_id":"611129ed9f242456e9abb65b","study_id":"6197b3f67c2b5cd3b6d9596a","session_id":"619be59046bdfb4ffdf677e7","condition":"contingent","relevant_dimensions":["antennae","pattern"],"bee_group":{"antennae":"B","wings":"X","pattern":"S","legs":"X"},"bonus":0.9400000000000011},{"rt":1681.199999988079,"stimulus":"bees-with-color/bee-A2SM.svg","response":0,"trial_type":"image-button-response","trial_index":37,"time_elapsed":189092,"internal_node_id":"0.0-4.0-0.15","subject_id":"611129ed9f242456e9abb65b","study_id":"6197b3f67c2b5cd3b6d9596a","session_id":"619be59046bdfb4ffdf677e7","condition":"contingent","relevant_dimensions":["antennae","pattern"],"bee_group":{"antennae":"B","wings":"X","pattern":"S","legs":"X"},"action":"harvest","summary":"good-harvest","bonus":0.9400000000000011},{"rt":789.6000000238419,"stimulus":"\n                    <p><b>Action: <em>harvest</em></b></p>\n                    <p>This is the bee that you just saw.</p>\n                    <img src=\"bees-with-color/bee-A2SM.svg\" width=\"200\">\n                    <p><span class=\"greenText\"><b>Successful harvest!</b></span><br>Your pay has increased by $0.02. Your bonus pay is now $0.40.</p>\n            ","response":0,"trial_type":"html-button-response","trial_index":38,"time_elapsed":189886,"internal_node_id":"0.0-4.0-1.15","subject_id":"611129ed9f242456e9abb65b","study_id":"6197b3f67c2b5cd3b6d9596a","session_id":"619be59046bdfb4ffdf677e7","condition":"contingent","relevant_dimensions":["antennae","pattern"],"bee_group":{"antennae":"B","wings":"X","pattern":"S","legs":"X"},"bonus":0.9400000000000011},{"rt":2964.399999976158,"stimulus":"bees-with-color/bee-B1SM.svg","response":1,"trial_type":"image-button-response","trial_index":39,"time_elapsed":192856,"internal_node_id":"0.0-4.0-0.16","subject_id":"611129ed9f242456e9abb65b","study_id":"6197b3f67c2b5cd3b6d9596a","session_id":"619be59046bdfb4ffdf677e7","condition":"contingent","relevant_dimensions":["antennae","pattern"],"bee_group":{"antennae":"B","wings":"X","pattern":"S","legs":"X"},"action":"avoid","summary":"good-avoid","bonus":0.9400000000000011},{"rt":913.1999999880791,"stimulus":"\n                    <p><b>Action: <em>avoid</em></b></p>\n                    <p>This is the bee that you just saw.</p>\n                    <img src=\"bees-with-color/bee-B1SM.svg\" width=\"200\">\n                    <p><br>Your bonus pay is unchanged, and remains at $0.40.</p>\n            ","response":0,"trial_type":"html-button-response","trial_index":40,"time_elapsed":193774,"internal_node_id":"0.0-4.0-1.16","subject_id":"611129ed9f242456e9abb65b","study_id":"6197b3f67c2b5cd3b6d9596a","session_id":"619be59046bdfb4ffdf677e7","condition":"contingent","relevant_dimensions":["antennae","pattern"],"bee_group":{"antennae":"B","wings":"X","pattern":"S","legs":"X"},"bonus":0.9400000000000011},{"rt":3551,"stimulus":"bees-with-color/bee-A1SF.svg","response":0,"trial_type":"image-button-response","trial_index":41,"time_elapsed":197332,"internal_node_id":"0.0-4.0-0.17","subject_id":"611129ed9f242456e9abb65b","study_id":"6197b3f67c2b5cd3b6d9596a","session_id":"619be59046bdfb4ffdf677e7","condition":"contingent","relevant_dimensions":["antennae","pattern"],"bee_group":{"antennae":"B","wings":"X","pattern":"S","legs":"X"},"action":"harvest","summary":"good-harvest","bonus":0.9400000000000011},{"rt":2793.300000011921,"stimulus":"\n                    <p><b>Action: <em>harvest</em></b></p>\n                    <p>This is the bee that you just saw.</p>\n                    <img src=\"bees-with-color/bee-A1SF.svg\" width=\"200\">\n                    <p><span class=\"greenText\"><b>Successful harvest!</b></span><br>Your pay has increased by $0.02. Your bonus pay is now $0.42.</p>\n            ","response":0,"trial_type":"html-button-response","trial_index":42,"time_elapsed":200129,"internal_node_id":"0.0-4.0-1.17","subject_id":"611129ed9f242456e9abb65b","study_id":"6197b3f67c2b5cd3b6d9596a","session_id":"619be59046bdfb4ffdf677e7","condition":"contingent","relevant_dimensions":["antennae","pattern"],"bee_group":{"antennae":"B","wings":"X","pattern":"S","legs":"X"},"bonus":0.9400000000000011},{"rt":1522.8999999761581,"stimulus":"bees-with-color/bee-B2DF.svg","response":0,"trial_type":"image-button-response","trial_index":43,"time_elapsed":201657,"internal_node_id":"0.0-4.0-0.18","subject_id":"611129ed9f242456e9abb65b","study_id":"6197b3f67c2b5cd3b6d9596a","session_id":"619be59046bdfb4ffdf677e7","condition":"contingent","relevant_dimensions":["antennae","pattern"],"bee_group":{"antennae":"B","wings":"X","pattern":"S","legs":"X"},"action":"harvest","summary":"good-harvest","bonus":0.9400000000000011},{"rt":827.2000000476837,"stimulus":"\n                    <p><b>Action: <em>harvest</em></b></p>\n                    <p>This is the bee that you just saw.</p>\n                    <img src=\"bees-with-color/bee-B2DF.svg\" width=\"200\">\n                    <p><span class=\"greenText\"><b>Successful harvest!</b></span><br>Your pay has increased by $0.02. Your bonus pay is now $0.44.</p>\n            ","response":0,"trial_type":"html-button-response","trial_index":44,"time_elapsed":202490,"internal_node_id":"0.0-4.0-1.18","subject_id":"611129ed9f242456e9abb65b","study_id":"6197b3f67c2b5cd3b6d9596a","session_id":"619be59046bdfb4ffdf677e7","condition":"contingent","relevant_dimensions":["antennae","pattern"],"bee_group":{"antennae":"B","wings":"X","pattern":"S","legs":"X"},"bonus":0.9400000000000011},{"rt":2758.399999976158,"stimulus":"bees-with-color/bee-B2DM.svg","response":1,"trial_type":"image-button-response","trial_index":45,"time_elapsed":205255,"internal_node_id":"0.0-4.0-0.19","subject_id":"611129ed9f242456e9abb65b","study_id":"6197b3f67c2b5cd3b6d9596a","session_id":"619be59046bdfb4ffdf677e7","condition":"contingent","relevant_dimensions":["antennae","pattern"],"bee_group":{"antennae":"B","wings":"X","pattern":"S","legs":"X"},"action":"avoid","summary":"bad-avoid","bonus":0.9400000000000011},{"rt":805.3000000119209,"stimulus":"\n                    <p><b>Action: <em>avoid</em></b></p>\n                    <p>This is the bee that you just saw.</p>\n                    <img src=\"bees-with-color/bee-B2DM.svg\" width=\"200\">\n                    <p><br>Your bonus pay is unchanged, and remains at $0.44.</p>\n            ","response":0,"trial_type":"html-button-response","trial_index":46,"time_elapsed":206066,"internal_node_id":"0.0-4.0-1.19","subject_id":"611129ed9f242456e9abb65b","study_id":"6197b3f67c2b5cd3b6d9596a","session_id":"619be59046bdfb4ffdf677e7","condition":"contingent","relevant_dimensions":["antennae","pattern"],"bee_group":{"antennae":"B","wings":"X","pattern":"S","legs":"X"},"bonus":0.9400000000000011},{"rt":3994.800000011921,"stimulus":"bees-with-color/bee-A1DM.svg","response":1,"trial_type":"image-button-response","trial_index":47,"time_elapsed":210067,"internal_node_id":"0.0-4.0-0.20","subject_id":"611129ed9f242456e9abb65b","study_id":"6197b3f67c2b5cd3b6d9596a","session_id":"619be59046bdfb4ffdf677e7","condition":"contingent","relevant_dimensions":["antennae","pattern"],"bee_group":{"antennae":"B","wings":"X","pattern":"S","legs":"X"},"action":"avoid","summary":"bad-avoid","bonus":0.9400000000000011},{"rt":1126.699999988079,"stimulus":"\n                    <p><b>Action: <em>avoid</em></b></p>\n                    <p>This is the bee that you just saw.</p>\n                    <img src=\"bees-with-color/bee-A1DM.svg\" width=\"200\">\n                    <p><br>Your bonus pay is unchanged, and remains at $0.44.</p>\n            ","response":0,"trial_type":"html-button-response","trial_index":48,"time_elapsed":211198,"internal_node_id":"0.0-4.0-1.20","subject_id":"611129ed9f242456e9abb65b","study_id":"6197b3f67c2b5cd3b6d9596a","session_id":"619be59046bdfb4ffdf677e7","condition":"contingent","relevant_dimensions":["antennae","pattern"],"bee_group":{"antennae":"B","wings":"X","pattern":"S","legs":"X"},"bonus":0.9400000000000011},{"rt":1065.6000000238419,"stimulus":"bees-with-color/bee-A2SM.svg","response":0,"trial_type":"image-button-response","trial_index":49,"time_elapsed":212269,"internal_node_id":"0.0-4.0-0.21","subject_id":"611129ed9f242456e9abb65b","study_id":"6197b3f67c2b5cd3b6d9596a","session_id":"619be59046bdfb4ffdf677e7","condition":"contingent","relevant_dimensions":["antennae","pattern"],"bee_group":{"antennae":"B","wings":"X","pattern":"S","legs":"X"},"action":"harvest","summary":"good-harvest","bonus":0.9400000000000011},{"rt":1002.6000000238419,"stimulus":"\n                    <p><b>Action: <em>harvest</em></b></p>\n                    <p>This is the bee that you just saw.</p>\n                    <img src=\"bees-with-color/bee-A2SM.svg\" width=\"200\">\n                    <p><span class=\"greenText\"><b>Successful harvest!</b></span><br>Your pay has increased by $0.02. Your bonus pay is now $0.46.</p>\n            ","response":0,"trial_type":"html-button-response","trial_index":50,"time_elapsed":213278,"internal_node_id":"0.0-4.0-1.21","subject_id":"611129ed9f242456e9abb65b","study_id":"6197b3f67c2b5cd3b6d9596a","session_id":"619be59046bdfb4ffdf677e7","condition":"contingent","relevant_dimensions":["antennae","pattern"],"bee_group":{"antennae":"B","wings":"X","pattern":"S","legs":"X"},"bonus":0.9400000000000011},{"rt":1299.7999999523163,"stimulus":"bees-with-color/bee-B1DF.svg","response":0,"trial_type":"image-button-response","trial_index":51,"time_elapsed":214582,"internal_node_id":"0.0-4.0-0.22","subject_id":"611129ed9f242456e9abb65b","study_id":"6197b3f67c2b5cd3b6d9596a","session_id":"619be59046bdfb4ffdf677e7","condition":"contingent","relevant_dimensions":["antennae","pattern"],"bee_group":{"antennae":"B","wings":"X","pattern":"S","legs":"X"},"action":"harvest","summary":"good-harvest","bonus":0.9400000000000011},{"rt":859.8999999761581,"stimulus":"\n                    <p><b>Action: <em>harvest</em></b></p>\n                    <p>This is the bee that you just saw.</p>\n                    <img src=\"bees-with-color/bee-B1DF.svg\" width=\"200\">\n                    <p><span class=\"greenText\"><b>Successful harvest!</b></span><br>Your pay has increased by $0.02. Your bonus pay is now $0.48.</p>\n            ","response":0,"trial_type":"html-button-response","trial_index":52,"time_elapsed":215450,"internal_node_id":"0.0-4.0-1.22","subject_id":"611129ed9f242456e9abb65b","study_id":"6197b3f67c2b5cd3b6d9596a","session_id":"619be59046bdfb4ffdf677e7","condition":"contingent","relevant_dimensions":["antennae","pattern"],"bee_group":{"antennae":"B","wings":"X","pattern":"S","legs":"X"},"bonus":0.9400000000000011},{"rt":1402.0999999642372,"stimulus":"bees-with-color/bee-B2SF.svg","response":0,"trial_type":"image-button-response","trial_index":53,"time_elapsed":216857,"internal_node_id":"0.0-4.0-0.23","subject_id":"611129ed9f242456e9abb65b","study_id":"6197b3f67c2b5cd3b6d9596a","session_id":"619be59046bdfb4ffdf677e7","condition":"contingent","relevant_dimensions":["antennae","pattern"],"bee_group":{"antennae":"B","wings":"X","pattern":"S","legs":"X"},"action":"harvest","summary":"bad-harvest","bonus":0.9400000000000011},{"rt":1189.1000000238419,"stimulus":"\n                    <p><b>Action: <em>harvest</em></b></p>\n                    <p>This is the bee that you just saw.</p>\n                    <img src=\"bees-with-color/bee-B2SF.svg\" width=\"200\">\n                    <p><span class=\"redText\">Bad choice, the bee was angry.</span><br><b>You have been stung!</b><br>Your pay has been decreased by $0.10. Your bonus pay is now $0.38.</p>\n            ","response":0,"trial_type":"html-button-response","trial_index":54,"time_elapsed":218050,"internal_node_id":"0.0-4.0-1.23","subject_id":"611129ed9f242456e9abb65b","study_id":"6197b3f67c2b5cd3b6d9596a","session_id":"619be59046bdfb4ffdf677e7","condition":"contingent","relevant_dimensions":["antennae","pattern"],"bee_group":{"antennae":"B","wings":"X","pattern":"S","legs":"X"},"bonus":0.9400000000000011},{"rt":1784.5,"stimulus":"bees-with-color/bee-A2DF.svg","response":0,"trial_type":"image-button-response","trial_index":55,"time_elapsed":219838,"internal_node_id":"0.0-4.0-0.24","subject_id":"611129ed9f242456e9abb65b","study_id":"6197b3f67c2b5cd3b6d9596a","session_id":"619be59046bdfb4ffdf677e7","condition":"contingent","relevant_dimensions":["antennae","pattern"],"bee_group":{"antennae":"B","wings":"X","pattern":"S","legs":"X"},"action":"harvest","summary":"good-harvest","bonus":0.9400000000000011},{"rt":921.5,"stimulus":"\n                    <p><b>Action: <em>harvest</em></b></p>\n                    <p>This is the bee that you just saw.</p>\n                    <img src=\"bees-with-color/bee-A2DF.svg\" width=\"200\">\n                    <p><span class=\"greenText\"><b>Successful harvest!</b></span><br>Your pay has increased by $0.02. Your bonus pay is now $0.40.</p>\n            ","response":0,"trial_type":"html-button-response","trial_index":56,"time_elapsed":220763,"internal_node_id":"0.0-4.0-1.24","subject_id":"611129ed9f242456e9abb65b","study_id":"6197b3f67c2b5cd3b6d9596a","session_id":"619be59046bdfb4ffdf677e7","condition":"contingent","relevant_dimensions":["antennae","pattern"],"bee_group":{"antennae":"B","wings":"X","pattern":"S","legs":"X"},"bonus":0.9400000000000011},{"rt":1235.300000011921,"stimulus":"bees-with-color/bee-A2DM.svg","response":0,"trial_type":"image-button-response","trial_index":57,"time_elapsed":222005,"internal_node_id":"0.0-4.0-0.25","subject_id":"611129ed9f242456e9abb65b","study_id":"6197b3f67c2b5cd3b6d9596a","session_id":"619be59046bdfb4ffdf677e7","condition":"contingent","relevant_dimensions":["antennae","pattern"],"bee_group":{"antennae":"B","wings":"X","pattern":"S","legs":"X"},"action":"harvest","summary":"good-harvest","bonus":0.9400000000000011},{"rt":665.6999999880791,"stimulus":"\n                    <p><b>Action: <em>harvest</em></b></p>\n                    <p>This is the bee that you just saw.</p>\n                    <img src=\"bees-with-color/bee-A2DM.svg\" width=\"200\">\n                    <p><span class=\"greenText\"><b>Successful harvest!</b></span><br>Your pay has increased by $0.02. Your bonus pay is now $0.42.</p>\n            ","response":0,"trial_type":"html-button-response","trial_index":58,"time_elapsed":222677,"internal_node_id":"0.0-4.0-1.25","subject_id":"611129ed9f242456e9abb65b","study_id":"6197b3f67c2b5cd3b6d9596a","session_id":"619be59046bdfb4ffdf677e7","condition":"contingent","relevant_dimensions":["antennae","pattern"],"bee_group":{"antennae":"B","wings":"X","pattern":"S","legs":"X"},"bonus":0.9400000000000011},{"rt":1985.8999999761581,"stimulus":"bees-with-color/bee-A1DF.svg","response":0,"trial_type":"image-button-response","trial_index":59,"time_elapsed":224669,"internal_node_id":"0.0-4.0-0.26","subject_id":"611129ed9f242456e9abb65b","study_id":"6197b3f67c2b5cd3b6d9596a","session_id":"619be59046bdfb4ffdf677e7","condition":"contingent","relevant_dimensions":["antennae","pattern"],"bee_group":{"antennae":"B","wings":"X","pattern":"S","legs":"X"},"action":"harvest","summary":"good-harvest","bonus":0.9400000000000011},{"rt":847.2999999523163,"stimulus":"\n                    <p><b>Action: <em>harvest</em></b></p>\n                    <p>This is the bee that you just saw.</p>\n                    <img src=\"bees-with-color/bee-A1DF.svg\" width=\"200\">\n                    <p><span class=\"greenText\"><b>Successful harvest!</b></span><br>Your pay has increased by $0.02. Your bonus pay is now $0.44.</p>\n            ","response":0,"trial_type":"html-button-response","trial_index":60,"time_elapsed":225524,"internal_node_id":"0.0-4.0-1.26","subject_id":"611129ed9f242456e9abb65b","study_id":"6197b3f67c2b5cd3b6d9596a","session_id":"619be59046bdfb4ffdf677e7","condition":"contingent","relevant_dimensions":["antennae","pattern"],"bee_group":{"antennae":"B","wings":"X","pattern":"S","legs":"X"},"bonus":0.9400000000000011},{"rt":2147.800000011921,"stimulus":"bees-with-color/bee-B2SM.svg","response":1,"trial_type":"image-button-response","trial_index":61,"time_elapsed":227677,"internal_node_id":"0.0-4.0-0.27","subject_id":"611129ed9f242456e9abb65b","study_id":"6197b3f67c2b5cd3b6d9596a","session_id":"619be59046bdfb4ffdf677e7","condition":"contingent","relevant_dimensions":["antennae","pattern"],"bee_group":{"antennae":"B","wings":"X","pattern":"S","legs":"X"},"action":"avoid","summary":"good-avoid","bonus":0.9400000000000011},{"rt":1057.3999999761581,"stimulus":"\n                    <p><b>Action: <em>avoid</em></b></p>\n                    <p>This is the bee that you just saw.</p>\n                    <img src=\"bees-with-color/bee-B2SM.svg\" width=\"200\">\n                    <p><br>Your bonus pay is unchanged, and remains at $0.44.</p>\n            ","response":0,"trial_type":"html-button-response","trial_index":62,"time_elapsed":228742,"internal_node_id":"0.0-4.0-1.27","subject_id":"611129ed9f242456e9abb65b","study_id":"6197b3f67c2b5cd3b6d9596a","session_id":"619be59046bdfb4ffdf677e7","condition":"contingent","relevant_dimensions":["antennae","pattern"],"bee_group":{"antennae":"B","wings":"X","pattern":"S","legs":"X"},"bonus":0.9400000000000011},{"rt":1170.3999999761581,"stimulus":"bees-with-color/bee-A2SF.svg","response":0,"trial_type":"image-button-response","trial_index":63,"time_elapsed":229920,"internal_node_id":"0.0-4.0-0.28","subject_id":"611129ed9f242456e9abb65b","study_id":"6197b3f67c2b5cd3b6d9596a","session_id":"619be59046bdfb4ffdf677e7","condition":"contingent","relevant_dimensions":["antennae","pattern"],"bee_group":{"antennae":"B","wings":"X","pattern":"S","legs":"X"},"action":"harvest","summary":"good-harvest","bonus":0.9400000000000011},{"rt":1031.800000011921,"stimulus":"\n                    <p><b>Action: <em>harvest</em></b></p>\n                    <p>This is the bee that you just saw.</p>\n                    <img src=\"bees-with-color/bee-A2SF.svg\" width=\"200\">\n                    <p><span class=\"greenText\"><b>Successful harvest!</b></span><br>Your pay has increased by $0.02. Your bonus pay is now $0.46.</p>\n            ","response":0,"trial_type":"html-button-response","trial_index":64,"time_elapsed":230957,"internal_node_id":"0.0-4.0-1.28","subject_id":"611129ed9f242456e9abb65b","study_id":"6197b3f67c2b5cd3b6d9596a","session_id":"619be59046bdfb4ffdf677e7","condition":"contingent","relevant_dimensions":["antennae","pattern"],"bee_group":{"antennae":"B","wings":"X","pattern":"S","legs":"X"},"bonus":0.9400000000000011},{"rt":1717.5,"stimulus":"bees-with-color/bee-B1SF.svg","response":1,"trial_type":"image-button-response","trial_index":65,"time_elapsed":232682,"internal_node_id":"0.0-4.0-0.29","subject_id":"611129ed9f242456e9abb65b","study_id":"6197b3f67c2b5cd3b6d9596a","session_id":"619be59046bdfb4ffdf677e7","condition":"contingent","relevant_dimensions":["antennae","pattern"],"bee_group":{"antennae":"B","wings":"X","pattern":"S","legs":"X"},"action":"avoid","summary":"good-avoid","bonus":0.9400000000000011},{"rt":1375.300000011921,"stimulus":"\n                    <p><b>Action: <em>avoid</em></b></p>\n                    <p>This is the bee that you just saw.</p>\n                    <img src=\"bees-with-color/bee-B1SF.svg\" width=\"200\">\n                    <p><br>Your bonus pay is unchanged, and remains at $0.46.</p>\n            ","response":0,"trial_type":"html-button-response","trial_index":66,"time_elapsed":234064,"internal_node_id":"0.0-4.0-1.29","subject_id":"611129ed9f242456e9abb65b","study_id":"6197b3f67c2b5cd3b6d9596a","session_id":"619be59046bdfb4ffdf677e7","condition":"contingent","relevant_dimensions":["antennae","pattern"],"bee_group":{"antennae":"B","wings":"X","pattern":"S","legs":"X"},"bonus":0.9400000000000011},{"rt":1507.300000011921,"stimulus":"bees-with-color/bee-A1SM.svg","response":1,"trial_type":"image-button-response","trial_index":67,"time_elapsed":235577,"internal_node_id":"0.0-4.0-0.30","subject_id":"611129ed9f242456e9abb65b","study_id":"6197b3f67c2b5cd3b6d9596a","session_id":"619be59046bdfb4ffdf677e7","condition":"contingent","relevant_dimensions":["antennae","pattern"],"bee_group":{"antennae":"B","wings":"X","pattern":"S","legs":"X"},"action":"avoid","summary":"bad-avoid","bonus":0.9400000000000011},{"rt":724.3000000119209,"stimulus":"\n                    <p><b>Action: <em>avoid</em></b></p>\n                    <p>This is the bee that you just saw.</p>\n                    <img src=\"bees-with-color/bee-A1SM.svg\" width=\"200\">\n                    <p><br>Your bonus pay is unchanged, and remains at $0.46.</p>\n            ","response":0,"trial_type":"html-button-response","trial_index":68,"time_elapsed":236306,"internal_node_id":"0.0-4.0-1.30","subject_id":"611129ed9f242456e9abb65b","study_id":"6197b3f67c2b5cd3b6d9596a","session_id":"619be59046bdfb4ffdf677e7","condition":"contingent","relevant_dimensions":["antennae","pattern"],"bee_group":{"antennae":"B","wings":"X","pattern":"S","legs":"X"},"bonus":0.9400000000000011},{"rt":879.4000000357628,"stimulus":"bees-with-color/bee-B1DM.svg","response":0,"trial_type":"image-button-response","trial_index":69,"time_elapsed":237205,"internal_node_id":"0.0-4.0-0.31","subject_id":"611129ed9f242456e9abb65b","study_id":"6197b3f67c2b5cd3b6d9596a","session_id":"619be59046bdfb4ffdf677e7","condition":"contingent","relevant_dimensions":["antennae","pattern"],"bee_group":{"antennae":"B","wings":"X","pattern":"S","legs":"X"},"action":"harvest","summary":"good-harvest","bonus":0.9400000000000011},{"rt":814,"stimulus":"\n                    <p><b>Action: <em>harvest</em></b></p>\n                    <p>This is the bee that you just saw.</p>\n                    <img src=\"bees-with-color/bee-B1DM.svg\" width=\"200\">\n                    <p><span class=\"greenText\"><b>Successful harvest!</b></span><br>Your pay has increased by $0.02. Your bonus pay is now $0.48.</p>\n            ","response":0,"trial_type":"html-button-response","trial_index":70,"time_elapsed":238024,"internal_node_id":"0.0-4.0-1.31","subject_id":"611129ed9f242456e9abb65b","study_id":"6197b3f67c2b5cd3b6d9596a","session_id":"619be59046bdfb4ffdf677e7","condition":"contingent","relevant_dimensions":["antennae","pattern"],"bee_group":{"antennae":"B","wings":"X","pattern":"S","legs":"X"},"bonus":0.9400000000000011},{"rt":1532.9000000357628,"stimulus":"bees-with-color/bee-A1DM.svg","response":0,"trial_type":"image-button-response","trial_index":71,"time_elapsed":239561,"internal_node_id":"0.0-4.0-0.32","subject_id":"611129ed9f242456e9abb65b","study_id":"6197b3f67c2b5cd3b6d9596a","session_id":"619be59046bdfb4ffdf677e7","condition":"contingent","relevant_dimensions":["antennae","pattern"],"bee_group":{"antennae":"B","wings":"X","pattern":"S","legs":"X"},"action":"harvest","summary":"good-harvest","bonus":0.9400000000000011},{"rt":861.3000000119209,"stimulus":"\n                    <p><b>Action: <em>harvest</em></b></p>\n                    <p>This is the bee that you just saw.</p>\n                    <img src=\"bees-with-color/bee-A1DM.svg\" width=\"200\">\n                    <p><span class=\"greenText\"><b>Successful harvest!</b></span><br>Your pay has increased by $0.02. Your bonus pay is now $0.50.</p>\n            ","response":0,"trial_type":"html-button-response","trial_index":72,"time_elapsed":240426,"internal_node_id":"0.0-4.0-1.32","subject_id":"611129ed9f242456e9abb65b","study_id":"6197b3f67c2b5cd3b6d9596a","session_id":"619be59046bdfb4ffdf677e7","condition":"contingent","relevant_dimensions":["antennae","pattern"],"bee_group":{"antennae":"B","wings":"X","pattern":"S","legs":"X"},"bonus":0.9400000000000011},{"rt":1465.300000011921,"stimulus":"bees-with-color/bee-B1SF.svg","response":1,"trial_type":"image-button-response","trial_index":73,"time_elapsed":241897,"internal_node_id":"0.0-4.0-0.33","subject_id":"611129ed9f242456e9abb65b","study_id":"6197b3f67c2b5cd3b6d9596a","session_id":"619be59046bdfb4ffdf677e7","condition":"contingent","relevant_dimensions":["antennae","pattern"],"bee_group":{"antennae":"B","wings":"X","pattern":"S","legs":"X"},"action":"avoid","summary":"good-avoid","bonus":0.9400000000000011},{"rt":1131.2000000476837,"stimulus":"\n                    <p><b>Action: <em>avoid</em></b></p>\n                    <p>This is the bee that you just saw.</p>\n                    <img src=\"bees-with-color/bee-B1SF.svg\" width=\"200\">\n                    <p><br>Your bonus pay is unchanged, and remains at $0.50.</p>\n            ","response":0,"trial_type":"html-button-response","trial_index":74,"time_elapsed":243033,"internal_node_id":"0.0-4.0-1.33","subject_id":"611129ed9f242456e9abb65b","study_id":"6197b3f67c2b5cd3b6d9596a","session_id":"619be59046bdfb4ffdf677e7","condition":"contingent","relevant_dimensions":["antennae","pattern"],"bee_group":{"antennae":"B","wings":"X","pattern":"S","legs":"X"},"bonus":0.9400000000000011},{"rt":1377.1000000238419,"stimulus":"bees-with-color/bee-B2DM.svg","response":0,"trial_type":"image-button-response","trial_index":75,"time_elapsed":244416,"internal_node_id":"0.0-4.0-0.34","subject_id":"611129ed9f242456e9abb65b","study_id":"6197b3f67c2b5cd3b6d9596a","session_id":"619be59046bdfb4ffdf677e7","condition":"contingent","relevant_dimensions":["antennae","pattern"],"bee_group":{"antennae":"B","wings":"X","pattern":"S","legs":"X"},"action":"harvest","summary":"good-harvest","bonus":0.9400000000000011},{"rt":771.3000000119209,"stimulus":"\n                    <p><b>Action: <em>harvest</em></b></p>\n                    <p>This is the bee that you just saw.</p>\n                    <img src=\"bees-with-color/bee-B2DM.svg\" width=\"200\">\n                    <p><span class=\"greenText\"><b>Successful harvest!</b></span><br>Your pay has increased by $0.02. Your bonus pay is now $0.52.</p>\n            ","response":0,"trial_type":"html-button-response","trial_index":76,"time_elapsed":245193,"internal_node_id":"0.0-4.0-1.34","subject_id":"611129ed9f242456e9abb65b","study_id":"6197b3f67c2b5cd3b6d9596a","session_id":"619be59046bdfb4ffdf677e7","condition":"contingent","relevant_dimensions":["antennae","pattern"],"bee_group":{"antennae":"B","wings":"X","pattern":"S","legs":"X"},"bonus":0.9400000000000011},{"rt":1790.3999999761581,"stimulus":"bees-with-color/bee-B2SM.svg","response":0,"trial_type":"image-button-response","trial_index":77,"time_elapsed":246991,"internal_node_id":"0.0-4.0-0.35","subject_id":"611129ed9f242456e9abb65b","study_id":"6197b3f67c2b5cd3b6d9596a","session_id":"619be59046bdfb4ffdf677e7","condition":"contingent","relevant_dimensions":["antennae","pattern"],"bee_group":{"antennae":"B","wings":"X","pattern":"S","legs":"X"},"action":"harvest","summary":"bad-harvest","bonus":0.9400000000000011},{"rt":947.6000000238419,"stimulus":"\n                    <p><b>Action: <em>harvest</em></b></p>\n                    <p>This is the bee that you just saw.</p>\n                    <img src=\"bees-with-color/bee-B2SM.svg\" width=\"200\">\n                    <p><span class=\"redText\">Bad choice, the bee was angry.</span><br><b>You have been stung!</b><br>Your pay has been decreased by $0.10. Your bonus pay is now $0.42.</p>\n            ","response":0,"trial_type":"html-button-response","trial_index":78,"time_elapsed":247945,"internal_node_id":"0.0-4.0-1.35","subject_id":"611129ed9f242456e9abb65b","study_id":"6197b3f67c2b5cd3b6d9596a","session_id":"619be59046bdfb4ffdf677e7","condition":"contingent","relevant_dimensions":["antennae","pattern"],"bee_group":{"antennae":"B","wings":"X","pattern":"S","legs":"X"},"bonus":0.9400000000000011},{"rt":1185.8999999761581,"stimulus":"bees-with-color/bee-A1SM.svg","response":1,"trial_type":"image-button-response","trial_index":79,"time_elapsed":249137,"internal_node_id":"0.0-4.0-0.36","subject_id":"611129ed9f242456e9abb65b","study_id":"6197b3f67c2b5cd3b6d9596a","session_id":"619be59046bdfb4ffdf677e7","condition":"contingent","relevant_dimensions":["antennae","pattern"],"bee_group":{"antennae":"B","wings":"X","pattern":"S","legs":"X"},"action":"avoid","summary":"bad-avoid","bonus":0.9400000000000011},{"rt":1514.5999999642372,"stimulus":"\n                    <p><b>Action: <em>avoid</em></b></p>\n                    <p>This is the bee that you just saw.</p>\n                    <img src=\"bees-with-color/bee-A1SM.svg\" width=\"200\">\n                    <p><br>Your bonus pay is unchanged, and remains at $0.42.</p>\n            ","response":0,"trial_type":"html-button-response","trial_index":80,"time_elapsed":250661,"internal_node_id":"0.0-4.0-1.36","subject_id":"611129ed9f242456e9abb65b","study_id":"6197b3f67c2b5cd3b6d9596a","session_id":"619be59046bdfb4ffdf677e7","condition":"contingent","relevant_dimensions":["antennae","pattern"],"bee_group":{"antennae":"B","wings":"X","pattern":"S","legs":"X"},"bonus":0.9400000000000011},{"rt":2023.6000000238419,"stimulus":"bees-with-color/bee-A1SF.svg","response":1,"trial_type":"image-button-response","trial_index":81,"time_elapsed":252689,"internal_node_id":"0.0-4.0-0.37","subject_id":"611129ed9f242456e9abb65b","study_id":"6197b3f67c2b5cd3b6d9596a","session_id":"619be59046bdfb4ffdf677e7","condition":"contingent","relevant_dimensions":["antennae","pattern"],"bee_group":{"antennae":"B","wings":"X","pattern":"S","legs":"X"},"action":"avoid","summary":"bad-avoid","bonus":0.9400000000000011},{"rt":1022,"stimulus":"\n                    <p><b>Action: <em>avoid</em></b></p>\n                    <p>This is the bee that you just saw.</p>\n                    <img src=\"bees-with-color/bee-A1SF.svg\" width=\"200\">\n                    <p><br>Your bonus pay is unchanged, and remains at $0.42.</p>\n            ","response":0,"trial_type":"html-button-response","trial_index":82,"time_elapsed":253715,"internal_node_id":"0.0-4.0-1.37","subject_id":"611129ed9f242456e9abb65b","study_id":"6197b3f67c2b5cd3b6d9596a","session_id":"619be59046bdfb4ffdf677e7","condition":"contingent","relevant_dimensions":["antennae","pattern"],"bee_group":{"antennae":"B","wings":"X","pattern":"S","legs":"X"},"bonus":0.9400000000000011},{"rt":803.5,"stimulus":"bees-with-color/bee-B1DF.svg","response":0,"trial_type":"image-button-response","trial_index":83,"time_elapsed":254526,"internal_node_id":"0.0-4.0-0.38","subject_id":"611129ed9f242456e9abb65b","study_id":"6197b3f67c2b5cd3b6d9596a","session_id":"619be59046bdfb4ffdf677e7","condition":"contingent","relevant_dimensions":["antennae","pattern"],"bee_group":{"antennae":"B","wings":"X","pattern":"S","legs":"X"},"action":"harvest","summary":"good-harvest","bonus":0.9400000000000011},{"rt":819.3999999761581,"stimulus":"\n                    <p><b>Action: <em>harvest</em></b></p>\n                    <p>This is the bee that you just saw.</p>\n                    <img src=\"bees-with-color/bee-B1DF.svg\" width=\"200\">\n                    <p><span class=\"greenText\"><b>Successful harvest!</b></span><br>Your pay has increased by $0.02. Your bonus pay is now $0.44.</p>\n            ","response":0,"trial_type":"html-button-response","trial_index":84,"time_elapsed":255349,"internal_node_id":"0.0-4.0-1.38","subject_id":"611129ed9f242456e9abb65b","study_id":"6197b3f67c2b5cd3b6d9596a","session_id":"619be59046bdfb4ffdf677e7","condition":"contingent","relevant_dimensions":["antennae","pattern"],"bee_group":{"antennae":"B","wings":"X","pattern":"S","legs":"X"},"bonus":0.9400000000000011},{"rt":1309,"stimulus":"bees-with-color/bee-A2SF.svg","response":0,"trial_type":"image-button-response","trial_index":85,"time_elapsed":256665,"internal_node_id":"0.0-4.0-0.39","subject_id":"611129ed9f242456e9abb65b","study_id":"6197b3f67c2b5cd3b6d9596a","session_id":"619be59046bdfb4ffdf677e7","condition":"contingent","relevant_dimensions":["antennae","pattern"],"bee_group":{"antennae":"B","wings":"X","pattern":"S","legs":"X"},"action":"harvest","summary":"good-harvest","bonus":0.9400000000000011},{"rt":661.1000000238419,"stimulus":"\n                    <p><b>Action: <em>harvest</em></b></p>\n                    <p>This is the bee that you just saw.</p>\n                    <img src=\"bees-with-color/bee-A2SF.svg\" width=\"200\">\n                    <p><span class=\"greenText\"><b>Successful harvest!</b></span><br>Your pay has increased by $0.02. Your bonus pay is now $0.46.</p>\n            ","response":0,"trial_type":"html-button-response","trial_index":86,"time_elapsed":257332,"internal_node_id":"0.0-4.0-1.39","subject_id":"611129ed9f242456e9abb65b","study_id":"6197b3f67c2b5cd3b6d9596a","session_id":"619be59046bdfb4ffdf677e7","condition":"contingent","relevant_dimensions":["antennae","pattern"],"bee_group":{"antennae":"B","wings":"X","pattern":"S","legs":"X"},"bonus":0.9400000000000011},{"rt":1106,"stimulus":"bees-with-color/bee-A2DM.svg","response":0,"trial_type":"image-button-response","trial_index":87,"time_elapsed":258444,"internal_node_id":"0.0-4.0-0.40","subject_id":"611129ed9f242456e9abb65b","study_id":"6197b3f67c2b5cd3b6d9596a","session_id":"619be59046bdfb4ffdf677e7","condition":"contingent","relevant_dimensions":["antennae","pattern"],"bee_group":{"antennae":"B","wings":"X","pattern":"S","legs":"X"},"action":"harvest","summary":"good-harvest","bonus":0.9400000000000011},{"rt":698.1999999880791,"stimulus":"\n                    <p><b>Action: <em>harvest</em></b></p>\n                    <p>This is the bee that you just saw.</p>\n                    <img src=\"bees-with-color/bee-A2DM.svg\" width=\"200\">\n                    <p><span class=\"greenText\"><b>Successful harvest!</b></span><br>Your pay has increased by $0.02. Your bonus pay is now $0.48.</p>\n            ","response":0,"trial_type":"html-button-response","trial_index":88,"time_elapsed":259147,"internal_node_id":"0.0-4.0-1.40","subject_id":"611129ed9f242456e9abb65b","study_id":"6197b3f67c2b5cd3b6d9596a","session_id":"619be59046bdfb4ffdf677e7","condition":"contingent","relevant_dimensions":["antennae","pattern"],"bee_group":{"antennae":"B","wings":"X","pattern":"S","legs":"X"},"bonus":0.9400000000000011},{"rt":1451.800000011921,"stimulus":"bees-with-color/bee-B2DF.svg","response":0,"trial_type":"image-button-response","trial_index":89,"time_elapsed":260605,"internal_node_id":"0.0-4.0-0.41","subject_id":"611129ed9f242456e9abb65b","study_id":"6197b3f67c2b5cd3b6d9596a","session_id":"619be59046bdfb4ffdf677e7","condition":"contingent","relevant_dimensions":["antennae","pattern"],"bee_group":{"antennae":"B","wings":"X","pattern":"S","legs":"X"},"action":"harvest","summary":"good-harvest","bonus":0.9400000000000011},{"rt":977.8999999761581,"stimulus":"\n                    <p><b>Action: <em>harvest</em></b></p>\n                    <p>This is the bee that you just saw.</p>\n                    <img src=\"bees-with-color/bee-B2DF.svg\" width=\"200\">\n                    <p><span class=\"greenText\"><b>Successful harvest!</b></span><br>Your pay has increased by $0.02. Your bonus pay is now $0.50.</p>\n            ","response":0,"trial_type":"html-button-response","trial_index":90,"time_elapsed":261587,"internal_node_id":"0.0-4.0-1.41","subject_id":"611129ed9f242456e9abb65b","study_id":"6197b3f67c2b5cd3b6d9596a","session_id":"619be59046bdfb4ffdf677e7","condition":"contingent","relevant_dimensions":["antennae","pattern"],"bee_group":{"antennae":"B","wings":"X","pattern":"S","legs":"X"},"bonus":0.9400000000000011},{"rt":1600.9000000357628,"stimulus":"bees-with-color/bee-B1SM.svg","response":1,"trial_type":"image-button-response","trial_index":91,"time_elapsed":263193,"internal_node_id":"0.0-4.0-0.42","subject_id":"611129ed9f242456e9abb65b","study_id":"6197b3f67c2b5cd3b6d9596a","session_id":"619be59046bdfb4ffdf677e7","condition":"contingent","relevant_dimensions":["antennae","pattern"],"bee_group":{"antennae":"B","wings":"X","pattern":"S","legs":"X"},"action":"avoid","summary":"good-avoid","bonus":0.9400000000000011},{"rt":953.1999999880791,"stimulus":"\n                    <p><b>Action: <em>avoid</em></b></p>\n                    <p>This is the bee that you just saw.</p>\n                    <img src=\"bees-with-color/bee-B1SM.svg\" width=\"200\">\n                    <p><br>Your bonus pay is unchanged, and remains at $0.50.</p>\n            ","response":0,"trial_type":"html-button-response","trial_index":92,"time_elapsed":264154,"internal_node_id":"0.0-4.0-1.42","subject_id":"611129ed9f242456e9abb65b","study_id":"6197b3f67c2b5cd3b6d9596a","session_id":"619be59046bdfb4ffdf677e7","condition":"contingent","relevant_dimensions":["antennae","pattern"],"bee_group":{"antennae":"B","wings":"X","pattern":"S","legs":"X"},"bonus":0.9400000000000011},{"rt":1080.800000011921,"stimulus":"bees-with-color/bee-A2DF.svg","response":0,"trial_type":"image-button-response","trial_index":93,"time_elapsed":265240,"internal_node_id":"0.0-4.0-0.43","subject_id":"611129ed9f242456e9abb65b","study_id":"6197b3f67c2b5cd3b6d9596a","session_id":"619be59046bdfb4ffdf677e7","condition":"contingent","relevant_dimensions":["antennae","pattern"],"bee_group":{"antennae":"B","wings":"X","pattern":"S","legs":"X"},"action":"harvest","summary":"good-harvest","bonus":0.9400000000000011},{"rt":924.6000000238419,"stimulus":"\n                    <p><b>Action: <em>harvest</em></b></p>\n                    <p>This is the bee that you just saw.</p>\n                    <img src=\"bees-with-color/bee-A2DF.svg\" width=\"200\">\n                    <p><span class=\"greenText\"><b>Successful harvest!</b></span><br>Your pay has increased by $0.02. Your bonus pay is now $0.52.</p>\n            ","response":0,"trial_type":"html-button-response","trial_index":94,"time_elapsed":266173,"internal_node_id":"0.0-4.0-1.43","subject_id":"611129ed9f242456e9abb65b","study_id":"6197b3f67c2b5cd3b6d9596a","session_id":"619be59046bdfb4ffdf677e7","condition":"contingent","relevant_dimensions":["antennae","pattern"],"bee_group":{"antennae":"B","wings":"X","pattern":"S","legs":"X"},"bonus":0.9400000000000011},{"rt":1945.5,"stimulus":"bees-with-color/bee-B1DM.svg","response":0,"trial_type":"image-button-response","trial_index":95,"time_elapsed":268125,"internal_node_id":"0.0-4.0-0.44","subject_id":"611129ed9f242456e9abb65b","study_id":"6197b3f67c2b5cd3b6d9596a","session_id":"619be59046bdfb4ffdf677e7","condition":"contingent","relevant_dimensions":["antennae","pattern"],"bee_group":{"antennae":"B","wings":"X","pattern":"S","legs":"X"},"action":"harvest","summary":"good-harvest","bonus":0.9400000000000011},{"rt":688.5999999642372,"stimulus":"\n                    <p><b>Action: <em>harvest</em></b></p>\n                    <p>This is the bee that you just saw.</p>\n                    <img src=\"bees-with-color/bee-B1DM.svg\" width=\"200\">\n                    <p><span class=\"greenText\"><b>Successful harvest!</b></span><br>Your pay has increased by $0.02. Your bonus pay is now $0.54.</p>\n            ","response":0,"trial_type":"html-button-response","trial_index":96,"time_elapsed":268819,"internal_node_id":"0.0-4.0-1.44","subject_id":"611129ed9f242456e9abb65b","study_id":"6197b3f67c2b5cd3b6d9596a","session_id":"619be59046bdfb4ffdf677e7","condition":"contingent","relevant_dimensions":["antennae","pattern"],"bee_group":{"antennae":"B","wings":"X","pattern":"S","legs":"X"},"bonus":0.9400000000000011},{"rt":1570.1000000238419,"stimulus":"bees-with-color/bee-B2SF.svg","response":0,"trial_type":"image-button-response","trial_index":97,"time_elapsed":270396,"internal_node_id":"0.0-4.0-0.45","subject_id":"611129ed9f242456e9abb65b","study_id":"6197b3f67c2b5cd3b6d9596a","session_id":"619be59046bdfb4ffdf677e7","condition":"contingent","relevant_dimensions":["antennae","pattern"],"bee_group":{"antennae":"B","wings":"X","pattern":"S","legs":"X"},"action":"harvest","summary":"bad-harvest","bonus":0.9400000000000011},{"rt":1003.8999999761581,"stimulus":"\n                    <p><b>Action: <em>harvest</em></b></p>\n                    <p>This is the bee that you just saw.</p>\n                    <img src=\"bees-with-color/bee-B2SF.svg\" width=\"200\">\n                    <p><span class=\"redText\">Bad choice, the bee was angry.</span><br><b>You have been stung!</b><br>Your pay has been decreased by $0.10. Your bonus pay is now $0.44.</p>\n            ","response":0,"trial_type":"html-button-response","trial_index":98,"time_elapsed":271405,"internal_node_id":"0.0-4.0-1.45","subject_id":"611129ed9f242456e9abb65b","study_id":"6197b3f67c2b5cd3b6d9596a","session_id":"619be59046bdfb4ffdf677e7","condition":"contingent","relevant_dimensions":["antennae","pattern"],"bee_group":{"antennae":"B","wings":"X","pattern":"S","legs":"X"},"bonus":0.9400000000000011},{"rt":1200.9000000357628,"stimulus":"bees-with-color/bee-A1DF.svg","response":0,"trial_type":"image-button-response","trial_index":99,"time_elapsed":272611,"internal_node_id":"0.0-4.0-0.46","subject_id":"611129ed9f242456e9abb65b","study_id":"6197b3f67c2b5cd3b6d9596a","session_id":"619be59046bdfb4ffdf677e7","condition":"contingent","relevant_dimensions":["antennae","pattern"],"bee_group":{"antennae":"B","wings":"X","pattern":"S","legs":"X"},"action":"harvest","summary":"good-harvest","bonus":0.9400000000000011},{"rt":936.1999999880791,"stimulus":"\n                    <p><b>Action: <em>harvest</em></b></p>\n                    <p>This is the bee that you just saw.</p>\n                    <img src=\"bees-with-color/bee-A1DF.svg\" width=\"200\">\n                    <p><span class=\"greenText\"><b>Successful harvest!</b></span><br>Your pay has increased by $0.02. Your bonus pay is now $0.46.</p>\n            ","response":0,"trial_type":"html-button-response","trial_index":100,"time_elapsed":273553,"internal_node_id":"0.0-4.0-1.46","subject_id":"611129ed9f242456e9abb65b","study_id":"6197b3f67c2b5cd3b6d9596a","session_id":"619be59046bdfb4ffdf677e7","condition":"contingent","relevant_dimensions":["antennae","pattern"],"bee_group":{"antennae":"B","wings":"X","pattern":"S","legs":"X"},"bonus":0.9400000000000011},{"rt":3163.900000035763,"stimulus":"bees-with-color/bee-A2SM.svg","response":1,"trial_type":"image-button-response","trial_index":101,"time_elapsed":276722,"internal_node_id":"0.0-4.0-0.47","subject_id":"611129ed9f242456e9abb65b","study_id":"6197b3f67c2b5cd3b6d9596a","session_id":"619be59046bdfb4ffdf677e7","condition":"contingent","relevant_dimensions":["antennae","pattern"],"bee_group":{"antennae":"B","wings":"X","pattern":"S","legs":"X"},"action":"avoid","summary":"bad-avoid","bonus":0.9400000000000011},{"rt":738.3999999761581,"stimulus":"\n                    <p><b>Action: <em>avoid</em></b></p>\n                    <p>This is the bee that you just saw.</p>\n                    <img src=\"bees-with-color/bee-A2SM.svg\" width=\"200\">\n                    <p><br>Your bonus pay is unchanged, and remains at $0.46.</p>\n            ","response":0,"trial_type":"html-button-response","trial_index":102,"time_elapsed":277467,"internal_node_id":"0.0-4.0-1.47","subject_id":"611129ed9f242456e9abb65b","study_id":"6197b3f67c2b5cd3b6d9596a","session_id":"619be59046bdfb4ffdf677e7","condition":"contingent","relevant_dimensions":["antennae","pattern"],"bee_group":{"antennae":"B","wings":"X","pattern":"S","legs":"X"},"bonus":0.9400000000000011},{"rt":959.1999999880791,"stimulus":"bees-with-color/bee-A1DF.svg","response":0,"trial_type":"image-button-response","trial_index":103,"time_elapsed":278433,"internal_node_id":"0.0-4.0-0.48","subject_id":"611129ed9f242456e9abb65b","study_id":"6197b3f67c2b5cd3b6d9596a","session_id":"619be59046bdfb4ffdf677e7","condition":"contingent","relevant_dimensions":["antennae","pattern"],"bee_group":{"antennae":"B","wings":"X","pattern":"S","legs":"X"},"action":"harvest","summary":"good-harvest","bonus":0.9400000000000011},{"rt":724.8999999761581,"stimulus":"\n                    <p><b>Action: <em>harvest</em></b></p>\n                    <p>This is the bee that you just saw.</p>\n                    <img src=\"bees-with-color/bee-A1DF.svg\" width=\"200\">\n                    <p><span class=\"greenText\"><b>Successful harvest!</b></span><br>Your pay has increased by $0.02. Your bonus pay is now $0.48.</p>\n            ","response":0,"trial_type":"html-button-response","trial_index":104,"time_elapsed":279166,"internal_node_id":"0.0-4.0-1.48","subject_id":"611129ed9f242456e9abb65b","study_id":"6197b3f67c2b5cd3b6d9596a","session_id":"619be59046bdfb4ffdf677e7","condition":"contingent","relevant_dimensions":["antennae","pattern"],"bee_group":{"antennae":"B","wings":"X","pattern":"S","legs":"X"},"bonus":0.9400000000000011},{"rt":1351.199999988079,"stimulus":"bees-with-color/bee-A1DM.svg","response":0,"trial_type":"image-button-response","trial_index":105,"time_elapsed":280534,"internal_node_id":"0.0-4.0-0.49","subject_id":"611129ed9f242456e9abb65b","study_id":"6197b3f67c2b5cd3b6d9596a","session_id":"619be59046bdfb4ffdf677e7","condition":"contingent","relevant_dimensions":["antennae","pattern"],"bee_group":{"antennae":"B","wings":"X","pattern":"S","legs":"X"},"action":"harvest","summary":"good-harvest","bonus":0.9400000000000011},{"rt":647.9000000357628,"stimulus":"\n                    <p><b>Action: <em>harvest</em></b></p>\n                    <p>This is the bee that you just saw.</p>\n                    <img src=\"bees-with-color/bee-A1DM.svg\" width=\"200\">\n                    <p><span class=\"greenText\"><b>Successful harvest!</b></span><br>Your pay has increased by $0.02. Your bonus pay is now $0.50.</p>\n            ","response":0,"trial_type":"html-button-response","trial_index":106,"time_elapsed":281188,"internal_node_id":"0.0-4.0-1.49","subject_id":"611129ed9f242456e9abb65b","study_id":"6197b3f67c2b5cd3b6d9596a","session_id":"619be59046bdfb4ffdf677e7","condition":"contingent","relevant_dimensions":["antennae","pattern"],"bee_group":{"antennae":"B","wings":"X","pattern":"S","legs":"X"},"bonus":0.9400000000000011},{"rt":1804.8999999761581,"stimulus":"bees-with-color/bee-B2DM.svg","response":0,"trial_type":"image-button-response","trial_index":107,"time_elapsed":283000,"internal_node_id":"0.0-4.0-0.50","subject_id":"611129ed9f242456e9abb65b","study_id":"6197b3f67c2b5cd3b6d9596a","session_id":"619be59046bdfb4ffdf677e7","condition":"contingent","relevant_dimensions":["antennae","pattern"],"bee_group":{"antennae":"B","wings":"X","pattern":"S","legs":"X"},"action":"harvest","summary":"good-harvest","bonus":0.9400000000000011},{"rt":758.5,"stimulus":"\n                    <p><b>Action: <em>harvest</em></b></p>\n                    <p>This is the bee that you just saw.</p>\n                    <img src=\"bees-with-color/bee-B2DM.svg\" width=\"200\">\n                    <p><span class=\"greenText\"><b>Successful harvest!</b></span><br>Your pay has increased by $0.02. Your bonus pay is now $0.52.</p>\n            ","response":0,"trial_type":"html-button-response","trial_index":108,"time_elapsed":283764,"internal_node_id":"0.0-4.0-1.50","subject_id":"611129ed9f242456e9abb65b","study_id":"6197b3f67c2b5cd3b6d9596a","session_id":"619be59046bdfb4ffdf677e7","condition":"contingent","relevant_dimensions":["antennae","pattern"],"bee_group":{"antennae":"B","wings":"X","pattern":"S","legs":"X"},"bonus":0.9400000000000011},{"rt":997.6999999880791,"stimulus":"bees-with-color/bee-A2DF.svg","response":0,"trial_type":"image-button-response","trial_index":109,"time_elapsed":284768,"internal_node_id":"0.0-4.0-0.51","subject_id":"611129ed9f242456e9abb65b","study_id":"6197b3f67c2b5cd3b6d9596a","session_id":"619be59046bdfb4ffdf677e7","condition":"contingent","relevant_dimensions":["antennae","pattern"],"bee_group":{"antennae":"B","wings":"X","pattern":"S","legs":"X"},"action":"harvest","summary":"good-harvest","bonus":0.9400000000000011},{"rt":788.8999999761581,"stimulus":"\n                    <p><b>Action: <em>harvest</em></b></p>\n                    <p>This is the bee that you just saw.</p>\n                    <img src=\"bees-with-color/bee-A2DF.svg\" width=\"200\">\n                    <p><span class=\"greenText\"><b>Successful harvest!</b></span><br>Your pay has increased by $0.02. Your bonus pay is now $0.54.</p>\n            ","response":0,"trial_type":"html-button-response","trial_index":110,"time_elapsed":285566,"internal_node_id":"0.0-4.0-1.51","subject_id":"611129ed9f242456e9abb65b","study_id":"6197b3f67c2b5cd3b6d9596a","session_id":"619be59046bdfb4ffdf677e7","condition":"contingent","relevant_dimensions":["antennae","pattern"],"bee_group":{"antennae":"B","wings":"X","pattern":"S","legs":"X"},"bonus":0.9400000000000011},{"rt":910.6000000238419,"stimulus":"bees-with-color/bee-B2SF.svg","response":1,"trial_type":"image-button-response","trial_index":111,"time_elapsed":286482,"internal_node_id":"0.0-4.0-0.52","subject_id":"611129ed9f242456e9abb65b","study_id":"6197b3f67c2b5cd3b6d9596a","session_id":"619be59046bdfb4ffdf677e7","condition":"contingent","relevant_dimensions":["antennae","pattern"],"bee_group":{"antennae":"B","wings":"X","pattern":"S","legs":"X"},"action":"avoid","summary":"good-avoid","bonus":0.9400000000000011},{"rt":1112.5,"stimulus":"\n                    <p><b>Action: <em>avoid</em></b></p>\n                    <p>This is the bee that you just saw.</p>\n                    <img src=\"bees-with-color/bee-B2SF.svg\" width=\"200\">\n                    <p><br>Your bonus pay is unchanged, and remains at $0.54.</p>\n            ","response":0,"trial_type":"html-button-response","trial_index":112,"time_elapsed":287604,"internal_node_id":"0.0-4.0-1.52","subject_id":"611129ed9f242456e9abb65b","study_id":"6197b3f67c2b5cd3b6d9596a","session_id":"619be59046bdfb4ffdf677e7","condition":"contingent","relevant_dimensions":["antennae","pattern"],"bee_group":{"antennae":"B","wings":"X","pattern":"S","legs":"X"},"bonus":0.9400000000000011},{"rt":1014,"stimulus":"bees-with-color/bee-B1SF.svg","response":1,"trial_type":"image-button-response","trial_index":113,"time_elapsed":288622,"internal_node_id":"0.0-4.0-0.53","subject_id":"611129ed9f242456e9abb65b","study_id":"6197b3f67c2b5cd3b6d9596a","session_id":"619be59046bdfb4ffdf677e7","condition":"contingent","relevant_dimensions":["antennae","pattern"],"bee_group":{"antennae":"B","wings":"X","pattern":"S","legs":"X"},"action":"avoid","summary":"good-avoid","bonus":0.9400000000000011},{"rt":668,"stimulus":"\n                    <p><b>Action: <em>avoid</em></b></p>\n                    <p>This is the bee that you just saw.</p>\n                    <img src=\"bees-with-color/bee-B1SF.svg\" width=\"200\">\n                    <p><br>Your bonus pay is unchanged, and remains at $0.54.</p>\n            ","response":0,"trial_type":"html-button-response","trial_index":114,"time_elapsed":289295,"internal_node_id":"0.0-4.0-1.53","subject_id":"611129ed9f242456e9abb65b","study_id":"6197b3f67c2b5cd3b6d9596a","session_id":"619be59046bdfb4ffdf677e7","condition":"contingent","relevant_dimensions":["antennae","pattern"],"bee_group":{"antennae":"B","wings":"X","pattern":"S","legs":"X"},"bonus":0.9400000000000011},{"rt":1606.8999999761581,"stimulus":"bees-with-color/bee-A1SF.svg","response":1,"trial_type":"image-button-response","trial_index":115,"time_elapsed":290904,"internal_node_id":"0.0-4.0-0.54","subject_id":"611129ed9f242456e9abb65b","study_id":"6197b3f67c2b5cd3b6d9596a","session_id":"619be59046bdfb4ffdf677e7","condition":"contingent","relevant_dimensions":["antennae","pattern"],"bee_group":{"antennae":"B","wings":"X","pattern":"S","legs":"X"},"action":"avoid","summary":"bad-avoid","bonus":0.9400000000000011},{"rt":778.6999999880791,"stimulus":"\n                    <p><b>Action: <em>avoid</em></b></p>\n                    <p>This is the bee that you just saw.</p>\n                    <img src=\"bees-with-color/bee-A1SF.svg\" width=\"200\">\n                    <p><br>Your bonus pay is unchanged, and remains at $0.54.</p>\n            ","response":0,"trial_type":"html-button-response","trial_index":116,"time_elapsed":291686,"internal_node_id":"0.0-4.0-1.54","subject_id":"611129ed9f242456e9abb65b","study_id":"6197b3f67c2b5cd3b6d9596a","session_id":"619be59046bdfb4ffdf677e7","condition":"contingent","relevant_dimensions":["antennae","pattern"],"bee_group":{"antennae":"B","wings":"X","pattern":"S","legs":"X"},"bonus":0.9400000000000011},{"rt":2841.899999976158,"stimulus":"bees-with-color/bee-A2SM.svg","response":1,"trial_type":"image-button-response","trial_index":117,"time_elapsed":294535,"internal_node_id":"0.0-4.0-0.55","subject_id":"611129ed9f242456e9abb65b","study_id":"6197b3f67c2b5cd3b6d9596a","session_id":"619be59046bdfb4ffdf677e7","condition":"contingent","relevant_dimensions":["antennae","pattern"],"bee_group":{"antennae":"B","wings":"X","pattern":"S","legs":"X"},"action":"avoid","summary":"bad-avoid","bonus":0.9400000000000011},{"rt":1309.800000011921,"stimulus":"\n                    <p><b>Action: <em>avoid</em></b></p>\n                    <p>This is the bee that you just saw.</p>\n                    <img src=\"bees-with-color/bee-A2SM.svg\" width=\"200\">\n                    <p><br>Your bonus pay is unchanged, and remains at $0.54.</p>\n            ","response":0,"trial_type":"html-button-response","trial_index":118,"time_elapsed":295849,"internal_node_id":"0.0-4.0-1.55","subject_id":"611129ed9f242456e9abb65b","study_id":"6197b3f67c2b5cd3b6d9596a","session_id":"619be59046bdfb4ffdf677e7","condition":"contingent","relevant_dimensions":["antennae","pattern"],"bee_group":{"antennae":"B","wings":"X","pattern":"S","legs":"X"},"bonus":0.9400000000000011},{"rt":1276.199999988079,"stimulus":"bees-with-color/bee-A2DM.svg","response":0,"trial_type":"image-button-response","trial_index":119,"time_elapsed":297131,"internal_node_id":"0.0-4.0-0.56","subject_id":"611129ed9f242456e9abb65b","study_id":"6197b3f67c2b5cd3b6d9596a","session_id":"619be59046bdfb4ffdf677e7","condition":"contingent","relevant_dimensions":["antennae","pattern"],"bee_group":{"antennae":"B","wings":"X","pattern":"S","legs":"X"},"action":"harvest","summary":"good-harvest","bonus":0.9400000000000011},{"rt":1142.300000011921,"stimulus":"\n                    <p><b>Action: <em>harvest</em></b></p>\n                    <p>This is the bee that you just saw.</p>\n                    <img src=\"bees-with-color/bee-A2DM.svg\" width=\"200\">\n                    <p><span class=\"greenText\"><b>Successful harvest!</b></span><br>Your pay has increased by $0.02. Your bonus pay is now $0.56.</p>\n            ","response":0,"trial_type":"html-button-response","trial_index":120,"time_elapsed":298278,"internal_node_id":"0.0-4.0-1.56","subject_id":"611129ed9f242456e9abb65b","study_id":"6197b3f67c2b5cd3b6d9596a","session_id":"619be59046bdfb4ffdf677e7","condition":"contingent","relevant_dimensions":["antennae","pattern"],"bee_group":{"antennae":"B","wings":"X","pattern":"S","legs":"X"},"bonus":0.9400000000000011},{"rt":1515.5,"stimulus":"bees-with-color/bee-B1SM.svg","response":1,"trial_type":"image-button-response","trial_index":121,"time_elapsed":299798,"internal_node_id":"0.0-4.0-0.57","subject_id":"611129ed9f242456e9abb65b","study_id":"6197b3f67c2b5cd3b6d9596a","session_id":"619be59046bdfb4ffdf677e7","condition":"contingent","relevant_dimensions":["antennae","pattern"],"bee_group":{"antennae":"B","wings":"X","pattern":"S","legs":"X"},"action":"avoid","summary":"good-avoid","bonus":0.9400000000000011},{"rt":858.1000000238419,"stimulus":"\n                    <p><b>Action: <em>avoid</em></b></p>\n                    <p>This is the bee that you just saw.</p>\n                    <img src=\"bees-with-color/bee-B1SM.svg\" width=\"200\">\n                    <p><br>Your bonus pay is unchanged, and remains at $0.56.</p>\n            ","response":0,"trial_type":"html-button-response","trial_index":122,"time_elapsed":300662,"internal_node_id":"0.0-4.0-1.57","subject_id":"611129ed9f242456e9abb65b","study_id":"6197b3f67c2b5cd3b6d9596a","session_id":"619be59046bdfb4ffdf677e7","condition":"contingent","relevant_dimensions":["antennae","pattern"],"bee_group":{"antennae":"B","wings":"X","pattern":"S","legs":"X"},"bonus":0.9400000000000011},{"rt":1345.5999999642372,"stimulus":"bees-with-color/bee-B2DF.svg","response":0,"trial_type":"image-button-response","trial_index":123,"time_elapsed":302012,"internal_node_id":"0.0-4.0-0.58","subject_id":"611129ed9f242456e9abb65b","study_id":"6197b3f67c2b5cd3b6d9596a","session_id":"619be59046bdfb4ffdf677e7","condition":"contingent","relevant_dimensions":["antennae","pattern"],"bee_group":{"antennae":"B","wings":"X","pattern":"S","legs":"X"},"action":"harvest","summary":"good-harvest","bonus":0.9400000000000011},{"rt":777.1999999880791,"stimulus":"\n                    <p><b>Action: <em>harvest</em></b></p>\n                    <p>This is the bee that you just saw.</p>\n                    <img src=\"bees-with-color/bee-B2DF.svg\" width=\"200\">\n                    <p><span class=\"greenText\"><b>Successful harvest!</b></span><br>Your pay has increased by $0.02. Your bonus pay is now $0.58.</p>\n            ","response":0,"trial_type":"html-button-response","trial_index":124,"time_elapsed":302793,"internal_node_id":"0.0-4.0-1.58","subject_id":"611129ed9f242456e9abb65b","study_id":"6197b3f67c2b5cd3b6d9596a","session_id":"619be59046bdfb4ffdf677e7","condition":"contingent","relevant_dimensions":["antennae","pattern"],"bee_group":{"antennae":"B","wings":"X","pattern":"S","legs":"X"},"bonus":0.9400000000000011},{"rt":1046.0999999642372,"stimulus":"bees-with-color/bee-B1DM.svg","response":0,"trial_type":"image-button-response","trial_index":125,"time_elapsed":303844,"internal_node_id":"0.0-4.0-0.59","subject_id":"611129ed9f242456e9abb65b","study_id":"6197b3f67c2b5cd3b6d9596a","session_id":"619be59046bdfb4ffdf677e7","condition":"contingent","relevant_dimensions":["antennae","pattern"],"bee_group":{"antennae":"B","wings":"X","pattern":"S","legs":"X"},"action":"harvest","summary":"good-harvest","bonus":0.9400000000000011},{"rt":710.7000000476837,"stimulus":"\n                    <p><b>Action: <em>harvest</em></b></p>\n                    <p>This is the bee that you just saw.</p>\n                    <img src=\"bees-with-color/bee-B1DM.svg\" width=\"200\">\n                    <p><span class=\"greenText\"><b>Successful harvest!</b></span><br>Your pay has increased by $0.02. Your bonus pay is now $0.60.</p>\n            ","response":0,"trial_type":"html-button-response","trial_index":126,"time_elapsed":304560,"internal_node_id":"0.0-4.0-1.59","subject_id":"611129ed9f242456e9abb65b","study_id":"6197b3f67c2b5cd3b6d9596a","session_id":"619be59046bdfb4ffdf677e7","condition":"contingent","relevant_dimensions":["antennae","pattern"],"bee_group":{"antennae":"B","wings":"X","pattern":"S","legs":"X"},"bonus":0.9400000000000011},{"rt":976.5999999642372,"stimulus":"bees-with-color/bee-A1SM.svg","response":1,"trial_type":"image-button-response","trial_index":127,"time_elapsed":305543,"internal_node_id":"0.0-4.0-0.60","subject_id":"611129ed9f242456e9abb65b","study_id":"6197b3f67c2b5cd3b6d9596a","session_id":"619be59046bdfb4ffdf677e7","condition":"contingent","relevant_dimensions":["antennae","pattern"],"bee_group":{"antennae":"B","wings":"X","pattern":"S","legs":"X"},"action":"avoid","summary":"bad-avoid","bonus":0.9400000000000011},{"rt":638.3000000119209,"stimulus":"\n                    <p><b>Action: <em>avoid</em></b></p>\n                    <p>This is the bee that you just saw.</p>\n                    <img src=\"bees-with-color/bee-A1SM.svg\" width=\"200\">\n                    <p><br>Your bonus pay is unchanged, and remains at $0.60.</p>\n            ","response":0,"trial_type":"html-button-response","trial_index":128,"time_elapsed":306187,"internal_node_id":"0.0-4.0-1.60","subject_id":"611129ed9f242456e9abb65b","study_id":"6197b3f67c2b5cd3b6d9596a","session_id":"619be59046bdfb4ffdf677e7","condition":"contingent","relevant_dimensions":["antennae","pattern"],"bee_group":{"antennae":"B","wings":"X","pattern":"S","legs":"X"},"bonus":0.9400000000000011},{"rt":1511.5999999642372,"stimulus":"bees-with-color/bee-B2SM.svg","response":1,"trial_type":"image-button-response","trial_index":129,"time_elapsed":307703,"internal_node_id":"0.0-4.0-0.61","subject_id":"611129ed9f242456e9abb65b","study_id":"6197b3f67c2b5cd3b6d9596a","session_id":"619be59046bdfb4ffdf677e7","condition":"contingent","relevant_dimensions":["antennae","pattern"],"bee_group":{"antennae":"B","wings":"X","pattern":"S","legs":"X"},"action":"avoid","summary":"good-avoid","bonus":0.9400000000000011},{"rt":558,"stimulus":"\n                    <p><b>Action: <em>avoid</em></b></p>\n                    <p>This is the bee that you just saw.</p>\n                    <img src=\"bees-with-color/bee-B2SM.svg\" width=\"200\">\n                    <p><br>Your bonus pay is unchanged, and remains at $0.60.</p>\n            ","response":0,"trial_type":"html-button-response","trial_index":130,"time_elapsed":308265,"internal_node_id":"0.0-4.0-1.61","subject_id":"611129ed9f242456e9abb65b","study_id":"6197b3f67c2b5cd3b6d9596a","session_id":"619be59046bdfb4ffdf677e7","condition":"contingent","relevant_dimensions":["antennae","pattern"],"bee_group":{"antennae":"B","wings":"X","pattern":"S","legs":"X"},"bonus":0.9400000000000011},{"rt":978.3999999761581,"stimulus":"bees-with-color/bee-B1DF.svg","response":0,"trial_type":"image-button-response","trial_index":131,"time_elapsed":309251,"internal_node_id":"0.0-4.0-0.62","subject_id":"611129ed9f242456e9abb65b","study_id":"6197b3f67c2b5cd3b6d9596a","session_id":"619be59046bdfb4ffdf677e7","condition":"contingent","relevant_dimensions":["antennae","pattern"],"bee_group":{"antennae":"B","wings":"X","pattern":"S","legs":"X"},"action":"harvest","summary":"good-harvest","bonus":0.9400000000000011},{"rt":834,"stimulus":"\n                    <p><b>Action: <em>harvest</em></b></p>\n                    <p>This is the bee that you just saw.</p>\n                    <img src=\"bees-with-color/bee-B1DF.svg\" width=\"200\">\n                    <p><span class=\"greenText\"><b>Successful harvest!</b></span><br>Your pay has increased by $0.02. Your bonus pay is now $0.62.</p>\n            ","response":0,"trial_type":"html-button-response","trial_index":132,"time_elapsed":310089,"internal_node_id":"0.0-4.0-1.62","subject_id":"611129ed9f242456e9abb65b","study_id":"6197b3f67c2b5cd3b6d9596a","session_id":"619be59046bdfb4ffdf677e7","condition":"contingent","relevant_dimensions":["antennae","pattern"],"bee_group":{"antennae":"B","wings":"X","pattern":"S","legs":"X"},"bonus":0.9400000000000011},{"rt":1280.800000011921,"stimulus":"bees-with-color/bee-A2SF.svg","response":1,"trial_type":"image-button-response","trial_index":133,"time_elapsed":311374,"internal_node_id":"0.0-4.0-0.63","subject_id":"611129ed9f242456e9abb65b","study_id":"6197b3f67c2b5cd3b6d9596a","session_id":"619be59046bdfb4ffdf677e7","condition":"contingent","relevant_dimensions":["antennae","pattern"],"bee_group":{"antennae":"B","wings":"X","pattern":"S","legs":"X"},"action":"avoid","summary":"bad-avoid","bonus":0.9400000000000011},{"rt":1502.6000000238419,"stimulus":"\n                    <p><b>Action: <em>avoid</em></b></p>\n                    <p>This is the bee that you just saw.</p>\n                    <img src=\"bees-with-color/bee-A2SF.svg\" width=\"200\">\n                    <p><br>Your bonus pay is unchanged, and remains at $0.62.</p>\n            ","response":0,"trial_type":"html-button-response","trial_index":134,"time_elapsed":312882,"internal_node_id":"0.0-4.0-1.63","subject_id":"611129ed9f242456e9abb65b","study_id":"6197b3f67c2b5cd3b6d9596a","session_id":"619be59046bdfb4ffdf677e7","condition":"contingent","relevant_dimensions":["antennae","pattern"],"bee_group":{"antennae":"B","wings":"X","pattern":"S","legs":"X"},"bonus":0.9400000000000011},{"rt":4266.400000035763,"stimulus":"You have completed the first part of this experiment.<br><br>You will now begin a shorter second part, in which you will receive no feedback.<br>The same rules regarding bonus pay apply.<br><br>Press any key to begin.","response":" ","trial_type":"html-keyboard-response","trial_index":135,"time_elapsed":317154,"internal_node_id":"0.0-5.0","subject_id":"611129ed9f242456e9abb65b","study_id":"6197b3f67c2b5cd3b6d9596a","session_id":"619be59046bdfb4ffdf677e7","condition":"contingent","relevant_dimensions":["antennae","pattern"],"bee_group":{"antennae":"B","wings":"X","pattern":"S","legs":"X"},"bonus":0.9400000000000011},{"rt":3377.800000011921,"stimulus":"bees-with-color/bee-B1SF.svg","response":1,"trial_type":"image-button-response","trial_index":136,"time_elapsed":320558,"internal_node_id":"0.0-6.0-0.0","subject_id":"611129ed9f242456e9abb65b","study_id":"6197b3f67c2b5cd3b6d9596a","session_id":"619be59046bdfb4ffdf677e7","condition":"contingent","relevant_dimensions":["antennae","pattern"],"bee_group":{"antennae":"B","wings":"X","pattern":"S","legs":"X"},"bonus":0.9400000000000011},{"rt":1508.800000011921,"stimulus":"bees-with-color/bee-B2DF.svg","response":0,"trial_type":"image-button-response","trial_index":137,"time_elapsed":322075,"internal_node_id":"0.0-6.0-0.1","subject_id":"611129ed9f242456e9abb65b","study_id":"6197b3f67c2b5cd3b6d9596a","session_id":"619be59046bdfb4ffdf677e7","condition":"contingent","relevant_dimensions":["antennae","pattern"],"bee_group":{"antennae":"B","wings":"X","pattern":"S","legs":"X"},"bonus":0.9400000000000011},{"rt":1002,"stimulus":"bees-with-color/bee-B1DF.svg","response":0,"trial_type":"image-button-response","trial_index":138,"time_elapsed":323085,"internal_node_id":"0.0-6.0-0.2","subject_id":"611129ed9f242456e9abb65b","study_id":"6197b3f67c2b5cd3b6d9596a","session_id":"619be59046bdfb4ffdf677e7","condition":"contingent","relevant_dimensions":["antennae","pattern"],"bee_group":{"antennae":"B","wings":"X","pattern":"S","legs":"X"},"bonus":0.9400000000000011},{"rt":1246.5,"stimulus":"bees-with-color/bee-A2SF.svg","response":1,"trial_type":"image-button-response","trial_index":139,"time_elapsed":324338,"internal_node_id":"0.0-6.0-0.3","subject_id":"611129ed9f242456e9abb65b","study_id":"6197b3f67c2b5cd3b6d9596a","session_id":"619be59046bdfb4ffdf677e7","condition":"contingent","relevant_dimensions":["antennae","pattern"],"bee_group":{"antennae":"B","wings":"X","pattern":"S","legs":"X"},"bonus":0.9400000000000011},{"rt":1357,"stimulus":"bees-with-color/bee-B1SM.svg","response":1,"trial_type":"image-button-response","trial_index":140,"time_elapsed":325701,"internal_node_id":"0.0-6.0-0.4","subject_id":"611129ed9f242456e9abb65b","study_id":"6197b3f67c2b5cd3b6d9596a","session_id":"619be59046bdfb4ffdf677e7","condition":"contingent","relevant_dimensions":["antennae","pattern"],"bee_group":{"antennae":"B","wings":"X","pattern":"S","legs":"X"},"bonus":0.9400000000000011},{"rt":3335.600000023842,"stimulus":"bees-with-color/bee-A2DM.svg","response":0,"trial_type":"image-button-response","trial_index":141,"time_elapsed":329043,"internal_node_id":"0.0-6.0-0.5","subject_id":"611129ed9f242456e9abb65b","study_id":"6197b3f67c2b5cd3b6d9596a","session_id":"619be59046bdfb4ffdf677e7","condition":"contingent","relevant_dimensions":["antennae","pattern"],"bee_group":{"antennae":"B","wings":"X","pattern":"S","legs":"X"},"bonus":0.9400000000000011},{"rt":601.0999999642372,"stimulus":"bees-with-color/bee-A2DF.svg","response":0,"trial_type":"image-button-response","trial_index":142,"time_elapsed":329653,"internal_node_id":"0.0-6.0-0.6","subject_id":"611129ed9f242456e9abb65b","study_id":"6197b3f67c2b5cd3b6d9596a","session_id":"619be59046bdfb4ffdf677e7","condition":"contingent","relevant_dimensions":["antennae","pattern"],"bee_group":{"antennae":"B","wings":"X","pattern":"S","legs":"X"},"bonus":0.9400000000000011},{"rt":1486.199999988079,"stimulus":"bees-with-color/bee-B1DM.svg","response":0,"trial_type":"image-button-response","trial_index":143,"time_elapsed":331147,"internal_node_id":"0.0-6.0-0.7","subject_id":"611129ed9f242456e9abb65b","study_id":"6197b3f67c2b5cd3b6d9596a","session_id":"619be59046bdfb4ffdf677e7","condition":"contingent","relevant_dimensions":["antennae","pattern"],"bee_group":{"antennae":"B","wings":"X","pattern":"S","legs":"X"},"bonus":0.9400000000000011},{"rt":892.5,"stimulus":"bees-with-color/bee-A1SM.svg","response":1,"trial_type":"image-button-response","trial_index":144,"time_elapsed":332048,"internal_node_id":"0.0-6.0-0.8","subject_id":"611129ed9f242456e9abb65b","study_id":"6197b3f67c2b5cd3b6d9596a","session_id":"619be59046bdfb4ffdf677e7","condition":"contingent","relevant_dimensions":["antennae","pattern"],"bee_group":{"antennae":"B","wings":"X","pattern":"S","legs":"X"},"bonus":0.9400000000000011},{"rt":1974.199999988079,"stimulus":"bees-with-color/bee-B2DM.svg","response":0,"trial_type":"image-button-response","trial_index":145,"time_elapsed":334028,"internal_node_id":"0.0-6.0-0.9","subject_id":"611129ed9f242456e9abb65b","study_id":"6197b3f67c2b5cd3b6d9596a","session_id":"619be59046bdfb4ffdf677e7","condition":"contingent","relevant_dimensions":["antennae","pattern"],"bee_group":{"antennae":"B","wings":"X","pattern":"S","legs":"X"},"bonus":0.9400000000000011},{"rt":1234.300000011921,"stimulus":"bees-with-color/bee-A1DF.svg","response":0,"trial_type":"image-button-response","trial_index":146,"time_elapsed":335268,"internal_node_id":"0.0-6.0-0.10","subject_id":"611129ed9f242456e9abb65b","study_id":"6197b3f67c2b5cd3b6d9596a","session_id":"619be59046bdfb4ffdf677e7","condition":"contingent","relevant_dimensions":["antennae","pattern"],"bee_group":{"antennae":"B","wings":"X","pattern":"S","legs":"X"},"bonus":0.9400000000000011},{"rt":874.7999999523163,"stimulus":"bees-with-color/bee-B2SF.svg","response":1,"trial_type":"image-button-response","trial_index":147,"time_elapsed":336151,"internal_node_id":"0.0-6.0-0.11","subject_id":"611129ed9f242456e9abb65b","study_id":"6197b3f67c2b5cd3b6d9596a","session_id":"619be59046bdfb4ffdf677e7","condition":"contingent","relevant_dimensions":["antennae","pattern"],"bee_group":{"antennae":"B","wings":"X","pattern":"S","legs":"X"},"bonus":0.9400000000000011},{"rt":1372.3999999761581,"stimulus":"bees-with-color/bee-A1SF.svg","response":1,"trial_type":"image-button-response","trial_index":148,"time_elapsed":337527,"internal_node_id":"0.0-6.0-0.12","subject_id":"611129ed9f242456e9abb65b","study_id":"6197b3f67c2b5cd3b6d9596a","session_id":"619be59046bdfb4ffdf677e7","condition":"contingent","relevant_dimensions":["antennae","pattern"],"bee_group":{"antennae":"B","wings":"X","pattern":"S","legs":"X"},"bonus":0.9400000000000011},{"rt":1160.5,"stimulus":"bees-with-color/bee-B2SM.svg","response":1,"trial_type":"image-button-response","trial_index":149,"time_elapsed":338694,"internal_node_id":"0.0-6.0-0.13","subject_id":"611129ed9f242456e9abb65b","study_id":"6197b3f67c2b5cd3b6d9596a","session_id":"619be59046bdfb4ffdf677e7","condition":"contingent","relevant_dimensions":["antennae","pattern"],"bee_group":{"antennae":"B","wings":"X","pattern":"S","legs":"X"},"bonus":0.9400000000000011},{"rt":747.6999999880791,"stimulus":"bees-with-color/bee-A1DM.svg","response":0,"trial_type":"image-button-response","trial_index":150,"time_elapsed":339448,"internal_node_id":"0.0-6.0-0.14","subject_id":"611129ed9f242456e9abb65b","study_id":"6197b3f67c2b5cd3b6d9596a","session_id":"619be59046bdfb4ffdf677e7","condition":"contingent","relevant_dimensions":["antennae","pattern"],"bee_group":{"antennae":"B","wings":"X","pattern":"S","legs":"X"},"bonus":0.9400000000000011},{"rt":769.3999999761581,"stimulus":"bees-with-color/bee-A2SM.svg","response":1,"trial_type":"image-button-response","trial_index":151,"time_elapsed":340226,"internal_node_id":"0.0-6.0-0.15","subject_id":"611129ed9f242456e9abb65b","study_id":"6197b3f67c2b5cd3b6d9596a","session_id":"619be59046bdfb4ffdf677e7","condition":"contingent","relevant_dimensions":["antennae","pattern"],"bee_group":{"antennae":"B","wings":"X","pattern":"S","legs":"X"},"bonus":0.9400000000000011},{"rt":1817.3999999761581,"stimulus":"bees-with-color/bee-A2SM.svg","response":1,"trial_type":"image-button-response","trial_index":152,"time_elapsed":342049,"internal_node_id":"0.0-6.0-0.16","subject_id":"611129ed9f242456e9abb65b","study_id":"6197b3f67c2b5cd3b6d9596a","session_id":"619be59046bdfb4ffdf677e7","condition":"contingent","relevant_dimensions":["antennae","pattern"],"bee_group":{"antennae":"B","wings":"X","pattern":"S","legs":"X"},"bonus":0.9400000000000011},{"rt":851.6000000238419,"stimulus":"bees-with-color/bee-A2DF.svg","response":0,"trial_type":"image-button-response","trial_index":153,"time_elapsed":342906,"internal_node_id":"0.0-6.0-0.17","subject_id":"611129ed9f242456e9abb65b","study_id":"6197b3f67c2b5cd3b6d9596a","session_id":"619be59046bdfb4ffdf677e7","condition":"contingent","relevant_dimensions":["antennae","pattern"],"bee_group":{"antennae":"B","wings":"X","pattern":"S","legs":"X"},"bonus":0.9400000000000011},{"rt":1144.3999999761581,"stimulus":"bees-with-color/bee-B1DF.svg","response":0,"trial_type":"image-button-response","trial_index":154,"time_elapsed":344055,"internal_node_id":"0.0-6.0-0.18","subject_id":"611129ed9f242456e9abb65b","study_id":"6197b3f67c2b5cd3b6d9596a","session_id":"619be59046bdfb4ffdf677e7","condition":"contingent","relevant_dimensions":["antennae","pattern"],"bee_group":{"antennae":"B","wings":"X","pattern":"S","legs":"X"},"bonus":0.9400000000000011},{"rt":1025.1000000238419,"stimulus":"bees-with-color/bee-B1SF.svg","response":1,"trial_type":"image-button-response","trial_index":155,"time_elapsed":345087,"internal_node_id":"0.0-6.0-0.19","subject_id":"611129ed9f242456e9abb65b","study_id":"6197b3f67c2b5cd3b6d9596a","session_id":"619be59046bdfb4ffdf677e7","condition":"contingent","relevant_dimensions":["antennae","pattern"],"bee_group":{"antennae":"B","wings":"X","pattern":"S","legs":"X"},"bonus":0.9400000000000011},{"rt":674.8000000119209,"stimulus":"bees-with-color/bee-A1DM.svg","response":0,"trial_type":"image-button-response","trial_index":156,"time_elapsed":345768,"internal_node_id":"0.0-6.0-0.20","subject_id":"611129ed9f242456e9abb65b","study_id":"6197b3f67c2b5cd3b6d9596a","session_id":"619be59046bdfb4ffdf677e7","condition":"contingent","relevant_dimensions":["antennae","pattern"],"bee_group":{"antennae":"B","wings":"X","pattern":"S","legs":"X"},"bonus":0.9400000000000011},{"rt":1010.6000000238419,"stimulus":"bees-with-color/bee-B2SM.svg","response":1,"trial_type":"image-button-response","trial_index":157,"time_elapsed":346784,"internal_node_id":"0.0-6.0-0.21","subject_id":"611129ed9f242456e9abb65b","study_id":"6197b3f67c2b5cd3b6d9596a","session_id":"619be59046bdfb4ffdf677e7","condition":"contingent","relevant_dimensions":["antennae","pattern"],"bee_group":{"antennae":"B","wings":"X","pattern":"S","legs":"X"},"bonus":0.9400000000000011},{"rt":740.3999999761581,"stimulus":"bees-with-color/bee-B2DM.svg","response":0,"trial_type":"image-button-response","trial_index":158,"time_elapsed":347529,"internal_node_id":"0.0-6.0-0.22","subject_id":"611129ed9f242456e9abb65b","study_id":"6197b3f67c2b5cd3b6d9596a","session_id":"619be59046bdfb4ffdf677e7","condition":"contingent","relevant_dimensions":["antennae","pattern"],"bee_group":{"antennae":"B","wings":"X","pattern":"S","legs":"X"},"bonus":0.9400000000000011},{"rt":806.8000000119209,"stimulus":"bees-with-color/bee-A1SM.svg","response":1,"trial_type":"image-button-response","trial_index":159,"time_elapsed":348341,"internal_node_id":"0.0-6.0-0.23","subject_id":"611129ed9f242456e9abb65b","study_id":"6197b3f67c2b5cd3b6d9596a","session_id":"619be59046bdfb4ffdf677e7","condition":"contingent","relevant_dimensions":["antennae","pattern"],"bee_group":{"antennae":"B","wings":"X","pattern":"S","legs":"X"},"bonus":0.9400000000000011},{"rt":749.5,"stimulus":"bees-with-color/bee-A1DF.svg","response":0,"trial_type":"image-button-response","trial_index":160,"time_elapsed":349098,"internal_node_id":"0.0-6.0-0.24","subject_id":"611129ed9f242456e9abb65b","study_id":"6197b3f67c2b5cd3b6d9596a","session_id":"619be59046bdfb4ffdf677e7","condition":"contingent","relevant_dimensions":["antennae","pattern"],"bee_group":{"antennae":"B","wings":"X","pattern":"S","legs":"X"},"bonus":0.9400000000000011},{"rt":1123.5,"stimulus":"bees-with-color/bee-A1SF.svg","response":1,"trial_type":"image-button-response","trial_index":161,"time_elapsed":350227,"internal_node_id":"0.0-6.0-0.25","subject_id":"611129ed9f242456e9abb65b","study_id":"6197b3f67c2b5cd3b6d9596a","session_id":"619be59046bdfb4ffdf677e7","condition":"contingent","relevant_dimensions":["antennae","pattern"],"bee_group":{"antennae":"B","wings":"X","pattern":"S","legs":"X"},"bonus":0.9400000000000011},{"rt":667.7000000476837,"stimulus":"bees-wit