[{"success":true,"trial_type":"fullscreen","trial_index":0,"time_elapsed":17002,"internal_node_id":"0.0-0.0","subject_id":"614cc3f912aa5c22b24f9cc2","study_id":"6197b3f67c2b5cd3b6d9596a","session_id":"6197b585b80df9ecb04f391e","condition":"full-information","relevant_dimensions":["wings","pattern"],"bee_group":{"antennae":"X","wings":"2","pattern":"D","legs":"X"},"bonus":0.1600000000000004},{"success":true,"timeout":false,"failed_images":[],"failed_audio":[],"failed_video":[],"trial_type":"preload","trial_index":1,"time_elapsed":20107,"internal_node_id":"0.0-1.0","subject_id":"614cc3f912aa5c22b24f9cc2","study_id":"6197b3f67c2b5cd3b6d9596a","session_id":"6197b585b80df9ecb04f391e","condition":"full-information","relevant_dimensions":["wings","pattern"],"bee_group":{"antennae":"X","wings":"2","pattern":"D","legs":"X"},"bonus":0.1600000000000004},{"rt":8825.10000000894,"stimulus":"Welcome! Press any key to begin.","response":"h","trial_type":"html-keyboard-response","trial_index":2,"time_elapsed":28934,"internal_node_id":"0.0-2.0","subject_id":"614cc3f912aa5c22b24f9cc2","study_id":"6197b3f67c2b5cd3b6d9596a","session_id":"6197b585b80df9ecb04f391e","condition":"full-information","relevant_dimensions":["wings","pattern"],"bee_group":{"antennae":"X","wings":"2","pattern":"D","legs":"X"},"bonus":0.1600000000000004},{"view_history":[{"page_index":0,"viewing_time":5481.79999999702},{"page_index":1,"viewing_time":31612.70000000298},{"page_index":2,"viewing_time":14737.40000000596},{"page_index":3,"viewing_time":16197.39999999106},{"page_index":4,"viewing_time":9096.10000000894},{"page_index":5,"viewing_time":15428.29999999702},{"page_index":6,"viewing_time":9069.20000000298},{"page_index":7,"viewing_time":35273.59999999404},{"page_index":8,"viewing_time":21035},{"page_index":9,"viewing_time":14457.70000000298},{"page_index":10,"viewing_time":28008},{"page_index":11,"viewing_time":23877.79999999702},{"page_index":12,"viewing_time":22408.90000000596},{"page_index":13,"viewing_time":2906.2999999970198},{"page_index":14,"viewing_time":3770}],"rt":253360.79999999702,"trial_type":"instructions","trial_index":3,"time_elapsed":282295,"internal_node_id":"0.0-3.0-0.0","subject_id":"614cc3f912aa5c22b24f9cc2","study_id":"6197b3f67c2b5cd3b6d9596a","session_id":"6197b585b80df9ecb04f391e","condition":"full-information","relevant_dimensions":["wings","pattern"],"bee_group":{"antennae":"X","wings":"2","pattern":"D","legs":"X"},"bonus":0.1600000000000004},{"rt":18324.5,"response":{"Q0":["Two or six legs","Stripes or spots on body","Single or double wings","Antennae or no antennae"]},"question_order":[0],"trial_type":"survey-multi-select","trial_index":4,"time_elapsed":300627,"internal_node_id":"0.0-3.0-1.0","subject_id":"614cc3f912aa5c22b24f9cc2","study_id":"6197b3f67c2b5cd3b6d9596a","session_id":"6197b585b80df9ecb04f391e","condition":"full-information","relevant_dimensions":["wings","pattern"],"bee_group":{"antennae":"X","wings":"2","pattern":"D","legs":"X"},"correct":true,"bonus":0.1600000000000004},{"rt":23367.59999999404,"response":{"Q1":"No.","Q2":"Based on the four features of the bee.","Q3":"You learn if it was friendly or dangerous, but do not alter your bonus."},"question_order":[0,1,2],"trial_type":"survey-multi-choice","trial_index":5,"time_elapsed":324042,"internal_node_id":"0.0-3.0-2.0","subject_id":"614cc3f912aa5c22b24f9cc2","study_id":"6197b3f67c2b5cd3b6d9596a","session_id":"6197b585b80df9ecb04f391e","condition":"full-information","relevant_dimensions":["wings","pattern"],"bee_group":{"antennae":"X","wings":"2","pattern":"D","legs":"X"},"correct":true,"bonus":0.1600000000000004},{"rt":3935,"stimulus":"<p>Congrats, you got everything right<br>When you're ready, click the button below to continue to the experiment.</p>","response":0,"trial_type":"html-button-response","trial_index":6,"time_elapsed":327980,"internal_node_id":"0.0-3.0-3.0","subject_id":"614cc3f912aa5c22b24f9cc2","study_id":"6197b3f67c2b5cd3b6d9596a","session_id":"6197b585b80df9ecb04f391e","condition":"full-information","relevant_dimensions":["wings","pattern"],"bee_group":{"antennae":"X","wings":"2","pattern":"D","legs":"X"},"bonus":0.1600000000000004},{"rt":34995.89999999106,"stimulus":"bees-with-color/bee-B1DF.svg","response":1,"trial_type":"image-button-response","trial_index":7,"time_elapsed":362981,"internal_node_id":"0.0-4.0-0.0","subject_id":"614cc3f912aa5c22b24f9cc2","study_id":"6197b3f67c2b5cd3b6d9596a","session_id":"6197b585b80df9ecb04f391e","condition":"full-information","relevant_dimensions":["wings","pattern"],"bee_group":{"antennae":"X","wings":"2","pattern":"D","legs":"X"},"action":"avoid","summary":"bad-avoid","bonus":0.1600000000000004},{"rt":12574.60000000894,"stimulus":"\n                    <p><b>Action: <em>avoid</em></b></p>\n                    <p>This is the bee that you just saw.</p>\n                    <img src=\"bees-with-color/bee-B1DF.svg\" width=\"200\">\n                    <p><span class=\"redText\">Bad choice,</span> the bee was friendly.<br>Your bonus pay is unchanged, and remains at $0.54.</p>\n            ","response":0,"trial_type":"html-button-response","trial_index":8,"time_elapsed":375561,"internal_node_id":"0.0-4.0-1.0","subject_id":"614cc3f912aa5c22b24f9cc2","study_id":"6197b3f67c2b5cd3b6d9596a","session_id":"6197b585b80df9ecb04f391e","condition":"full-information","relevant_dimensions":["wings","pattern"],"bee_group":{"antennae":"X","wings":"2","pattern":"D","legs":"X"},"bonus":0.1600000000000004},{"rt":19666,"stimulus":"bees-with-color/bee-B2SM.svg","response":1,"trial_type":"image-button-response","trial_index":9,"time_elapsed":395231,"internal_node_id":"0.0-4.0-0.1","subject_id":"614cc3f912aa5c22b24f9cc2","study_id":"6197b3f67c2b5cd3b6d9596a","session_id":"6197b585b80df9ecb04f391e","condition":"full-information","relevant_dimensions":["wings","pattern"],"bee_group":{"antennae":"X","wings":"2","pattern":"D","legs":"X"},"action":"avoid","summary":"bad-avoid","bonus":0.1600000000000004},{"rt":8402.79999999702,"stimulus":"\n                    <p><b>Action: <em>avoid</em></b></p>\n                    <p>This is the bee that you just saw.</p>\n                    <img src=\"bees-with-color/bee-B2SM.svg\" width=\"200\">\n                    <p><span class=\"redText\">Bad choice,</span> the bee was friendly.<br>Your bonus pay is unchanged, and remains at $0.54.</p>\n            ","response":0,"trial_type":"html-button-response","trial_index":10,"time_elapsed":403636,"internal_node_id":"0.0-4.0-1.1","subject_id":"614cc3f912aa5c22b24f9cc2","study_id":"6197b3f67c2b5cd3b6d9596a","session_id":"6197b585b80df9ecb04f391e","condition":"full-information","relevant_dimensions":["wings","pattern"],"bee_group":{"antennae":"X","wings":"2","pattern":"D","legs":"X"},"bonus":0.1600000000000004},{"rt":12554,"stimulus":"bees-with-color/bee-B2SF.svg","response":0,"trial_type":"image-button-response","trial_index":11,"time_elapsed":416194,"internal_node_id":"0.0-4.0-0.2","subject_id":"614cc3f912aa5c22b24f9cc2","study_id":"6197b3f67c2b5cd3b6d9596a","session_id":"6197b585b80df9ecb04f391e","condition":"full-information","relevant_dimensions":["wings","pattern"],"bee_group":{"antennae":"X","wings":"2","pattern":"D","legs":"X"},"action":"harvest","summary":"good-harvest","bonus":0.1600000000000004},{"rt":4033.699999988079,"stimulus":"\n                    <p><b>Action: <em>harvest</em></b></p>\n                    <p>This is the bee that you just saw.</p>\n                    <img src=\"bees-with-color/bee-B2SF.svg\" width=\"200\">\n                    <p><span class=\"greenText\"><b>Successful harvest!</b></span><br>Your pay has increased by $0.02. Your bonus pay is now $0.56.</p>\n            ","response":0,"trial_type":"html-button-response","trial_index":12,"time_elapsed":420230,"internal_node_id":"0.0-4.0-1.2","subject_id":"614cc3f912aa5c22b24f9cc2","study_id":"6197b3f67c2b5cd3b6d9596a","session_id":"6197b585b80df9ecb04f391e","condition":"full-information","relevant_dimensions":["wings","pattern"],"bee_group":{"antennae":"X","wings":"2","pattern":"D","legs":"X"},"bonus":0.1600000000000004},{"rt":8234.199999988079,"stimulus":"bees-with-color/bee-B2DM.svg","response":0,"trial_type":"image-button-response","trial_index":13,"time_elapsed":428468,"internal_node_id":"0.0-4.0-0.3","subject_id":"614cc3f912aa5c22b24f9cc2","study_id":"6197b3f67c2b5cd3b6d9596a","session_id":"6197b585b80df9ecb04f391e","condition":"full-information","relevant_dimensions":["wings","pattern"],"bee_group":{"antennae":"X","wings":"2","pattern":"D","legs":"X"},"action":"harvest","summary":"bad-harvest","bonus":0.1600000000000004},{"rt":22684.70000000298,"stimulus":"\n                    <p><b>Action: <em>harvest</em></b></p>\n                    <p>This is the bee that you just saw.</p>\n                    <img src=\"bees-with-color/bee-B2DM.svg\" width=\"200\">\n                    <p><span class=\"redText\">Bad choice, the bee was angry.</span><br><b>You have been stung!</b><br>Your pay has been decreased by $0.10. Your bonus pay is now $0.46.</p>\n            ","response":0,"trial_type":"html-button-response","trial_index":14,"time_elapsed":451155,"internal_node_id":"0.0-4.0-1.3","subject_id":"614cc3f912aa5c22b24f9cc2","study_id":"6197b3f67c2b5cd3b6d9596a","session_id":"6197b585b80df9ecb04f391e","condition":"full-information","relevant_dimensions":["wings","pattern"],"bee_group":{"antennae":"X","wings":"2","pattern":"D","legs":"X"},"bonus":0.1600000000000004},{"rt":13000,"stimulus":"bees-with-color/bee-B1SM.svg","response":0,"trial_type":"image-button-response","trial_index":15,"time_elapsed":464158,"internal_node_id":"0.0-4.0-0.4","subject_id":"614cc3f912aa5c22b24f9cc2","study_id":"6197b3f67c2b5cd3b6d9596a","session_id":"6197b585b80df9ecb04f391e","condition":"full-information","relevant_dimensions":["wings","pattern"],"bee_group":{"antennae":"X","wings":"2","pattern":"D","legs":"X"},"action":"harvest","summary":"good-harvest","bonus":0.1600000000000004},{"rt":24248.80000001192,"stimulus":"\n                    <p><b>Action: <em>harvest</em></b></p>\n                    <p>This is the bee that you just saw.</p>\n                    <img src=\"bees-with-color/bee-B1SM.svg\" width=\"200\">\n                    <p><span class=\"greenText\"><b>Successful harvest!</b></span><br>Your pay has increased by $0.02. Your bonus pay is now $0.48.</p>\n            ","response":0,"trial_type":"html-button-response","trial_index":16,"time_elapsed":488410,"internal_node_id":"0.0-4.0-1.4","subject_id":"614cc3f912aa5c22b24f9cc2","study_id":"6197b3f67c2b5cd3b6d9596a","session_id":"6197b585b80df9ecb04f391e","condition":"full-information","relevant_dimensions":["wings","pattern"],"bee_group":{"antennae":"X","wings":"2","pattern":"D","legs":"X"},"bonus":0.1600000000000004},{"rt":4375,"stimulus":"bees-with-color/bee-A1SM.svg","response":1,"trial_type":"image-button-response","trial_index":17,"time_elapsed":492788,"internal_node_id":"0.0-4.0-0.5","subject_id":"614cc3f912aa5c22b24f9cc2","study_id":"6197b3f67c2b5cd3b6d9596a","session_id":"6197b585b80df9ecb04f391e","condition":"full-information","relevant_dimensions":["wings","pattern"],"bee_group":{"antennae":"X","wings":"2","pattern":"D","legs":"X"},"action":"avoid","summary":"bad-avoid","bonus":0.1600000000000004},{"rt":28024,"stimulus":"\n                    <p><b>Action: <em>avoid</em></b></p>\n                    <p>This is the bee that you just saw.</p>\n                    <img src=\"bees-with-color/bee-A1SM.svg\" width=\"200\">\n                    <p><span class=\"redText\">Bad choice,</span> the bee was friendly.<br>Your bonus pay is unchanged, and remains at $0.48.</p>\n            ","response":0,"trial_type":"html-button-response","trial_index":18,"time_elapsed":520814,"internal_node_id":"0.0-4.0-1.5","subject_id":"614cc3f912aa5c22b24f9cc2","study_id":"6197b3f67c2b5cd3b6d9596a","session_id":"6197b585b80df9ecb04f391e","condition":"full-information","relevant_dimensions":["wings","pattern"],"bee_group":{"antennae":"X","wings":"2","pattern":"D","legs":"X"},"bonus":0.1600000000000004},{"rt":10964.5,"stimulus":"bees-with-color/bee-B2DF.svg","response":0,"trial_type":"image-button-response","trial_index":19,"time_elapsed":531782,"internal_node_id":"0.0-4.0-0.6","subject_id":"614cc3f912aa5c22b24f9cc2","study_id":"6197b3f67c2b5cd3b6d9596a","session_id":"6197b585b80df9ecb04f391e","condition":"full-information","relevant_dimensions":["wings","pattern"],"bee_group":{"antennae":"X","wings":"2","pattern":"D","legs":"X"},"action":"harvest","summary":"bad-harvest","bonus":0.1600000000000004},{"rt":24130,"stimulus":"\n                    <p><b>Action: <em>harvest</em></b></p>\n                    <p>This is the bee that you just saw.</p>\n                    <img src=\"bees-with-color/bee-B2DF.svg\" width=\"200\">\n                    <p><span class=\"redText\">Bad choice, the bee was angry.</span><br><b>You have been stung!</b><br>Your pay has been decreased by $0.10. Your bonus pay is now $0.38.</p>\n            ","response":0,"trial_type":"html-button-response","trial_index":20,"time_elapsed":555916,"internal_node_id":"0.0-4.0-1.6","subject_id":"614cc3f912aa5c22b24f9cc2","study_id":"6197b3f67c2b5cd3b6d9596a","session_id":"6197b585b80df9ecb04f391e","condition":"full-information","relevant_dimensions":["wings","pattern"],"bee_group":{"antennae":"X","wings":"2","pattern":"D","legs":"X"},"bonus":0.1600000000000004},{"rt":6366,"stimulus":"bees-with-color/bee-A2SF.svg","response":1,"trial_type":"image-button-response","trial_index":21,"time_elapsed":562284,"internal_node_id":"0.0-4.0-0.7","subject_id":"614cc3f912aa5c22b24f9cc2","study_id":"6197b3f67c2b5cd3b6d9596a","session_id":"6197b585b80df9ecb04f391e","condition":"full-information","relevant_dimensions":["wings","pattern"],"bee_group":{"antennae":"X","wings":"2","pattern":"D","legs":"X"},"action":"avoid","summary":"bad-avoid","bonus":0.1600000000000004},{"rt":25185.29999999702,"stimulus":"\n                    <p><b>Action: <em>avoid</em></b></p>\n                    <p>This is the bee that you just saw.</p>\n                    <img src=\"bees-with-color/bee-A2SF.svg\" width=\"200\">\n                    <p><span class=\"redText\">Bad choice,</span> the bee was friendly.<br>Your bonus pay is unchanged, and remains at $0.38.</p>\n            ","response":0,"trial_type":"html-button-response","trial_index":22,"time_elapsed":587472,"internal_node_id":"0.0-4.0-1.7","subject_id":"614cc3f912aa5c22b24f9cc2","study_id":"6197b3f67c2b5cd3b6d9596a","session_id":"6197b585b80df9ecb04f391e","condition":"full-information","relevant_dimensions":["wings","pattern"],"bee_group":{"antennae":"X","wings":"2","pattern":"D","legs":"X"},"bonus":0.1600000000000004},{"rt":17069.20000000298,"stimulus":"bees-with-color/bee-A1SF.svg","response":0,"trial_type":"image-button-response","trial_index":23,"time_elapsed":604544,"internal_node_id":"0.0-4.0-0.8","subject_id":"614cc3f912aa5c22b24f9cc2","study_id":"6197b3f67c2b5cd3b6d9596a","session_id":"6197b585b80df9ecb04f391e","condition":"full-information","relevant_dimensions":["wings","pattern"],"bee_group":{"antennae":"X","wings":"2","pattern":"D","legs":"X"},"action":"harvest","summary":"good-harvest","bonus":0.1600000000000004},{"rt":17282.60000000894,"stimulus":"\n                    <p><b>Action: <em>harvest</em></b></p>\n                    <p>This is the bee that you just saw.</p>\n                    <img src=\"bees-with-color/bee-A1SF.svg\" width=\"200\">\n                    <p><span class=\"greenText\"><b>Successful harvest!</b></span><br>Your pay has increased by $0.02. Your bonus pay is now $0.40.</p>\n            ","response":0,"trial_type":"html-button-response","trial_index":24,"time_elapsed":621829,"internal_node_id":"0.0-4.0-1.8","subject_id":"614cc3f912aa5c22b24f9cc2","study_id":"6197b3f67c2b5cd3b6d9596a","session_id":"6197b585b80df9ecb04f391e","condition":"full-information","relevant_dimensions":["wings","pattern"],"bee_group":{"antennae":"X","wings":"2","pattern":"D","legs":"X"},"bonus":0.1600000000000004},{"rt":33343.90000000596,"stimulus":"bees-with-color/bee-A2DF.svg","response":1,"trial_type":"image-button-response","trial_index":25,"time_elapsed":655177,"internal_node_id":"0.0-4.0-0.9","subject_id":"614cc3f912aa5c22b24f9cc2","study_id":"6197b3f67c2b5cd3b6d9596a","session_id":"6197b585b80df9ecb04f391e","condition":"full-information","relevant_dimensions":["wings","pattern"],"bee_group":{"antennae":"X","wings":"2","pattern":"D","legs":"X"},"action":"avoid","summary":"good-avoid","bonus":0.1600000000000004},{"rt":105238.20000000298,"stimulus":"\n                    <p><b>Action: <em>avoid</em></b></p>\n                    <p>This is the bee that you just saw.</p>\n                    <img src=\"bees-with-color/bee-A2DF.svg\" width=\"200\">\n                    <p><span class=\"greenText\">Good choice!</span>  This bee would have stung you.<br>Your bonus pay is unchanged, and remains at $0.40.</p>\n            ","response":0,"trial_type":"html-button-response","trial_index":26,"time_elapsed":760418,"internal_node_id":"0.0-4.0-1.9","subject_id":"614cc3f912aa5c22b24f9cc2","study_id":"6197b3f67c2b5cd3b6d9596a","session_id":"6197b585b80df9ecb04f391e","condition":"full-information","relevant_dimensions":["wings","pattern"],"bee_group":{"antennae":"X","wings":"2","pattern":"D","legs":"X"},"bonus":0.1600000000000004},{"rt":22116,"stimulus":"bees-with-color/bee-A1DF.svg","response":1,"trial_type":"image-button-response","trial_index":27,"time_elapsed":782537,"internal_node_id":"0.0-4.0-0.10","subject_id":"614cc3f912aa5c22b24f9cc2","study_id":"6197b3f67c2b5cd3b6d9596a","session_id":"6197b585b80df9ecb04f391e","condition":"full-information","relevant_dimensions":["wings","pattern"],"bee_group":{"antennae":"X","wings":"2","pattern":"D","legs":"X"},"action":"avoid","summary":"bad-avoid","bonus":0.1600000000000004},{"rt":36716.90000000596,"stimulus":"\n                    <p><b>Action: <em>avoid</em></b></p>\n                    <p>This is the bee that you just saw.</p>\n                    <img src=\"bees-with-color/bee-A1DF.svg\" width=\"200\">\n                    <p><span class=\"redText\">Bad choice,</span> the bee was friendly.<br>Your bonus pay is unchanged, and remains at $0.40.</p>\n            ","response":0,"trial_type":"html-button-response","trial_index":28,"time_elapsed":819258,"internal_node_id":"0.0-4.0-1.10","subject_id":"614cc3f912aa5c22b24f9cc2","study_id":"6197b3f67c2b5cd3b6d9596a","session_id":"6197b585b80df9ecb04f391e","condition":"full-information","relevant_dimensions":["wings","pattern"],"bee_group":{"antennae":"X","wings":"2","pattern":"D","legs":"X"},"bonus":0.1600000000000004},{"rt":23213.89999999106,"stimulus":"bees-with-color/bee-B1SF.svg","response":0,"trial_type":"image-button-response","trial_index":29,"time_elapsed":842475,"internal_node_id":"0.0-4.0-0.11","subject_id":"614cc3f912aa5c22b24f9cc2","study_id":"6197b3f67c2b5cd3b6d9596a","session_id":"6197b585b80df9ecb04f391e","condition":"full-information","relevant_dimensions":["wings","pattern"],"bee_group":{"antennae":"X","wings":"2","pattern":"D","legs":"X"},"action":"harvest","summary":"good-harvest","bonus":0.1600000000000004},{"rt":30168.09999999404,"stimulus":"\n                    <p><b>Action: <em>harvest</em></b></p>\n                    <p>This is the bee that you just saw.</p>\n                    <img src=\"bees-with-color/bee-B1SF.svg\" width=\"200\">\n                    <p><span class=\"greenText\"><b>Successful harvest!</b></span><br>Your pay has increased by $0.02. Your bonus pay is now $0.42.</p>\n            ","response":0,"trial_type":"html-button-response","trial_index":30,"time_elapsed":872645,"internal_node_id":"0.0-4.0-1.11","subject_id":"614cc3f912aa5c22b24f9cc2","study_id":"6197b3f67c2b5cd3b6d9596a","session_id":"6197b585b80df9ecb04f391e","condition":"full-information","relevant_dimensions":["wings","pattern"],"bee_group":{"antennae":"X","wings":"2","pattern":"D","legs":"X"},"bonus":0.1600000000000004},{"rt":21663,"stimulus":"bees-with-color/bee-B1DM.svg","response":1,"trial_type":"image-button-response","trial_index":31,"time_elapsed":894311,"internal_node_id":"0.0-4.0-0.12","subject_id":"614cc3f912aa5c22b24f9cc2","study_id":"6197b3f67c2b5cd3b6d9596a","session_id":"6197b585b80df9ecb04f391e","condition":"full-information","relevant_dimensions":["wings","pattern"],"bee_group":{"antennae":"X","wings":"2","pattern":"D","legs":"X"},"action":"avoid","summary":"bad-avoid","bonus":0.1600000000000004},{"rt":51062.5,"stimulus":"\n                    <p><b>Action: <em>avoid</em></b></p>\n                    <p>This is the bee that you just saw.</p>\n                    <img src=\"bees-with-color/bee-B1DM.svg\" width=\"200\">\n                    <p><span class=\"redText\">Bad choice,</span> the bee was friendly.<br>Your bonus pay is unchanged, and remains at $0.42.</p>\n            ","response":0,"trial_type":"html-button-response","trial_index":32,"time_elapsed":945376,"internal_node_id":"0.0-4.0-1.12","subject_id":"614cc3f912aa5c22b24f9cc2","study_id":"6197b3f67c2b5cd3b6d9596a","session_id":"6197b585b80df9ecb04f391e","condition":"full-information","relevant_dimensions":["wings","pattern"],"bee_group":{"antennae":"X","wings":"2","pattern":"D","legs":"X"},"bonus":0.1600000000000004},{"rt":10072.20000000298,"stimulus":"bees-with-color/bee-A2DM.svg","response":0,"trial_type":"image-button-response","trial_index":33,"time_elapsed":955451,"internal_node_id":"0.0-4.0-0.13","subject_id":"614cc3f912aa5c22b24f9cc2","study_id":"6197b3f67c2b5cd3b6d9596a","session_id":"6197b585b80df9ecb04f391e","condition":"full-information","relevant_dimensions":["wings","pattern"],"bee_group":{"antennae":"X","wings":"2","pattern":"D","legs":"X"},"action":"harvest","summary":"bad-harvest","bonus":0.1600000000000004},{"rt":2118.5999999940395,"stimulus":"\n                    <p><b>Action: <em>harvest</em></b></p>\n                    <p>This is the bee that you just saw.</p>\n                    <img src=\"bees-with-color/bee-A2DM.svg\" width=\"200\">\n                    <p><span class=\"redText\">Bad choice, the bee was angry.</span><br><b>You have been stung!</b><br>Your pay has been decreased by $0.10. Your bonus pay is now $0.32.</p>\n            ","response":0,"trial_type":"html-button-response","trial_index":34,"time_elapsed":957572,"internal_node_id":"0.0-4.0-1.13","subject_id":"614cc3f912aa5c22b24f9cc2","study_id":"6197b3f67c2b5cd3b6d9596a","session_id":"6197b585b80df9ecb04f391e","condition":"full-information","relevant_dimensions":["wings","pattern"],"bee_group":{"antennae":"X","wings":"2","pattern":"D","legs":"X"},"bonus":0.1600000000000004},{"rt":7598.70000000298,"stimulus":"bees-with-color/bee-A2SM.svg","response":0,"trial_type":"image-button-response","trial_index":35,"time_elapsed":965173,"internal_node_id":"0.0-4.0-0.14","subject_id":"614cc3f912aa5c22b24f9cc2","study_id":"6197b3f67c2b5cd3b6d9596a","session_id":"6197b585b80df9ecb04f391e","condition":"full-information","relevant_dimensions":["wings","pattern"],"bee_group":{"antennae":"X","wings":"2","pattern":"D","legs":"X"},"action":"harvest","summary":"good-harvest","bonus":0.1600000000000004},{"rt":1655.699999988079,"stimulus":"\n                    <p><b>Action: <em>harvest</em></b></p>\n                    <p>This is the bee that you just saw.</p>\n                    <img src=\"bees-with-color/bee-A2SM.svg\" width=\"200\">\n                    <p><span class=\"greenText\"><b>Successful harvest!</b></span><br>Your pay has increased by $0.02. Your bonus pay is now $0.34.</p>\n            ","response":0,"trial_type":"html-button-response","trial_index":36,"time_elapsed":966831,"internal_node_id":"0.0-4.0-1.14","subject_id":"614cc3f912aa5c22b24f9cc2","study_id":"6197b3f67c2b5cd3b6d9596a","session_id":"6197b585b80df9ecb04f391e","condition":"full-information","relevant_dimensions":["wings","pattern"],"bee_group":{"antennae":"X","wings":"2","pattern":"D","legs":"X"},"bonus":0.1600000000000004},{"rt":8312.40000000596,"stimulus":"bees-with-color/bee-A1DM.svg","response":1,"trial_type":"image-button-response","trial_index":37,"time_elapsed":975147,"internal_node_id":"0.0-4.0-0.15","subject_id":"614cc3f912aa5c22b24f9cc2","study_id":"6197b3f67c2b5cd3b6d9596a","session_id":"6197b585b80df9ecb04f391e","condition":"full-information","relevant_dimensions":["wings","pattern"],"bee_group":{"antennae":"X","wings":"2","pattern":"D","legs":"X"},"action":"avoid","summary":"bad-avoid","bonus":0.1600000000000004},{"rt":1750.2000000029802,"stimulus":"\n                    <p><b>Action: <em>avoid</em></b></p>\n                    <p>This is the bee that you just saw.</p>\n                    <img src=\"bees-with-color/bee-A1DM.svg\" width=\"200\">\n                    <p><span class=\"redText\">Bad choice,</span> the bee was friendly.<br>Your bonus pay is unchanged, and remains at $0.34.</p>\n            ","response":0,"trial_type":"html-button-response","trial_index":38,"time_elapsed":976899,"internal_node_id":"0.0-4.0-1.15","subject_id":"614cc3f912aa5c22b24f9cc2","study_id":"6197b3f67c2b5cd3b6d9596a","session_id":"6197b585b80df9ecb04f391e","condition":"full-information","relevant_dimensions":["wings","pattern"],"bee_group":{"antennae":"X","wings":"2","pattern":"D","legs":"X"},"bonus":0.1600000000000004},{"rt":3366.5,"stimulus":"bees-with-color/bee-A2DM.svg","response":1,"trial_type":"image-button-response","trial_index":39,"time_elapsed":980269,"internal_node_id":"0.0-4.0-0.16","subject_id":"614cc3f912aa5c22b24f9cc2","study_id":"6197b3f67c2b5cd3b6d9596a","session_id":"6197b585b80df9ecb04f391e","condition":"full-information","relevant_dimensions":["wings","pattern"],"bee_group":{"antennae":"X","wings":"2","pattern":"D","legs":"X"},"action":"avoid","summary":"good-avoid","bonus":0.1600000000000004},{"rt":10515.5,"stimulus":"\n                    <p><b>Action: <em>avoid</em></b></p>\n                    <p>This is the bee that you just saw.</p>\n                    <img src=\"bees-with-color/bee-A2DM.svg\" width=\"200\">\n                    <p><span class=\"greenText\">Good choice!</span>  This bee would have stung you.<br>Your bonus pay is unchanged, and remains at $0.34.</p>\n            ","response":0,"trial_type":"html-button-response","trial_index":40,"time_elapsed":990787,"internal_node_id":"0.0-4.0-1.16","subject_id":"614cc3f912aa5c22b24f9cc2","study_id":"6197b3f67c2b5cd3b6d9596a","session_id":"6197b585b80df9ecb04f391e","condition":"full-information","relevant_dimensions":["wings","pattern"],"bee_group":{"antennae":"X","wings":"2","pattern":"D","legs":"X"},"bonus":0.1600000000000004},{"rt":3184.2000000029802,"stimulus":"bees-with-color/bee-A1DM.svg","response":0,"trial_type":"image-button-response","trial_index":41,"time_elapsed":993975,"internal_node_id":"0.0-4.0-0.17","subject_id":"614cc3f912aa5c22b24f9cc2","study_id":"6197b3f67c2b5cd3b6d9596a","session_id":"6197b585b80df9ecb04f391e","condition":"full-information","relevant_dimensions":["wings","pattern"],"bee_group":{"antennae":"X","wings":"2","pattern":"D","legs":"X"},"action":"harvest","summary":"good-harvest","bonus":0.1600000000000004},{"rt":1657.7000000029802,"stimulus":"\n                    <p><b>Action: <em>harvest</em></b></p>\n                    <p>This is the bee that you just saw.</p>\n                    <img src=\"bees-with-color/bee-A1DM.svg\" width=\"200\">\n                    <p><span class=\"greenText\"><b>Successful harvest!</b></span><br>Your pay has increased by $0.02. Your bonus pay is now $0.36.</p>\n            ","response":0,"trial_type":"html-button-response","trial_index":42,"time_elapsed":995635,"internal_node_id":"0.0-4.0-1.17","subject_id":"614cc3f912aa5c22b24f9cc2","study_id":"6197b3f67c2b5cd3b6d9596a","session_id":"6197b585b80df9ecb04f391e","condition":"full-information","relevant_dimensions":["wings","pattern"],"bee_group":{"antennae":"X","wings":"2","pattern":"D","legs":"X"},"bonus":0.1600000000000004},{"rt":2427,"stimulus":"bees-with-color/bee-B1SF.svg","response":1,"trial_type":"image-button-response","trial_index":43,"time_elapsed":998065,"internal_node_id":"0.0-4.0-0.18","subject_id":"614cc3f912aa5c22b24f9cc2","study_id":"6197b3f67c2b5cd3b6d9596a","session_id":"6197b585b80df9ecb04f391e","condition":"full-information","relevant_dimensions":["wings","pattern"],"bee_group":{"antennae":"X","wings":"2","pattern":"D","legs":"X"},"action":"avoid","summary":"bad-avoid","bonus":0.1600000000000004},{"rt":1572.4000000059605,"stimulus":"\n                    <p><b>Action: <em>avoid</em></b></p>\n                    <p>This is the bee that you just saw.</p>\n                    <img src=\"bees-with-color/bee-B1SF.svg\" width=\"200\">\n                    <p><span class=\"redText\">Bad choice,</span> the bee was friendly.<br>Your bonus pay is unchanged, and remains at $0.36.</p>\n            ","response":0,"trial_type":"html-button-response","trial_index":44,"time_elapsed":999640,"internal_node_id":"0.0-4.0-1.18","subject_id":"614cc3f912aa5c22b24f9cc2","study_id":"6197b3f67c2b5cd3b6d9596a","session_id":"6197b585b80df9ecb04f391e","condition":"full-information","relevant_dimensions":["wings","pattern"],"bee_group":{"antennae":"X","wings":"2","pattern":"D","legs":"X"},"bonus":0.1600000000000004},{"rt":1738,"stimulus":"bees-with-color/bee-A1SM.svg","response":1,"trial_type":"image-button-response","trial_index":45,"time_elapsed":1001383,"internal_node_id":"0.0-4.0-0.19","subject_id":"614cc3f912aa5c22b24f9cc2","study_id":"6197b3f67c2b5cd3b6d9596a","session_id":"6197b585b80df9ecb04f391e","condition":"full-information","relevant_dimensions":["wings","pattern"],"bee_group":{"antennae":"X","wings":"2","pattern":"D","legs":"X"},"action":"avoid","summary":"bad-avoid","bonus":0.1600000000000004},{"rt":1438.2999999970198,"stimulus":"\n                    <p><b>Action: <em>avoid</em></b></p>\n                    <p>This is the bee that you just saw.</p>\n                    <img src=\"bees-with-color/bee-A1SM.svg\" width=\"200\">\n                    <p><span class=\"redText\">Bad choice,</span> the bee was friendly.<br>Your bonus pay is unchanged, and remains at $0.36.</p>\n            ","response":0,"trial_type":"html-button-response","trial_index":46,"time_elapsed":1002823,"internal_node_id":"0.0-4.0-1.19","subject_id":"614cc3f912aa5c22b24f9cc2","study_id":"6197b3f67c2b5cd3b6d9596a","session_id":"6197b585b80df9ecb04f391e","condition":"full-information","relevant_dimensions":["wings","pattern"],"bee_group":{"antennae":"X","wings":"2","pattern":"D","legs":"X"},"bonus":0.1600000000000004},{"rt":1572.7000000029802,"stimulus":"bees-with-color/bee-A2SM.svg","response":1,"trial_type":"image-button-response","trial_index":47,"time_elapsed":1004398,"internal_node_id":"0.0-4.0-0.20","subject_id":"614cc3f912aa5c22b24f9cc2","study_id":"6197b3f67c2b5cd3b6d9596a","session_id":"6197b585b80df9ecb04f391e","condition":"full-information","relevant_dimensions":["wings","pattern"],"bee_group":{"antennae":"X","wings":"2","pattern":"D","legs":"X"},"action":"avoid","summary":"bad-avoid","bonus":0.1600000000000004},{"rt":1471.5,"stimulus":"\n                    <p><b>Action: <em>avoid</em></b></p>\n                    <p>This is the bee that you just saw.</p>\n                    <img src=\"bees-with-color/bee-A2SM.svg\" width=\"200\">\n                    <p><span class=\"redText\">Bad choice,</span> the bee was friendly.<br>Your bonus pay is unchanged, and remains at $0.36.</p>\n            ","response":0,"trial_type":"html-button-response","trial_index":48,"time_elapsed":1005872,"internal_node_id":"0.0-4.0-1.20","subject_id":"614cc3f912aa5c22b24f9cc2","study_id":"6197b3f67c2b5cd3b6d9596a","session_id":"6197b585b80df9ecb04f391e","condition":"full-information","relevant_dimensions":["wings","pattern"],"bee_group":{"antennae":"X","wings":"2","pattern":"D","legs":"X"},"bonus":0.1600000000000004},{"rt":1209,"stimulus":"bees-with-color/bee-B1DM.svg","response":1,"trial_type":"image-button-response","trial_index":49,"time_elapsed":1007083,"internal_node_id":"0.0-4.0-0.21","subject_id":"614cc3f912aa5c22b24f9cc2","study_id":"6197b3f67c2b5cd3b6d9596a","session_id":"6197b585b80df9ecb04f391e","condition":"full-information","relevant_dimensions":["wings","pattern"],"bee_group":{"antennae":"X","wings":"2","pattern":"D","legs":"X"},"action":"avoid","summary":"bad-avoid","bonus":0.1600000000000004},{"rt":2243.7000000029802,"stimulus":"\n                    <p><b>Action: <em>avoid</em></b></p>\n                    <p>This is the bee that you just saw.</p>\n                    <img src=\"bees-with-color/bee-B1DM.svg\" width=\"200\">\n                    <p><span class=\"redText\">Bad choice,</span> the bee was friendly.<br>Your bonus pay is unchanged, and remains at $0.36.</p>\n            ","response":0,"trial_type":"html-button-response","trial_index":50,"time_elapsed":1009329,"internal_node_id":"0.0-4.0-1.21","subject_id":"614cc3f912aa5c22b24f9cc2","study_id":"6197b3f67c2b5cd3b6d9596a","session_id":"6197b585b80df9ecb04f391e","condition":"full-information","relevant_dimensions":["wings","pattern"],"bee_group":{"antennae":"X","wings":"2","pattern":"D","legs":"X"},"bonus":0.1600000000000004},{"rt":2144.7000000029802,"stimulus":"bees-with-color/bee-B2SF.svg","response":1,"trial_type":"image-button-response","trial_index":51,"time_elapsed":1011476,"internal_node_id":"0.0-4.0-0.22","subject_id":"614cc3f912aa5c22b24f9cc2","study_id":"6197b3f67c2b5cd3b6d9596a","session_id":"6197b585b80df9ecb04f391e","condition":"full-information","relevant_dimensions":["wings","pattern"],"bee_group":{"antennae":"X","wings":"2","pattern":"D","legs":"X"},"action":"avoid","summary":"bad-avoid","bonus":0.1600000000000004},{"rt":3126.2999999970198,"stimulus":"\n                    <p><b>Action: <em>avoid</em></b></p>\n                    <p>This is the bee that you just saw.</p>\n                    <img src=\"bees-with-color/bee-B2SF.svg\" width=\"200\">\n                    <p><span class=\"redText\">Bad choice,</span> the bee was friendly.<br>Your bonus pay is unchanged, and remains at $0.36.</p>\n            ","response":0,"trial_type":"html-button-response","trial_index":52,"time_elapsed":1014605,"internal_node_id":"0.0-4.0-1.22","subject_id":"614cc3f912aa5c22b24f9cc2","study_id":"6197b3f67c2b5cd3b6d9596a","session_id":"6197b585b80df9ecb04f391e","condition":"full-information","relevant_dimensions":["wings","pattern"],"bee_group":{"antennae":"X","wings":"2","pattern":"D","legs":"X"},"bonus":0.1600000000000004},{"rt":1488.2000000029802,"stimulus":"bees-with-color/bee-A2DF.svg","response":1,"trial_type":"image-button-response","trial_index":53,"time_elapsed":1016095,"internal_node_id":"0.0-4.0-0.23","subject_id":"614cc3f912aa5c22b24f9cc2","study_id":"6197b3f67c2b5cd3b6d9596a","session_id":"6197b585b80df9ecb04f391e","condition":"full-information","relevant_dimensions":["wings","pattern"],"bee_group":{"antennae":"X","wings":"2","pattern":"D","legs":"X"},"action":"avoid","summary":"good-avoid","bonus":0.1600000000000004},{"rt":1797.5,"stimulus":"\n                    <p><b>Action: <em>avoid</em></b></p>\n                    <p>This is the bee that you just saw.</p>\n                    <img src=\"bees-with-color/bee-A2DF.svg\" width=\"200\">\n                    <p><span class=\"greenText\">Good choice!</span>  This bee would have stung you.<br>Your bonus pay is unchanged, and remains at $0.36.</p>\n            ","response":0,"trial_type":"html-button-response","trial_index":54,"time_elapsed":1017895,"internal_node_id":"0.0-4.0-1.23","subject_id":"614cc3f912aa5c22b24f9cc2","study_id":"6197b3f67c2b5cd3b6d9596a","session_id":"6197b585b80df9ecb04f391e","condition":"full-information","relevant_dimensions":["wings","pattern"],"bee_group":{"antennae":"X","wings":"2","pattern":"D","legs":"X"},"bonus":0.1600000000000004},{"rt":2281.2999999970198,"stimulus":"bees-with-color/bee-A2SF.svg","response":0,"trial_type":"image-button-response","trial_index":55,"time_elapsed":1020179,"internal_node_id":"0.0-4.0-0.24","subject_id":"614cc3f912aa5c22b24f9cc2","study_id":"6197b3f67c2b5cd3b6d9596a","session_id":"6197b585b80df9ecb04f391e","condition":"full-information","relevant_dimensions":["wings","pattern"],"bee_group":{"antennae":"X","wings":"2","pattern":"D","legs":"X"},"action":"harvest","summary":"good-harvest","bonus":0.1600000000000004},{"rt":1436.2999999970198,"stimulus":"\n                    <p><b>Action: <em>harvest</em></b></p>\n                    <p>This is the bee that you just saw.</p>\n                    <img src=\"bees-with-color/bee-A2SF.svg\" width=\"200\">\n                    <p><span class=\"greenText\"><b>Successful harvest!</b></span><br>Your pay has increased by $0.02. Your bonus pay is now $0.38.</p>\n            ","response":0,"trial_type":"html-button-response","trial_index":56,"time_elapsed":1021617,"internal_node_id":"0.0-4.0-1.24","subject_id":"614cc3f912aa5c22b24f9cc2","study_id":"6197b3f67c2b5cd3b6d9596a","session_id":"6197b585b80df9ecb04f391e","condition":"full-information","relevant_dimensions":["wings","pattern"],"bee_group":{"antennae":"X","wings":"2","pattern":"D","legs":"X"},"bonus":0.1600000000000004},{"rt":1208.7000000029802,"stimulus":"bees-with-color/bee-B2SM.svg","response":1,"trial_type":"image-button-response","trial_index":57,"time_elapsed":1022828,"internal_node_id":"0.0-4.0-0.25","subject_id":"614cc3f912aa5c22b24f9cc2","study_id":"6197b3f67c2b5cd3b6d9596a","session_id":"6197b585b80df9ecb04f391e","condition":"full-information","relevant_dimensions":["wings","pattern"],"bee_group":{"antennae":"X","wings":"2","pattern":"D","legs":"X"},"action":"avoid","summary":"bad-avoid","bonus":0.1600000000000004},{"rt":1955.5999999940395,"stimulus":"\n                    <p><b>Action: <em>avoid</em></b></p>\n                    <p>This is the bee that you just saw.</p>\n                    <img src=\"bees-with-color/bee-B2SM.svg\" width=\"200\">\n                    <p><span class=\"redText\">Bad choice,</span> the bee was friendly.<br>Your bonus pay is unchanged, and remains at $0.38.</p>\n            ","response":0,"trial_type":"html-button-response","trial_index":58,"time_elapsed":1024786,"internal_node_id":"0.0-4.0-1.25","subject_id":"614cc3f912aa5c22b24f9cc2","study_id":"6197b3f67c2b5cd3b6d9596a","session_id":"6197b585b80df9ecb04f391e","condition":"full-information","relevant_dimensions":["wings","pattern"],"bee_group":{"antennae":"X","wings":"2","pattern":"D","legs":"X"},"bonus":0.1600000000000004},{"rt":1407.5,"stimulus":"bees-with-color/bee-B1SM.svg","response":1,"trial_type":"image-button-response","trial_index":59,"time_elapsed":1026195,"internal_node_id":"0.0-4.0-0.26","subject_id":"614cc3f912aa5c22b24f9cc2","study_id":"6197b3f67c2b5cd3b6d9596a","session_id":"6197b585b80df9ecb04f391e","condition":"full-information","relevant_dimensions":["wings","pattern"],"bee_group":{"antennae":"X","wings":"2","pattern":"D","legs":"X"},"action":"avoid","summary":"bad-avoid","bonus":0.1600000000000004},{"rt":2727.7000000029802,"stimulus":"\n                    <p><b>Action: <em>avoid</em></b></p>\n                    <p>This is the bee that you just saw.</p>\n                    <img src=\"bees-with-color/bee-B1SM.svg\" width=\"200\">\n                    <p><span class=\"redText\">Bad choice,</span> the bee was friendly.<br>Your bonus pay is unchanged, and remains at $0.38.</p>\n            ","response":0,"trial_type":"html-button-response","trial_index":60,"time_elapsed":1028925,"internal_node_id":"0.0-4.0-1.26","subject_id":"614cc3f912aa5c22b24f9cc2","study_id":"6197b3f67c2b5cd3b6d9596a","session_id":"6197b585b80df9ecb04f391e","condition":"full-information","relevant_dimensions":["wings","pattern"],"bee_group":{"antennae":"X","wings":"2","pattern":"D","legs":"X"},"bonus":0.1600000000000004},{"rt":1161.7999999970198,"stimulus":"bees-with-color/bee-A1SF.svg","response":0,"trial_type":"image-button-response","trial_index":61,"time_elapsed":1030089,"internal_node_id":"0.0-4.0-0.27","subject_id":"614cc3f912aa5c22b24f9cc2","study_id":"6197b3f67c2b5cd3b6d9596a","session_id":"6197b585b80df9ecb04f391e","condition":"full-information","relevant_dimensions":["wings","pattern"],"bee_group":{"antennae":"X","wings":"2","pattern":"D","legs":"X"},"action":"harvest","summary":"good-harvest","bonus":0.1600000000000004},{"rt":2098.9000000059605,"stimulus":"\n                    <p><b>Action: <em>harvest</em></b></p>\n                    <p>This is the bee that you just saw.</p>\n                    <img src=\"bees-with-color/bee-A1SF.svg\" width=\"200\">\n                    <p><span class=\"greenText\"><b>Successful harvest!</b></span><br>Your pay has increased by $0.02. Your bonus pay is now $0.40.</p>\n            ","response":0,"trial_type":"html-button-response","trial_index":62,"time_elapsed":1032190,"internal_node_id":"0.0-4.0-1.27","subject_id":"614cc3f912aa5c22b24f9cc2","study_id":"6197b3f67c2b5cd3b6d9596a","session_id":"6197b585b80df9ecb04f391e","condition":"full-information","relevant_dimensions":["wings","pattern"],"bee_group":{"antennae":"X","wings":"2","pattern":"D","legs":"X"},"bonus":0.1600000000000004},{"rt":1124.5,"stimulus":"bees-with-color/bee-B1DF.svg","response":1,"trial_type":"image-button-response","trial_index":63,"time_elapsed":1033316,"internal_node_id":"0.0-4.0-0.28","subject_id":"614cc3f912aa5c22b24f9cc2","study_id":"6197b3f67c2b5cd3b6d9596a","session_id":"6197b585b80df9ecb04f391e","condition":"full-information","relevant_dimensions":["wings","pattern"],"bee_group":{"antennae":"X","wings":"2","pattern":"D","legs":"X"},"action":"avoid","summary":"bad-avoid","bonus":0.1600000000000004},{"rt":1255.7000000029802,"stimulus":"\n                    <p><b>Action: <em>avoid</em></b></p>\n                    <p>This is the bee that you just saw.</p>\n                    <img src=\"bees-with-color/bee-B1DF.svg\" width=\"200\">\n                    <p><span class=\"redText\">Bad choice,</span> the bee was friendly.<br>Your bonus pay is unchanged, and remains at $0.40.</p>\n            ","response":0,"trial_type":"html-button-response","trial_index":64,"time_elapsed":1034573,"internal_node_id":"0.0-4.0-1.28","subject_id":"614cc3f912aa5c22b24f9cc2","study_id":"6197b3f67c2b5cd3b6d9596a","session_id":"6197b585b80df9ecb04f391e","condition":"full-information","relevant_dimensions":["wings","pattern"],"bee_group":{"antennae":"X","wings":"2","pattern":"D","legs":"X"},"bonus":0.1600000000000004},{"rt":1068.2000000029802,"stimulus":"bees-with-color/bee-A1DF.svg","response":1,"trial_type":"image-button-response","trial_index":65,"time_elapsed":1035644,"internal_node_id":"0.0-4.0-0.29","subject_id":"614cc3f912aa5c22b24f9cc2","study_id":"6197b3f67c2b5cd3b6d9596a","session_id":"6197b585b80df9ecb04f391e","condition":"full-information","relevant_dimensions":["wings","pattern"],"bee_group":{"antennae":"X","wings":"2","pattern":"D","legs":"X"},"action":"avoid","summary":"bad-avoid","bonus":0.1600000000000004},{"rt":1183.5,"stimulus":"\n                    <p><b>Action: <em>avoid</em></b></p>\n                    <p>This is the bee that you just saw.</p>\n                    <img src=\"bees-with-color/bee-A1DF.svg\" width=\"200\">\n                    <p><span class=\"redText\">Bad choice,</span> the bee was friendly.<br>Your bonus pay is unchanged, and remains at $0.40.</p>\n            ","response":0,"trial_type":"html-button-response","trial_index":66,"time_elapsed":1036829,"internal_node_id":"0.0-4.0-1.29","subject_id":"614cc3f912aa5c22b24f9cc2","study_id":"6197b3f67c2b5cd3b6d9596a","session_id":"6197b585b80df9ecb04f391e","condition":"full-information","relevant_dimensions":["wings","pattern"],"bee_group":{"antennae":"X","wings":"2","pattern":"D","legs":"X"},"bonus":0.1600000000000004},{"rt":1122.699999988079,"stimulus":"bees-with-color/bee-B2DM.svg","response":1,"trial_type":"image-button-response","trial_index":67,"time_elapsed":1037954,"internal_node_id":"0.0-4.0-0.30","subject_id":"614cc3f912aa5c22b24f9cc2","study_id":"6197b3f67c2b5cd3b6d9596a","session_id":"6197b585b80df9ecb04f391e","condition":"full-information","relevant_dimensions":["wings","pattern"],"bee_group":{"antennae":"X","wings":"2","pattern":"D","legs":"X"},"action":"avoid","summary":"good-avoid","bonus":0.1600000000000004},{"rt":1092.6000000089407,"stimulus":"\n                    <p><b>Action: <em>avoid</em></b></p>\n                    <p>This is the bee that you just saw.</p>\n                    <img src=\"bees-with-color/bee-B2DM.svg\" width=\"200\">\n                    <p><span class=\"greenText\">Good choice!</span>  This bee would have stung you.<br>Your bonus pay is unchanged, and remains at $0.40.</p>\n            ","response":0,"trial_type":"html-button-response","trial_index":68,"time_elapsed":1039048,"internal_node_id":"0.0-4.0-1.30","subject_id":"614cc3f912aa5c22b24f9cc2","study_id":"6197b3f67c2b5cd3b6d9596a","session_id":"6197b585b80df9ecb04f391e","condition":"full-information","relevant_dimensions":["wings","pattern"],"bee_group":{"antennae":"X","wings":"2","pattern":"D","legs":"X"},"bonus":0.1600000000000004},{"rt":1043.5999999940395,"stimulus":"bees-with-color/bee-B2DF.svg","response":1,"trial_type":"image-button-response","trial_index":69,"time_elapsed":1040094,"internal_node_id":"0.0-4.0-0.31","subject_id":"614cc3f912aa5c22b24f9cc2","study_id":"6197b3f67c2b5cd3b6d9596a","session_id":"6197b585b80df9ecb04f391e","condition":"full-information","relevant_dimensions":["wings","pattern"],"bee_group":{"antennae":"X","wings":"2","pattern":"D","legs":"X"},"action":"avoid","summary":"good-avoid","bonus":0.1600000000000004},{"rt":1333.5,"stimulus":"\n                    <p><b>Action: <em>avoid</em></b></p>\n                    <p>This is the bee that you just saw.</p>\n                    <img src=\"bees-with-color/bee-B2DF.svg\" width=\"200\">\n                    <p><span class=\"greenText\">Good choice!</span>  This bee would have stung you.<br>Your bonus pay is unchanged, and remains at $0.40.</p>\n            ","response":0,"trial_type":"html-button-response","trial_index":70,"time_elapsed":1041429,"internal_node_id":"0.0-4.0-1.31","subject_id":"614cc3f912aa5c22b24f9cc2","study_id":"6197b3f67c2b5cd3b6d9596a","session_id":"6197b585b80df9ecb04f391e","condition":"full-information","relevant_dimensions":["wings","pattern"],"bee_group":{"antennae":"X","wings":"2","pattern":"D","legs":"X"},"bonus":0.1600000000000004},{"rt":1032.0999999940395,"stimulus":"bees-with-color/bee-B1SM.svg","response":1,"trial_type":"image-button-response","trial_index":71,"time_elapsed":1042463,"internal_node_id":"0.0-4.0-0.32","subject_id":"614cc3f912aa5c22b24f9cc2","study_id":"6197b3f67c2b5cd3b6d9596a","session_id":"6197b585b80df9ecb04f391e","condition":"full-information","relevant_dimensions":["wings","pattern"],"bee_group":{"antennae":"X","wings":"2","pattern":"D","legs":"X"},"action":"avoid","summary":"bad-avoid","bonus":0.1600000000000004},{"rt":998.2000000029802,"stimulus":"\n                    <p><b>Action: <em>avoid</em></b></p>\n                    <p>This is the bee that you just saw.</p>\n                    <img src=\"bees-with-color/bee-B1SM.svg\" width=\"200\">\n                    <p><span class=\"redText\">Bad choice,</span> the bee was friendly.<br>Your bonus pay is unchanged, and remains at $0.40.</p>\n            ","response":0,"trial_type":"html-button-response","trial_index":72,"time_elapsed":1043463,"internal_node_id":"0.0-4.0-1.32","subject_id":"614cc3f912aa5c22b24f9cc2","study_id":"6197b3f67c2b5cd3b6d9596a","session_id":"6197b585b80df9ecb04f391e","condition":"full-information","relevant_dimensions":["wings","pattern"],"bee_group":{"antennae":"X","wings":"2","pattern":"D","legs":"X"},"bonus":0.1600000000000004},{"rt":862.4000000059605,"stimulus":"bees-with-color/bee-B1DF.svg","response":0,"trial_type":"image-button-response","trial_index":73,"time_elapsed":1044328,"internal_node_id":"0.0-4.0-0.33","subject_id":"614cc3f912aa5c22b24f9cc2","study_id":"6197b3f67c2b5cd3b6d9596a","session_id":"6197b585b80df9ecb04f391e","condition":"full-information","relevant_dimensions":["wings","pattern"],"bee_group":{"antennae":"X","wings":"2","pattern":"D","legs":"X"},"action":"harvest","summary":"good-harvest","bonus":0.1600000000000004},{"rt":1376.7999999970198,"stimulus":"\n                    <p><b>Action: <em>harvest</em></b></p>\n                    <p>This is the bee that you just saw.</p>\n                    <img src=\"bees-with-color/bee-B1DF.svg\" width=\"200\">\n                    <p><span class=\"greenText\"><b>Successful harvest!</b></span><br>Your pay has increased by $0.02. Your bonus pay is now $0.42.</p>\n            ","response":0,"trial_type":"html-button-response","trial_index":74,"time_elapsed":1045706,"internal_node_id":"0.0-4.0-1.33","subject_id":"614cc3f912aa5c22b24f9cc2","study_id":"6197b3f67c2b5cd3b6d9596a","session_id":"6197b585b80df9ecb04f391e","condition":"full-information","relevant_dimensions":["wings","pattern"],"bee_group":{"antennae":"X","wings":"2","pattern":"D","legs":"X"},"bonus":0.1600000000000004},{"rt":1335.0999999940395,"stimulus":"bees-with-color/bee-B2SF.svg","response":1,"trial_type":"image-button-response","trial_index":75,"time_elapsed":1047043,"internal_node_id":"0.0-4.0-0.34","subject_id":"614cc3f912aa5c22b24f9cc2","study_id":"6197b3f67c2b5cd3b6d9596a","session_id":"6197b585b80df9ecb04f391e","condition":"full-information","relevant_dimensions":["wings","pattern"],"bee_group":{"antennae":"X","wings":"2","pattern":"D","legs":"X"},"action":"avoid","summary":"bad-avoid","bonus":0.1600000000000004},{"rt":1216.4000000059605,"stimulus":"\n                    <p><b>Action: <em>avoid</em></b></p>\n                    <p>This is the bee that you just saw.</p>\n                    <img src=\"bees-with-color/bee-B2SF.svg\" width=\"200\">\n                    <p><span class=\"redText\">Bad choice,</span> the bee was friendly.<br>Your bonus pay is unchanged, and remains at $0.42.</p>\n            ","response":0,"trial_type":"html-button-response","trial_index":76,"time_elapsed":1048261,"internal_node_id":"0.0-4.0-1.34","subject_id":"614cc3f912aa5c22b24f9cc2","study_id":"6197b3f67c2b5cd3b6d9596a","session_id":"6197b585b80df9ecb04f391e","condition":"full-information","relevant_dimensions":["wings","pattern"],"bee_group":{"antennae":"X","wings":"2","pattern":"D","legs":"X"},"bonus":0.1600000000000004},{"rt":1034.7000000029802,"stimulus":"bees-with-color/bee-A1SF.svg","response":0,"trial_type":"image-button-response","trial_index":77,"time_elapsed":1049298,"internal_node_id":"0.0-4.0-0.35","subject_id":"614cc3f912aa5c22b24f9cc2","study_id":"6197b3f67c2b5cd3b6d9596a","session_id":"6197b585b80df9ecb04f391e","condition":"full-information","relevant_dimensions":["wings","pattern"],"bee_group":{"antennae":"X","wings":"2","pattern":"D","legs":"X"},"action":"harvest","summary":"good-harvest","bonus":0.1600000000000004},{"rt":1122.7999999970198,"stimulus":"\n                    <p><b>Action: <em>harvest</em></b></p>\n                    <p>This is the bee that you just saw.</p>\n                    <img src=\"bees-with-color/bee-A1SF.svg\" width=\"200\">\n                    <p><span class=\"greenText\"><b>Successful harvest!</b></span><br>Your pay has increased by $0.02. Your bonus pay is now $0.44.</p>\n            ","response":0,"trial_type":"html-button-response","trial_index":78,"time_elapsed":1050422,"internal_node_id":"0.0-4.0-1.35","subject_id":"614cc3f912aa5c22b24f9cc2","study_id":"6197b3f67c2b5cd3b6d9596a","session_id":"6197b585b80df9ecb04f391e","condition":"full-information","relevant_dimensions":["wings","pattern"],"bee_group":{"antennae":"X","wings":"2","pattern":"D","legs":"X"},"bonus":0.1600000000000004},{"rt":1018.3999999910593,"stimulus":"bees-with-color/bee-A1DM.svg","response":1,"trial_type":"image-button-response","trial_index":79,"time_elapsed":1051442,"internal_node_id":"0.0-4.0-0.36","subject_id":"614cc3f912aa5c22b24f9cc2","study_id":"6197b3f67c2b5cd3b6d9596a","session_id":"6197b585b80df9ecb04f391e","condition":"full-information","relevant_dimensions":["wings","pattern"],"bee_group":{"antennae":"X","wings":"2","pattern":"D","legs":"X"},"action":"avoid","summary":"bad-avoid","bonus":0.1600000000000004},{"rt":1430.0999999940395,"stimulus":"\n                    <p><b>Action: <em>avoid</em></b></p>\n                    <p>This is the bee that you just saw.</p>\n                    <img src=\"bees-with-color/bee-A1DM.svg\" width=\"200\">\n                    <p><span class=\"redText\">Bad choice,</span> the bee was friendly.<br>Your bonus pay is unchanged, and remains at $0.44.</p>\n            ","response":0,"trial_type":"html-button-response","trial_index":80,"time_elapsed":1052874,"internal_node_id":"0.0-4.0-1.36","subject_id":"614cc3f912aa5c22b24f9cc2","study_id":"6197b3f67c2b5cd3b6d9596a","session_id":"6197b585b80df9ecb04f391e","condition":"full-information","relevant_dimensions":["wings","pattern"],"bee_group":{"antennae":"X","wings":"2","pattern":"D","legs":"X"},"bonus":0.1600000000000004},{"rt":814.5,"stimulus":"bees-with-color/bee-B2SM.svg","response":1,"trial_type":"image-button-response","trial_index":81,"time_elapsed":1053691,"internal_node_id":"0.0-4.0-0.37","subject_id":"614cc3f912aa5c22b24f9cc2","study_id":"6197b3f67c2b5cd3b6d9596a","session_id":"6197b585b80df9ecb04f391e","condition":"full-information","relevant_dimensions":["wings","pattern"],"bee_group":{"antennae":"X","wings":"2","pattern":"D","legs":"X"},"action":"avoid","summary":"bad-avoid","bonus":0.1600000000000004},{"rt":1567.1000000089407,"stimulus":"\n                    <p><b>Action: <em>avoid</em></b></p>\n                    <p>This is the bee that you just saw.</p>\n                    <img src=\"bees-with-color/bee-B2SM.svg\" width=\"200\">\n                    <p><span class=\"redText\">Bad choice,</span> the bee was friendly.<br>Your bonus pay is unchanged, and remains at $0.44.</p>\n            ","response":0,"trial_type":"html-button-response","trial_index":82,"time_elapsed":1055260,"internal_node_id":"0.0-4.0-1.37","subject_id":"614cc3f912aa5c22b24f9cc2","study_id":"6197b3f67c2b5cd3b6d9596a","session_id":"6197b585b80df9ecb04f391e","condition":"full-information","relevant_dimensions":["wings","pattern"],"bee_group":{"antennae":"X","wings":"2","pattern":"D","legs":"X"},"bonus":0.1600000000000004},{"rt":1300.1000000089407,"stimulus":"bees-with-color/bee-A2DM.svg","response":0,"trial_type":"image-button-response","trial_index":83,"time_elapsed":1056563,"internal_node_id":"0.0-4.0-0.38","subject_id":"614cc3f912aa5c22b24f9cc2","study_id":"6197b3f67c2b5cd3b6d9596a","session_id":"6197b585b80df9ecb04f391e","condition":"full-information","relevant_dimensions":["wings","pattern"],"bee_group":{"antennae":"X","wings":"2","pattern":"D","legs":"X"},"action":"harvest","summary":"bad-harvest","bonus":0.1600000000000004},{"rt":1162.5,"stimulus":"\n                    <p><b>Action: <em>harvest</em></b></p>\n                    <p>This is the bee that you just saw.</p>\n                    <img src=\"bees-with-color/bee-A2DM.svg\" width=\"200\">\n                    <p><span class=\"redText\">Bad choice, the bee was angry.</span><br><b>You have been stung!</b><br>Your pay has been decreased by $0.10. Your bonus pay is now $0.34.</p>\n            ","response":0,"trial_type":"html-button-response","trial_index":84,"time_elapsed":1057727,"internal_node_id":"0.0-4.0-1.38","subject_id":"614cc3f912aa5c22b24f9cc2","study_id":"6197b3f67c2b5cd3b6d9596a","session_id":"6197b585b80df9ecb04f391e","condition":"full-information","relevant_dimensions":["wings","pattern"],"bee_group":{"antennae":"X","wings":"2","pattern":"D","legs":"X"},"bonus":0.1600000000000004},{"rt":1109.4000000059605,"stimulus":"bees-with-color/bee-A2DF.svg","response":1,"trial_type":"image-button-response","trial_index":85,"time_elapsed":1058838,"internal_node_id":"0.0-4.0-0.39","subject_id":"614cc3f912aa5c22b24f9cc2","study_id":"6197b3f67c2b5cd3b6d9596a","session_id":"6197b585b80df9ecb04f391e","condition":"full-information","relevant_dimensions":["wings","pattern"],"bee_group":{"antennae":"X","wings":"2","pattern":"D","legs":"X"},"action":"avoid","summary":"good-avoid","bonus":0.1600000000000004},{"rt":1389.8999999910593,"stimulus":"\n                    <p><b>Action: <em>avoid</em></b></p>\n                    <p>This is the bee that you just saw.</p>\n                    <img src=\"bees-with-color/bee-A2DF.svg\" width=\"200\">\n                    <p><span class=\"greenText\">Good choice!</span>  This bee would have stung you.<br>Your bonus pay is unchanged, and remains at $0.34.</p>\n            ","response":0,"trial_type":"html-button-response","trial_index":86,"time_elapsed":1060230,"internal_node_id":"0.0-4.0-1.39","subject_id":"614cc3f912aa5c22b24f9cc2","study_id":"6197b3f67c2b5cd3b6d9596a","session_id":"6197b585b80df9ecb04f391e","condition":"full-information","relevant_dimensions":["wings","pattern"],"bee_group":{"antennae":"X","wings":"2","pattern":"D","legs":"X"},"bonus":0.1600000000000004},{"rt":1012.1000000089407,"stimulus":"bees-with-color/bee-B1SF.svg","response":0,"trial_type":"image-button-response","trial_index":87,"time_elapsed":1061244,"internal_node_id":"0.0-4.0-0.40","subject_id":"614cc3f912aa5c22b24f9cc2","study_id":"6197b3f67c2b5cd3b6d9596a","session_id":"6197b585b80df9ecb04f391e","condition":"full-information","relevant_dimensions":["wings","pattern"],"bee_group":{"antennae":"X","wings":"2","pattern":"D","legs":"X"},"action":"harvest","summary":"good-harvest","bonus":0.1600000000000004},{"rt":1428.4000000059605,"stimulus":"\n                    <p><b>Action: <em>harvest</em></b></p>\n                    <p>This is the bee that you just saw.</p>\n                    <img src=\"bees-with-color/bee-B1SF.svg\" width=\"200\">\n                    <p><span class=\"greenText\"><b>Successful harvest!</b></span><br>Your pay has increased by $0.02. Your bonus pay is now $0.36.</p>\n            ","response":0,"trial_type":"html-button-response","trial_index":88,"time_elapsed":1062675,"internal_node_id":"0.0-4.0-1.40","subject_id":"614cc3f912aa5c22b24f9cc2","study_id":"6197b3f67c2b5cd3b6d9596a","session_id":"6197b585b80df9ecb04f391e","condition":"full-information","relevant_dimensions":["wings","pattern"],"bee_group":{"antennae":"X","wings":"2","pattern":"D","legs":"X"},"bonus":0.1600000000000004},{"rt":1049.5999999940395,"stimulus":"bees-with-color/bee-A2SM.svg","response":1,"trial_type":"image-button-response","trial_index":89,"time_elapsed":1063726,"internal_node_id":"0.0-4.0-0.41","subject_id":"614cc3f912aa5c22b24f9cc2","study_id":"6197b3f67c2b5cd3b6d9596a","session_id":"6197b585b80df9ecb04f391e","condition":"full-information","relevant_dimensions":["wings","pattern"],"bee_group":{"antennae":"X","wings":"2","pattern":"D","legs":"X"},"action":"avoid","summary":"bad-avoid","bonus":0.1600000000000004},{"rt":1799,"stimulus":"\n                    <p><b>Action: <em>avoid</em></b></p>\n                    <p>This is the bee that you just saw.</p>\n                    <img src=\"bees-with-color/bee-A2SM.svg\" width=\"200\">\n                    <p><span class=\"redText\">Bad choice,</span> the bee was friendly.<br>Your bonus pay is unchanged, and remains at $0.36.</p>\n            ","response":0,"trial_type":"html-button-response","trial_index":90,"time_elapsed":1065528,"internal_node_id":"0.0-4.0-1.41","subject_id":"614cc3f912aa5c22b24f9cc2","study_id":"6197b3f67c2b5cd3b6d9596a","session_id":"6197b585b80df9ecb04f391e","condition":"full-information","relevant_dimensions":["wings","pattern"],"bee_group":{"antennae":"X","wings":"2","pattern":"D","legs":"X"},"bonus":0.1600000000000004},{"rt":1025.7000000029802,"stimulus":"bees-with-color/bee-B2DM.svg","response":1,"trial_type":"image-button-response","trial_index":91,"time_elapsed":1066557,"internal_node_id":"0.0-4.0-0.42","subject_id":"614cc3f912aa5c22b24f9cc2","study_id":"6197b3f67c2b5cd3b6d9596a","session_id":"6197b585b80df9ecb04f391e","condition":"full-information","relevant_dimensions":["wings","pattern"],"bee_group":{"antennae":"X","wings":"2","pattern":"D","legs":"X"},"action":"avoid","summary":"good-avoid","bonus":0.1600000000000004},{"rt":1305.4000000059605,"stimulus":"\n                    <p><b>Action: <em>avoid</em></b></p>\n                    <p>This is the bee that you just saw.</p>\n                    <img src=\"bees-with-color/bee-B2DM.svg\" width=\"200\">\n                    <p><span class=\"greenText\">Good choice!</span>  This bee would have stung you.<br>Your bonus pay is unchanged, and remains at $0.36.</p>\n            ","response":0,"trial_type":"html-button-response","trial_index":92,"time_elapsed":1067864,"internal_node_id":"0.0-4.0-1.42","subject_id":"614cc3f912aa5c22b24f9cc2","study_id":"6197b3f67c2b5cd3b6d9596a","session_id":"6197b585b80df9ecb04f391e","condition":"full-information","relevant_dimensions":["wings","pattern"],"bee_group":{"antennae":"X","wings":"2","pattern":"D","legs":"X"},"bonus":0.1600000000000004},{"rt":985.8999999910593,"stimulus":"bees-with-color/bee-A1DF.svg","response":0,"trial_type":"image-button-response","trial_index":93,"time_elapsed":1068852,"internal_node_id":"0.0-4.0-0.43","subject_id":"614cc3f912aa5c22b24f9cc2","study_id":"6197b3f67c2b5cd3b6d9596a","session_id":"6197b585b80df9ecb04f391e","condition":"full-information","relevant_dimensions":["wings","pattern"],"bee_group":{"antennae":"X","wings":"2","pattern":"D","legs":"X"},"action":"harvest","summary":"good-harvest","bonus":0.1600000000000004},{"rt":1038.7999999970198,"stimulus":"\n                    <p><b>Action: <em>harvest</em></b></p>\n                    <p>This is the bee that you just saw.</p>\n                    <img src=\"bees-with-color/bee-A1DF.svg\" width=\"200\">\n                    <p><span class=\"greenText\"><b>Successful harvest!</b></span><br>Your pay has increased by $0.02. Your bonus pay is now $0.38.</p>\n            ","response":0,"trial_type":"html-button-response","trial_index":94,"time_elapsed":1069893,"internal_node_id":"0.0-4.0-1.43","subject_id":"614cc3f912aa5c22b24f9cc2","study_id":"6197b3f67c2b5cd3b6d9596a","session_id":"6197b585b80df9ecb04f391e","condition":"full-information","relevant_dimensions":["wings","pattern"],"bee_group":{"antennae":"X","wings":"2","pattern":"D","legs":"X"},"bonus":0.1600000000000004},{"rt":1152.800000011921,"stimulus":"bees-with-color/bee-B2DF.svg","response":1,"trial_type":"image-button-response","trial_index":95,"time_elapsed":1071049,"internal_node_id":"0.0-4.0-0.44","subject_id":"614cc3f912aa5c22b24f9cc2","study_id":"6197b3f67c2b5cd3b6d9596a","session_id":"6197b585b80df9ecb04f391e","condition":"full-information","relevant_dimensions":["wings","pattern"],"bee_group":{"antennae":"X","wings":"2","pattern":"D","legs":"X"},"action":"avoid","summary":"good-avoid","bonus":0.1600000000000004},{"rt":1450.5,"stimulus":"\n                    <p><b>Action: <em>avoid</em></b></p>\n                    <p>This is the bee that you just saw.</p>\n                    <img src=\"bees-with-color/bee-B2DF.svg\" width=\"200\">\n                    <p><span class=\"greenText\">Good choice!</span>  This bee would have stung you.<br>Your bonus pay is unchanged, and remains at $0.38.</p>\n            ","response":0,"trial_type":"html-button-response","trial_index":96,"time_elapsed":1072502,"internal_node_id":"0.0-4.0-1.44","subject_id":"614cc3f912aa5c22b24f9cc2","study_id":"6197b3f67c2b5cd3b6d9596a","session_id":"6197b585b80df9ecb04f391e","condition":"full-information","relevant_dimensions":["wings","pattern"],"bee_group":{"antennae":"X","wings":"2","pattern":"D","legs":"X"},"bonus":0.1600000000000004},{"rt":918.9000000059605,"stimulus":"bees-with-color/bee-A1SM.svg","response":1,"trial_type":"image-button-response","trial_index":97,"time_elapsed":1073422,"internal_node_id":"0.0-4.0-0.45","subject_id":"614cc3f912aa5c22b24f9cc2","study_id":"6197b3f67c2b5cd3b6d9596a","session_id":"6197b585b80df9ecb04f391e","condition":"full-information","relevant_dimensions":["wings","pattern"],"bee_group":{"antennae":"X","wings":"2","pattern":"D","legs":"X"},"action":"avoid","summary":"bad-avoid","bonus":0.1600000000000004},{"rt":957.1000000089407,"stimulus":"\n                    <p><b>Action: <em>avoid</em></b></p>\n                    <p>This is the bee that you just saw.</p>\n                    <img src=\"bees-with-color/bee-A1SM.svg\" width=\"200\">\n                    <p><span class=\"redText\">Bad choice,</span> the bee was friendly.<br>Your bonus pay is unchanged, and remains at $0.38.</p>\n            ","response":0,"trial_type":"html-button-response","trial_index":98,"time_elapsed":1074381,"internal_node_id":"0.0-4.0-1.45","subject_id":"614cc3f912aa5c22b24f9cc2","study_id":"6197b3f67c2b5cd3b6d9596a","session_id":"6197b585b80df9ecb04f391e","condition":"full-information","relevant_dimensions":["wings","pattern"],"bee_group":{"antennae":"X","wings":"2","pattern":"D","legs":"X"},"bonus":0.1600000000000004},{"rt":873.2999999970198,"stimulus":"bees-with-color/bee-B1DM.svg","response":0,"trial_type":"image-button-response","trial_index":99,"time_elapsed":1075258,"internal_node_id":"0.0-4.0-0.46","subject_id":"614cc3f912aa5c22b24f9cc2","study_id":"6197b3f67c2b5cd3b6d9596a","session_id":"6197b585b80df9ecb04f391e","condition":"full-information","relevant_dimensions":["wings","pattern"],"bee_group":{"antennae":"X","wings":"2","pattern":"D","legs":"X"},"action":"harvest","summary":"good-harvest","bonus":0.1600000000000004},{"rt":1222.8999999910593,"stimulus":"\n                    <p><b>Action: <em>harvest</em></b></p>\n                    <p>This is the bee that you just saw.</p>\n                    <img src=\"bees-with-color/bee-B1DM.svg\" width=\"200\">\n                    <p><span class=\"greenText\"><b>Successful harvest!</b></span><br>Your pay has increased by $0.02. Your bonus pay is now $0.40.</p>\n            ","response":0,"trial_type":"html-button-response","trial_index":100,"time_elapsed":1076482,"internal_node_id":"0.0-4.0-1.46","subject_id":"614cc3f912aa5c22b24f9cc2","study_id":"6197b3f67c2b5cd3b6d9596a","session_id":"6197b585b80df9ecb04f391e","condition":"full-information","relevant_dimensions":["wings","pattern"],"bee_group":{"antennae":"X","wings":"2","pattern":"D","legs":"X"},"bonus":0.1600000000000004},{"rt":956.7000000029802,"stimulus":"bees-with-color/bee-A2SF.svg","response":1,"trial_type":"image-button-response","trial_index":101,"time_elapsed":1077441,"internal_node_id":"0.0-4.0-0.47","subject_id":"614cc3f912aa5c22b24f9cc2","study_id":"6197b3f67c2b5cd3b6d9596a","session_id":"6197b585b80df9ecb04f391e","condition":"full-information","relevant_dimensions":["wings","pattern"],"bee_group":{"antennae":"X","wings":"2","pattern":"D","legs":"X"},"action":"avoid","summary":"bad-avoid","bonus":0.1600000000000004},{"rt":1202.7000000029802,"stimulus":"\n                    <p><b>Action: <em>avoid</em></b></p>\n                    <p>This is the bee that you just saw.</p>\n                    <img src=\"bees-with-color/bee-A2SF.svg\" width=\"200\">\n                    <p><span class=\"redText\">Bad choice,</span> the bee was friendly.<br>Your bonus pay is unchanged, and remains at $0.40.</p>\n            ","response":0,"trial_type":"html-button-response","trial_index":102,"time_elapsed":1078646,"internal_node_id":"0.0-4.0-1.47","subject_id":"614cc3f912aa5c22b24f9cc2","study_id":"6197b3f67c2b5cd3b6d9596a","session_id":"6197b585b80df9ecb04f391e","condition":"full-information","relevant_dimensions":["wings","pattern"],"bee_group":{"antennae":"X","wings":"2","pattern":"D","legs":"X"},"bonus":0.1600000000000004},{"rt":1067.4000000059605,"stimulus":"bees-with-color/bee-A2SF.svg","response":1,"trial_type":"image-button-response","trial_index":103,"time_elapsed":1079715,"internal_node_id":"0.0-4.0-0.48","subject_id":"614cc3f912aa5c22b24f9cc2","study_id":"6197b3f67c2b5cd3b6d9596a","session_id":"6197b585b80df9ecb04f391e","condition":"full-information","relevant_dimensions":["wings","pattern"],"bee_group":{"antennae":"X","wings":"2","pattern":"D","legs":"X"},"action":"avoid","summary":"bad-avoid","bonus":0.1600000000000004},{"rt":909.2000000029802,"stimulus":"\n                    <p><b>Action: <em>avoid</em></b></p>\n                    <p>This is the bee that you just saw.</p>\n                    <img src=\"bees-with-color/bee-A2SF.svg\" width=\"200\">\n                    <p><span class=\"redText\">Bad choice,</span> the bee was friendly.<br>Your bonus pay is unchanged, and remains at $0.40.</p>\n            ","response":0,"trial_type":"html-button-response","trial_index":104,"time_elapsed":1080626,"internal_node_id":"0.0-4.0-1.48","subject_id":"614cc3f912aa5c22b24f9cc2","study_id":"6197b3f67c2b5cd3b6d9596a","session_id":"6197b585b80df9ecb04f391e","condition":"full-information","relevant_dimensions":["wings","pattern"],"bee_group":{"antennae":"X","wings":"2","pattern":"D","legs":"X"},"bonus":0.1600000000000004},{"rt":825,"stimulus":"bees-with-color/bee-B2SF.svg","response":0,"trial_type":"image-button-response","trial_index":105,"time_elapsed":1081452,"internal_node_id":"0.0-4.0-0.49","subject_id":"614cc3f912aa5c22b24f9cc2","study_id":"6197b3f67c2b5cd3b6d9596a","session_id":"6197b585b80df9ecb04f391e","condition":"full-information","relevant_dimensions":["wings","pattern"],"bee_group":{"antennae":"X","wings":"2","pattern":"D","legs":"X"},"action":"harvest","summary":"good-harvest","bonus":0.1600000000000004},{"rt":980.7000000029802,"stimulus":"\n                    <p><b>Action: <em>harvest</em></b></p>\n                    <p>This is the bee that you just saw.</p>\n                    <img src=\"bees-with-color/bee-B2SF.svg\" width=\"200\">\n                    <p><span class=\"greenText\"><b>Successful harvest!</b></span><br>Your pay has increased by $0.02. Your bonus pay is now $0.42.</p>\n            ","response":0,"trial_type":"html-button-response","trial_index":106,"time_elapsed":1082435,"internal_node_id":"0.0-4.0-1.49","subject_id":"614cc3f912aa5c22b24f9cc2","study_id":"6197b3f67c2b5cd3b6d9596a","session_id":"6197b585b80df9ecb04f391e","condition":"full-information","relevant_dimensions":["wings","pattern"],"bee_group":{"antennae":"X","wings":"2","pattern":"D","legs":"X"},"bonus":0.1600000000000004},{"rt":1048.4000000059605,"stimulus":"bees-with-color/bee-B2SM.svg","response":1,"trial_type":"image-button-response","trial_index":107,"time_elapsed":1083485,"internal_node_id":"0.0-4.0-0.50","subject_id":"614cc3f912aa5c22b24f9cc2","study_id":"6197b3f67c2b5cd3b6d9596a","session_id":"6197b585b80df9ecb04f391e","condition":"full-information","relevant_dimensions":["wings","pattern"],"bee_group":{"antennae":"X","wings":"2","pattern":"D","legs":"X"},"action":"avoid","summary":"bad-avoid","bonus":0.1600000000000004},{"rt":1218.7999999970198,"stimulus":"\n                    <p><b>Action: <em>avoid</em></b></p>\n                    <p>This is the bee that you just saw.</p>\n                    <img src=\"bees-with-color/bee-B2SM.svg\" width=\"200\">\n                    <p><span class=\"redText\">Bad choice,</span> the bee was friendly.<br>Your bonus pay is unchanged, and remains at $0.42.</p>\n            ","response":0,"trial_type":"html-button-response","trial_index":108,"time_elapsed":1084706,"internal_node_id":"0.0-4.0-1.50","subject_id":"614cc3f912aa5c22b24f9cc2","study_id":"6197b3f67c2b5cd3b6d9596a","session_id":"6197b585b80df9ecb04f391e","condition":"full-information","relevant_dimensions":["wings","pattern"],"bee_group":{"antennae":"X","wings":"2","pattern":"D","legs":"X"},"bonus":0.1600000000000004},{"rt":918,"stimulus":"bees-with-color/bee-A2DM.svg","response":0,"trial_type":"image-button-response","trial_index":109,"time_elapsed":1085625,"internal_node_id":"0.0-4.0-0.51","subject_id":"614cc3f912aa5c22b24f9cc2","study_id":"6197b3f67c2b5cd3b6d9596a","session_id":"6197b585b80df9ecb04f391e","condition":"full-information","relevant_dimensions":["wings","pattern"],"bee_group":{"antennae":"X","wings":"2","pattern":"D","legs":"X"},"action":"harvest","summary":"bad-harvest","bonus":0.1600000000000004},{"rt":1171.5999999940395,"stimulus":"\n                    <p><b>Action: <em>harvest</em></b></p>\n                    <p>This is the bee that you just saw.</p>\n                    <img src=\"bees-with-color/bee-A2DM.svg\" width=\"200\">\n                    <p><span class=\"redText\">Bad choice, the bee was angry.</span><br><b>You have been stung!</b><br>Your pay has been decreased by $0.10. Your bonus pay is now $0.32.</p>\n            ","response":0,"trial_type":"html-button-response","trial_index":110,"time_elapsed":1086799,"internal_node_id":"0.0-4.0-1.51","subject_id":"614cc3f912aa5c22b24f9cc2","study_id":"6197b3f67c2b5cd3b6d9596a","session_id":"6197b585b80df9ecb04f391e","condition":"full-information","relevant_dimensions":["wings","pattern"],"bee_group":{"antennae":"X","wings":"2","pattern":"D","legs":"X"},"bonus":0.1600000000000004},{"rt":1035.4000000059605,"stimulus":"bees-with-color/bee-A2SM.svg","response":1,"trial_type":"image-button-response","trial_index":111,"time_elapsed":1087836,"internal_node_id":"0.0-4.0-0.52","subject_id":"614cc3f912aa5c22b24f9cc2","study_id":"6197b3f67c2b5cd3b6d9596a","session_id":"6197b585b80df9ecb04f391e","condition":"full-information","relevant_dimensions":["wings","pattern"],"bee_group":{"antennae":"X","wings":"2","pattern":"D","legs":"X"},"action":"avoid","summary":"bad-avoid","bonus":0.1600000000000004},{"rt":1184.0999999940395,"stimulus":"\n                    <p><b>Action: <em>avoid</em></b></p>\n                    <p>This is the bee that you just saw.</p>\n                    <img src=\"bees-with-color/bee-A2SM.svg\" width=\"200\">\n                    <p><span class=\"redText\">Bad choice,</span> the bee was friendly.<br>Your bonus pay is unchanged, and remains at $0.32.</p>\n            ","response":0,"trial_type":"html-button-response","trial_index":112,"time_elapsed":1089023,"internal_node_id":"0.0-4.0-1.52","subject_id":"614cc3f912aa5c22b24f9cc2","study_id":"6197b3f67c2b5cd3b6d9596a","session_id":"6197b585b80df9ecb04f391e","condition":"full-information","relevant_dimensions":["wings","pattern"],"bee_group":{"antennae":"X","wings":"2","pattern":"D","legs":"X"},"bonus":0.1600000000000004},{"rt":896.2000000029802,"stimulus":"bees-with-color/bee-B2DM.svg","response":0,"trial_type":"image-button-response","trial_index":113,"time_elapsed":1089922,"internal_node_id":"0.0-4.0-0.53","subject_id":"614cc3f912aa5c22b24f9cc2","study_id":"6197b3f67c2b5cd3b6d9596a","session_id":"6197b585b80df9ecb04f391e","condition":"full-information","relevant_dimensions":["wings","pattern"],"bee_group":{"antennae":"X","wings":"2","pattern":"D","legs":"X"},"action":"harvest","summary":"bad-harvest","bonus":0.1600000000000004},{"rt":1190.3999999910593,"stimulus":"\n                    <p><b>Action: <em>harvest</em></b></p>\n                    <p>This is the bee that you just saw.</p>\n                    <img src=\"bees-with-color/bee-B2DM.svg\" width=\"200\">\n                    <p><span class=\"redText\">Bad choice, the bee was angry.</span><br><b>You have been stung!</b><br>Your pay has been decreased by $0.10. Your bonus pay is now $0.22.</p>\n            ","response":0,"trial_type":"html-button-response","trial_index":114,"time_elapsed":1091114,"internal_node_id":"0.0-4.0-1.53","subject_id":"614cc3f912aa5c22b24f9cc2","study_id":"6197b3f67c2b5cd3b6d9596a","session_id":"6197b585b80df9ecb04f391e","condition":"full-information","relevant_dimensions":["wings","pattern"],"bee_group":{"antennae":"X","wings":"2","pattern":"D","legs":"X"},"bonus":0.1600000000000004},{"rt":849.0999999940395,"stimulus":"bees-with-color/bee-A1SF.svg","response":1,"trial_type":"image-button-response","trial_index":115,"time_elapsed":1091965,"internal_node_id":"0.0-4.0-0.54","subject_id":"614cc3f912aa5c22b24f9cc2","study_id":"6197b3f67c2b5cd3b6d9596a","session_id":"6197b585b80df9ecb04f391e","condition":"full-information","relevant_dimensions":["wings","pattern"],"bee_group":{"antennae":"X","wings":"2","pattern":"D","legs":"X"},"action":"avoid","summary":"bad-avoid","bonus":0.1600000000000004},{"rt":1179.5,"stimulus":"\n                    <p><b>Action: <em>avoid</em></b></p>\n                    <p>This is the bee that you just saw.</p>\n                    <img src=\"bees-with-color/bee-A1SF.svg\" width=\"200\">\n                    <p><span class=\"redText\">Bad choice,</span> the bee was friendly.<br>Your bonus pay is unchanged, and remains at $0.22.</p>\n            ","response":0,"trial_type":"html-button-response","trial_index":116,"time_elapsed":1093146,"internal_node_id":"0.0-4.0-1.54","subject_id":"614cc3f912aa5c22b24f9cc2","study_id":"6197b3f67c2b5cd3b6d9596a","session_id":"6197b585b80df9ecb04f391e","condition":"full-information","relevant_dimensions":["wings","pattern"],"bee_group":{"antennae":"X","wings":"2","pattern":"D","legs":"X"},"bonus":0.1600000000000004},{"rt":1017.7000000029802,"stimulus":"bees-with-color/bee-B1DM.svg","response":1,"trial_type":"image-button-response","trial_index":117,"time_elapsed":1094166,"internal_node_id":"0.0-4.0-0.55","subject_id":"614cc3f912aa5c22b24f9cc2","study_id":"6197b3f67c2b5cd3b6d9596a","session_id":"6197b585b80df9ecb04f391e","condition":"full-information","relevant_dimensions":["wings","pattern"],"bee_group":{"antennae":"X","wings":"2","pattern":"D","legs":"X"},"action":"avoid","summary":"bad-avoid","bonus":0.1600000000000004},{"rt":951.2000000029802,"stimulus":"\n                    <p><b>Action: <em>avoid</em></b></p>\n                    <p>This is the bee that you just saw.</p>\n                    <img src=\"bees-with-color/bee-B1DM.svg\" width=\"200\">\n                    <p><span class=\"redText\">Bad choice,</span> the bee was friendly.<br>Your bonus pay is unchanged, and remains at $0.22.</p>\n            ","response":0,"trial_type":"html-button-response","trial_index":118,"time_elapsed":1095120,"internal_node_id":"0.0-4.0-1.55","subject_id":"614cc3f912aa5c22b24f9cc2","study_id":"6197b3f67c2b5cd3b6d9596a","session_id":"6197b585b80df9ecb04f391e","condition":"full-information","relevant_dimensions":["wings","pattern"],"bee_group":{"antennae":"X","wings":"2","pattern":"D","legs":"X"},"bonus":0.1600000000000004},{"rt":934.2999999970198,"stimulus":"bees-with-color/bee-B2DF.svg","response":1,"trial_type":"image-button-response","trial_index":119,"time_elapsed":1096058,"internal_node_id":"0.0-4.0-0.56","subject_id":"614cc3f912aa5c22b24f9cc2","study_id":"6197b3f67c2b5cd3b6d9596a","session_id":"6197b585b80df9ecb04f391e","condition":"full-information","relevant_dimensions":["wings","pattern"],"bee_group":{"antennae":"X","wings":"2","pattern":"D","legs":"X"},"action":"avoid","summary":"good-avoid","bonus":0.1600000000000004},{"rt":1566.9000000059605,"stimulus":"\n                    <p><b>Action: <em>avoid</em></b></p>\n                    <p>This is the bee that you just saw.</p>\n                    <img src=\"bees-with-color/bee-B2DF.svg\" width=\"200\">\n                    <p><span class=\"greenText\">Good choice!</span>  This bee would have stung you.<br>Your bonus pay is unchanged, and remains at $0.22.</p>\n            ","response":0,"trial_type":"html-button-response","trial_index":120,"time_elapsed":1097629,"internal_node_id":"0.0-4.0-1.56","subject_id":"614cc3f912aa5c22b24f9cc2","study_id":"6197b3f67c2b5cd3b6d9596a","session_id":"6197b585b80df9ecb04f391e","condition":"full-information","relevant_dimensions":["wings","pattern"],"bee_group":{"antennae":"X","wings":"2","pattern":"D","legs":"X"},"bonus":0.1600000000000004},{"rt":1396.7999999970198,"stimulus":"bees-with-color/bee-A1SM.svg","response":0,"trial_type":"image-button-response","trial_index":121,"time_elapsed":1099027,"internal_node_id":"0.0-4.0-0.57","subject_id":"614cc3f912aa5c22b24f9cc2","study_id":"6197b3f67c2b5cd3b6d9596a","session_id":"6197b585b80df9ecb04f391e","condition":"full-information","relevant_dimensions":["wings","pattern"],"bee_group":{"antennae":"X","wings":"2","pattern":"D","legs":"X"},"action":"harvest","summary":"good-harvest","bonus":0.1600000000000004},{"rt":1088.3999999910593,"stimulus":"\n                    <p><b>Action: <em>harvest</em></b></p>\n                    <p>This is the bee that you just saw.</p>\n                    <img src=\"bees-with-color/bee-A1SM.svg\" width=\"200\">\n                    <p><span class=\"greenText\"><b>Successful harvest!</b></span><br>Your pay has increased by $0.02. Your bonus pay is now $0.24.</p>\n            ","response":0,"trial_type":"html-button-response","trial_index":122,"time_elapsed":1100118,"internal_node_id":"0.0-4.0-1.57","subject_id":"614cc3f912aa5c22b24f9cc2","study_id":"6197b3f67c2b5cd3b6d9596a","session_id":"6197b585b80df9ecb04f391e","condition":"full-information","relevant_dimensions":["wings","pattern"],"bee_group":{"antennae":"X","wings":"2","pattern":"D","legs":"X"},"bonus":0.1600000000000004},{"rt":797.7000000029802,"stimulus":"bees-with-color/bee-B1SF.svg","response":0,"trial_type":"image-button-response","trial_index":123,"time_elapsed":1100917,"internal_node_id":"0.0-4.0-0.58","subject_id":"614cc3f912aa5c22b24f9cc2","study_id":"6197b3f67c2b5cd3b6d9596a","session_id":"6197b585b80df9ecb04f391e","condition":"full-information","relevant_dimensions":["wings","pattern"],"bee_group":{"antennae":"X","wings":"2","pattern":"D","legs":"X"},"action":"harvest","summary":"good-harvest","bonus":0.1600000000000004},{"rt":966.9000000059605,"stimulus":"\n                    <p><b>Action: <em>harvest</em></b></p>\n                    <p>This is the bee that you just saw.</p>\n                    <img src=\"bees-with-color/bee-B1SF.svg\" width=\"200\">\n                    <p><span class=\"greenText\"><b>Successful harvest!</b></span><br>Your pay has increased by $0.02. Your bonus pay is now $0.26.</p>\n            ","response":0,"trial_type":"html-button-response","trial_index":124,"time_elapsed":1101888,"internal_node_id":"0.0-4.0-1.58","subject_id":"614cc3f912aa5c22b24f9cc2","study_id":"6197b3f67c2b5cd3b6d9596a","session_id":"6197b585b80df9ecb04f391e","condition":"full-information","relevant_dimensions":["wings","pattern"],"bee_group":{"antennae":"X","wings":"2","pattern":"D","legs":"X"},"bonus":0.1600000000000004},{"rt":847.0999999940395,"stimulus":"bees-with-color/bee-B1SM.svg","response":0,"trial_type":"image-button-response","trial_index":125,"time_elapsed":1102737,"internal_node_id":"0.0-4.0-0.59","subject_id":"614cc3f912aa5c22b24f9cc2","study_id":"6197b3f67c2b5cd3b6d9596a","session_id":"6197b585b80df9ecb04f391e","condition":"full-information","relevant_dimensions":["wings","pattern"],"bee_group":{"antennae":"X","wings":"2","pattern":"D","legs":"X"},"action":"harvest","summary":"good-harvest","bonus":0.1600000000000004},{"rt":1036.2000000029802,"stimulus":"\n                    <p><b>Action: <em>harvest</em></b></p>\n                    <p>This is the bee that you just saw.</p>\n                    <img src=\"bees-with-color/bee-B1SM.svg\" width=\"200\">\n                    <p><span class=\"greenText\"><b>Successful harvest!</b></span><br>Your pay has increased by $0.02. Your bonus pay is now $0.28.</p>\n            ","response":0,"trial_type":"html-button-response","trial_index":126,"time_elapsed":1103775,"internal_node_id":"0.0-4.0-1.59","subject_id":"614cc3f912aa5c22b24f9cc2","study_id":"6197b3f67c2b5cd3b6d9596a","session_id":"6197b585b80df9ecb04f391e","condition":"full-information","relevant_dimensions":["wings","pattern"],"bee_group":{"antennae":"X","wings":"2","pattern":"D","legs":"X"},"bonus":0.1600000000000004},{"rt":885.5,"stimulus":"bees-with-color/bee-A2DF.svg","response":1,"trial_type":"image-button-response","trial_index":127,"time_elapsed":1104663,"internal_node_id":"0.0-4.0-0.60","subject_id":"614cc3f912aa5c22b24f9cc2","study_id":"6197b3f67c2b5cd3b6d9596a","session_id":"6197b585b80df9ecb04f391e","condition":"full-information","relevant_dimensions":["wings","pattern"],"bee_group":{"antennae":"X","wings":"2","pattern":"D","legs":"X"},"action":"avoid","summary":"good-avoid","bonus":0.1600000000000004},{"rt":1144.5,"stimulus":"\n                    <p><b>Action: <em>avoid</em></b></p>\n                    <p>This is the bee that you just saw.</p>\n                    <img src=\"bees-with-color/bee-A2DF.svg\" width=\"200\">\n                    <p><span class=\"greenText\">Good choice!</span>  This bee would have stung you.<br>Your bonus pay is unchanged, and remains at $0.28.</p>\n            ","response":0,"trial_type":"html-button-response","trial_index":128,"time_elapsed":1105810,"internal_node_id":"0.0-4.0-1.60","subject_id":"614cc3f912aa5c22b24f9cc2","study_id":"6197b3f67c2b5cd3b6d9596a","session_id":"6197b585b80df9ecb04f391e","condition":"full-information","relevant_dimensions":["wings","pattern"],"bee_group":{"antennae":"X","wings":"2","pattern":"D","legs":"X"},"bonus":0.1600000000000004},{"rt":1030.5,"stimulus":"bees-with-color/bee-A1DF.svg","response":0,"trial_type":"image-button-response","trial_index":129,"time_elapsed":1106842,"internal_node_id":"0.0-4.0-0.61","subject_id":"614cc3f912aa5c22b24f9cc2","study_id":"6197b3f67c2b5cd3b6d9596a","session_id":"6197b585b80df9ecb04f391e","condition":"full-information","relevant_dimensions":["wings","pattern"],"bee_group":{"antennae":"X","wings":"2","pattern":"D","legs":"X"},"action":"harvest","summary":"good-harvest","bonus":0.1600000000000004},{"rt":1094.5,"stimulus":"\n                    <p><b>Action: <em>harvest</em></b></p>\n                    <p>This is the bee that you just saw.</p>\n                    <img src=\"bees-with-color/bee-A1DF.svg\" width=\"200\">\n                    <p><span class=\"greenText\"><b>Successful harvest!</b></span><br>Your pay has increased by $0.02. Your bonus pay is now $0.30.</p>\n            ","response":0,"trial_type":"html-button-response","trial_index":130,"time_elapsed":1107939,"internal_node_id":"0.0-4.0-1.61","subject_id":"614cc3f912aa5c22b24f9cc2","study_id":"6197b3f67c2b5cd3b6d9596a","session_id":"6197b585b80df9ecb04f391e","condition":"full-information","relevant_dimensions":["wings","pattern"],"bee_group":{"antennae":"X","wings":"2","pattern":"D","legs":"X"},"bonus":0.1600000000000004},{"rt":1049.2000000029802,"stimulus":"bees-with-color/bee-A1DM.svg","response":1,"trial_type":"image-button-response","trial_index":131,"time_elapsed":1108991,"internal_node_id":"0.0-4.0-0.62","subject_id":"614cc3f912aa5c22b24f9cc2","study_id":"6197b3f67c2b5cd3b6d9596a","session_id":"6197b585b80df9ecb04f391e","condition":"full-information","relevant_dimensions":["wings","pattern"],"bee_group":{"antennae":"X","wings":"2","pattern":"D","legs":"X"},"action":"avoid","summary":"bad-avoid","bonus":0.1600000000000004},{"rt":983.5,"stimulus":"\n                    <p><b>Action: <em>avoid</em></b></p>\n                    <p>This is the bee that you just saw.</p>\n                    <img src=\"bees-with-color/bee-A1DM.svg\" width=\"200\">\n                    <p><span class=\"redText\">Bad choice,</span> the bee was friendly.<br>Your bonus pay is unchanged, and remains at $0.30.</p>\n            ","response":0,"trial_type":"html-button-response","trial_index":132,"time_elapsed":1109976,"internal_node_id":"0.0-4.0-1.62","subject_id":"614cc3f912aa5c22b24f9cc2","study_id":"6197b3f67c2b5cd3b6d9596a","session_id":"6197b585b80df9ecb04f391e","condition":"full-information","relevant_dimensions":["wings","pattern"],"bee_group":{"antennae":"X","wings":"2","pattern":"D","legs":"X"},"bonus":0.1600000000000004},{"rt":1036.9000000059605,"stimulus":"bees-with-color/bee-B1DF.svg","response":1,"trial_type":"image-button-response","trial_index":133,"time_elapsed":1111015,"internal_node_id":"0.0-4.0-0.63","subject_id":"614cc3f912aa5c22b24f9cc2","study_id":"6197b3f67c2b5cd3b6d9596a","session_id":"6197b585b80df9ecb04f391e","condition":"full-information","relevant_dimensions":["wings","pattern"],"bee_group":{"antennae":"X","wings":"2","pattern":"D","legs":"X"},"action":"avoid","summary":"bad-avoid","bonus":0.1600000000000004},{"rt":2217.2000000029802,"stimulus":"\n                    <p><b>Action: <em>avoid</em></b></p>\n                    <p>This is the bee that you just saw.</p>\n                    <img src=\"bees-with-color/bee-B1DF.svg\" width=\"200\">\n                    <p><span class=\"redText\">Bad choice,</span> the bee was friendly.<br>Your bonus pay is unchanged, and remains at $0.30.</p>\n            ","response":0,"trial_type":"html-button-response","trial_index":134,"time_elapsed":1113234,"internal_node_id":"0.0-4.0-1.63","subject_id":"614cc3f912aa5c22b24f9cc2","study_id":"6197b3f67c2b5cd3b6d9596a","session_id":"6197b585b80df9ecb04f391e","condition":"full-information","relevant_dimensions":["wings","pattern"],"bee_group":{"antennae":"X","wings":"2","pattern":"D","legs":"X"},"bonus":0.1600000000000004},{"rt":9216.70000000298,"stimulus":"You have completed the first part of this experiment.<br><br>You will now begin a shorter second part, in which you will receive no feedback.<br>The same rules regarding bonus pay apply.<br><br>Press any key to begin.","response":".","trial_type":"html-keyboard-response","trial_index":135,"time_elapsed":1122454,"internal_node_id":"0.0-5.0","subject_id":"614cc3f912aa5c22b24f9cc2","study_id":"6197b3f67c2b5cd3b6d9596a","session_id":"6197b585b80df9ecb04f391e","condition":"full-information","relevant_dimensions":["wings","pattern"],"bee_group":{"antennae":"X","wings":"2","pattern":"D","legs":"X"},"bonus":0.1600000000000004},{"rt":9604.5,"stimulus":"bees-with-color/bee-A2SF.svg","response":1,"trial_type":"image-button-response","trial_index":136,"time_elapsed":1132068,"internal_node_id":"0.0-6.0-0.0","subject_id":"614cc3f912aa5c22b24f9cc2","study_id":"6197b3f67c2b5cd3b6d9596a","session_id":"6197b585b80df9ecb04f391e","condition":"full-information","relevant_dimensions":["wings","pattern"],"bee_group":{"antennae":"X","wings":"2","pattern":"D","legs":"X"},"bonus":0.1600000000000004},{"rt":5197.5999999940395,"stimulus":"bees-with-color/bee-B2DF.svg","response":0,"trial_type":"image-button-response","trial_index":137,"time_elapsed":1137271,"internal_node_id":"0.0-6.0-0.1","subject_id":"614cc3f912aa5c22b24f9cc2","study_id":"6197b3f67c2b5cd3b6d9596a","session_id":"6197b585b80df9ecb04f391e","condition":"full-information","relevant_dimensions":["wings","pattern"],"bee_group":{"antennae":"X","wings":"2","pattern":"D","legs":"X"},"bonus":0.1600000000000004},{"rt":985.5999999940395,"stimulus":"bees-with-color/bee-A1DM.svg","response":0,"trial_type":"image-button-response","trial_index":138,"time_elapsed":1138261,"internal_node_id":"0.0-6.0-0.2","subject_id":"614cc3f912aa5c22b24f9cc2","study_id":"6197b3f67c2b5cd3b6d9596a","session_id":"6197b585b80df9ecb04f391e","condition":"full-information","relevant_dimensions":["wings","pattern"],"bee_group":{"antennae":"X","wings":"2","pattern":"D","legs":"X"},"bonus":0.1600000000000004},{"rt":1208.2999999970198,"stimulus":"bees-with-color/bee-A1SM.svg","response":1,"trial_type":"image-button-response","trial_index":139,"time_elapsed":1139473,"internal_node_id":"0.0-6.0-0.3","subject_id":"614cc3f912aa5c22b24f9cc2","study_id":"6197b3f67c2b5cd3b6d9596a","session_id":"6197b585b80df9ecb04f391e","condition":"full-information","relevant_dimensions":["wings","pattern"],"bee_group":{"antennae":"X","wings":"2","pattern":"D","legs":"X"},"bonus":0.1600000000000004},{"rt":1203.7000000029802,"stimulus":"bees-with-color/bee-B1DM.svg","response":0,"trial_type":"image-button-response","trial_index":140,"time_elapsed":1140680,"internal_node_id":"0.0-6.0-0.4","subject_id":"614cc3f912aa5c22b24f9cc2","study_id":"6197b3f67c2b5cd3b6d9596a","session_id":"6197b585b80df9ecb04f391e","condition":"full-information","relevant_dimensions":["wings","pattern"],"bee_group":{"antennae":"X","wings":"2","pattern":"D","legs":"X"},"bonus":0.1600000000000004},{"rt":1019.3999999910593,"stimulus":"bees-with-color/bee-B2SM.svg","response":1,"trial_type":"image-button-response","trial_index":141,"time_elapsed":1141703,"internal_node_id":"0.0-6.0-0.5","subject_id":"614cc3f912aa5c22b24f9cc2","study_id":"6197b3f67c2b5cd3b6d9596a","session_id":"6197b585b80df9ecb04f391e","condition":"full-information","relevant_dimensions":["wings","pattern"],"bee_group":{"antennae":"X","wings":"2","pattern":"D","legs":"X"},"bonus":0.1600000000000004},{"rt":606.5,"stimulus":"bees-with-color/bee-A1SF.svg","response":1,"trial_type":"image-button-response","trial_index":142,"time_elapsed":1142313,"internal_node_id":"0.0-6.0-0.6","subject_id":"614cc3f912aa5c22b24f9cc2","study_id":"6197b3f67c2b5cd3b6d9596a","session_id":"6197b585b80df9ecb04f391e","condition":"full-information","relevant_dimensions":["wings","pattern"],"bee_group":{"antennae":"X","wings":"2","pattern":"D","legs":"X"},"bonus":0.1600000000000004},{"rt":658.1000000089407,"stimulus":"bees-with-color/bee-A2DF.svg","response":1,"trial_type":"image-button-response","trial_index":143,"time_elapsed":1142975,"internal_node_id":"0.0-6.0-0.7","subject_id":"614cc3f912aa5c22b24f9cc2","study_id":"6197b3f67c2b5cd3b6d9596a","session_id":"6197b585b80df9ecb04f391e","condition":"full-information","relevant_dimensions":["wings","pattern"],"bee_group":{"antennae":"X","wings":"2","pattern":"D","legs":"X"},"bonus":0.1600000000000004},{"rt":610.0999999940395,"stimulus":"bees-with-color/bee-B1SM.svg","response":1,"trial_type":"image-button-response","trial_index":144,"time_elapsed":1143588,"internal_node_id":"0.0-6.0-0.8","subject_id":"614cc3f912aa5c22b24f9cc2","study_id":"6197b3f67c2b5cd3b6d9596a","session_id":"6197b585b80df9ecb04f391e","condition":"full-information","relevant_dimensions":["wings","pattern"],"bee_group":{"antennae":"X","wings":"2","pattern":"D","legs":"X"},"bonus":0.1600000000000004},{"rt":686.4000000059605,"stimulus":"bees-with-color/bee-A2DM.svg","response":1,"trial_type":"image-button-response","trial_index":145,"time_elapsed":1144278,"internal_node_id":"0.0-6.0-0.9","subject_id":"614cc3f912aa5c22b24f9cc2","study_id":"6197b3f67c2b5cd3b6d9596a","session_id":"6197b585b80df9ecb04f391e","condition":"full-information","relevant_dimensions":["wings","pattern"],"bee_group":{"antennae":"X","wings":"2","pattern":"D","legs":"X"},"bonus":0.1600000000000004},{"rt":1007.2999999970198,"stimulus":"bees-with-color/bee-A2SM.svg","response":0,"trial_type":"image-button-response","trial_index":146,"time_elapsed":1145289,"internal_node_id":"0.0-6.0-0.10","subject_id":"614cc3f912aa5c22b24f9cc2","study_id":"6197b3f67c2b5cd3b6d9596a","session_id":"6197b585b80df9ecb04f391e","condition":"full-information","relevant_dimensions":["wings","pattern"],"bee_group":{"antennae":"X","wings":"2","pattern":"D","legs":"X"},"bonus":0.1600000000000004},{"rt":955,"stimulus":"bees-with-color/bee-A1DF.svg","response":1,"trial_type":"image-button-response","trial_index":147,"time_elapsed":1146247,"internal_node_id":"0.0-6.0-0.11","subject_id":"614cc3f912aa5c22b24f9cc2","study_id":"6197b3f67c2b5cd3b6d9596a","session_id":"6197b585b80df9ecb04f391e","condition":"full-information","relevant_dimensions":["wings","pattern"],"bee_group":{"antennae":"X","wings":"2","pattern":"D","legs":"X"},"bonus":0.1600000000000004},{"rt":1454.2000000029802,"stimulus":"bees-with-color/bee-B1SF.svg","response":1,"trial_type":"image-button-response","trial_index":148,"time_elapsed":1147703,"internal_node_id":"0.0-6.0-0.12","subject_id":"614cc3f912aa5c22b24f9cc2","study_id":"6197b3f67c2b5cd3b6d9596a","session_id":"6197b585b80df9ecb04f391e","condition":"full-information","relevant_dimensions":["wings","pattern"],"bee_group":{"antennae":"X","wings":"2","pattern":"D","legs":"X"},"bonus":0.1600000000000004},{"rt":800.2000000029802,"stimulus":"bees-with-color/bee-B2SF.svg","response":0,"trial_type":"image-button-response","trial_index":149,"time_elapsed":1148507,"internal_node_id":"0.0-6.0-0.13","subject_id":"614cc3f912aa5c22b24f9cc2","study_id":"6197b3f67c2b5cd3b6d9596a","session_id":"6197b585b80df9ecb04f391e","condition":"full-information","relevant_dimensions":["wings","pattern"],"bee_group":{"antennae":"X","wings":"2","pattern":"D","legs":"X"},"bonus":0.1600000000000004},{"rt":881,"stimulus":"bees-with-color/bee-B1DF.svg","response":1,"trial_type":"image-button-response","trial_index":150,"time_elapsed":1149390,"internal_node_id":"0.0-6.0-0.14","subject_id":"614cc3f912aa5c22b24f9cc2","study_id":"6197b3f67c2b5cd3b6d9596a","session_id":"6197b585b80df9ecb04f391e","condition":"full-information","relevant_dimensions":["wings","pattern"],"bee_group":{"antennae":"X","wings":"2","pattern":"D","legs":"X"},"bonus":0.1600000000000004},{"rt":971.0999999940395,"stimulus":"bees-with-color/bee-B2DM.svg","response":0,"trial_type":"image-button-response","trial_index":151,"time_elapsed":1150365,"internal_node_id":"0.0-6.0-0.15","subject_id":"614cc3f912aa5c22b24f9cc2","study_id":"6197b3f67c2b5cd3b6d9596a","session_id":"6197b585b80df9ecb04f391e","condition":"full-information","relevant_dimensions":["wings","pattern"],"bee_group":{"antennae":"X","wings":"2","pattern":"D","legs":"X"},"bonus":0.1600000000000004},{"rt":1412.2999999970198,"stimulus":"bees-with-color/bee-B2DM.svg","response":0,"trial_type":"image-button-response","trial_index":152,"time_elapsed":1151779,"internal_node_id":"0.0-6.0-0.16","subject_id":"614cc3f912aa5c22b24f9cc2","study_id":"6197b3f67c2b5cd3b6d9596a","session_id":"6197b585b80df9ecb04f391e","condition":"full-information","relevant_dimensions":["wings","pattern"],"bee_group":{"antennae":"X","wings":"2","pattern":"D","legs":"X"},"bonus":0.1600000000000004},{"rt":672,"stimulus":"bees-with-color/bee-A2SF.svg","response":0,"trial_type":"image-button-response","trial_index":153,"time_elapsed":1152453,"internal_node_id":"0.0-6.0-0.17","subject_id":"614cc3f912aa5c22b24f9cc2","study_id":"6197b3f67c2b5cd3b6d9596a","session_id":"6197b585b80df9ecb04f391e","condition":"full-information","relevant_dimensions":["wings","pattern"],"bee_group":{"antennae":"X","wings":"2","pattern":"D","legs":"X"},"bonus":0.1600000000000004},{"rt":1761.5,"stimulus":"bees-with-color/bee-B1DF.svg","response":1,"trial_type":"image-button-response","trial_index":154,"time_elapsed":1154217,"internal_node_id":"0.0-6.0-0.18","subject_id":"614cc3f912aa5c22b24f9cc2","study_id":"6197b3f67c2b5cd3b6d9596a","session_id":"6197b585b80df9ecb04f391e","condition":"full-information","relevant_dimensions":["wings","pattern"],"bee_group":{"antennae":"X","wings":"2","pattern":"D","legs":"X"},"bonus":0.1600000000000004},{"rt":1178,"stimulus":"bees-with-color/bee-A1DM.svg","response":0,"trial_type":"image-button-response","trial_index":155,"time_elapsed":1155398,"internal_node_id":"0.0-6.0-0.19","subject_id":"614cc3f912aa5c22b24f9cc2","study_id":"6197b3f67c2b5cd3b6d9596a","session_id":"6197b585b80df9ecb04f391e","condition":"full-information","relevant_dimensions":["wings","pattern"],"bee_group":{"antennae":"X","wings":"2","pattern":"D","legs":"X"},"bonus":0.1600000000000004},{"rt":1.7999999970197678,"stimulus":"bees-with-color/bee-B1SF.svg","response":0,"trial_type":"image-button-response","trial_index":156,"time_elapsed":1155404,"internal_node_id":"0.0-6.0-0.20","subject_id":"614cc3f912aa5c22b24f9cc2","study_id":"6197b3f67c2b5cd3b6d9596a","session_id":"6197b585b80df9ecb04f391e","condition":"full-information","relevant_dimensions":["wings","pattern"],"bee_group":{"antennae":"X","wings":"2","pattern":"D","legs":"X"},"bonus":0.1600000000000004},{"rt":878.7999999970198,"stimulus":"bees-with-color/bee-A2DM.svg","response":0,"trial_type":"image-button-response","trial_index":157,"time_elapsed":1156286,"internal_node_id":"0.0-6.0-0.21","subject_id":"614cc3f912aa5c22b24f9cc2","study_id":"6197b3f67c2b5cd3b6d9596a","session_id":"6197b585b80df9ecb04f391e","condition":"full-information","relevant_dimensions":["wings","pattern"],"bee_group":{"antennae":"X","wings":"2","pattern":"D","legs":"X"},"bonus":0.1600000000000