[{"success":true,"trial_type":"fullscreen","trial_index":0,"time_elapsed":5109,"internal_node_id":"0.0-0.0","subject_id":"607f367c60fe33f8f18816d1","study_id":"60edd13110225f80f9f3709b","session_id":"6196c707d965ce1e2b690d7b","condition":"contingent","relevant_dimensions":["wings","pattern"],"bee_group":{"antennae":"X","wings":"2","pattern":"D","legs":"X"},"bonus":0.10000000000000109},{"success":true,"timeout":false,"failed_images":[],"failed_audio":[],"failed_video":[],"trial_type":"preload","trial_index":1,"time_elapsed":12104,"internal_node_id":"0.0-1.0","subject_id":"607f367c60fe33f8f18816d1","study_id":"60edd13110225f80f9f3709b","session_id":"6196c707d965ce1e2b690d7b","condition":"contingent","relevant_dimensions":["wings","pattern"],"bee_group":{"antennae":"X","wings":"2","pattern":"D","legs":"X"},"bonus":0.10000000000000109},{"rt":1471,"stimulus":"Welcome! Press any key to begin.","response":" ","trial_type":"html-keyboard-response","trial_index":2,"time_elapsed":13585,"internal_node_id":"0.0-2.0","subject_id":"607f367c60fe33f8f18816d1","study_id":"60edd13110225f80f9f3709b","session_id":"6196c707d965ce1e2b690d7b","condition":"contingent","relevant_dimensions":["wings","pattern"],"bee_group":{"antennae":"X","wings":"2","pattern":"D","legs":"X"},"bonus":0.10000000000000109},{"view_history":[{"page_index":0,"viewing_time":8557},{"page_index":1,"viewing_time":18281},{"page_index":2,"viewing_time":14701},{"page_index":3,"viewing_time":24381},{"page_index":4,"viewing_time":6589},{"page_index":5,"viewing_time":9430},{"page_index":6,"viewing_time":13568},{"page_index":7,"viewing_time":8574},{"page_index":8,"viewing_time":4452},{"page_index":9,"viewing_time":3197},{"page_index":10,"viewing_time":2608},{"page_index":11,"viewing_time":11478},{"page_index":12,"viewing_time":10866},{"page_index":13,"viewing_time":2284},{"page_index":14,"viewing_time":3349}],"rt":142329,"trial_type":"instructions","trial_index":3,"time_elapsed":155918,"internal_node_id":"0.0-3.0-0.0","subject_id":"607f367c60fe33f8f18816d1","study_id":"60edd13110225f80f9f3709b","session_id":"6196c707d965ce1e2b690d7b","condition":"contingent","relevant_dimensions":["wings","pattern"],"bee_group":{"antennae":"X","wings":"2","pattern":"D","legs":"X"},"bonus":0.10000000000000109},{"rt":18351,"response":{"Q0":["Two or six legs","Stripes or spots on body","Single or double wings","Antennae or no antennae"]},"question_order":[0],"trial_type":"survey-multi-select","trial_index":4,"time_elapsed":174545,"internal_node_id":"0.0-3.0-1.0","subject_id":"607f367c60fe33f8f18816d1","study_id":"60edd13110225f80f9f3709b","session_id":"6196c707d965ce1e2b690d7b","condition":"contingent","relevant_dimensions":["wings","pattern"],"bee_group":{"antennae":"X","wings":"2","pattern":"D","legs":"X"},"correct":true,"bonus":0.10000000000000109},{"rt":37818,"response":{"Q1":"No.","Q2":"Based on the four features of the bee.","Q3":"You do not learn if it was friendly or dangerous, and do not alter your bonus."},"question_order":[0,1,2],"trial_type":"survey-multi-choice","trial_index":5,"time_elapsed":212472,"internal_node_id":"0.0-3.0-2.0","subject_id":"607f367c60fe33f8f18816d1","study_id":"60edd13110225f80f9f3709b","session_id":"6196c707d965ce1e2b690d7b","condition":"contingent","relevant_dimensions":["wings","pattern"],"bee_group":{"antennae":"X","wings":"2","pattern":"D","legs":"X"},"correct":true,"bonus":0.10000000000000109},{"rt":5089,"stimulus":"<p>Congrats, you got everything right<br>When you're ready, click the button below to continue to the experiment.</p>","response":0,"trial_type":"html-button-response","trial_index":6,"time_elapsed":217661,"internal_node_id":"0.0-3.0-3.0","subject_id":"607f367c60fe33f8f18816d1","study_id":"60edd13110225f80f9f3709b","session_id":"6196c707d965ce1e2b690d7b","condition":"contingent","relevant_dimensions":["wings","pattern"],"bee_group":{"antennae":"X","wings":"2","pattern":"D","legs":"X"},"bonus":0.10000000000000109},{"rt":5951,"stimulus":"bees-with-color/bee-B2DF.svg","response":1,"trial_type":"image-button-response","trial_index":7,"time_elapsed":223656,"internal_node_id":"0.0-4.0-0.0","subject_id":"607f367c60fe33f8f18816d1","study_id":"60edd13110225f80f9f3709b","session_id":"6196c707d965ce1e2b690d7b","condition":"contingent","relevant_dimensions":["wings","pattern"],"bee_group":{"antennae":"X","wings":"2","pattern":"D","legs":"X"},"action":"avoid","summary":"good-avoid","bonus":0.10000000000000109},{"rt":12710,"stimulus":"\n                    <p><b>Action: <em>avoid</em></b></p>\n                    <p>This is the bee that you just saw.</p>\n                    <img src=\"bees-with-color/bee-B2DF.svg\" width=\"200\">\n                    <p><br>Your bonus pay is unchanged, and remains at $0.54.</p>\n            ","response":0,"trial_type":"html-button-response","trial_index":8,"time_elapsed":238541,"internal_node_id":"0.0-4.0-1.0","subject_id":"607f367c60fe33f8f18816d1","study_id":"60edd13110225f80f9f3709b","session_id":"6196c707d965ce1e2b690d7b","condition":"contingent","relevant_dimensions":["wings","pattern"],"bee_group":{"antennae":"X","wings":"2","pattern":"D","legs":"X"},"bonus":0.10000000000000109},{"rt":4719,"stimulus":"bees-with-color/bee-B2SF.svg","response":0,"trial_type":"image-button-response","trial_index":9,"time_elapsed":243284,"internal_node_id":"0.0-4.0-0.1","subject_id":"607f367c60fe33f8f18816d1","study_id":"60edd13110225f80f9f3709b","session_id":"6196c707d965ce1e2b690d7b","condition":"contingent","relevant_dimensions":["wings","pattern"],"bee_group":{"antennae":"X","wings":"2","pattern":"D","legs":"X"},"action":"harvest","summary":"good-harvest","bonus":0.10000000000000109},{"rt":7251,"stimulus":"\n                    <p><b>Action: <em>harvest</em></b></p>\n                    <p>This is the bee that you just saw.</p>\n                    <img src=\"bees-with-color/bee-B2SF.svg\" width=\"200\">\n                    <p><span class=\"greenText\"><b>Successful harvest!</b></span><br>Your pay has increased by $0.02. Your bonus pay is now $0.56.</p>\n            ","response":0,"trial_type":"html-button-response","trial_index":10,"time_elapsed":250580,"internal_node_id":"0.0-4.0-1.1","subject_id":"607f367c60fe33f8f18816d1","study_id":"60edd13110225f80f9f3709b","session_id":"6196c707d965ce1e2b690d7b","condition":"contingent","relevant_dimensions":["wings","pattern"],"bee_group":{"antennae":"X","wings":"2","pattern":"D","legs":"X"},"bonus":0.10000000000000109},{"rt":4774,"stimulus":"bees-with-color/bee-A1SM.svg","response":0,"trial_type":"image-button-response","trial_index":11,"time_elapsed":255385,"internal_node_id":"0.0-4.0-0.2","subject_id":"607f367c60fe33f8f18816d1","study_id":"60edd13110225f80f9f3709b","session_id":"6196c707d965ce1e2b690d7b","condition":"contingent","relevant_dimensions":["wings","pattern"],"bee_group":{"antennae":"X","wings":"2","pattern":"D","legs":"X"},"action":"harvest","summary":"good-harvest","bonus":0.10000000000000109},{"rt":5444,"stimulus":"\n                    <p><b>Action: <em>harvest</em></b></p>\n                    <p>This is the bee that you just saw.</p>\n                    <img src=\"bees-with-color/bee-A1SM.svg\" width=\"200\">\n                    <p><span class=\"greenText\"><b>Successful harvest!</b></span><br>Your pay has increased by $0.02. Your bonus pay is now $0.58.</p>\n            ","response":0,"trial_type":"html-button-response","trial_index":12,"time_elapsed":260847,"internal_node_id":"0.0-4.0-1.2","subject_id":"607f367c60fe33f8f18816d1","study_id":"60edd13110225f80f9f3709b","session_id":"6196c707d965ce1e2b690d7b","condition":"contingent","relevant_dimensions":["wings","pattern"],"bee_group":{"antennae":"X","wings":"2","pattern":"D","legs":"X"},"bonus":0.10000000000000109},{"rt":3186,"stimulus":"bees-with-color/bee-B1SF.svg","response":0,"trial_type":"image-button-response","trial_index":13,"time_elapsed":264057,"internal_node_id":"0.0-4.0-0.3","subject_id":"607f367c60fe33f8f18816d1","study_id":"60edd13110225f80f9f3709b","session_id":"6196c707d965ce1e2b690d7b","condition":"contingent","relevant_dimensions":["wings","pattern"],"bee_group":{"antennae":"X","wings":"2","pattern":"D","legs":"X"},"action":"harvest","summary":"good-harvest","bonus":0.10000000000000109},{"rt":2333,"stimulus":"\n                    <p><b>Action: <em>harvest</em></b></p>\n                    <p>This is the bee that you just saw.</p>\n                    <img src=\"bees-with-color/bee-B1SF.svg\" width=\"200\">\n                    <p><span class=\"greenText\"><b>Successful harvest!</b></span><br>Your pay has increased by $0.02. Your bonus pay is now $0.60.</p>\n            ","response":0,"trial_type":"html-button-response","trial_index":14,"time_elapsed":266420,"internal_node_id":"0.0-4.0-1.3","subject_id":"607f367c60fe33f8f18816d1","study_id":"60edd13110225f80f9f3709b","session_id":"6196c707d965ce1e2b690d7b","condition":"contingent","relevant_dimensions":["wings","pattern"],"bee_group":{"antennae":"X","wings":"2","pattern":"D","legs":"X"},"bonus":0.10000000000000109},{"rt":1948,"stimulus":"bees-with-color/bee-B1DF.svg","response":0,"trial_type":"image-button-response","trial_index":15,"time_elapsed":268389,"internal_node_id":"0.0-4.0-0.4","subject_id":"607f367c60fe33f8f18816d1","study_id":"60edd13110225f80f9f3709b","session_id":"6196c707d965ce1e2b690d7b","condition":"contingent","relevant_dimensions":["wings","pattern"],"bee_group":{"antennae":"X","wings":"2","pattern":"D","legs":"X"},"action":"harvest","summary":"good-harvest","bonus":0.10000000000000109},{"rt":3962,"stimulus":"\n                    <p><b>Action: <em>harvest</em></b></p>\n                    <p>This is the bee that you just saw.</p>\n                    <img src=\"bees-with-color/bee-B1DF.svg\" width=\"200\">\n                    <p><span class=\"greenText\"><b>Successful harvest!</b></span><br>Your pay has increased by $0.02. Your bonus pay is now $0.62.</p>\n            ","response":0,"trial_type":"html-button-response","trial_index":16,"time_elapsed":272370,"internal_node_id":"0.0-4.0-1.4","subject_id":"607f367c60fe33f8f18816d1","study_id":"60edd13110225f80f9f3709b","session_id":"6196c707d965ce1e2b690d7b","condition":"contingent","relevant_dimensions":["wings","pattern"],"bee_group":{"antennae":"X","wings":"2","pattern":"D","legs":"X"},"bonus":0.10000000000000109},{"rt":3267,"stimulus":"bees-with-color/bee-B1SM.svg","response":0,"trial_type":"image-button-response","trial_index":17,"time_elapsed":275651,"internal_node_id":"0.0-4.0-0.5","subject_id":"607f367c60fe33f8f18816d1","study_id":"60edd13110225f80f9f3709b","session_id":"6196c707d965ce1e2b690d7b","condition":"contingent","relevant_dimensions":["wings","pattern"],"bee_group":{"antennae":"X","wings":"2","pattern":"D","legs":"X"},"action":"harvest","summary":"good-harvest","bonus":0.10000000000000109},{"rt":7242,"stimulus":"\n                    <p><b>Action: <em>harvest</em></b></p>\n                    <p>This is the bee that you just saw.</p>\n                    <img src=\"bees-with-color/bee-B1SM.svg\" width=\"200\">\n                    <p><span class=\"greenText\"><b>Successful harvest!</b></span><br>Your pay has increased by $0.02. Your bonus pay is now $0.64.</p>\n            ","response":0,"trial_type":"html-button-response","trial_index":18,"time_elapsed":282914,"internal_node_id":"0.0-4.0-1.5","subject_id":"607f367c60fe33f8f18816d1","study_id":"60edd13110225f80f9f3709b","session_id":"6196c707d965ce1e2b690d7b","condition":"contingent","relevant_dimensions":["wings","pattern"],"bee_group":{"antennae":"X","wings":"2","pattern":"D","legs":"X"},"bonus":0.10000000000000109},{"rt":2848,"stimulus":"bees-with-color/bee-A1SF.svg","response":0,"trial_type":"image-button-response","trial_index":19,"time_elapsed":285788,"internal_node_id":"0.0-4.0-0.6","subject_id":"607f367c60fe33f8f18816d1","study_id":"60edd13110225f80f9f3709b","session_id":"6196c707d965ce1e2b690d7b","condition":"contingent","relevant_dimensions":["wings","pattern"],"bee_group":{"antennae":"X","wings":"2","pattern":"D","legs":"X"},"action":"harvest","summary":"good-harvest","bonus":0.10000000000000109},{"rt":2162,"stimulus":"\n                    <p><b>Action: <em>harvest</em></b></p>\n                    <p>This is the bee that you just saw.</p>\n                    <img src=\"bees-with-color/bee-A1SF.svg\" width=\"200\">\n                    <p><span class=\"greenText\"><b>Successful harvest!</b></span><br>Your pay has increased by $0.02. Your bonus pay is now $0.66.</p>\n            ","response":0,"trial_type":"html-button-response","trial_index":20,"time_elapsed":287969,"internal_node_id":"0.0-4.0-1.6","subject_id":"607f367c60fe33f8f18816d1","study_id":"60edd13110225f80f9f3709b","session_id":"6196c707d965ce1e2b690d7b","condition":"contingent","relevant_dimensions":["wings","pattern"],"bee_group":{"antennae":"X","wings":"2","pattern":"D","legs":"X"},"bonus":0.10000000000000109},{"rt":2347,"stimulus":"bees-with-color/bee-A2DM.svg","response":0,"trial_type":"image-button-response","trial_index":21,"time_elapsed":290326,"internal_node_id":"0.0-4.0-0.7","subject_id":"607f367c60fe33f8f18816d1","study_id":"60edd13110225f80f9f3709b","session_id":"6196c707d965ce1e2b690d7b","condition":"contingent","relevant_dimensions":["wings","pattern"],"bee_group":{"antennae":"X","wings":"2","pattern":"D","legs":"X"},"action":"harvest","summary":"bad-harvest","bonus":0.10000000000000109},{"rt":13259,"stimulus":"\n                    <p><b>Action: <em>harvest</em></b></p>\n                    <p>This is the bee that you just saw.</p>\n                    <img src=\"bees-with-color/bee-A2DM.svg\" width=\"200\">\n                    <p><span class=\"redText\">Bad choice, the bee was angry.</span><br><b>You have been stung!</b><br>Your pay has been decreased by $0.10. Your bonus pay is now $0.56.</p>\n            ","response":0,"trial_type":"html-button-response","trial_index":22,"time_elapsed":303613,"internal_node_id":"0.0-4.0-1.7","subject_id":"607f367c60fe33f8f18816d1","study_id":"60edd13110225f80f9f3709b","session_id":"6196c707d965ce1e2b690d7b","condition":"contingent","relevant_dimensions":["wings","pattern"],"bee_group":{"antennae":"X","wings":"2","pattern":"D","legs":"X"},"bonus":0.10000000000000109},{"rt":5037,"stimulus":"bees-with-color/bee-A1DF.svg","response":0,"trial_type":"image-button-response","trial_index":23,"time_elapsed":308711,"internal_node_id":"0.0-4.0-0.8","subject_id":"607f367c60fe33f8f18816d1","study_id":"60edd13110225f80f9f3709b","session_id":"6196c707d965ce1e2b690d7b","condition":"contingent","relevant_dimensions":["wings","pattern"],"bee_group":{"antennae":"X","wings":"2","pattern":"D","legs":"X"},"action":"harvest","summary":"good-harvest","bonus":0.10000000000000109},{"rt":1532,"stimulus":"\n                    <p><b>Action: <em>harvest</em></b></p>\n                    <p>This is the bee that you just saw.</p>\n                    <img src=\"bees-with-color/bee-A1DF.svg\" width=\"200\">\n                    <p><span class=\"greenText\"><b>Successful harvest!</b></span><br>Your pay has increased by $0.02. Your bonus pay is now $0.58.</p>\n            ","response":0,"trial_type":"html-button-response","trial_index":24,"time_elapsed":310262,"internal_node_id":"0.0-4.0-1.8","subject_id":"607f367c60fe33f8f18816d1","study_id":"60edd13110225f80f9f3709b","session_id":"6196c707d965ce1e2b690d7b","condition":"contingent","relevant_dimensions":["wings","pattern"],"bee_group":{"antennae":"X","wings":"2","pattern":"D","legs":"X"},"bonus":0.10000000000000109},{"rt":1977,"stimulus":"bees-with-color/bee-B1DM.svg","response":0,"trial_type":"image-button-response","trial_index":25,"time_elapsed":312274,"internal_node_id":"0.0-4.0-0.9","subject_id":"607f367c60fe33f8f18816d1","study_id":"60edd13110225f80f9f3709b","session_id":"6196c707d965ce1e2b690d7b","condition":"contingent","relevant_dimensions":["wings","pattern"],"bee_group":{"antennae":"X","wings":"2","pattern":"D","legs":"X"},"action":"harvest","summary":"good-harvest","bonus":0.10000000000000109},{"rt":1472,"stimulus":"\n                    <p><b>Action: <em>harvest</em></b></p>\n                    <p>This is the bee that you just saw.</p>\n                    <img src=\"bees-with-color/bee-B1DM.svg\" width=\"200\">\n                    <p><span class=\"greenText\"><b>Successful harvest!</b></span><br>Your pay has increased by $0.02. Your bonus pay is now $0.60.</p>\n            ","response":0,"trial_type":"html-button-response","trial_index":26,"time_elapsed":313764,"internal_node_id":"0.0-4.0-1.9","subject_id":"607f367c60fe33f8f18816d1","study_id":"60edd13110225f80f9f3709b","session_id":"6196c707d965ce1e2b690d7b","condition":"contingent","relevant_dimensions":["wings","pattern"],"bee_group":{"antennae":"X","wings":"2","pattern":"D","legs":"X"},"bonus":0.10000000000000109},{"rt":3255,"stimulus":"bees-with-color/bee-B2DM.svg","response":0,"trial_type":"image-button-response","trial_index":27,"time_elapsed":317034,"internal_node_id":"0.0-4.0-0.10","subject_id":"607f367c60fe33f8f18816d1","study_id":"60edd13110225f80f9f3709b","session_id":"6196c707d965ce1e2b690d7b","condition":"contingent","relevant_dimensions":["wings","pattern"],"bee_group":{"antennae":"X","wings":"2","pattern":"D","legs":"X"},"action":"harvest","summary":"bad-harvest","bonus":0.10000000000000109},{"rt":11869,"stimulus":"\n                    <p><b>Action: <em>harvest</em></b></p>\n                    <p>This is the bee that you just saw.</p>\n                    <img src=\"bees-with-color/bee-B2DM.svg\" width=\"200\">\n                    <p><span class=\"redText\">Bad choice, the bee was angry.</span><br><b>You have been stung!</b><br>Your pay has been decreased by $0.10. Your bonus pay is now $0.50.</p>\n            ","response":0,"trial_type":"html-button-response","trial_index":28,"time_elapsed":328927,"internal_node_id":"0.0-4.0-1.10","subject_id":"607f367c60fe33f8f18816d1","study_id":"60edd13110225f80f9f3709b","session_id":"6196c707d965ce1e2b690d7b","condition":"contingent","relevant_dimensions":["wings","pattern"],"bee_group":{"antennae":"X","wings":"2","pattern":"D","legs":"X"},"bonus":0.10000000000000109},{"rt":5333,"stimulus":"bees-with-color/bee-A2SF.svg","response":0,"trial_type":"image-button-response","trial_index":29,"time_elapsed":334282,"internal_node_id":"0.0-4.0-0.11","subject_id":"607f367c60fe33f8f18816d1","study_id":"60edd13110225f80f9f3709b","session_id":"6196c707d965ce1e2b690d7b","condition":"contingent","relevant_dimensions":["wings","pattern"],"bee_group":{"antennae":"X","wings":"2","pattern":"D","legs":"X"},"action":"harvest","summary":"good-harvest","bonus":0.10000000000000109},{"rt":2583,"stimulus":"\n                    <p><b>Action: <em>harvest</em></b></p>\n                    <p>This is the bee that you just saw.</p>\n                    <img src=\"bees-with-color/bee-A2SF.svg\" width=\"200\">\n                    <p><span class=\"greenText\"><b>Successful harvest!</b></span><br>Your pay has increased by $0.02. Your bonus pay is now $0.52.</p>\n            ","response":0,"trial_type":"html-button-response","trial_index":30,"time_elapsed":336880,"internal_node_id":"0.0-4.0-1.11","subject_id":"607f367c60fe33f8f18816d1","study_id":"60edd13110225f80f9f3709b","session_id":"6196c707d965ce1e2b690d7b","condition":"contingent","relevant_dimensions":["wings","pattern"],"bee_group":{"antennae":"X","wings":"2","pattern":"D","legs":"X"},"bonus":0.10000000000000109},{"rt":6478,"stimulus":"bees-with-color/bee-A2SM.svg","response":0,"trial_type":"image-button-response","trial_index":31,"time_elapsed":343381,"internal_node_id":"0.0-4.0-0.12","subject_id":"607f367c60fe33f8f18816d1","study_id":"60edd13110225f80f9f3709b","session_id":"6196c707d965ce1e2b690d7b","condition":"contingent","relevant_dimensions":["wings","pattern"],"bee_group":{"antennae":"X","wings":"2","pattern":"D","legs":"X"},"action":"harvest","summary":"good-harvest","bonus":0.10000000000000109},{"rt":2172,"stimulus":"\n                    <p><b>Action: <em>harvest</em></b></p>\n                    <p>This is the bee that you just saw.</p>\n                    <img src=\"bees-with-color/bee-A2SM.svg\" width=\"200\">\n                    <p><span class=\"greenText\"><b>Successful harvest!</b></span><br>Your pay has increased by $0.02. Your bonus pay is now $0.54.</p>\n            ","response":0,"trial_type":"html-button-response","trial_index":32,"time_elapsed":345568,"internal_node_id":"0.0-4.0-1.12","subject_id":"607f367c60fe33f8f18816d1","study_id":"60edd13110225f80f9f3709b","session_id":"6196c707d965ce1e2b690d7b","condition":"contingent","relevant_dimensions":["wings","pattern"],"bee_group":{"antennae":"X","wings":"2","pattern":"D","legs":"X"},"bonus":0.10000000000000109},{"rt":1765,"stimulus":"bees-with-color/bee-B2SM.svg","response":0,"trial_type":"image-button-response","trial_index":33,"time_elapsed":347349,"internal_node_id":"0.0-4.0-0.13","subject_id":"607f367c60fe33f8f18816d1","study_id":"60edd13110225f80f9f3709b","session_id":"6196c707d965ce1e2b690d7b","condition":"contingent","relevant_dimensions":["wings","pattern"],"bee_group":{"antennae":"X","wings":"2","pattern":"D","legs":"X"},"action":"harvest","summary":"good-harvest","bonus":0.10000000000000109},{"rt":1594,"stimulus":"\n                    <p><b>Action: <em>harvest</em></b></p>\n                    <p>This is the bee that you just saw.</p>\n                    <img src=\"bees-with-color/bee-B2SM.svg\" width=\"200\">\n                    <p><span class=\"greenText\"><b>Successful harvest!</b></span><br>Your pay has increased by $0.02. Your bonus pay is now $0.56.</p>\n            ","response":0,"trial_type":"html-button-response","trial_index":34,"time_elapsed":348964,"internal_node_id":"0.0-4.0-1.13","subject_id":"607f367c60fe33f8f18816d1","study_id":"60edd13110225f80f9f3709b","session_id":"6196c707d965ce1e2b690d7b","condition":"contingent","relevant_dimensions":["wings","pattern"],"bee_group":{"antennae":"X","wings":"2","pattern":"D","legs":"X"},"bonus":0.10000000000000109},{"rt":5915,"stimulus":"bees-with-color/bee-A1DM.svg","response":0,"trial_type":"image-button-response","trial_index":35,"time_elapsed":354896,"internal_node_id":"0.0-4.0-0.14","subject_id":"607f367c60fe33f8f18816d1","study_id":"60edd13110225f80f9f3709b","session_id":"6196c707d965ce1e2b690d7b","condition":"contingent","relevant_dimensions":["wings","pattern"],"bee_group":{"antennae":"X","wings":"2","pattern":"D","legs":"X"},"action":"harvest","summary":"good-harvest","bonus":0.10000000000000109},{"rt":3438,"stimulus":"\n                    <p><b>Action: <em>harvest</em></b></p>\n                    <p>This is the bee that you just saw.</p>\n                    <img src=\"bees-with-color/bee-A1DM.svg\" width=\"200\">\n                    <p><span class=\"greenText\"><b>Successful harvest!</b></span><br>Your pay has increased by $0.02. Your bonus pay is now $0.58.</p>\n            ","response":0,"trial_type":"html-button-response","trial_index":36,"time_elapsed":358358,"internal_node_id":"0.0-4.0-1.14","subject_id":"607f367c60fe33f8f18816d1","study_id":"60edd13110225f80f9f3709b","session_id":"6196c707d965ce1e2b690d7b","condition":"contingent","relevant_dimensions":["wings","pattern"],"bee_group":{"antennae":"X","wings":"2","pattern":"D","legs":"X"},"bonus":0.10000000000000109},{"rt":3363,"stimulus":"bees-with-color/bee-A2DF.svg","response":0,"trial_type":"image-button-response","trial_index":37,"time_elapsed":361741,"internal_node_id":"0.0-4.0-0.15","subject_id":"607f367c60fe33f8f18816d1","study_id":"60edd13110225f80f9f3709b","session_id":"6196c707d965ce1e2b690d7b","condition":"contingent","relevant_dimensions":["wings","pattern"],"bee_group":{"antennae":"X","wings":"2","pattern":"D","legs":"X"},"action":"harvest","summary":"bad-harvest","bonus":0.10000000000000109},{"rt":3261,"stimulus":"\n                    <p><b>Action: <em>harvest</em></b></p>\n                    <p>This is the bee that you just saw.</p>\n                    <img src=\"bees-with-color/bee-A2DF.svg\" width=\"200\">\n                    <p><span class=\"redText\">Bad choice, the bee was angry.</span><br><b>You have been stung!</b><br>Your pay has been decreased by $0.10. Your bonus pay is now $0.48.</p>\n            ","response":0,"trial_type":"html-button-response","trial_index":38,"time_elapsed":365020,"internal_node_id":"0.0-4.0-1.15","subject_id":"607f367c60fe33f8f18816d1","study_id":"60edd13110225f80f9f3709b","session_id":"6196c707d965ce1e2b690d7b","condition":"contingent","relevant_dimensions":["wings","pattern"],"bee_group":{"antennae":"X","wings":"2","pattern":"D","legs":"X"},"bonus":0.10000000000000109},{"rt":2200,"stimulus":"bees-with-color/bee-B1SM.svg","response":0,"trial_type":"image-button-response","trial_index":39,"time_elapsed":367237,"internal_node_id":"0.0-4.0-0.16","subject_id":"607f367c60fe33f8f18816d1","study_id":"60edd13110225f80f9f3709b","session_id":"6196c707d965ce1e2b690d7b","condition":"contingent","relevant_dimensions":["wings","pattern"],"bee_group":{"antennae":"X","wings":"2","pattern":"D","legs":"X"},"action":"harvest","summary":"good-harvest","bonus":0.10000000000000109},{"rt":2511,"stimulus":"\n                    <p><b>Action: <em>harvest</em></b></p>\n                    <p>This is the bee that you just saw.</p>\n                    <img src=\"bees-with-color/bee-B1SM.svg\" width=\"200\">\n                    <p><span class=\"greenText\"><b>Successful harvest!</b></span><br>Your pay has increased by $0.02. Your bonus pay is now $0.50.</p>\n            ","response":0,"trial_type":"html-button-response","trial_index":40,"time_elapsed":369774,"internal_node_id":"0.0-4.0-1.16","subject_id":"607f367c60fe33f8f18816d1","study_id":"60edd13110225f80f9f3709b","session_id":"6196c707d965ce1e2b690d7b","condition":"contingent","relevant_dimensions":["wings","pattern"],"bee_group":{"antennae":"X","wings":"2","pattern":"D","legs":"X"},"bonus":0.10000000000000109},{"rt":1891,"stimulus":"bees-with-color/bee-A1DF.svg","response":0,"trial_type":"image-button-response","trial_index":41,"time_elapsed":371686,"internal_node_id":"0.0-4.0-0.17","subject_id":"607f367c60fe33f8f18816d1","study_id":"60edd13110225f80f9f3709b","session_id":"6196c707d965ce1e2b690d7b","condition":"contingent","relevant_dimensions":["wings","pattern"],"bee_group":{"antennae":"X","wings":"2","pattern":"D","legs":"X"},"action":"harvest","summary":"good-harvest","bonus":0.10000000000000109},{"rt":2139,"stimulus":"\n                    <p><b>Action: <em>harvest</em></b></p>\n                    <p>This is the bee that you just saw.</p>\n                    <img src=\"bees-with-color/bee-A1DF.svg\" width=\"200\">\n                    <p><span class=\"greenText\"><b>Successful harvest!</b></span><br>Your pay has increased by $0.02. Your bonus pay is now $0.52.</p>\n            ","response":0,"trial_type":"html-button-response","trial_index":42,"time_elapsed":373866,"internal_node_id":"0.0-4.0-1.17","subject_id":"607f367c60fe33f8f18816d1","study_id":"60edd13110225f80f9f3709b","session_id":"6196c707d965ce1e2b690d7b","condition":"contingent","relevant_dimensions":["wings","pattern"],"bee_group":{"antennae":"X","wings":"2","pattern":"D","legs":"X"},"bonus":0.10000000000000109},{"rt":2013,"stimulus":"bees-with-color/bee-A1DM.svg","response":1,"trial_type":"image-button-response","trial_index":43,"time_elapsed":375904,"internal_node_id":"0.0-4.0-0.18","subject_id":"607f367c60fe33f8f18816d1","study_id":"60edd13110225f80f9f3709b","session_id":"6196c707d965ce1e2b690d7b","condition":"contingent","relevant_dimensions":["wings","pattern"],"bee_group":{"antennae":"X","wings":"2","pattern":"D","legs":"X"},"action":"avoid","summary":"bad-avoid","bonus":0.10000000000000109},{"rt":2804,"stimulus":"\n                    <p><b>Action: <em>avoid</em></b></p>\n                    <p>This is the bee that you just saw.</p>\n                    <img src=\"bees-with-color/bee-A1DM.svg\" width=\"200\">\n                    <p><br>Your bonus pay is unchanged, and remains at $0.52.</p>\n            ","response":0,"trial_type":"html-button-response","trial_index":44,"time_elapsed":378741,"internal_node_id":"0.0-4.0-1.18","subject_id":"607f367c60fe33f8f18816d1","study_id":"60edd13110225f80f9f3709b","session_id":"6196c707d965ce1e2b690d7b","condition":"contingent","relevant_dimensions":["wings","pattern"],"bee_group":{"antennae":"X","wings":"2","pattern":"D","legs":"X"},"bonus":0.10000000000000109},{"rt":3273,"stimulus":"bees-with-color/bee-A2DF.svg","response":0,"trial_type":"image-button-response","trial_index":45,"time_elapsed":382035,"internal_node_id":"0.0-4.0-0.19","subject_id":"607f367c60fe33f8f18816d1","study_id":"60edd13110225f80f9f3709b","session_id":"6196c707d965ce1e2b690d7b","condition":"contingent","relevant_dimensions":["wings","pattern"],"bee_group":{"antennae":"X","wings":"2","pattern":"D","legs":"X"},"action":"harvest","summary":"bad-harvest","bonus":0.10000000000000109},{"rt":10357,"stimulus":"\n                    <p><b>Action: <em>harvest</em></b></p>\n                    <p>This is the bee that you just saw.</p>\n                    <img src=\"bees-with-color/bee-A2DF.svg\" width=\"200\">\n                    <p><span class=\"redText\">Bad choice, the bee was angry.</span><br><b>You have been stung!</b><br>Your pay has been decreased by $0.10. Your bonus pay is now $0.42.</p>\n            ","response":0,"trial_type":"html-button-response","trial_index":46,"time_elapsed":392413,"internal_node_id":"0.0-4.0-1.19","subject_id":"607f367c60fe33f8f18816d1","study_id":"60edd13110225f80f9f3709b","session_id":"6196c707d965ce1e2b690d7b","condition":"contingent","relevant_dimensions":["wings","pattern"],"bee_group":{"antennae":"X","wings":"2","pattern":"D","legs":"X"},"bonus":0.10000000000000109},{"rt":2709,"stimulus":"bees-with-color/bee-B2DF.svg","response":0,"trial_type":"image-button-response","trial_index":47,"time_elapsed":395144,"internal_node_id":"0.0-4.0-0.20","subject_id":"607f367c60fe33f8f18816d1","study_id":"60edd13110225f80f9f3709b","session_id":"6196c707d965ce1e2b690d7b","condition":"contingent","relevant_dimensions":["wings","pattern"],"bee_group":{"antennae":"X","wings":"2","pattern":"D","legs":"X"},"action":"harvest","summary":"bad-harvest","bonus":0.10000000000000109},{"rt":3300,"stimulus":"\n                    <p><b>Action: <em>harvest</em></b></p>\n                    <p>This is the bee that you just saw.</p>\n                    <img src=\"bees-with-color/bee-B2DF.svg\" width=\"200\">\n                    <p><span class=\"redText\">Bad choice, the bee was angry.</span><br><b>You have been stung!</b><br>Your pay has been decreased by $0.10. Your bonus pay is now $0.32.</p>\n            ","response":0,"trial_type":"html-button-response","trial_index":48,"time_elapsed":398465,"internal_node_id":"0.0-4.0-1.20","subject_id":"607f367c60fe33f8f18816d1","study_id":"60edd13110225f80f9f3709b","session_id":"6196c707d965ce1e2b690d7b","condition":"contingent","relevant_dimensions":["wings","pattern"],"bee_group":{"antennae":"X","wings":"2","pattern":"D","legs":"X"},"bonus":0.10000000000000109},{"rt":3220,"stimulus":"bees-with-color/bee-B1DM.svg","response":1,"trial_type":"image-button-response","trial_index":49,"time_elapsed":401704,"internal_node_id":"0.0-4.0-0.21","subject_id":"607f367c60fe33f8f18816d1","study_id":"60edd13110225f80f9f3709b","session_id":"6196c707d965ce1e2b690d7b","condition":"contingent","relevant_dimensions":["wings","pattern"],"bee_group":{"antennae":"X","wings":"2","pattern":"D","legs":"X"},"action":"avoid","summary":"bad-avoid","bonus":0.10000000000000109},{"rt":1719,"stimulus":"\n                    <p><b>Action: <em>avoid</em></b></p>\n                    <p>This is the bee that you just saw.</p>\n                    <img src=\"bees-with-color/bee-B1DM.svg\" width=\"200\">\n                    <p><br>Your bonus pay is unchanged, and remains at $0.32.</p>\n            ","response":0,"trial_type":"html-button-response","trial_index":50,"time_elapsed":403448,"internal_node_id":"0.0-4.0-1.21","subject_id":"607f367c60fe33f8f18816d1","study_id":"60edd13110225f80f9f3709b","session_id":"6196c707d965ce1e2b690d7b","condition":"contingent","relevant_dimensions":["wings","pattern"],"bee_group":{"antennae":"X","wings":"2","pattern":"D","legs":"X"},"bonus":0.10000000000000109},{"rt":1382,"stimulus":"bees-with-color/bee-A1SM.svg","response":0,"trial_type":"image-button-response","trial_index":51,"time_elapsed":404849,"internal_node_id":"0.0-4.0-0.22","subject_id":"607f367c60fe33f8f18816d1","study_id":"60edd13110225f80f9f3709b","session_id":"6196c707d965ce1e2b690d7b","condition":"contingent","relevant_dimensions":["wings","pattern"],"bee_group":{"antennae":"X","wings":"2","pattern":"D","legs":"X"},"action":"harvest","summary":"good-harvest","bonus":0.10000000000000109},{"rt":1289,"stimulus":"\n                    <p><b>Action: <em>harvest</em></b></p>\n                    <p>This is the bee that you just saw.</p>\n                    <img src=\"bees-with-color/bee-A1SM.svg\" width=\"200\">\n                    <p><span class=\"greenText\"><b>Successful harvest!</b></span><br>Your pay has increased by $0.02. Your bonus pay is now $0.34.</p>\n            ","response":0,"trial_type":"html-button-response","trial_index":52,"time_elapsed":406156,"internal_node_id":"0.0-4.0-1.22","subject_id":"607f367c60fe33f8f18816d1","study_id":"60edd13110225f80f9f3709b","session_id":"6196c707d965ce1e2b690d7b","condition":"contingent","relevant_dimensions":["wings","pattern"],"bee_group":{"antennae":"X","wings":"2","pattern":"D","legs":"X"},"bonus":0.10000000000000109},{"rt":1563,"stimulus":"bees-with-color/bee-B2SM.svg","response":0,"trial_type":"image-button-response","trial_index":53,"time_elapsed":407730,"internal_node_id":"0.0-4.0-0.23","subject_id":"607f367c60fe33f8f18816d1","study_id":"60edd13110225f80f9f3709b","session_id":"6196c707d965ce1e2b690d7b","condition":"contingent","relevant_dimensions":["wings","pattern"],"bee_group":{"antennae":"X","wings":"2","pattern":"D","legs":"X"},"action":"harvest","summary":"good-harvest","bonus":0.10000000000000109},{"rt":1302,"stimulus":"\n                    <p><b>Action: <em>harvest</em></b></p>\n                    <p>This is the bee that you just saw.</p>\n                    <img src=\"bees-with-color/bee-B2SM.svg\" width=\"200\">\n                    <p><span class=\"greenText\"><b>Successful harvest!</b></span><br>Your pay has increased by $0.02. Your bonus pay is now $0.36.</p>\n            ","response":0,"trial_type":"html-button-response","trial_index":54,"time_elapsed":409048,"internal_node_id":"0.0-4.0-1.23","subject_id":"607f367c60fe33f8f18816d1","study_id":"60edd13110225f80f9f3709b","session_id":"6196c707d965ce1e2b690d7b","condition":"contingent","relevant_dimensions":["wings","pattern"],"bee_group":{"antennae":"X","wings":"2","pattern":"D","legs":"X"},"bonus":0.10000000000000109},{"rt":1469,"stimulus":"bees-with-color/bee-B1SF.svg","response":0,"trial_type":"image-button-response","trial_index":55,"time_elapsed":410537,"internal_node_id":"0.0-4.0-0.24","subject_id":"607f367c60fe33f8f18816d1","study_id":"60edd13110225f80f9f3709b","session_id":"6196c707d965ce1e2b690d7b","condition":"contingent","relevant_dimensions":["wings","pattern"],"bee_group":{"antennae":"X","wings":"2","pattern":"D","legs":"X"},"action":"harvest","summary":"good-harvest","bonus":0.10000000000000109},{"rt":1425,"stimulus":"\n                    <p><b>Action: <em>harvest</em></b></p>\n                    <p>This is the bee that you just saw.</p>\n                    <img src=\"bees-with-color/bee-B1SF.svg\" width=\"200\">\n                    <p><span class=\"greenText\"><b>Successful harvest!</b></span><br>Your pay has increased by $0.02. Your bonus pay is now $0.38.</p>\n            ","response":0,"trial_type":"html-button-response","trial_index":56,"time_elapsed":411997,"internal_node_id":"0.0-4.0-1.24","subject_id":"607f367c60fe33f8f18816d1","study_id":"60edd13110225f80f9f3709b","session_id":"6196c707d965ce1e2b690d7b","condition":"contingent","relevant_dimensions":["wings","pattern"],"bee_group":{"antennae":"X","wings":"2","pattern":"D","legs":"X"},"bonus":0.10000000000000109},{"rt":2939,"stimulus":"bees-with-color/bee-A2SM.svg","response":1,"trial_type":"image-button-response","trial_index":57,"time_elapsed":414954,"internal_node_id":"0.0-4.0-0.25","subject_id":"607f367c60fe33f8f18816d1","study_id":"60edd13110225f80f9f3709b","session_id":"6196c707d965ce1e2b690d7b","condition":"contingent","relevant_dimensions":["wings","pattern"],"bee_group":{"antennae":"X","wings":"2","pattern":"D","legs":"X"},"action":"avoid","summary":"bad-avoid","bonus":0.10000000000000109},{"rt":2055,"stimulus":"\n                    <p><b>Action: <em>avoid</em></b></p>\n                    <p>This is the bee that you just saw.</p>\n                    <img src=\"bees-with-color/bee-A2SM.svg\" width=\"200\">\n                    <p><br>Your bonus pay is unchanged, and remains at $0.38.</p>\n            ","response":0,"trial_type":"html-button-response","trial_index":58,"time_elapsed":417027,"internal_node_id":"0.0-4.0-1.25","subject_id":"607f367c60fe33f8f18816d1","study_id":"60edd13110225f80f9f3709b","session_id":"6196c707d965ce1e2b690d7b","condition":"contingent","relevant_dimensions":["wings","pattern"],"bee_group":{"antennae":"X","wings":"2","pattern":"D","legs":"X"},"bonus":0.10000000000000109},{"rt":1938,"stimulus":"bees-with-color/bee-B2DM.svg","response":1,"trial_type":"image-button-response","trial_index":59,"time_elapsed":418976,"internal_node_id":"0.0-4.0-0.26","subject_id":"607f367c60fe33f8f18816d1","study_id":"60edd13110225f80f9f3709b","session_id":"6196c707d965ce1e2b690d7b","condition":"contingent","relevant_dimensions":["wings","pattern"],"bee_group":{"antennae":"X","wings":"2","pattern":"D","legs":"X"},"action":"avoid","summary":"good-avoid","bonus":0.10000000000000109},{"rt":1686,"stimulus":"\n                    <p><b>Action: <em>avoid</em></b></p>\n                    <p>This is the bee that you just saw.</p>\n                    <img src=\"bees-with-color/bee-B2DM.svg\" width=\"200\">\n                    <p><br>Your bonus pay is unchanged, and remains at $0.38.</p>\n            ","response":0,"trial_type":"html-button-response","trial_index":60,"time_elapsed":420677,"internal_node_id":"0.0-4.0-1.26","subject_id":"607f367c60fe33f8f18816d1","study_id":"60edd13110225f80f9f3709b","session_id":"6196c707d965ce1e2b690d7b","condition":"contingent","relevant_dimensions":["wings","pattern"],"bee_group":{"antennae":"X","wings":"2","pattern":"D","legs":"X"},"bonus":0.10000000000000109},{"rt":1408,"stimulus":"bees-with-color/bee-A2DM.svg","response":1,"trial_type":"image-button-response","trial_index":61,"time_elapsed":422098,"internal_node_id":"0.0-4.0-0.27","subject_id":"607f367c60fe33f8f18816d1","study_id":"60edd13110225f80f9f3709b","session_id":"6196c707d965ce1e2b690d7b","condition":"contingent","relevant_dimensions":["wings","pattern"],"bee_group":{"antennae":"X","wings":"2","pattern":"D","legs":"X"},"action":"avoid","summary":"good-avoid","bonus":0.10000000000000109},{"rt":1284,"stimulus":"\n                    <p><b>Action: <em>avoid</em></b></p>\n                    <p>This is the bee that you just saw.</p>\n                    <img src=\"bees-with-color/bee-A2DM.svg\" width=\"200\">\n                    <p><br>Your bonus pay is unchanged, and remains at $0.38.</p>\n            ","response":0,"trial_type":"html-button-response","trial_index":62,"time_elapsed":423407,"internal_node_id":"0.0-4.0-1.27","subject_id":"607f367c60fe33f8f18816d1","study_id":"60edd13110225f80f9f3709b","session_id":"6196c707d965ce1e2b690d7b","condition":"contingent","relevant_dimensions":["wings","pattern"],"bee_group":{"antennae":"X","wings":"2","pattern":"D","legs":"X"},"bonus":0.10000000000000109},{"rt":3755,"stimulus":"bees-with-color/bee-B1DF.svg","response":0,"trial_type":"image-button-response","trial_index":63,"time_elapsed":427178,"internal_node_id":"0.0-4.0-0.28","subject_id":"607f367c60fe33f8f18816d1","study_id":"60edd13110225f80f9f3709b","session_id":"6196c707d965ce1e2b690d7b","condition":"contingent","relevant_dimensions":["wings","pattern"],"bee_group":{"antennae":"X","wings":"2","pattern":"D","legs":"X"},"action":"harvest","summary":"good-harvest","bonus":0.10000000000000109},{"rt":1575,"stimulus":"\n                    <p><b>Action: <em>harvest</em></b></p>\n                    <p>This is the bee that you just saw.</p>\n                    <img src=\"bees-with-color/bee-B1DF.svg\" width=\"200\">\n                    <p><span class=\"greenText\"><b>Successful harvest!</b></span><br>Your pay has increased by $0.02. Your bonus pay is now $0.40.</p>\n            ","response":0,"trial_type":"html-button-response","trial_index":64,"time_elapsed":428770,"internal_node_id":"0.0-4.0-1.28","subject_id":"607f367c60fe33f8f18816d1","study_id":"60edd13110225f80f9f3709b","session_id":"6196c707d965ce1e2b690d7b","condition":"contingent","relevant_dimensions":["wings","pattern"],"bee_group":{"antennae":"X","wings":"2","pattern":"D","legs":"X"},"bonus":0.10000000000000109},{"rt":1778,"stimulus":"bees-with-color/bee-A1SF.svg","response":0,"trial_type":"image-button-response","trial_index":65,"time_elapsed":430567,"internal_node_id":"0.0-4.0-0.29","subject_id":"607f367c60fe33f8f18816d1","study_id":"60edd13110225f80f9f3709b","session_id":"6196c707d965ce1e2b690d7b","condition":"contingent","relevant_dimensions":["wings","pattern"],"bee_group":{"antennae":"X","wings":"2","pattern":"D","legs":"X"},"action":"harvest","summary":"good-harvest","bonus":0.10000000000000109},{"rt":1503,"stimulus":"\n                    <p><b>Action: <em>harvest</em></b></p>\n                    <p>This is the bee that you just saw.</p>\n                    <img src=\"bees-with-color/bee-A1SF.svg\" width=\"200\">\n                    <p><span class=\"greenText\"><b>Successful harvest!</b></span><br>Your pay has increased by $0.02. Your bonus pay is now $0.42.</p>\n            ","response":0,"trial_type":"html-button-response","trial_index":66,"time_elapsed":432098,"internal_node_id":"0.0-4.0-1.29","subject_id":"607f367c60fe33f8f18816d1","study_id":"60edd13110225f80f9f3709b","session_id":"6196c707d965ce1e2b690d7b","condition":"contingent","relevant_dimensions":["wings","pattern"],"bee_group":{"antennae":"X","wings":"2","pattern":"D","legs":"X"},"bonus":0.10000000000000109},{"rt":1331,"stimulus":"bees-with-color/bee-A2SF.svg","response":0,"trial_type":"image-button-response","trial_index":67,"time_elapsed":433450,"internal_node_id":"0.0-4.0-0.30","subject_id":"607f367c60fe33f8f18816d1","study_id":"60edd13110225f80f9f3709b","session_id":"6196c707d965ce1e2b690d7b","condition":"contingent","relevant_dimensions":["wings","pattern"],"bee_group":{"antennae":"X","wings":"2","pattern":"D","legs":"X"},"action":"harvest","summary":"good-harvest","bonus":0.10000000000000109},{"rt":1546,"stimulus":"\n                    <p><b>Action: <em>harvest</em></b></p>\n                    <p>This is the bee that you just saw.</p>\n                    <img src=\"bees-with-color/bee-A2SF.svg\" width=\"200\">\n                    <p><span class=\"greenText\"><b>Successful harvest!</b></span><br>Your pay has increased by $0.02. Your bonus pay is now $0.44.</p>\n            ","response":0,"trial_type":"html-button-response","trial_index":68,"time_elapsed":435015,"internal_node_id":"0.0-4.0-1.30","subject_id":"607f367c60fe33f8f18816d1","study_id":"60edd13110225f80f9f3709b","session_id":"6196c707d965ce1e2b690d7b","condition":"contingent","relevant_dimensions":["wings","pattern"],"bee_group":{"antennae":"X","wings":"2","pattern":"D","legs":"X"},"bonus":0.10000000000000109},{"rt":1609,"stimulus":"bees-with-color/bee-B2SF.svg","response":0,"trial_type":"image-button-response","trial_index":69,"time_elapsed":436656,"internal_node_id":"0.0-4.0-0.31","subject_id":"607f367c60fe33f8f18816d1","study_id":"60edd13110225f80f9f3709b","session_id":"6196c707d965ce1e2b690d7b","condition":"contingent","relevant_dimensions":["wings","pattern"],"bee_group":{"antennae":"X","wings":"2","pattern":"D","legs":"X"},"action":"harvest","summary":"good-harvest","bonus":0.10000000000000109},{"rt":1503,"stimulus":"\n                    <p><b>Action: <em>harvest</em></b></p>\n                    <p>This is the bee that you just saw.</p>\n                    <img src=\"bees-with-color/bee-B2SF.svg\" width=\"200\">\n                    <p><span class=\"greenText\"><b>Successful harvest!</b></span><br>Your pay has increased by $0.02. Your bonus pay is now $0.46.</p>\n            ","response":0,"trial_type":"html-button-response","trial_index":70,"time_elapsed":438236,"internal_node_id":"0.0-4.0-1.31","subject_id":"607f367c60fe33f8f18816d1","study_id":"60edd13110225f80f9f3709b","session_id":"6196c707d965ce1e2b690d7b","condition":"contingent","relevant_dimensions":["wings","pattern"],"bee_group":{"antennae":"X","wings":"2","pattern":"D","legs":"X"},"bonus":0.10000000000000109},{"rt":1577,"stimulus":"bees-with-color/bee-A1SF.svg","response":0,"trial_type":"image-button-response","trial_index":71,"time_elapsed":439854,"internal_node_id":"0.0-4.0-0.32","subject_id":"607f367c60fe33f8f18816d1","study_id":"60edd13110225f80f9f3709b","session_id":"6196c707d965ce1e2b690d7b","condition":"contingent","relevant_dimensions":["wings","pattern"],"bee_group":{"antennae":"X","wings":"2","pattern":"D","legs":"X"},"action":"harvest","summary":"good-harvest","bonus":0.10000000000000109},{"rt":1647,"stimulus":"\n                    <p><b>Action: <em>harvest</em></b></p>\n                    <p>This is the bee that you just saw.</p>\n                    <img src=\"bees-with-color/bee-A1SF.svg\" width=\"200\">\n                    <p><span class=\"greenText\"><b>Successful harvest!</b></span><br>Your pay has increased by $0.02. Your bonus pay is now $0.48.</p>\n            ","response":0,"trial_type":"html-button-response","trial_index":72,"time_elapsed":441511,"internal_node_id":"0.0-4.0-1.32","subject_id":"607f367c60fe33f8f18816d1","study_id":"60edd13110225f80f9f3709b","session_id":"6196c707d965ce1e2b690d7b","condition":"contingent","relevant_dimensions":["wings","pattern"],"bee_group":{"antennae":"X","wings":"2","pattern":"D","legs":"X"},"bonus":0.10000000000000109},{"rt":2186,"stimulus":"bees-with-color/bee-A1DM.svg","response":1,"trial_type":"image-button-response","trial_index":73,"time_elapsed":443714,"internal_node_id":"0.0-4.0-0.33","subject_id":"607f367c60fe33f8f18816d1","study_id":"60edd13110225f80f9f3709b","session_id":"6196c707d965ce1e2b690d7b","condition":"contingent","relevant_dimensions":["wings","pattern"],"bee_group":{"antennae":"X","wings":"2","pattern":"D","legs":"X"},"action":"avoid","summary":"bad-avoid","bonus":0.10000000000000109},{"rt":1594,"stimulus":"\n                    <p><b>Action: <em>avoid</em></b></p>\n                    <p>This is the bee that you just saw.</p>\n                    <img src=\"bees-with-color/bee-A1DM.svg\" width=\"200\">\n                    <p><br>Your bonus pay is unchanged, and remains at $0.48.</p>\n            ","response":0,"trial_type":"html-button-response","trial_index":74,"time_elapsed":445326,"internal_node_id":"0.0-4.0-1.33","subject_id":"607f367c60fe33f8f18816d1","study_id":"60edd13110225f80f9f3709b","session_id":"6196c707d965ce1e2b690d7b","condition":"contingent","relevant_dimensions":["wings","pattern"],"bee_group":{"antennae":"X","wings":"2","pattern":"D","legs":"X"},"bonus":0.10000000000000109},{"rt":4650,"stimulus":"bees-with-color/bee-A1SM.svg","response":1,"trial_type":"image-button-response","trial_index":75,"time_elapsed":449987,"internal_node_id":"0.0-4.0-0.34","subject_id":"607f367c60fe33f8f18816d1","study_id":"60edd13110225f80f9f3709b","session_id":"6196c707d965ce1e2b690d7b","condition":"contingent","relevant_dimensions":["wings","pattern"],"bee_group":{"antennae":"X","wings":"2","pattern":"D","legs":"X"},"action":"avoid","summary":"bad-avoid","bonus":0.10000000000000109},{"rt":1586,"stimulus":"\n                    <p><b>Action: <em>avoid</em></b></p>\n                    <p>This is the bee that you just saw.</p>\n                    <img src=\"bees-with-color/bee-A1SM.svg\" width=\"200\">\n                    <p><br>Your bonus pay is unchanged, and remains at $0.48.</p>\n            ","response":0,"trial_type":"html-button-response","trial_index":76,"time_elapsed":451586,"internal_node_id":"0.0-4.0-1.34","subject_id":"607f367c60fe33f8f18816d1","study_id":"60edd13110225f80f9f3709b","session_id":"6196c707d965ce1e2b690d7b","condition":"contingent","relevant_dimensions":["wings","pattern"],"bee_group":{"antennae":"X","wings":"2","pattern":"D","legs":"X"},"bonus":0.10000000000000109},{"rt":2740,"stimulus":"bees-with-color/bee-A1DF.svg","response":1,"trial_type":"image-button-response","trial_index":77,"time_elapsed":454512,"internal_node_id":"0.0-4.0-0.35","subject_id":"607f367c60fe33f8f18816d1","study_id":"60edd13110225f80f9f3709b","session_id":"6196c707d965ce1e2b690d7b","condition":"contingent","relevant_dimensions":["wings","pattern"],"bee_group":{"antennae":"X","wings":"2","pattern":"D","legs":"X"},"action":"avoid","summary":"bad-avoid","bonus":0.10000000000000109},{"rt":1482,"stimulus":"\n                    <p><b>Action: <em>avoid</em></b></p>\n                    <p>This is the bee that you just saw.</p>\n                    <img src=\"bees-with-color/bee-A1DF.svg\" width=\"200\">\n                    <p><br>Your bonus pay is unchanged, and remains at $0.48.</p>\n            ","response":0,"trial_type":"html-button-response","trial_index":78,"time_elapsed":456007,"internal_node_id":"0.0-4.0-1.35","subject_id":"607f367c60fe33f8f18816d1","study_id":"60edd13110225f80f9f3709b","session_id":"6196c707d965ce1e2b690d7b","condition":"contingent","relevant_dimensions":["wings","pattern"],"bee_group":{"antennae":"X","wings":"2","pattern":"D","legs":"X"},"bonus":0.10000000000000109},{"rt":2259,"stimulus":"bees-with-color/bee-B1DM.svg","response":0,"trial_type":"image-button-response","trial_index":79,"time_elapsed":458283,"internal_node_id":"0.0-4.0-0.36","subject_id":"607f367c60fe33f8f18816d1","study_id":"60edd13110225f80f9f3709b","session_id":"6196c707d965ce1e2b690d7b","condition":"contingent","relevant_dimensions":["wings","pattern"],"bee_group":{"antennae":"X","wings":"2","pattern":"D","legs":"X"},"action":"harvest","summary":"good-harvest","bonus":0.10000000000000109},{"rt":1474,"stimulus":"\n                    <p><b>Action: <em>harvest</em></b></p>\n                    <p>This is the bee that you just saw.</p>\n                    <img src=\"bees-with-color/bee-B1DM.svg\" width=\"200\">\n                    <p><span class=\"greenText\"><b>Successful harvest!</b></span><br>Your pay has increased by $0.02. Your bonus pay is now $0.50.</p>\n            ","response":0,"trial_type":"html-button-response","trial_index":80,"time_elapsed":459780,"internal_node_id":"0.0-4.0-1.36","subject_id":"607f367c60fe33f8f18816d1","study_id":"60edd13110225f80f9f3709b","session_id":"6196c707d965ce1e2b690d7b","condition":"contingent","relevant_dimensions":["wings","pattern"],"bee_group":{"antennae":"X","wings":"2","pattern":"D","legs":"X"},"bonus":0.10000000000000109},{"rt":1668,"stimulus":"bees-with-color/bee-B2DM.svg","response":0,"trial_type":"image-button-response","trial_index":81,"time_elapsed":461470,"internal_node_id":"0.0-4.0-0.37","subject_id":"607f367c60fe33f8f18816d1","study_id":"60edd13110225f80f9f3709b","session_id":"6196c707d965ce1e2b690d7b","condition":"contingent","relevant_dimensions":["wings","pattern"],"bee_group":{"antennae":"X","wings":"2","pattern":"D","legs":"X"},"action":"harvest","summary":"bad-harvest","bonus":0.10000000000000109},{"rt":1683,"stimulus":"\n                    <p><b>Action: <em>harvest</em></b></p>\n                    <p>This is the bee that you just saw.</p>\n                    <img src=\"bees-with-color/bee-B2DM.svg\" width=\"200\">\n                    <p><span class=\"redText\">Bad choice, the bee was angry.</span><br><b>You have been stung!</b><br>Your pay has been decreased by $0.10. Your bonus pay is now $0.40.</p>\n            ","response":0,"trial_type":"html-button-response","trial_index":82,"time_elapsed":463172,"internal_node_id":"0.0-4.0-1.37","subject_id":"607f367c60fe33f8f18816d1","study_id":"60edd13110225f80f9f3709b","session_id":"6196c707d965ce1e2b690d7b","condition":"contingent","relevant_dimensions":["wings","pattern"],"bee_group":{"antennae":"X","wings":"2","pattern":"D","legs":"X"},"bonus":0.10000000000000109},{"rt":1607,"stimulus":"bees-with-color/bee-A2DM.svg","response":1,"trial_type":"image-button-response","trial_index":83,"time_elapsed":464801,"internal_node_id":"0.0-4.0-0.38","subject_id":"607f367c60fe33f8f18816d1","study_id":"60edd13110225f80f9f3709b","session_id":"6196c707d965ce1e2b690d7b","condition":"contingent","relevant_dimensions":["wings","pattern"],"bee_group":{"antennae":"X","wings":"2","pattern":"D","legs":"X"},"action":"avoid","summary":"good-avoid","bonus":0.10000000000000109},{"rt":1567,"stimulus":"\n                    <p><b>Action: <em>avoid</em></b></p>\n                    <p>This is the bee that you just saw.</p>\n                    <img src=\"bees-with-color/bee-A2DM.svg\" width=\"200\">\n                    <p><br>Your bonus pay is unchanged, and remains at $0.40.</p>\n            ","response":0,"trial_type":"html-button-response","trial_index":84,"time_elapsed":466386,"internal_node_id":"0.0-4.0-1.38","subject_id":"607f367c60fe33f8f18816d1","study_id":"60edd13110225f80f9f3709b","session_id":"6196c707d965ce1e2b690d7b","condition":"contingent","relevant_dimensions":["wings","pattern"],"bee_group":{"antennae":"X","wings":"2","pattern":"D","legs":"X"},"bonus":0.10000000000000109},{"rt":1734,"stimulus":"bees-with-color/bee-B1SM.svg","response":0,"trial_type":"image-button-response","trial_index":85,"time_elapsed":468187,"internal_node_id":"0.0-4.0-0.39","subject_id":"607f367c60fe33f8f18816d1","study_id":"60edd13110225f80f9f3709b","session_id":"6196c707d965ce1e2b690d7b","condition":"contingent","relevant_dimensions":["wings","pattern"],"bee_group":{"antennae":"X","wings":"2","pattern":"D","legs":"X"},"action":"harvest","summary":"good-harvest","bonus":0.10000000000000109},{"rt":1563,"stimulus":"\n                    <p><b>Action: <em>harvest</em></b></p>\n                    <p>This is the bee that you just saw.</p>\n                    <img src=\"bees-with-color/bee-B1SM.svg\" width=\"200\">\n                    <p><span class=\"greenText\"><b>Successful harvest!</b></span><br>Your pay has increased by $0.02. Your bonus pay is now $0.42.</p>\n            ","response":0,"trial_type":"html-button-response","trial_index":86,"time_elapsed":469767,"internal_node_id":"0.0-4.0-1.39","subject_id":"607f367c60fe33f8f18816d1","study_id":"60edd13110225f80f9f3709b","session_id":"6196c707d965ce1e2b690d7b","condition":"contingent","relevant_dimensions":["wings","pattern"],"bee_group":{"antennae":"X","wings":"2","pattern":"D","legs":"X"},"bonus":0.10000000000000109},{"rt":1501,"stimulus":"bees-with-color/bee-B2SM.svg","response":0,"trial_type":"image-button-response","trial_index":87,"time_elapsed":471293,"internal_node_id":"0.0-4.0-0.40","subject_id":"607f367c60fe33f8f18816d1","study_id":"60edd13110225f80f9f3709b","session_id":"6196c707d965ce1e2b690d7b","condition":"contingent","relevant_dimensions":["wings","pattern"],"bee_group":{"antennae":"X","wings":"2","pattern":"D","legs":"X"},"action":"harvest","summary":"good-harvest","bonus":0.10000000000000109},{"rt":1528,"stimulus":"\n                    <p><b>Action: <em>harvest</em></b></p>\n                    <p>This is the bee that you just saw.</p>\n                    <img src=\"bees-with-color/bee-B2SM.svg\" width=\"200\">\n                    <p><span class=\"greenText\"><b>Successful harvest!</b></span><br>Your pay has increased by $0.02. Your bonus pay is now $0.44.</p>\n            ","response":0,"trial_type":"html-button-response","trial_index":88,"time_elapsed":472839,"internal_node_id":"0.0-4.0-1.40","subject_id":"607f367c60fe33f8f18816d1","study_id":"60edd13110225f80f9f3709b","session_id":"6196c707d965ce1e2b690d7b","condition":"contingent","relevant_dimensions":["wings","pattern"],"bee_group":{"antennae":"X","wings":"2","pattern":"D","legs":"X"},"bonus":0.10000000000000109},{"rt":1317,"stimulus":"bees-with-color/bee-B2SF.svg","response":0,"trial_type":"image-button-response","trial_index":89,"time_elapsed":474186,"internal_node_id":"0.0-4.0-0.41","subject_id":"607f367c60fe33f8f18816d1","study_id":"60edd13110225f80f9f3709b","session_id":"6196c707d965ce1e2b690d7b","condition":"contingent","relevant_dimensions":["wings","pattern"],"bee_group":{"antennae":"X","wings":"2","pattern":"D","legs":"X"},"action":"harvest","summary":"good-harvest","bonus":0.10000000000000109},{"rt":1643,"stimulus":"\n                    <p><b>Action: <em>harvest</em></b></p>\n                    <p>This is the bee that you just saw.</p>\n                    <img src=\"bees-with-color/bee-B2SF.svg\" width=\"200\">\n                    <p><span class=\"greenText\"><b>Successful harvest!</b></span><br>Your pay has increased by $0.02. Your bonus pay is now $0.46.</p>\n            ","response":0,"trial_type":"html-button-response","trial_index":90,"time_elapsed":475853,"internal_node_id":"0.0-4.0-1.41","subject_id":"607f367c60fe33f8f18816d1","study_id":"60edd13110225f80f9f3709b","session_id":"6196c707d965ce1e2b690d7b","condition":"contingent","relevant_dimensions":["wings","pattern"],"bee_group":{"antennae":"X","wings":"2","pattern":"D","legs":"X"},"bonus":0.10000000000000109},{"rt":3600,"stimulus":"bees-with-color/bee-B1DF.svg","response":0,"trial_type":"image-button-response","trial_index":91,"time_elapsed":479591,"internal_node_id":"0.0-4.0-0.42","subject_id":"607f367c60fe33f8f18816d1","study_id":"60edd13110225f80f9f3709b","session_id":"6196c707d965ce1e2b690d7b","condition":"contingent","relevant_dimensions":["wings","pattern"],"bee_group":{"antennae":"X","wings":"2","pattern":"D","legs":"X"},"action":"harvest","summary":"good-harvest","bonus":0.10000000000000109},{"rt":2338,"stimulus":"\n                    <p><b>Action: <em>harvest</em></b></p>\n                    <p>This is the bee that you just saw.</p>\n                    <img src=\"bees-with-color/bee-B1DF.svg\" width=\"200\">\n                    <p><span class=\"greenText\"><b>Successful harvest!</b></span><br>Your pay has increased by $0.02. Your bonus pay is now $0.48.</p>\n            ","response":0,"trial_type":"html-button-response","trial_index":92,"time_elapsed":481946,"internal_node_id":"0.0-4.0-1.42","subject_id":"607f367c60fe33f8f18816d1","study_id":"60edd13110225f80f9f3709b","session_id":"6196c707d965ce1e2b690d7b","condition":"contingent","relevant_dimensions":["wings","pattern"],"bee_group":{"antennae":"X","wings":"2","pattern":"D","legs":"X"},"bonus":0.10000000000000109},{"rt":1872,"stimulus":"bees-with-color/bee-A2SF.svg","response":0,"trial_type":"image-button-response","trial_index":93,"time_elapsed":483840,"internal_node_id":"0.0-4.0-0.43","subject_id":"607f367c60fe33f8f18816d1","study_id":"60edd13110225f80f9f3709b","session_id":"6196c707d965ce1e2b690d7b","condition":"contingent","relevant_dimensions":["wings","pattern"],"bee_group":{"antennae":"X","wings":"2","pattern":"D","legs":"X"},"action":"harvest","summary":"good-harvest","bonus":0.10000000000000109},{"rt":1499,"stimulus":"\n                    <p><b>Action: <em>harvest</em></b></p>\n                    <p>This is the bee that you just saw.</p>\n                    <img src=\"bees-with-color/bee-A2SF.svg\" width=\"200\">\n                    <p><span class=\"greenText\"><b>Successful harvest!</b></span><br>Your pay has increased by $0.02. Your bonus pay is now $0.50.</p>\n            ","response":0,"trial_type":"html-button-response","trial_index":94,"time_elapsed":485357,"internal_node_id":"0.0-4.0-1.43","subject_id":"607f367c60fe33f8f18816d1","study_id":"60edd13110225f80f9f3709b","session_id":"6196c707d965ce1e2b690d7b","condition":"contingent","relevant_dimensions":["wings","pattern"],"bee_group":{"antennae":"X","wings":"2","pattern":"D","legs":"X"},"bonus":0.10000000000000109},{"rt":3376,"stimulus":"bees-with-color/bee-A2SM.svg","response":1,"trial_type":"image-button-response","trial_index":95,"time_elapsed":488804,"internal_node_id":"0.0-4.0-0.44","subject_id":"607f367c60fe33f8f18816d1","study_id":"60edd13110225f80f9f3709b","session_id":"6196c707d965ce1e2b690d7b","condition":"contingent","relevant_dimensions":["wings","pattern"],"bee_group":{"antennae":"X","wings":"2","pattern":"D","legs":"X"},"action":"avoid","summary":"bad-avoid","bonus":0.10000000000000109},{"rt":2166,"stimulus":"\n                    <p><b>Action: <em>avoid</em></b></p>\n                    <p>This is the bee that you just saw.</p>\n                    <img src=\"bees-with-color/bee-A2SM.svg\" width=\"200\">\n                    <p><br>Your bonus pay is unchanged, and remains at $0.50.</p>\n            ","response":0,"trial_type":"html-button-response","trial_index":96,"time_elapsed":490993,"internal_node_id":"0.0-4.0-1.44","subject_id":"607f367c60fe33f8f18816d1","study_id":"60edd13110225f80f9f3709b","session_id":"6196c707d965ce1e2b690d7b","condition":"contingent","relevant_dimensions":["wings","pattern"],"bee_group":{"antennae":"X","wings":"2","pattern":"D","legs":"X"},"bonus":0.10000000000000109},{"rt":1558,"stimulus":"bees-with-color/bee-B1SF.svg","response":0,"trial_type":"image-button-response","trial_index":97,"time_elapsed":492573,"internal_node_id":"0.0-4.0-0.45","subject_id":"607f367c60fe33f8f18816d1","study_id":"60edd13110225f80f9f3709b","session_id":"6196c707d965ce1e2b690d7b","condition":"contingent","relevant_dimensions":["wings","pattern"],"bee_group":{"antennae":"X","wings":"2","pattern":"D","legs":"X"},"action":"harvest","summary":"good-harvest","bonus":0.10000000000000109},{"rt":1619,"stimulus":"\n                    <p><b>Action: <em>harvest</em></b></p>\n                    <p>This is the bee that you just saw.</p>\n                    <img src=\"bees-with-color/bee-B1SF.svg\" width=\"200\">\n                    <p><span class=\"greenText\"><b>Successful harvest!</b></span><br>Your pay has increased by $0.02. Your bonus pay is now $0.52.</p>\n            ","response":0,"trial_type":"html-button-response","trial_index":98,"time_elapsed":494203,"internal_node_id":"0.0-4.0-1.45","subject_id":"607f367c60fe33f8f18816d1","study_id":"60edd13110225f80f9f3709b","session_id":"6196c707d965ce1e2b690d7b","condition":"contingent","relevant_dimensions":["wings","pattern"],"bee_group":{"antennae":"X","wings":"2","pattern":"D","legs":"X"},"bonus":0.10000000000000109},{"rt":4980,"stimulus":"bees-with-color/bee-B2DF.svg","response":0,"trial_type":"image-button-response","trial_index":99,"time_elapsed":499202,"internal_node_id":"0.0-4.0-0.46","subject_id":"607f367c60fe33f8f18816d1","study_id":"60edd13110225f80f9f3709b","session_id":"6196c707d965ce1e2b690d7b","condition":"contingent","relevant_dimensions":["wings","pattern"],"bee_group":{"antennae":"X","wings":"2","pattern":"D","legs":"X"},"action":"harvest","summary":"bad-harvest","bonus":0.10000000000000109},{"rt":2323,"stimulus":"\n                    <p><b>Action: <em>harvest</em></b></p>\n                    <p>This is the bee that you just saw.</p>\n                    <img src=\"bees-with-color/bee-B2DF.svg\" width=\"200\">\n                    <p><span class=\"redText\">Bad choice, the bee was angry.</span><br><b>You have been stung!</b><br>Your pay has been decreased by $0.10. Your bonus pay is now $0.42.</p>\n            ","response":0,"trial_type":"html-button-response","trial_index":100,"time_elapsed":501548,"internal_node_id":"0.0-4.0-1.46","subject_id":"607f367c60fe33f8f18816d1","study_id":"60edd13110225f80f9f3709b","session_id":"6196c707d965ce1e2b690d7b","condition":"contingent","relevant_dimensions":["wings","pattern"],"bee_group":{"antennae":"X","wings":"2","pattern":"D","legs":"X"},"bonus":0.10000000000000109},{"rt":2447,"stimulus":"bees-with-color/bee-A2DF.svg","response":1,"trial_type":"image-button-response","trial_index":101,"time_elapsed":504006,"internal_node_id":"0.0-4.0-0.47","subject_id":"607f367c60fe33f8f18816d1","study_id":"60edd13110225f80f9f3709b","session_id":"6196c707d965ce1e2b690d7b","condition":"contingent","relevant_dimensions":["wings","pattern"],"bee_group":{"antennae":"X","wings":"2","pattern":"D","legs":"X"},"action":"avoid","summary":"good-avoid","bonus":0.10000000000000109},{"rt":1869,"stimulus":"\n                    <p><b>Action: <em>avoid</em></b></p>\n                    <p>This is the bee that you just saw.</p>\n                    <img src=\"bees-with-color/bee-A2DF.svg\" width=\"200\">\n                    <p><br>Your bonus pay is unchanged, and remains at $0.42.</p>\n            ","response":0,"trial_type":"html-button-response","trial_index":102,"time_elapsed":505906,"internal_node_id":"0.0-4.0-1.47","subject_id":"607f367c60fe33f8f18816d1","study_id":"60edd13110225f80f9f3709b","session_id":"6196c707d965ce1e2b690d7b","condition":"contingent","relevant_dimensions":["wings","pattern"],"bee_group":{"antennae":"X","wings":"2","pattern":"D","legs":"X"},"bonus":0.10000000000000109},{"rt":1651,"stimulus":"bees-with-color/bee-A1SM.svg","response":0,"trial_type":"image-button-response","trial_index":103,"time_elapsed":507571,"internal_node_id":"0.0-4.0-0.48","subject_id":"607f367c60fe33f8f18816d1","study_id":"60edd13110225f80f9f3709b","session_id":"6196c707d965ce1e2b690d7b","condition":"contingent","relevant_dimensions":["wings","pattern"],"bee_group":{"antennae":"X","wings":"2","pattern":"D","legs":"X"},"action":"harvest","summary":"good-harvest","bonus":0.10000000000000109},{"rt":2860,"stimulus":"\n                    <p><b>Action: <em>harvest</em></b></p>\n                    <p>This is the bee that you just saw.</p>\n                    <img src=\"bees-with-color/bee-A1SM.svg\" width=\"200\">\n                    <p><span class=\"greenText\"><b>Successful harvest!</b></span><br>Your pay has increased by $0.02. Your bonus pay is now $0.44.</p>\n            ","response":0,"trial_type":"html-button-response","trial_index":104,"time_elapsed":510455,"internal_node_id":"0.0-4.0-1.48","subject_id":"607f367c60fe33f8f18816d1","study_id":"60edd13110225f80f9f3709b","session_id":"6196c707d965ce1e2b690d7b","condition":"contingent","relevant_dimensions":["wings","pattern"],"bee_group":{"antennae":"X","wings":"2","pattern":"D","legs":"X"},"bonus":0.10000000000000109},{"rt":1408,"stimulus":"bees-with-color/bee-B1DF.svg","response":1,"trial_type":"image-button-response","trial_index":105,"time_elapsed":511873,"internal_node_id":"0.0-4.0-0.49","subject_id":"607f367c60fe33f8f18816d1","study_id":"60edd13110225f80f9f3709b","session_id":"6196c707d965ce1e2b690d7b","condition":"contingent","relevant_dimensions":["wings","pattern"],"bee_group":{"antennae":"X","wings":"2","pattern":"D","legs":"X"},"action":"avoid","summary":"bad-avoid","bonus":0.10000000000000109},{"rt":1416,"stimulus":"\n                    <p><b>Action: <em>avoid</em></b></p>\n                    <p>This is the bee that you just saw.</p>\n                    <img src=\"bees-with-color/bee-B1DF.svg\" width=\"200\">\n                    <p><br>Your bonus pay is unchanged, and remains at $0.44.</p>\n            ","response":0,"trial_type":"html-button-response","trial_index":106,"time_elapsed":513321,"internal_node_id":"0.0-4.0-1.49","subject_id":"607f367c60fe33f8f18816d1","study_id":"60edd13110225f80f9f3709b","session_id":"6196c707d965ce1e2b690d7b","condition":"contingent","relevant_dimensions":["wings","pattern"],"bee_group":{"antennae":"X","wings":"2","pattern":"D","legs":"X"},"bonus":0.10000000000000109},{"rt":1426,"stimulus":"bees-with-color/bee-A2SM.svg","response":0,"trial_type":"image-button-response","trial_index":107,"time_elapsed":514758,"internal_node_id":"0.0-4.0-0.50","subject_id":"607f367c60fe33f8f18816d1","study_id":"60edd13110225f80f9f3709b","session_id":"6196c707d965ce1e2b690d7b","condition":"contingent","relevant_dimensions":["wings","pattern"],"bee_group":{"antennae":"X","wings":"2","pattern":"D","legs":"X"},"action":"harvest","summary":"good-harvest","bonus":0.10000000000000109},{"rt":1284,"stimulus":"\n                    <p><b>Action: <em>harvest</em></b></p>\n                    <p>This is the bee that you just saw.</p>\n                    <img src=\"bees-with-color/bee-A2SM.svg\" width=\"200\">\n                    <p><span class=\"greenText\"><b>Successful harvest!</b></span><br>Your pay has increased by $0.02. Your bonus pay is now $0.46.</p>\n            ","response":0,"trial_type":"html-button-response","trial_index":108,"time_elapsed":516066,"internal_node_id":"0.0-4.0-1.50","subject_id":"607f367c60fe33f8f18816d1","study_id":"60edd13110225f80f9f3709b","session_id":"6196c707d965ce1e2b690d7b","condition":"contingent","relevant_dimensions":["wings","pattern"],"bee_group":{"antennae":"X","wings":"2","pattern":"D","legs":"X"},"bonus":0.10000000000000109},{"rt":1254,"stimulus":"bees-with-color/bee-B2DF.svg","response":1,"trial_type":"image-button-response","trial_index":109,"time_elapsed":517339,"internal_node_id":"0.0-4.0-0.51","subject_id":"607f367c60fe33f8f18816d1","study_id":"60edd13110225f80f9f3709b","session_id":"6196c707d965ce1e2b690d7b","condition":"contingent","relevant_dimensions":["wings","pattern"],"bee_group":{"antennae":"X","wings":"2","pattern":"D","legs":"X"},"action":"avoid","summary":"good-avoid","bonus":0.10000000000000109},{"rt":1265,"stimulus":"\n                    <p><b>Action: <em>avoid</em></b></p>\n                    <p>This is the bee that you just saw.</p>\n                    <img src=\"bees-with-color/bee-B2DF.svg\" width=\"200\">\n                    <p><br>Your bonus pay is unchanged, and remains at $0.46.</p>\n            ","response":0,"trial_type":"html-button-response","trial_index":110,"time_elapsed":518623,"internal_node_id":"0.0-4.0-1.51","subject_id":"607f367c60fe33f8f18816d1","study_id":"60edd13110225f80f9f3709b","session_id":"6196c707d965ce1e2b690d7b","condition":"contingent","relevant_dimensions":["wings","pattern"],"bee_group":{"antennae":"X","wings":"2","pattern":"D","legs":"X"},"bonus":0.10000000000000109},{"rt":1333,"stimulus":"bees-with-color/bee-A1DM.svg","response":0,"trial_type":"image-button-response","trial_index":111,"time_elapsed":519971,"internal_node_id":"0.0-4.0-0.52","subject_id":"607f367c60fe33f8f18816d1","study_id":"60edd13110225f80f9f3709b","session_id":"6196c707d965ce1e2b690d7b","condition":"contingent","relevant_dimensions":["wings","pattern"],"bee_group":{"antennae":"X","wings":"2","pattern":"D","legs":"X"},"action":"harvest","summary":"good-harvest","bonus":0.10000000000000109},{"rt":12819,"stimulus":"\n                    <p><b>Action: <em>harvest</em></b></p>\n                    <p>This is the bee that you just saw.</p>\n                    <img src=\"bees-with-color/bee-A1DM.svg\" width=\"200\">\n                    <p><span class=\"greenText\"><b>Successful harvest!</b></span><br>Your pay has increased by $0.02. Your bonus pay is now $0.48.</p>\n            ","response":0,"trial_type":"html-button-response","trial_index":112,"time_elapsed":532893,"internal_node_id":"0.0-4.0-1.52","subject_id":"607f367c60fe33f8f18816d1","study_id":"60edd13110225f80f9f3709b","session_id":"6196c707d965ce1e2b690d7b","condition":"contingent","relevant_dimensions":["wings","pattern"],"bee_group":{"antennae":"X","wings":"2","pattern":"D","legs":"X"},"bonus":0.10000000000000109},{"rt":3514,"stimulus":"bees-with-color/bee-B2DM.svg","response":0,"trial_type":"image-button-response","trial_index":113,"time_elapsed":536434,"internal_node_id":"0.0-4.0-0.53","subject_id":"607f367c60fe33f8f18816d1","study_id":"60edd13110225f80f9f3709b","session_id":"6196c707d965ce1e2b690d7b","condition":"contingent","relevant_dimensions":["wings","pattern"],"bee_group":{"antennae":"X","wings":"2","pattern":"D","legs":"X"},"action":"harvest","summary":"bad-harvest","bonus":0.10000000000000109},{"rt":10688,"stimulus":"\n                    <p><b>Action: <em>harvest</em></b></p>\n                    <p>This is the bee that you just saw.</p>\n                    <img src=\"bees-with-color/bee-B2DM.svg\" width=\"200\">\n                    <p><span class=\"redText\">Bad choice, the bee was angry.</span><br><b>You have been stung!</b><br>Your pay has been decreased by $0.10. Your bonus pay is now $0.38.</p>\n            ","response":0,"trial_type":"html-button-response","trial_index":114,"time_elapsed":547140,"internal_node_id":"0.0-4.0-1.53","subject_id":"607f367c60fe33f8f18816d1","study_id":"60edd13110225f80f9f3709b","session_id":"6196c707d965ce1e2b690d7b","condition":"contingent","relevant_dimensions":["wings","pattern"],"bee_group":{"antennae":"X","wings":"2","pattern":"D","legs":"X"},"bonus":0.10000000000000109},{"rt":1507,"stimulus":"bees-with-color/bee-A2SF.svg","response":0,"trial_type":"image-button-response","trial_index":115,"time_elapsed":548663,"internal_node_id":"0.0-4.0-0.54","subject_id":"607f367c60fe33f8f18816d1","study_id":"60edd13110225f80f9f3709b","session_id":"6196c707d965ce1e2b690d7b","condition":"contingent","relevant_dimensions":["wings","pattern"],"bee_group":{"antennae":"X","wings":"2","pattern":"D","legs":"X"},"action":"harvest","summary":"good-harvest","bonus":0.10000000000000109},{"rt":1562,"stimulus":"\n                    <p><b>Action: <em>harvest</em></b></p>\n                    <p>This is the bee that you just saw.</p>\n                    <img src=\"bees-with-color/bee-A2SF.svg\" width=\"200\">\n                    <p><span class=\"greenText\"><b>Successful harvest!</b></span><br>Your pay has increased by $0.02. Your bonus pay is now $0.40.</p>\n            ","response":0,"trial_type":"html-button-response","trial_index":116,"time_elapsed":550248,"internal_node_id":"0.0-4.0-1.54","subject_id":"607f367c60fe33f8f18816d1","study_id":"60edd13110225f80f9f3709b","session_id":"6196c707d965ce1e2b690d7b","condition":"contingent","relevant_dimensions":["wings","pattern"],"bee_group":{"antennae":"X","wings":"2","pattern":"D","legs":"X"},"bonus":0.10000000000000109},{"rt":1551,"stimulus":"bees-with-color/bee-A1DF.svg","response":0,"trial_type":"image-button-response","trial_index":117,"time_elapsed":551834,"internal_node_id":"0.0-4.0-0.55","subject_id":"607f367c60fe33f8f18816d1","study_id":"60edd13110225f80f9f3709b","session_id":"6196c707d965ce1e2b690d7b","condition":"contingent","relevant_dimensions":["wings","pattern"],"bee_group":{"antennae":"X","wings":"2","pattern":"D","legs":"X"},"action":"harvest","summary":"good-harvest","bonus":0.10000000000000109},{"rt":1722,"stimulus":"\n                    <p><b>Action: <em>harvest</em></b></p>\n                    <p>This is the bee that you just saw.</p>\n                    <img src=\"bees-with-color/bee-A1DF.svg\" width=\"200\">\n                    <p><span class=\"greenText\"><b>Successful harvest!</b></span><br>Your pay has increased by $0.02. Your bonus pay is now $0.42.</p>\n            ","response":0,"trial_type":"html-button-response","trial_index":118,"time_elapsed":553598,"internal_node_id":"0.0-4.0-1.55","subject_id":"607f367c60fe33f8f18816d1","study_id":"60edd13110225f80f9f3709b","session_id":"6196c707d965ce1e2b690d7b","condition":"contingent","relevant_dimensions":["wings","pattern"],"bee_group":{"antennae":"X","wings":"2","pattern":"D","legs":"X"},"bonus":0.10000000000000109},{"rt":1590,"stimulus":"bees-with-color/bee-A1SF.svg","response":0,"trial_type":"image-button-response","trial_index":119,"time_elapsed":555205,"internal_node_id":"0.0-4.0-0.56","subject_id":"607f367c60fe33f8f18816d1","study_id":"60edd13110225f80f9f3709b","session_id":"6196c707d965ce1e2b690d7b","condition":"contingent","relevant_dimensions":["wings","pattern"],"bee_group":{"antennae":"X","wings":"2","pattern":"D","legs":"X"},"action":"harvest","summary":"good-harvest","bonus":0.10000000000000109},{"rt":1382,"stimulus":"\n                    <p><b>Action: <em>harvest</em></b></p>\n                    <p>This is the bee that you just saw.</p>\n                    <img src=\"bees-with-color/bee-A1SF.svg\" width=\"200\">\n                    <p><span class=\"greenText\"><b>Successful harvest!</b></span><br>Your pay has increased by $0.02. Your bonus pay is now $0.44.</p>\n            ","response":0,"trial_type":"html-button-response","trial_index":120,"time_elapsed":556611,"internal_node_id":"0.0-4.0-1.56","subject_id":"607f367c60fe33f8f18816d1","study_id":"60edd13110225f80f9f3709b","session_id":"6196c707d965ce1e2b690d7b","condition":"contingent","relevant_dimensions":["wings","pattern"],"bee_group":{"antennae":"X","wings":"2","pattern":"D","legs":"X"},"bonus":0.10000000000000109},{"rt":1749,"stimulus":"bees-with-color/bee-B2SM.svg","response":0,"trial_type":"image-button-response","trial_index":121,"time_elapsed":558384,"internal_node_id":"0.0-4.0-0.57","subject_id":"607f367c60fe33f8f18816d1","study_id":"60edd13110225f80f9f3709b","session_id":"6196c707d965ce1e2b690d7b","condition":"contingent","relevant_dimensions":["wings","pattern"],"bee_group":{"antennae":"X","wings":"2","pattern":"D","legs":"X"},"action":"harvest","summary":"good-harvest","bonus":0.10000000000000109},{"rt":1297,"stimulus":"\n                    <p><b>Action: <em>harvest</em></b></p>\n                    <p>This is the bee that you just saw.</p>\n                    <img src=\"bees-with-color/bee-B2SM.svg\" width=\"200\">\n                    <p><span class=\"greenText\"><b>Successful harvest!</b></span><br>Your pay has increased by $0.02. Your bonus pay is now $0.46.</p>\n            ","response":0,"trial_type":"html-button-response","trial_index":122,"time_elapsed":559708,"internal_node_id":"0.0-4.0-1.57","subject_id":"607f367c60fe33f8f18816d1","study_id":"60edd13110225f80f9f3709b","session_id":"6196c707d965ce1e2b690d7b","condition":"contingent","relevant_dimensions":["wings","pattern"],"bee_group":{"antennae":"X","wings":"2","pattern":"D","legs":"X"},"bonus":0.10000000000000109},{"rt":1444,"stimulus":"bees-with-color/bee-B1SF.svg","response":0,"trial_type":"image-button-response","trial_index":123,"time_elapsed":561225,"internal_node_id":"0.0-4.0-0.58","subject_id":"607f367c60fe33f8f18816d1","study_id":"60edd13110225f80f9f3709b","session_id":"6196c707d965ce1e2b690d7b","condition":"contingent","relevant_dimensions":["wings","pattern"],"bee_group":{"antennae":"X","wings":"2","pattern":"D","legs":"X"},"action":"harvest","summary":"good-harvest","bonus":0.10000000000000109},{"rt":1833,"stimulus":"\n                    <p><b>Action: <em>harvest</em></b></p>\n                    <p>This is the bee that you just saw.</p>\n                    <img src=\"bees-with-color/bee-B1SF.svg\" width=\"200\">\n                    <p><span class=\"greenText\"><b>Successful harvest!</b></span><br>Your pay has increased by $0.02. Your bonus pay is now $0.48.</p>\n            ","response":0,"trial_type":"html-button-response","trial_index":124,"time_elapsed":563078,"internal_node_id":"0.0-4.0-1.58","subject_id":"607f367c60fe33f8f18816d1","study_id":"60edd13110225f80f9f3709b","session_id":"6196c707d965ce1e2b690d7b","condition":"contingent","relevant_dimensions":["wings","pattern"],"bee_group":{"antennae":"X","wings":"2","pattern":"D","legs":"X"},"bonus":0.10000000000000109},{"rt":1599,"stimulus":"bees-with-color/bee-B2SF.svg","response":0,"trial_type":"image-button-response","trial_index":125,"time_elapsed":564727,"internal_node_id":"0.0-4.0-0.59","subject_id":"607f367c60fe33f8f18816d1","study_id":"60edd13110225f80f9f3709b","session_id":"6196c707d965ce1e2b690d7b","condition":"contingent","relevant_dimensions":["wings","pattern"],"bee_group":{"antennae":"X","wings":"2","pattern":"D","legs":"X"},"action":"harvest","summary":"good-harvest","bonus":0.10000000000000109},{"rt":1529,"stimulus":"\n                    <p><b>Action: <em>harvest</em></b></p>\n                    <p>This is the bee that you just saw.</p>\n                    <img src=\"bees-with-color/bee-B2SF.svg\" width=\"200\">\n                    <p><span class=\"greenText\"><b>Successful harvest!</b></span><br>Your pay has increased by $0.02. Your bonus pay is now $0.50.</p>\n            ","response":0,"trial_type":"html-button-response","trial_index":126,"time_elapsed":566279,"internal_node_id":"0.0-4.0-1.59","subject_id":"607f367c60fe33f8f18816d1","study_id":"60edd13110225f80f9f3709b","session_id":"6196c707d965ce1e2b690d7b","condition":"contingent","relevant_dimensions":["wings","pattern"],"bee_group":{"antennae":"X","wings":"2","pattern":"D","legs":"X"},"bonus":0.10000000000000109},{"rt":3434,"stimulus":"bees-with-color/bee-A2DF.svg","response":0,"trial_type":"image-button-response","trial_index":127,"time_elapsed":569723,"internal_node_id":"0.0-4.0-0.60","subject_id":"607f367c60fe33f8f18816d1","study_id":"60edd13110225f80f9f3709b","session_id":"6196c707d965ce1e2b690d7b","condition":"contingent","relevant_dimensions":["wings","pattern"],"bee_group":{"antennae":"X","wings":"2","pattern":"D","legs":"X"},"action":"harvest","summary":"bad-harvest","bonus":0.10000000000000109},{"rt":7615,"stimulus":"\n                    <p><b>Action: <em>harvest</em></b></p>\n                    <p>This is the bee that you just saw.</p>\n                    <img src=\"bees-with-color/bee-A2DF.svg\" width=\"200\">\n                    <p><span class=\"redText\">Bad choice, the bee was angry.</span><br><b>You have been stung!</b><br>Your pay has been decreased by $0.10. Your bonus pay is now $0.40.</p>\n            ","response":0,"trial_type":"html-button-response","trial_index":128,"time_elapsed":577360,"internal_node_id":"0.0-4.0-1.60","subject_id":"607f367c60fe33f8f18816d1","study_id":"60edd13110225f80f9f3709b","session_id":"6196c707d965ce1e2b690d7b","condition":"contingent","relevant_dimensions":["wings","pattern"],"bee_group":{"antennae":"X","wings":"2","pattern":"D","legs":"X"},"bonus":0.10000000000000109},{"rt":1490,"stimulus":"bees-with-color/bee-B1DM.svg","response":0,"trial_type":"image-button-response","trial_index":129,"time_elapsed":578959,"internal_node_id":"0.0-4.0-0.61","subject_id":"607f367c60fe33f8f18816d1","study_id":"60edd13110225f80f9f3709b","session_id":"6196c707d965ce1e2b690d7b","condition":"contingent","relevant_dimensions":["wings","pattern"],"bee_group":{"antennae":"X","wings":"2","pattern":"D","legs":"X"},"action":"harvest","summary":"good-harvest","bonus":0.10000000000000109},{"rt":1478,"stimulus":"\n                    <p><b>Action: <em>harvest</em></b></p>\n                    <p>This is the bee that you just saw.</p>\n                    <img src=\"bees-with-color/bee-B1DM.svg\" width=\"200\">\n                    <p><span class=\"greenText\"><b>Successful harvest!</b></span><br>Your pay has increased by $0.02. Your bonus pay is now $0.42.</p>\n            ","response":0,"trial_type":"html-button-response","trial_index":130,"time_elapsed":580457,"internal_node_id":"0.0-4.0-1.61","subject_id":"607f367c60fe33f8f18816d1","study_id":"60edd13110225f80f9f3709b","session_id":"6196c707d965ce1e2b690d7b","condition":"contingent","relevant_dimensions":["wings","pattern"],"bee_group":{"antennae":"X","wings":"2","pattern":"D","legs":"X"},"bonus":0.10000000000000109},{"rt":1796,"stimulus":"bees-with-color/bee-A2DM.svg","response":0,"trial_type":"image-button-response","trial_index":131,"time_elapsed":582268,"internal_node_id":"0.0-4.0-0.62","subject_id":"607f367c60fe33f8f18816d1","study_id":"60edd13110225f80f9f3709b","session_id":"6196c707d965ce1e2b690d7b","condition":"contingent","relevant_dimensions":["wings","pattern"],"bee_group":{"antennae":"X","wings":"2","pattern":"D","legs":"X"},"action":"harvest","summary":"bad-harvest","bonus":0.10000000000000109},{"rt":18112,"stimulus":"\n                    <p><b>Action: <em>harvest</em></b></p>\n                    <p>This is the bee that you just saw.</p>\n                    <img src=\"bees-with-color/bee-A2DM.svg\" width=\"200\">\n                    <p><span class=\"redText\">Bad choice, the bee was angry.</span><br><b>You have been stung!</b><br>Your pay has been decreased by $0.10. Your bonus pay is now $0.32.</p>\n            ","response":0,"trial_type":"html-button-response","trial_index":132,"time_elapsed":600393,"internal_node_id":"0.0-4.0-1.62","subject_id":"607f367c60fe33f8f18816d1","study_id":"60edd13110225f80f9f3709b","session_id":"6196c707d965ce1e2b690d7b","condition":"contingent","relevant_dimensions":["wings","pattern"],"bee_group":{"antennae":"X","wings":"2","pattern":"D","legs":"X"},"bonus":0.10000000000000109},{"rt":1614,"stimulus":"bees-with-color/bee-B1SM.svg","response":0,"trial_type":"image-button-response","trial_index":133,"time_elapsed":602030,"internal_node_id":"0.0-4.0-0.63","subject_id":"607f367c60fe33f8f18816d1","study_id":"60edd13110225f80f9f3709b","session_id":"6196c707d965ce1e2b690d7b","condition":"contingent","relevant_dimensions":["wings","pattern"],"bee_group":{"antennae":"X","wings":"2","pattern":"D","legs":"X"},"action":"harvest","summary":"good-harvest","bonus":0.10000000000000109},{"rt":1377,"stimulus":"\n                    <p><b>Action: <em>harvest</em></b></p>\n                    <p>This is the bee that you just saw.</p>\n                    <img src=\"bees-with-color/bee-B1SM.svg\" width=\"200\">\n                    <p><span class=\"greenText\"><b>Successful harvest!</b></span><br>Your pay has increased by $0.02. Your bonus pay is now $0.34.</p>\n            ","response":0,"trial_type":"html-button-response","trial_index":134,"time_elapsed":603423,"internal_node_id":"0.0-4.0-1.63","subject_id":"607f367c60fe33f8f18816d1","study_id":"60edd13110225f80f9f3709b","session_id":"6196c707d965ce1e2b690d7b","condition":"contingent","relevant_dimensions":["wings","pattern"],"bee_group":{"antennae":"X","wings":"2","pattern":"D","legs":"X"},"bonus":0.10000000000000109},{"rt":7888,"stimulus":"You have completed the first part of this experiment.<br><br>You will now begin a shorter second part, in which you will receive no feedback.<br>The same rules regarding bonus pay apply.<br><br>Press any key to begin.","response":" ","trial_type":"html-keyboard-response","trial_index":135,"time_elapsed":611323,"internal_node_id":"0.0-5.0","subject_id":"607f367c60fe33f8f18816d1","study_id":"60edd13110225f80f9f3709b","session_id":"6196c707d965ce1e2b690d7b","condition":"contingent","relevant_dimensions":["wings","pattern"],"bee_group":{"antennae":"X","wings":"2","pattern":"D","legs":"X"},"bonus":0.10000000000000109},{"rt":4318,"stimulus":"bees-with-color/bee-A1SM.svg","response":0,"trial_type":"image-button-response","trial_index":136,"time_elapsed":615695,"internal_node_id":"0.0-6.0-0.0","subject_id":"607f367c60fe33f8f18816d1","study_id":"60edd13110225f80f9f3709b","session_id":"6196c707d965ce1e2b690d7b","condition":"contingent","relevant_dimensions":["wings","pattern"],"bee_group":{"antennae":"X","wings":"2","pattern":"D","legs":"X"},"bonus":0.10000000000000109},{"rt":2977,"stimulus":"bees-with-color/bee-B2SM.svg","response":0,"trial_type":"image-button-response","trial_index":137,"time_elapsed":618692,"internal_node_id":"0.0-6.0-0.1","subject_id":"607f367c60fe33f8f18816d1","study_id":"60edd13110225f80f9f3709b","session_id":"6196c707d965ce1e2b690d7b","condition":"contingent","relevant_dimensions":["wings","pattern"],"bee_group":{"antennae":"X","wings":"2","pattern":"D","legs":"X"},"bonus":0.10000000000000109},{"rt":4560,"stimulus":"bees-with-color/bee-A2SM.svg","response":0,"trial_type":"image-button-response","trial_index":138,"time_elapsed":623277,"internal_node_id":"0.0-6.0-0.2","subject_id":"607f367c60fe33f8f18816d1","study_id":"60edd13110225f80f9f3709b","session_id":"6196c707d965ce1e2b690d7b","condition":"contingent","relevant_dimensions":["wings","pattern"],"bee_group":{"antennae":"X","wings":"2","pattern":"D","legs":"X"},"bonus":0.10000000000000109},{"rt":6567,"stimulus":"bees-with-color/bee-B2DM.svg","response":1,"trial_type":"image-button-response","trial_index":139,"time_elapsed":629863,"internal_node_id":"0.0-6.0-0.3","subject_id":"607f367c60fe33f8f18816d1","study_id":"60edd13110225f80f9f3709b","session_id":"6196c707d965ce1e2b690d7b","condition":"contingent","relevant_dimensions":["wings","pattern"],"bee_group":{"antennae":"X","wings":"2","pattern":"D","legs":"X"},"bonus":0.10000000000000109},{"rt":1240,"stimulus":"bees-with-color/bee-B1SM.svg","response":0,"trial_type":"image-button-response","trial_index":140,"time_elapsed":631111,"internal_node_id":"0.0-6.0-0.4","subject_id":"607f367c60fe33f8f18816d1","study_id":"60edd13110225f80f9f3709b","session_id":"6196c707d965ce1e2b690d7b","condition":"contingent","relevant_dimensions":["wings","pattern"],"bee_group":{"antennae":"X","wings":"2","pattern":"D","legs":"X"},"bonus":0.10000000000000109},{"rt":453,"stimulus":"bees-with-color/bee-A2DF.svg","response":0,"trial_type":"image-button-response","trial_index":141,"time_elapsed":631578,"internal_node_id":"0.0-6.0-0.5","subject_id":"607f367c60fe33f8f18816d1","study_id":"60edd13110225f80f9f3709b","session_id":"6196c707d965ce1e2b690d7b","condition":"contingent","relevant_dimensions":["wings","pattern"],"bee_group":{"antennae":"X","wings":"2","pattern":"D","legs":"X"},"bonus":0.10000000000000109},{"rt":1231,"stimulus":"bees-with-color/bee-A1DF.svg","response":1,"trial_type":"image-button-response","trial_index":142,"time_elapsed":632821,"internal_node_id":"0.0-6.0-0.6","subject_id":"607f367c60fe33f8f18816d1","study_id":"60edd13110225f80f9f3709b","session_id":"6196c707d965ce1e2b690d7b","condition":"contingent","relevant_dimensions":["wings","pattern"],"bee_group":{"antennae":"X","wings":"2","pattern":"D","legs":"X"},"bonus":0.10000000000000109},{"rt":914,"stimulus":"bees-with-color/bee-A2SF.svg","response":0,"trial_type":"image-button-response","trial_index":143,"time_elapsed":633750,"internal_node_id":"0.0-6.0-0.7","subject_id":"607f367c60fe33f8f18816d1","study_id":"60edd13110225f80f9f3709b","session_id":"6196c707d965ce1e2b690d7b","condition":"contingent","relevant_dimensions":["wings","pattern"],"bee_group":{"antennae":"X","wings":"2","pattern":"D","legs":"X"},"bonus":0.10000000000000109},{"rt":382,"stimulus":"bees-with-color/bee-B2SF.svg","response":0,"trial_type":"image-button-response","trial_index":144,"time_elapsed":634159,"internal_node_id":"0.0-6.0-0.8","subject_id":"607f367c60fe33f8f18816d1","study_id":"60edd13110225f80f9f3709b","session_id":"6196c707d965ce1e2b690d7b","condition":"contingent","relevant_dimensions":["wings","pattern"],"bee_group":{"antennae":"X","wings":"2","pattern":"D","legs":"X"},"bonus":0.10000000000000109},{"rt":806,"stimulus":"bees-with-color/bee-A2DM.svg","response":0,"trial_type":"image-button-response","trial_index":145,"time_elapsed":635014,"internal_node_id":"0.0-6.0-0.9","subject_id":"607f367c60fe33f8f18816d1","study_id":"60edd13110225f80f9f3709b","session_id":"6196c707d965ce1e2b690d7b","condition":"contingent","relevant_dimensions":["wings","pattern"],"bee_group":{"antennae":"X","wings":"2","pattern":"D","legs":"X"},"bonus":0.10000000000000109},{"rt":898,"stimulus":"bees-with-color/bee-B1SF.svg","response":1,"trial_type":"image-button-response","trial_index":146,"time_elapsed":635943,"internal_node_id":"0.0-6.0-0.10","subject_id":"607f367c60fe33f8f18816d1","study_id":"60edd13110225f80f9f3709b","session_id":"6196c707d965ce1e2b690d7b","condition":"contingent","relevant_dimensions":["wings","pattern"],"bee_group":{"antennae":"X","wings":"2","pattern":"D","legs":"X"},"bonus":0.10000000000000109},{"rt":376,"stimulus":"bees-with-color/bee-B1DF.svg","response":1,"trial_type":"image-button-response","trial_index":147,"time_elapsed":636386,"internal_node_id":"0.0-6.0-0.11","subject_id":"607f367c60fe33f8f18816d1","study_id":"60edd13110225f80f9f3709b","session_id":"6196c707d965ce1e2b690d7b","condition":"contingent","relevant_dimensions":["wings","pattern"],"bee_group":{"antennae":"X","wings":"2","pattern":"D","legs":"X"},"bonus":0.10000000000000109},{"rt":632,"stimulus":"bees-with-color/bee-B1DM.svg","response":0,"trial_type":"image-button-response","trial_index":148,"time_elapsed":637032,"internal_node_id":"0.0-6.0-0.12","subject_id":"607f367c60fe33f8f18816d1","study_id":"60edd13110225f80f9f3709b","session_id":"6196c707d965ce1e2b690d7b","condition":"contingent","relevant_dimensions":["wings","pattern"],"bee_group":{"antennae":"X","wings":"2","pattern":"D","legs":"X"},"bonus":0.10000000000000109},{"rt":243,"stimulus":"bees-with-color/bee-A1DM.svg","response":0,"trial_type":"image-button-response","trial_index":149,"time_elapsed":637338,"internal_node_id":"0.0-6.0-0.13","subject_id":"607f367c60fe33f8f18816d1","study_id":"60edd13110225f80f9f3709b","session_id":"6196c707d965ce1e2b690d7b","condition":"contingent","relevant_dimensions":["wings","pattern"],"bee_group":{"antennae":"X","wings":"2","pattern":"D","legs":"X"},"bonus":0.10000000000000109},{"rt":172,"stimulus":"bees-with-color/bee-B2DF.svg","response":0,"trial_type":"image-button-response","trial_index":150,"time_elapsed":637580,"internal_node_id":"0.0-6.0-0.14","subject_id":"607f367c60fe33f8f18816d1","study_id":"60edd13110225f80f9f3709b","session_id":"6196c707d965ce1e2b690d7b","condition":"contingent","relevant_dimensions":["wings","pattern"],"bee_group":{"antennae":"X","wings":"2","pattern":"D","legs":"X"},"bonus":0.10000000000000109},{"rt":165,"stimulus":"bees-with-color/bee-A1SF.svg","response":0,"trial_type":"image-button-response","trial_index":151,"time_elapsed":637760,"internal_node_id":"0.0-6.0-0.15","subject_id":"607f367c60fe33f8f18816d1","study_id":"60edd13110225f80f9f3709b","session_id":"6196c707d965ce1e2b690d7b","condition":"contingent","relevant_dimensions":["wings","pattern"],"bee_group":{"antennae":"X","wings":"2","pattern":"D","legs":"X"},"bonus":0.10000000000000109},{"rt":795,"stimulus":"bees-with-color/bee-B2SF.svg","response":1,"trial_type":"image-button-response","trial_index":152,"time_elapsed":638577,"internal_node_id":"0.0-6.0-0.16","subject_id":"607f367c60fe33f8f18816d1","study_id":"60edd13110225f80f9f3709b","session_id":"6196c707d965ce1e2b690d7b","condition":"contingent","relevant_dimensions":["wings","pattern"],"bee_group":{"antennae":"X","wings":"2","pattern":"D","legs":"X"},"bonus":0.10000000000000109},{"rt":948,"stimulus":"bees-with-color/bee-B2DF.svg","response":0,"trial_type":"image-button-response","trial_index":153,"time_elapsed":639555,"internal_node_id":"0.0-6.0-0.17","subject_id":"607f367c60fe33f8f18816d1","study_id":"60edd13110225f80f9f3709b","session_id":"6196c707d965ce1e2b690d7b","condition":"contingent","relevant_dimensions":["wings","pattern"],"bee_group":{"antennae":"X","wings":"2","pattern":"D","legs":"X"},"bonus":0.10000000000000109},{"rt":172,"stimulus":"bees-with-color/bee-A1SM.svg","response":0,"trial_type":"image-button-response","trial_index":154,"time_elapsed":639756,"internal_node_id":"0.0-6.0-0.18","subject_id":"607f367c60fe33f8f18816d1","study_id":"60edd13110225f80f9f3709b","session_id":"6196c707d965ce1e2b690d7b","condition":"contingent","relevant_dimensions":["wings","pattern"],"bee_group":{"antennae":"X","wings":"2","pattern":"D","legs":"X"},"bonus":0.10000000000000109},{"rt":187,"stimulus":"bees-with-color/bee-B2SM.svg","response":0,"trial_type":"image-button-response","trial_index":155,"time_elapsed":639966,"internal_node_id":"0.0-6.0-0.19","subject_id":"607f367c60fe33f8f18816d1","study_id":"60edd13110225f80f9f3709b","session_id":"6196c707d965ce1e2b690d7b","condition":"contingent","relevant_dimensions":["wings","pattern"],"bee_group":{"antennae":"X","wings":"2","pattern":"D","legs":"X"},"bonus":0.10000000000000109},{"rt":614,"stimulus":"bees-with-color/bee-B1DF.svg","response":1,"trial_type":"image-button-response","trial_index":156,"time_elapsed":640599,"internal_node_id":"0.0-6.0-0.20","subject_id":"607f367c60fe33f8f18816d1","study_id":"60edd13110225f80f9f3709b","session_id":"6196c707d965ce1e2b690d7b","condition":"contingent","relevant_dimensions":["wings","pattern"],"bee_group":{"antennae":"X","wings":"2","pattern":"D","legs":"X"},"bonus":0.10000000000000109},{"rt":544,"stimulus":"bees-with-color/bee-A2SF.svg","response":0,"trial_type":"image-button-response","trial_index":157,"time_elapsed":641211,"internal_node_id":"0.0-6.0-0.21","subject_id":"607f367c60fe33f8f18816d1","study_id":"60edd13110225f80f9f3709b","session_id":"6196c707d965ce1e2b690d7b","condition":"contingent","relevant_dimensions":["wings","pattern"],"bee_group":{"antennae":"X","wings":"2","pattern":"D","legs":"X"},"bonus":0.10000000000000109},{"rt":226,"stimulus":"bees-with-color/bee-A2SM.svg","response":0,"trial_type":"image-button-response","trial_index":158,"time_elapsed":641474,"internal_node_id":"0.0-6.0-0.22","subject_id":"607f367c60fe33f8f18816d1","study_id":"60edd13110225f80f9f3709b","session_id":"6196c707d965ce1e2b690d7b","condition":"contingent","relevant_dimensions":["wings","pattern"],"bee_group":{"antennae":"X","wings":"2","pattern":"D","legs":"X"},"bonus":0.10000000000000109},{"rt":141,"stimulus":"bees-with-color/bee-A2DF.svg","response":0,"trial_type":"image-button-response","trial_index":159,"time_elapsed":641635,"internal_node_id":"0.0-6.0-0.23","subject_id":"607f367c60fe33f8f18816d1","study_id":"60edd13110225f80f9f3709b","session_id":"6196c707d965ce1e2b690d7b","condition":"contingent","relevant_dimensions":["wings","pattern"],"bee_group":{"antennae":"X","wings":"2","pattern":"D","legs":"X"},"bonus":0.10000000000000109},{"rt":713,"stimulus":"bees-with-color/bee-A1DM.svg","response":1,"trial_type":"image-button-response","trial_index":160,"time_elapsed":642367,"internal_node_id":"0.0-6.0-0.24","subject_id":"607f367c60fe33f8f18816d1","study_id":"60edd13110225f80f9f3709b","session_id":"6196c707d965ce1e2b690d7b","condition":"contingent","relevant_dimensions":["wings","pattern"],"bee_group":{"antennae":"X","wings":"2","pattern":"D","legs":"X"},"bonus":0.10000000000000109},{"rt":820,"stimulus":"bees-with-color/bee-A2DM.svg","response":0,"trial_type":"image-button-response","trial_index":161,"time_elapsed":643226,"internal_node_id":"0.0-6.0-0.25","subject_id":"607f367c60fe33f8f18816d1","study_id":"60edd13110225f80f9f3709b","session_id":"6196c707d965ce1e2b690d7b","condition":"contingent","relevant_dimensions":["wings","pattern"],"bee_group":{"antennae":"X","wings":"2","pattern":"D","legs":"X"},"bonus":0.10000000000000109},{"rt":242,"stimulus":"bees-with-color/bee-B1SF.svg","response":0,"trial_type":"image-button-response","trial_index":162,"time_elapsed":643486,"internal_node_id":"0.0-6.0-0.26","subject_id":"607f367c60fe33f8f18816d1","study_id":"60edd13110225f80f9f3709b","session_id":"6196c707d965ce1e2b690d7b","condition":"contingent","relevant_dimensions":["wings","pattern"],"bee_group":{"antennae":"X","wings":"2","pattern":"D","legs":"X"},"bonus":0.10000000000000109},{"rt":109,"stimulus":"bees-with-color/bee-A1SF.svg","response":0,"trial_type":"image-button-response","trial_index":163,"time_elapsed":643643,"internal_node_id":"0.0-6.0-0.27","subject_id":"607f367c60fe33f8f18816d1","study_id":"60edd13110225f80f9f3709b","session_id":"6196c707d965ce1e2b690d7b","condition":"contingent","relevant_dimensions":["wings","pattern"],"bee_group":{"antennae":"X","wings":"2","pattern":"D","legs":"X"},"bonus":0.10000000000000109},{"rt":219,"stimulus":"bees-with-color/bee-A1DF.svg","response":0,"trial_type":"image-button-response","trial_index":164,"time_elapsed":643873,"internal_node_id":"0.0-6.0-0.28","subject_id":"607f367c60fe33f8f18816d1","study_id":"60edd13110225f80f9f3709b","session_id":"6196c707d965ce1e2b690d7b","condition":"contingent","relevant_dimensions":["wings","pattern"],"bee_group":{"antennae":"X","wings":"2","pattern":"D","legs":"X"},"bonus"