[{"success":true,"trial_type":"fullscreen","trial_index":0,"time_elapsed":8532,"internal_node_id":"0.0-0.0","subject_id":"5eb2e299831ce0092dd2b965","study_id":"6197b3f67c2b5cd3b6d9596a","session_id":"619be4558ed9d7b727785038","condition":"contingent","relevant_dimensions":["pattern","legs"],"bee_group":{"antennae":"X","wings":"X","pattern":"D","legs":"F"},"bonus":0.9200000000000009},{"success":true,"timeout":false,"failed_images":[],"failed_audio":[],"failed_video":[],"trial_type":"preload","trial_index":1,"time_elapsed":10380,"internal_node_id":"0.0-1.0","subject_id":"5eb2e299831ce0092dd2b965","study_id":"6197b3f67c2b5cd3b6d9596a","session_id":"619be4558ed9d7b727785038","condition":"contingent","relevant_dimensions":["pattern","legs"],"bee_group":{"antennae":"X","wings":"X","pattern":"D","legs":"F"},"bonus":0.9200000000000009},{"rt":8045.399999976158,"stimulus":"Welcome! Press any key to begin.","response":" ","trial_type":"html-keyboard-response","trial_index":2,"time_elapsed":18428,"internal_node_id":"0.0-2.0","subject_id":"5eb2e299831ce0092dd2b965","study_id":"6197b3f67c2b5cd3b6d9596a","session_id":"619be4558ed9d7b727785038","condition":"contingent","relevant_dimensions":["pattern","legs"],"bee_group":{"antennae":"X","wings":"X","pattern":"D","legs":"F"},"bonus":0.9200000000000009},{"view_history":[{"page_index":0,"viewing_time":10575.799999982119},{"page_index":1,"viewing_time":37690.40000000596},{"page_index":2,"viewing_time":29033.5},{"page_index":3,"viewing_time":64658.70000001788},{"page_index":4,"viewing_time":10646.799999982119},{"page_index":5,"viewing_time":12141.90000000596},{"page_index":6,"viewing_time":15832.300000011921},{"page_index":7,"viewing_time":6523.5},{"page_index":8,"viewing_time":3050.5999999940395},{"page_index":9,"viewing_time":10842},{"page_index":10,"viewing_time":2596.0999999940395},{"page_index":11,"viewing_time":58582.69999998808},{"page_index":12,"viewing_time":13467.300000011921},{"page_index":13,"viewing_time":4761.5999999940395},{"page_index":14,"viewing_time":2520.300000011921}],"rt":282925.40000000596,"trial_type":"instructions","trial_index":3,"time_elapsed":301355,"internal_node_id":"0.0-3.0-0.0","subject_id":"5eb2e299831ce0092dd2b965","study_id":"6197b3f67c2b5cd3b6d9596a","session_id":"619be4558ed9d7b727785038","condition":"contingent","relevant_dimensions":["pattern","legs"],"bee_group":{"antennae":"X","wings":"X","pattern":"D","legs":"F"},"bonus":0.9200000000000009},{"rt":27340.29999998212,"response":{"Q0":["Two or six legs","Stripes or spots on body","Stinger or no stinger","Single or double wings"]},"question_order":[0],"trial_type":"survey-multi-select","trial_index":4,"time_elapsed":328737,"internal_node_id":"0.0-3.0-1.0","subject_id":"5eb2e299831ce0092dd2b965","study_id":"6197b3f67c2b5cd3b6d9596a","session_id":"619be4558ed9d7b727785038","condition":"contingent","relevant_dimensions":["pattern","legs"],"bee_group":{"antennae":"X","wings":"X","pattern":"D","legs":"F"},"correct":false,"bonus":0.9200000000000009},{"rt":42402.10000002384,"response":{"Q1":"No.","Q2":"Based on the four features of the bee.","Q3":"You do not learn if it was friendly or dangerous, and do not alter your bonus."},"question_order":[0,1,2],"trial_type":"survey-multi-choice","trial_index":5,"time_elapsed":371149,"internal_node_id":"0.0-3.0-2.0","subject_id":"5eb2e299831ce0092dd2b965","study_id":"6197b3f67c2b5cd3b6d9596a","session_id":"619be4558ed9d7b727785038","condition":"contingent","relevant_dimensions":["pattern","legs"],"bee_group":{"antennae":"X","wings":"X","pattern":"D","legs":"F"},"correct":true,"bonus":0.9200000000000009},{"rt":4167.4000000059605,"stimulus":"<p>You did not answer all comprehension questions correctly.<br>Press <b>continue</b> to review the instructions again.</p>","response":0,"trial_type":"html-button-response","trial_index":6,"time_elapsed":375321,"internal_node_id":"0.0-3.0-3.0","subject_id":"5eb2e299831ce0092dd2b965","study_id":"6197b3f67c2b5cd3b6d9596a","session_id":"619be4558ed9d7b727785038","condition":"contingent","relevant_dimensions":["pattern","legs"],"bee_group":{"antennae":"X","wings":"X","pattern":"D","legs":"F"},"bonus":0.9200000000000009},{"view_history":[{"page_index":0,"viewing_time":3101.699999988079},{"page_index":1,"viewing_time":8983},{"page_index":2,"viewing_time":1934.0999999940395},{"page_index":3,"viewing_time":7393.9000000059605},{"page_index":4,"viewing_time":13785.800000011921},{"page_index":5,"viewing_time":2974.0999999940395},{"page_index":6,"viewing_time":1070},{"page_index":7,"viewing_time":4397.199999988079},{"page_index":8,"viewing_time":2197},{"page_index":9,"viewing_time":2449.800000011921},{"page_index":10,"viewing_time":3243.7999999821186},{"page_index":11,"viewing_time":1094.1000000238419},{"page_index":12,"viewing_time":1256.199999988079},{"page_index":13,"viewing_time":1494.199999988079},{"page_index":14,"viewing_time":799.9000000059605}],"rt":56175.89999997616,"trial_type":"instructions","trial_index":7,"time_elapsed":431498,"internal_node_id":"0.0-3.0-4.0-0.0","subject_id":"5eb2e299831ce0092dd2b965","study_id":"6197b3f67c2b5cd3b6d9596a","session_id":"619be4558ed9d7b727785038","condition":"contingent","relevant_dimensions":["pattern","legs"],"bee_group":{"antennae":"X","wings":"X","pattern":"D","legs":"F"},"bonus":0.9200000000000009},{"rt":31391.5,"response":{"Q0":["Two or six legs","Stripes or spots on body","Single or double wings","Antennae or no antennae"]},"question_order":[0],"trial_type":"survey-multi-select","trial_index":8,"time_elapsed":462907,"internal_node_id":"0.0-3.0-4.0-1.0","subject_id":"5eb2e299831ce0092dd2b965","study_id":"6197b3f67c2b5cd3b6d9596a","session_id":"619be4558ed9d7b727785038","condition":"contingent","relevant_dimensions":["pattern","legs"],"bee_group":{"antennae":"X","wings":"X","pattern":"D","legs":"F"},"correct":true,"bonus":0.9200000000000009},{"rt":23116.5,"response":{"Q1":"No.","Q2":"Based on the four features of the bee.","Q3":"You do not learn if it was friendly or dangerous, and do not alter your bonus."},"question_order":[0,1,2],"trial_type":"survey-multi-choice","trial_index":9,"time_elapsed":486028,"internal_node_id":"0.0-3.0-4.0-2.0","subject_id":"5eb2e299831ce0092dd2b965","study_id":"6197b3f67c2b5cd3b6d9596a","session_id":"619be4558ed9d7b727785038","condition":"contingent","relevant_dimensions":["pattern","legs"],"bee_group":{"antennae":"X","wings":"X","pattern":"D","legs":"F"},"correct":true,"bonus":0.9200000000000009},{"rt":1475.300000011921,"stimulus":"<p>Congrats, you got everything right<br>When you're ready, click the button below to continue to the experiment.</p>","response":0,"trial_type":"html-button-response","trial_index":10,"time_elapsed":487507,"internal_node_id":"0.0-3.0-4.0-3.0","subject_id":"5eb2e299831ce0092dd2b965","study_id":"6197b3f67c2b5cd3b6d9596a","session_id":"619be4558ed9d7b727785038","condition":"contingent","relevant_dimensions":["pattern","legs"],"bee_group":{"antennae":"X","wings":"X","pattern":"D","legs":"F"},"bonus":0.9200000000000009},{"rt":25700,"stimulus":"bees-with-color/bee-A2DM.svg","response":0,"trial_type":"image-button-response","trial_index":11,"time_elapsed":513215,"internal_node_id":"0.0-4.0-0.0","subject_id":"5eb2e299831ce0092dd2b965","study_id":"6197b3f67c2b5cd3b6d9596a","session_id":"619be4558ed9d7b727785038","condition":"contingent","relevant_dimensions":["pattern","legs"],"bee_group":{"antennae":"X","wings":"X","pattern":"D","legs":"F"},"action":"harvest","summary":"good-harvest","bonus":0.9200000000000009},{"rt":16301.40000000596,"stimulus":"\n                    <p><b>Action: <em>harvest</em></b></p>\n                    <p>This is the bee that you just saw.</p>\n                    <img src=\"bees-with-color/bee-A2DM.svg\" width=\"200\">\n                    <p><span class=\"greenText\"><b>Successful harvest!</b></span><br>Your pay has increased by $0.02. Your bonus pay is now $0.56.</p>\n            ","response":0,"trial_type":"html-button-response","trial_index":12,"time_elapsed":529528,"internal_node_id":"0.0-4.0-1.0","subject_id":"5eb2e299831ce0092dd2b965","study_id":"6197b3f67c2b5cd3b6d9596a","session_id":"619be4558ed9d7b727785038","condition":"contingent","relevant_dimensions":["pattern","legs"],"bee_group":{"antennae":"X","wings":"X","pattern":"D","legs":"F"},"bonus":0.9200000000000009},{"rt":9740.299999982119,"stimulus":"bees-with-color/bee-B2SF.svg","response":0,"trial_type":"image-button-response","trial_index":13,"time_elapsed":539275,"internal_node_id":"0.0-4.0-0.1","subject_id":"5eb2e299831ce0092dd2b965","study_id":"6197b3f67c2b5cd3b6d9596a","session_id":"619be4558ed9d7b727785038","condition":"contingent","relevant_dimensions":["pattern","legs"],"bee_group":{"antennae":"X","wings":"X","pattern":"D","legs":"F"},"action":"harvest","summary":"good-harvest","bonus":0.9200000000000009},{"rt":8657.300000011921,"stimulus":"\n                    <p><b>Action: <em>harvest</em></b></p>\n                    <p>This is the bee that you just saw.</p>\n                    <img src=\"bees-with-color/bee-B2SF.svg\" width=\"200\">\n                    <p><span class=\"greenText\"><b>Successful harvest!</b></span><br>Your pay has increased by $0.02. Your bonus pay is now $0.58.</p>\n            ","response":0,"trial_type":"html-button-response","trial_index":14,"time_elapsed":547943,"internal_node_id":"0.0-4.0-1.1","subject_id":"5eb2e299831ce0092dd2b965","study_id":"6197b3f67c2b5cd3b6d9596a","session_id":"619be4558ed9d7b727785038","condition":"contingent","relevant_dimensions":["pattern","legs"],"bee_group":{"antennae":"X","wings":"X","pattern":"D","legs":"F"},"bonus":0.9200000000000009},{"rt":11478.59999999404,"stimulus":"bees-with-color/bee-B1SM.svg","response":1,"trial_type":"image-button-response","trial_index":15,"time_elapsed":559428,"internal_node_id":"0.0-4.0-0.2","subject_id":"5eb2e299831ce0092dd2b965","study_id":"6197b3f67c2b5cd3b6d9596a","session_id":"619be4558ed9d7b727785038","condition":"contingent","relevant_dimensions":["pattern","legs"],"bee_group":{"antennae":"X","wings":"X","pattern":"D","legs":"F"},"action":"avoid","summary":"bad-avoid","bonus":0.9200000000000009},{"rt":4591.700000017881,"stimulus":"\n                    <p><b>Action: <em>avoid</em></b></p>\n                    <p>This is the bee that you just saw.</p>\n                    <img src=\"bees-with-color/bee-B1SM.svg\" width=\"200\">\n                    <p><br>Your bonus pay is unchanged, and remains at $0.58.</p>\n            ","response":0,"trial_type":"html-button-response","trial_index":16,"time_elapsed":564026,"internal_node_id":"0.0-4.0-1.2","subject_id":"5eb2e299831ce0092dd2b965","study_id":"6197b3f67c2b5cd3b6d9596a","session_id":"619be4558ed9d7b727785038","condition":"contingent","relevant_dimensions":["pattern","legs"],"bee_group":{"antennae":"X","wings":"X","pattern":"D","legs":"F"},"bonus":0.9200000000000009},{"rt":5951.200000017881,"stimulus":"bees-with-color/bee-B2DF.svg","response":0,"trial_type":"image-button-response","trial_index":17,"time_elapsed":569982,"internal_node_id":"0.0-4.0-0.3","subject_id":"5eb2e299831ce0092dd2b965","study_id":"6197b3f67c2b5cd3b6d9596a","session_id":"619be4558ed9d7b727785038","condition":"contingent","relevant_dimensions":["pattern","legs"],"bee_group":{"antennae":"X","wings":"X","pattern":"D","legs":"F"},"action":"harvest","summary":"bad-harvest","bonus":0.9200000000000009},{"rt":15068.90000000596,"stimulus":"\n                    <p><b>Action: <em>harvest</em></b></p>\n                    <p>This is the bee that you just saw.</p>\n                    <img src=\"bees-with-color/bee-B2DF.svg\" width=\"200\">\n                    <p><span class=\"redText\">Bad choice, the bee was angry.</span><br><b>You have been stung!</b><br>Your pay has been decreased by $0.10. Your bonus pay is now $0.48.</p>\n            ","response":0,"trial_type":"html-button-response","trial_index":18,"time_elapsed":585055,"internal_node_id":"0.0-4.0-1.3","subject_id":"5eb2e299831ce0092dd2b965","study_id":"6197b3f67c2b5cd3b6d9596a","session_id":"619be4558ed9d7b727785038","condition":"contingent","relevant_dimensions":["pattern","legs"],"bee_group":{"antennae":"X","wings":"X","pattern":"D","legs":"F"},"bonus":0.9200000000000009},{"rt":2737.7999999821186,"stimulus":"bees-with-color/bee-A1DF.svg","response":0,"trial_type":"image-button-response","trial_index":19,"time_elapsed":587796,"internal_node_id":"0.0-4.0-0.4","subject_id":"5eb2e299831ce0092dd2b965","study_id":"6197b3f67c2b5cd3b6d9596a","session_id":"619be4558ed9d7b727785038","condition":"contingent","relevant_dimensions":["pattern","legs"],"bee_group":{"antennae":"X","wings":"X","pattern":"D","legs":"F"},"action":"harvest","summary":"bad-harvest","bonus":0.9200000000000009},{"rt":6220.100000023842,"stimulus":"\n                    <p><b>Action: <em>harvest</em></b></p>\n                    <p>This is the bee that you just saw.</p>\n                    <img src=\"bees-with-color/bee-A1DF.svg\" width=\"200\">\n                    <p><span class=\"redText\">Bad choice, the bee was angry.</span><br><b>You have been stung!</b><br>Your pay has been decreased by $0.10. Your bonus pay is now $0.38.</p>\n            ","response":0,"trial_type":"html-button-response","trial_index":20,"time_elapsed":594021,"internal_node_id":"0.0-4.0-1.4","subject_id":"5eb2e299831ce0092dd2b965","study_id":"6197b3f67c2b5cd3b6d9596a","session_id":"619be4558ed9d7b727785038","condition":"contingent","relevant_dimensions":["pattern","legs"],"bee_group":{"antennae":"X","wings":"X","pattern":"D","legs":"F"},"bonus":0.9200000000000009},{"rt":1197.800000011921,"stimulus":"bees-with-color/bee-A2SM.svg","response":0,"trial_type":"image-button-response","trial_index":21,"time_elapsed":595222,"internal_node_id":"0.0-4.0-0.5","subject_id":"5eb2e299831ce0092dd2b965","study_id":"6197b3f67c2b5cd3b6d9596a","session_id":"619be4558ed9d7b727785038","condition":"contingent","relevant_dimensions":["pattern","legs"],"bee_group":{"antennae":"X","wings":"X","pattern":"D","legs":"F"},"action":"harvest","summary":"good-harvest","bonus":0.9200000000000009},{"rt":4621.4000000059605,"stimulus":"\n                    <p><b>Action: <em>harvest</em></b></p>\n                    <p>This is the bee that you just saw.</p>\n                    <img src=\"bees-with-color/bee-A2SM.svg\" width=\"200\">\n                    <p><span class=\"greenText\"><b>Successful harvest!</b></span><br>Your pay has increased by $0.02. Your bonus pay is now $0.40.</p>\n            ","response":0,"trial_type":"html-button-response","trial_index":22,"time_elapsed":599852,"internal_node_id":"0.0-4.0-1.5","subject_id":"5eb2e299831ce0092dd2b965","study_id":"6197b3f67c2b5cd3b6d9596a","session_id":"619be4558ed9d7b727785038","condition":"contingent","relevant_dimensions":["pattern","legs"],"bee_group":{"antennae":"X","wings":"X","pattern":"D","legs":"F"},"bonus":0.9200000000000009},{"rt":1213.5,"stimulus":"bees-with-color/bee-B1SF.svg","response":1,"trial_type":"image-button-response","trial_index":23,"time_elapsed":601071,"internal_node_id":"0.0-4.0-0.6","subject_id":"5eb2e299831ce0092dd2b965","study_id":"6197b3f67c2b5cd3b6d9596a","session_id":"619be4558ed9d7b727785038","condition":"contingent","relevant_dimensions":["pattern","legs"],"bee_group":{"antennae":"X","wings":"X","pattern":"D","legs":"F"},"action":"avoid","summary":"bad-avoid","bonus":0.9200000000000009},{"rt":1257.4000000059605,"stimulus":"\n                    <p><b>Action: <em>avoid</em></b></p>\n                    <p>This is the bee that you just saw.</p>\n                    <img src=\"bees-with-color/bee-B1SF.svg\" width=\"200\">\n                    <p><br>Your bonus pay is unchanged, and remains at $0.40.</p>\n            ","response":0,"trial_type":"html-button-response","trial_index":24,"time_elapsed":602333,"internal_node_id":"0.0-4.0-1.6","subject_id":"5eb2e299831ce0092dd2b965","study_id":"6197b3f67c2b5cd3b6d9596a","session_id":"619be4558ed9d7b727785038","condition":"contingent","relevant_dimensions":["pattern","legs"],"bee_group":{"antennae":"X","wings":"X","pattern":"D","legs":"F"},"bonus":0.9200000000000009},{"rt":1605.9000000059605,"stimulus":"bees-with-color/bee-B2DM.svg","response":0,"trial_type":"image-button-response","trial_index":25,"time_elapsed":603943,"internal_node_id":"0.0-4.0-0.7","subject_id":"5eb2e299831ce0092dd2b965","study_id":"6197b3f67c2b5cd3b6d9596a","session_id":"619be4558ed9d7b727785038","condition":"contingent","relevant_dimensions":["pattern","legs"],"bee_group":{"antennae":"X","wings":"X","pattern":"D","legs":"F"},"action":"harvest","summary":"good-harvest","bonus":0.9200000000000009},{"rt":834.6000000238419,"stimulus":"\n                    <p><b>Action: <em>harvest</em></b></p>\n                    <p>This is the bee that you just saw.</p>\n                    <img src=\"bees-with-color/bee-B2DM.svg\" width=\"200\">\n                    <p><span class=\"greenText\"><b>Successful harvest!</b></span><br>Your pay has increased by $0.02. Your bonus pay is now $0.42.</p>\n            ","response":0,"trial_type":"html-button-response","trial_index":26,"time_elapsed":604783,"internal_node_id":"0.0-4.0-1.7","subject_id":"5eb2e299831ce0092dd2b965","study_id":"6197b3f67c2b5cd3b6d9596a","session_id":"619be4558ed9d7b727785038","condition":"contingent","relevant_dimensions":["pattern","legs"],"bee_group":{"antennae":"X","wings":"X","pattern":"D","legs":"F"},"bonus":0.9200000000000009},{"rt":1156.5,"stimulus":"bees-with-color/bee-A2DF.svg","response":0,"trial_type":"image-button-response","trial_index":27,"time_elapsed":605943,"internal_node_id":"0.0-4.0-0.8","subject_id":"5eb2e299831ce0092dd2b965","study_id":"6197b3f67c2b5cd3b6d9596a","session_id":"619be4558ed9d7b727785038","condition":"contingent","relevant_dimensions":["pattern","legs"],"bee_group":{"antennae":"X","wings":"X","pattern":"D","legs":"F"},"action":"harvest","summary":"bad-harvest","bonus":0.9200000000000009},{"rt":6477.899999976158,"stimulus":"\n                    <p><b>Action: <em>harvest</em></b></p>\n                    <p>This is the bee that you just saw.</p>\n                    <img src=\"bees-with-color/bee-A2DF.svg\" width=\"200\">\n                    <p><span class=\"redText\">Bad choice, the bee was angry.</span><br><b>You have been stung!</b><br>Your pay has been decreased by $0.10. Your bonus pay is now $0.32.</p>\n            ","response":0,"trial_type":"html-button-response","trial_index":28,"time_elapsed":612424,"internal_node_id":"0.0-4.0-1.8","subject_id":"5eb2e299831ce0092dd2b965","study_id":"6197b3f67c2b5cd3b6d9596a","session_id":"619be4558ed9d7b727785038","condition":"contingent","relevant_dimensions":["pattern","legs"],"bee_group":{"antennae":"X","wings":"X","pattern":"D","legs":"F"},"bonus":0.9200000000000009},{"rt":2884.2999999821186,"stimulus":"bees-with-color/bee-A1SM.svg","response":1,"trial_type":"image-button-response","trial_index":29,"time_elapsed":615313,"internal_node_id":"0.0-4.0-0.9","subject_id":"5eb2e299831ce0092dd2b965","study_id":"6197b3f67c2b5cd3b6d9596a","session_id":"619be4558ed9d7b727785038","condition":"contingent","relevant_dimensions":["pattern","legs"],"bee_group":{"antennae":"X","wings":"X","pattern":"D","legs":"F"},"action":"avoid","summary":"bad-avoid","bonus":0.9200000000000009},{"rt":1057,"stimulus":"\n                    <p><b>Action: <em>avoid</em></b></p>\n                    <p>This is the bee that you just saw.</p>\n                    <img src=\"bees-with-color/bee-A1SM.svg\" width=\"200\">\n                    <p><br>Your bonus pay is unchanged, and remains at $0.32.</p>\n            ","response":0,"trial_type":"html-button-response","trial_index":30,"time_elapsed":616375,"internal_node_id":"0.0-4.0-1.9","subject_id":"5eb2e299831ce0092dd2b965","study_id":"6197b3f67c2b5cd3b6d9596a","session_id":"619be4558ed9d7b727785038","condition":"contingent","relevant_dimensions":["pattern","legs"],"bee_group":{"antennae":"X","wings":"X","pattern":"D","legs":"F"},"bonus":0.9200000000000009},{"rt":1072,"stimulus":"bees-with-color/bee-A2SF.svg","response":0,"trial_type":"image-button-response","trial_index":31,"time_elapsed":617451,"internal_node_id":"0.0-4.0-0.10","subject_id":"5eb2e299831ce0092dd2b965","study_id":"6197b3f67c2b5cd3b6d9596a","session_id":"619be4558ed9d7b727785038","condition":"contingent","relevant_dimensions":["pattern","legs"],"bee_group":{"antennae":"X","wings":"X","pattern":"D","legs":"F"},"action":"harvest","summary":"good-harvest","bonus":0.9200000000000009},{"rt":816.8000000119209,"stimulus":"\n                    <p><b>Action: <em>harvest</em></b></p>\n                    <p>This is the bee that you just saw.</p>\n                    <img src=\"bees-with-color/bee-A2SF.svg\" width=\"200\">\n                    <p><span class=\"greenText\"><b>Successful harvest!</b></span><br>Your pay has increased by $0.02. Your bonus pay is now $0.34.</p>\n            ","response":0,"trial_type":"html-button-response","trial_index":32,"time_elapsed":618273,"internal_node_id":"0.0-4.0-1.10","subject_id":"5eb2e299831ce0092dd2b965","study_id":"6197b3f67c2b5cd3b6d9596a","session_id":"619be4558ed9d7b727785038","condition":"contingent","relevant_dimensions":["pattern","legs"],"bee_group":{"antennae":"X","wings":"X","pattern":"D","legs":"F"},"bonus":0.9200000000000009},{"rt":1202.3999999761581,"stimulus":"bees-with-color/bee-B2SM.svg","response":1,"trial_type":"image-button-response","trial_index":33,"time_elapsed":619479,"internal_node_id":"0.0-4.0-0.11","subject_id":"5eb2e299831ce0092dd2b965","study_id":"6197b3f67c2b5cd3b6d9596a","session_id":"619be4558ed9d7b727785038","condition":"contingent","relevant_dimensions":["pattern","legs"],"bee_group":{"antennae":"X","wings":"X","pattern":"D","legs":"F"},"action":"avoid","summary":"bad-avoid","bonus":0.9200000000000009},{"rt":755.6999999880791,"stimulus":"\n                    <p><b>Action: <em>avoid</em></b></p>\n                    <p>This is the bee that you just saw.</p>\n                    <img src=\"bees-with-color/bee-B2SM.svg\" width=\"200\">\n                    <p><br>Your bonus pay is unchanged, and remains at $0.34.</p>\n            ","response":0,"trial_type":"html-button-response","trial_index":34,"time_elapsed":620239,"internal_node_id":"0.0-4.0-1.11","subject_id":"5eb2e299831ce0092dd2b965","study_id":"6197b3f67c2b5cd3b6d9596a","session_id":"619be4558ed9d7b727785038","condition":"contingent","relevant_dimensions":["pattern","legs"],"bee_group":{"antennae":"X","wings":"X","pattern":"D","legs":"F"},"bonus":0.9200000000000009},{"rt":1347.2999999821186,"stimulus":"bees-with-color/bee-B1DM.svg","response":0,"trial_type":"image-button-response","trial_index":35,"time_elapsed":621589,"internal_node_id":"0.0-4.0-0.12","subject_id":"5eb2e299831ce0092dd2b965","study_id":"6197b3f67c2b5cd3b6d9596a","session_id":"619be4558ed9d7b727785038","condition":"contingent","relevant_dimensions":["pattern","legs"],"bee_group":{"antennae":"X","wings":"X","pattern":"D","legs":"F"},"action":"harvest","summary":"good-harvest","bonus":0.9200000000000009},{"rt":857.7999999821186,"stimulus":"\n                    <p><b>Action: <em>harvest</em></b></p>\n                    <p>This is the bee that you just saw.</p>\n                    <img src=\"bees-with-color/bee-B1DM.svg\" width=\"200\">\n                    <p><span class=\"greenText\"><b>Successful harvest!</b></span><br>Your pay has increased by $0.02. Your bonus pay is now $0.36.</p>\n            ","response":0,"trial_type":"html-button-response","trial_index":36,"time_elapsed":622453,"internal_node_id":"0.0-4.0-1.12","subject_id":"5eb2e299831ce0092dd2b965","study_id":"6197b3f67c2b5cd3b6d9596a","session_id":"619be4558ed9d7b727785038","condition":"contingent","relevant_dimensions":["pattern","legs"],"bee_group":{"antennae":"X","wings":"X","pattern":"D","legs":"F"},"bonus":0.9200000000000009},{"rt":1773.2999999821186,"stimulus":"bees-with-color/bee-A1DM.svg","response":0,"trial_type":"image-button-response","trial_index":37,"time_elapsed":624231,"internal_node_id":"0.0-4.0-0.13","subject_id":"5eb2e299831ce0092dd2b965","study_id":"6197b3f67c2b5cd3b6d9596a","session_id":"619be4558ed9d7b727785038","condition":"contingent","relevant_dimensions":["pattern","legs"],"bee_group":{"antennae":"X","wings":"X","pattern":"D","legs":"F"},"action":"harvest","summary":"good-harvest","bonus":0.9200000000000009},{"rt":934.2999999821186,"stimulus":"\n                    <p><b>Action: <em>harvest</em></b></p>\n                    <p>This is the bee that you just saw.</p>\n                    <img src=\"bees-with-color/bee-A1DM.svg\" width=\"200\">\n                    <p><span class=\"greenText\"><b>Successful harvest!</b></span><br>Your pay has increased by $0.02. Your bonus pay is now $0.38.</p>\n            ","response":0,"trial_type":"html-button-response","trial_index":38,"time_elapsed":625171,"internal_node_id":"0.0-4.0-1.13","subject_id":"5eb2e299831ce0092dd2b965","study_id":"6197b3f67c2b5cd3b6d9596a","session_id":"619be4558ed9d7b727785038","condition":"contingent","relevant_dimensions":["pattern","legs"],"bee_group":{"antennae":"X","wings":"X","pattern":"D","legs":"F"},"bonus":0.9200000000000009},{"rt":1017.5999999940395,"stimulus":"bees-with-color/bee-A1SF.svg","response":1,"trial_type":"image-button-response","trial_index":39,"time_elapsed":626195,"internal_node_id":"0.0-4.0-0.14","subject_id":"5eb2e299831ce0092dd2b965","study_id":"6197b3f67c2b5cd3b6d9596a","session_id":"619be4558ed9d7b727785038","condition":"contingent","relevant_dimensions":["pattern","legs"],"bee_group":{"antennae":"X","wings":"X","pattern":"D","legs":"F"},"action":"avoid","summary":"bad-avoid","bonus":0.9200000000000009},{"rt":1026.0999999940395,"stimulus":"\n                    <p><b>Action: <em>avoid</em></b></p>\n                    <p>This is the bee that you just saw.</p>\n                    <img src=\"bees-with-color/bee-A1SF.svg\" width=\"200\">\n                    <p><br>Your bonus pay is unchanged, and remains at $0.38.</p>\n            ","response":0,"trial_type":"html-button-response","trial_index":40,"time_elapsed":627226,"internal_node_id":"0.0-4.0-1.14","subject_id":"5eb2e299831ce0092dd2b965","study_id":"6197b3f67c2b5cd3b6d9596a","session_id":"619be4558ed9d7b727785038","condition":"contingent","relevant_dimensions":["pattern","legs"],"bee_group":{"antennae":"X","wings":"X","pattern":"D","legs":"F"},"bonus":0.9200000000000009},{"rt":1344.5999999940395,"stimulus":"bees-with-color/bee-B1DF.svg","response":1,"trial_type":"image-button-response","trial_index":41,"time_elapsed":628575,"internal_node_id":"0.0-4.0-0.15","subject_id":"5eb2e299831ce0092dd2b965","study_id":"6197b3f67c2b5cd3b6d9596a","session_id":"619be4558ed9d7b727785038","condition":"contingent","relevant_dimensions":["pattern","legs"],"bee_group":{"antennae":"X","wings":"X","pattern":"D","legs":"F"},"action":"avoid","summary":"good-avoid","bonus":0.9200000000000009},{"rt":702,"stimulus":"\n                    <p><b>Action: <em>avoid</em></b></p>\n                    <p>This is the bee that you just saw.</p>\n                    <img src=\"bees-with-color/bee-B1DF.svg\" width=\"200\">\n                    <p><br>Your bonus pay is unchanged, and remains at $0.38.</p>\n            ","response":0,"trial_type":"html-button-response","trial_index":42,"time_elapsed":629282,"internal_node_id":"0.0-4.0-1.15","subject_id":"5eb2e299831ce0092dd2b965","study_id":"6197b3f67c2b5cd3b6d9596a","session_id":"619be4558ed9d7b727785038","condition":"contingent","relevant_dimensions":["pattern","legs"],"bee_group":{"antennae":"X","wings":"X","pattern":"D","legs":"F"},"bonus":0.9200000000000009},{"rt":1129.7000000178814,"stimulus":"bees-with-color/bee-A2SM.svg","response":0,"trial_type":"image-button-response","trial_index":43,"time_elapsed":630414,"internal_node_id":"0.0-4.0-0.16","subject_id":"5eb2e299831ce0092dd2b965","study_id":"6197b3f67c2b5cd3b6d9596a","session_id":"619be4558ed9d7b727785038","condition":"contingent","relevant_dimensions":["pattern","legs"],"bee_group":{"antennae":"X","wings":"X","pattern":"D","legs":"F"},"action":"harvest","summary":"good-harvest","bonus":0.9200000000000009},{"rt":662.9000000059605,"stimulus":"\n                    <p><b>Action: <em>harvest</em></b></p>\n                    <p>This is the bee that you just saw.</p>\n                    <img src=\"bees-with-color/bee-A2SM.svg\" width=\"200\">\n                    <p><span class=\"greenText\"><b>Successful harvest!</b></span><br>Your pay has increased by $0.02. Your bonus pay is now $0.40.</p>\n            ","response":0,"trial_type":"html-button-response","trial_index":44,"time_elapsed":631084,"internal_node_id":"0.0-4.0-1.16","subject_id":"5eb2e299831ce0092dd2b965","study_id":"6197b3f67c2b5cd3b6d9596a","session_id":"619be4558ed9d7b727785038","condition":"contingent","relevant_dimensions":["pattern","legs"],"bee_group":{"antennae":"X","wings":"X","pattern":"D","legs":"F"},"bonus":0.9200000000000009},{"rt":1099.300000011921,"stimulus":"bees-with-color/bee-B2SF.svg","response":0,"trial_type":"image-button-response","trial_index":45,"time_elapsed":632186,"internal_node_id":"0.0-4.0-0.17","subject_id":"5eb2e299831ce0092dd2b965","study_id":"6197b3f67c2b5cd3b6d9596a","session_id":"619be4558ed9d7b727785038","condition":"contingent","relevant_dimensions":["pattern","legs"],"bee_group":{"antennae":"X","wings":"X","pattern":"D","legs":"F"},"action":"harvest","summary":"good-harvest","bonus":0.9200000000000009},{"rt":666.0999999940395,"stimulus":"\n                    <p><b>Action: <em>harvest</em></b></p>\n                    <p>This is the bee that you just saw.</p>\n                    <img src=\"bees-with-color/bee-B2SF.svg\" width=\"200\">\n                    <p><span class=\"greenText\"><b>Successful harvest!</b></span><br>Your pay has increased by $0.02. Your bonus pay is now $0.42.</p>\n            ","response":0,"trial_type":"html-button-response","trial_index":46,"time_elapsed":632863,"internal_node_id":"0.0-4.0-1.17","subject_id":"5eb2e299831ce0092dd2b965","study_id":"6197b3f67c2b5cd3b6d9596a","session_id":"619be4558ed9d7b727785038","condition":"contingent","relevant_dimensions":["pattern","legs"],"bee_group":{"antennae":"X","wings":"X","pattern":"D","legs":"F"},"bonus":0.9200000000000009},{"rt":8579.199999988079,"stimulus":"bees-with-color/bee-B2DF.svg","response":1,"trial_type":"image-button-response","trial_index":47,"time_elapsed":641444,"internal_node_id":"0.0-4.0-0.18","subject_id":"5eb2e299831ce0092dd2b965","study_id":"6197b3f67c2b5cd3b6d9596a","session_id":"619be4558ed9d7b727785038","condition":"contingent","relevant_dimensions":["pattern","legs"],"bee_group":{"antennae":"X","wings":"X","pattern":"D","legs":"F"},"action":"avoid","summary":"good-avoid","bonus":0.9200000000000009},{"rt":1280.199999988079,"stimulus":"\n                    <p><b>Action: <em>avoid</em></b></p>\n                    <p>This is the bee that you just saw.</p>\n                    <img src=\"bees-with-color/bee-B2DF.svg\" width=\"200\">\n                    <p><br>Your bonus pay is unchanged, and remains at $0.42.</p>\n            ","response":0,"trial_type":"html-button-response","trial_index":48,"time_elapsed":642730,"internal_node_id":"0.0-4.0-1.18","subject_id":"5eb2e299831ce0092dd2b965","study_id":"6197b3f67c2b5cd3b6d9596a","session_id":"619be4558ed9d7b727785038","condition":"contingent","relevant_dimensions":["pattern","legs"],"bee_group":{"antennae":"X","wings":"X","pattern":"D","legs":"F"},"bonus":0.9200000000000009},{"rt":1567.5999999940395,"stimulus":"bees-with-color/bee-B1SM.svg","response":1,"trial_type":"image-button-response","trial_index":49,"time_elapsed":644302,"internal_node_id":"0.0-4.0-0.19","subject_id":"5eb2e299831ce0092dd2b965","study_id":"6197b3f67c2b5cd3b6d9596a","session_id":"619be4558ed9d7b727785038","condition":"contingent","relevant_dimensions":["pattern","legs"],"bee_group":{"antennae":"X","wings":"X","pattern":"D","legs":"F"},"action":"avoid","summary":"bad-avoid","bonus":0.9200000000000009},{"rt":774.5999999940395,"stimulus":"\n                    <p><b>Action: <em>avoid</em></b></p>\n                    <p>This is the bee that you just saw.</p>\n                    <img src=\"bees-with-color/bee-B1SM.svg\" width=\"200\">\n                    <p><br>Your bonus pay is unchanged, and remains at $0.42.</p>\n            ","response":0,"trial_type":"html-button-response","trial_index":50,"time_elapsed":645082,"internal_node_id":"0.0-4.0-1.19","subject_id":"5eb2e299831ce0092dd2b965","study_id":"6197b3f67c2b5cd3b6d9596a","session_id":"619be4558ed9d7b727785038","condition":"contingent","relevant_dimensions":["pattern","legs"],"bee_group":{"antennae":"X","wings":"X","pattern":"D","legs":"F"},"bonus":0.9200000000000009},{"rt":1943.699999988079,"stimulus":"bees-with-color/bee-A1DM.svg","response":1,"trial_type":"image-button-response","trial_index":51,"time_elapsed":647028,"internal_node_id":"0.0-4.0-0.20","subject_id":"5eb2e299831ce0092dd2b965","study_id":"6197b3f67c2b5cd3b6d9596a","session_id":"619be4558ed9d7b727785038","condition":"contingent","relevant_dimensions":["pattern","legs"],"bee_group":{"antennae":"X","wings":"X","pattern":"D","legs":"F"},"action":"avoid","summary":"bad-avoid","bonus":0.9200000000000009},{"rt":748.5,"stimulus":"\n                    <p><b>Action: <em>avoid</em></b></p>\n                    <p>This is the bee that you just saw.</p>\n                    <img src=\"bees-with-color/bee-A1DM.svg\" width=\"200\">\n                    <p><br>Your bonus pay is unchanged, and remains at $0.42.</p>\n            ","response":0,"trial_type":"html-button-response","trial_index":52,"time_elapsed":647783,"internal_node_id":"0.0-4.0-1.20","subject_id":"5eb2e299831ce0092dd2b965","study_id":"6197b3f67c2b5cd3b6d9596a","session_id":"619be4558ed9d7b727785038","condition":"contingent","relevant_dimensions":["pattern","legs"],"bee_group":{"antennae":"X","wings":"X","pattern":"D","legs":"F"},"bonus":0.9200000000000009},{"rt":798.5999999940395,"stimulus":"bees-with-color/bee-B1DM.svg","response":1,"trial_type":"image-button-response","trial_index":53,"time_elapsed":648585,"internal_node_id":"0.0-4.0-0.21","subject_id":"5eb2e299831ce0092dd2b965","study_id":"6197b3f67c2b5cd3b6d9596a","session_id":"619be4558ed9d7b727785038","condition":"contingent","relevant_dimensions":["pattern","legs"],"bee_group":{"antennae":"X","wings":"X","pattern":"D","legs":"F"},"action":"avoid","summary":"bad-avoid","bonus":0.9200000000000009},{"rt":742.5999999940395,"stimulus":"\n                    <p><b>Action: <em>avoid</em></b></p>\n                    <p>This is the bee that you just saw.</p>\n                    <img src=\"bees-with-color/bee-B1DM.svg\" width=\"200\">\n                    <p><br>Your bonus pay is unchanged, and remains at $0.42.</p>\n            ","response":0,"trial_type":"html-button-response","trial_index":54,"time_elapsed":649334,"internal_node_id":"0.0-4.0-1.21","subject_id":"5eb2e299831ce0092dd2b965","study_id":"6197b3f67c2b5cd3b6d9596a","session_id":"619be4558ed9d7b727785038","condition":"contingent","relevant_dimensions":["pattern","legs"],"bee_group":{"antennae":"X","wings":"X","pattern":"D","legs":"F"},"bonus":0.9200000000000009},{"rt":954.9000000059605,"stimulus":"bees-with-color/bee-A2DF.svg","response":0,"trial_type":"image-button-response","trial_index":55,"time_elapsed":650293,"internal_node_id":"0.0-4.0-0.22","subject_id":"5eb2e299831ce0092dd2b965","study_id":"6197b3f67c2b5cd3b6d9596a","session_id":"619be4558ed9d7b727785038","condition":"contingent","relevant_dimensions":["pattern","legs"],"bee_group":{"antennae":"X","wings":"X","pattern":"D","legs":"F"},"action":"harvest","summary":"bad-harvest","bonus":0.9200000000000009},{"rt":1007.0999999940395,"stimulus":"\n                    <p><b>Action: <em>harvest</em></b></p>\n                    <p>This is the bee that you just saw.</p>\n                    <img src=\"bees-with-color/bee-A2DF.svg\" width=\"200\">\n                    <p><span class=\"redText\">Bad choice, the bee was angry.</span><br><b>You have been stung!</b><br>Your pay has been decreased by $0.10. Your bonus pay is now $0.32.</p>\n            ","response":0,"trial_type":"html-button-response","trial_index":56,"time_elapsed":651307,"internal_node_id":"0.0-4.0-1.22","subject_id":"5eb2e299831ce0092dd2b965","study_id":"6197b3f67c2b5cd3b6d9596a","session_id":"619be4558ed9d7b727785038","condition":"contingent","relevant_dimensions":["pattern","legs"],"bee_group":{"antennae":"X","wings":"X","pattern":"D","legs":"F"},"bonus":0.9200000000000009},{"rt":2315.5999999940395,"stimulus":"bees-with-color/bee-A1SM.svg","response":0,"trial_type":"image-button-response","trial_index":57,"time_elapsed":653629,"internal_node_id":"0.0-4.0-0.23","subject_id":"5eb2e299831ce0092dd2b965","study_id":"6197b3f67c2b5cd3b6d9596a","session_id":"619be4558ed9d7b727785038","condition":"contingent","relevant_dimensions":["pattern","legs"],"bee_group":{"antennae":"X","wings":"X","pattern":"D","legs":"F"},"action":"harvest","summary":"good-harvest","bonus":0.9200000000000009},{"rt":6932.799999982119,"stimulus":"\n                    <p><b>Action: <em>harvest</em></b></p>\n                    <p>This is the bee that you just saw.</p>\n                    <img src=\"bees-with-color/bee-A1SM.svg\" width=\"200\">\n                    <p><span class=\"greenText\"><b>Successful harvest!</b></span><br>Your pay has increased by $0.02. Your bonus pay is now $0.34.</p>\n            ","response":0,"trial_type":"html-button-response","trial_index":58,"time_elapsed":660569,"internal_node_id":"0.0-4.0-1.23","subject_id":"5eb2e299831ce0092dd2b965","study_id":"6197b3f67c2b5cd3b6d9596a","session_id":"619be4558ed9d7b727785038","condition":"contingent","relevant_dimensions":["pattern","legs"],"bee_group":{"antennae":"X","wings":"X","pattern":"D","legs":"F"},"bonus":0.9200000000000009},{"rt":2460,"stimulus":"bees-with-color/bee-B2DM.svg","response":0,"trial_type":"image-button-response","trial_index":59,"time_elapsed":663035,"internal_node_id":"0.0-4.0-0.24","subject_id":"5eb2e299831ce0092dd2b965","study_id":"6197b3f67c2b5cd3b6d9596a","session_id":"619be4558ed9d7b727785038","condition":"contingent","relevant_dimensions":["pattern","legs"],"bee_group":{"antennae":"X","wings":"X","pattern":"D","legs":"F"},"action":"harvest","summary":"good-harvest","bonus":0.9200000000000009},{"rt":893.8000000119209,"stimulus":"\n                    <p><b>Action: <em>harvest</em></b></p>\n                    <p>This is the bee that you just saw.</p>\n                    <img src=\"bees-with-color/bee-B2DM.svg\" width=\"200\">\n                    <p><span class=\"greenText\"><b>Successful harvest!</b></span><br>Your pay has increased by $0.02. Your bonus pay is now $0.36.</p>\n            ","response":0,"trial_type":"html-button-response","trial_index":60,"time_elapsed":663935,"internal_node_id":"0.0-4.0-1.24","subject_id":"5eb2e299831ce0092dd2b965","study_id":"6197b3f67c2b5cd3b6d9596a","session_id":"619be4558ed9d7b727785038","condition":"contingent","relevant_dimensions":["pattern","legs"],"bee_group":{"antennae":"X","wings":"X","pattern":"D","legs":"F"},"bonus":0.9200000000000009},{"rt":1789,"stimulus":"bees-with-color/bee-A1DF.svg","response":1,"trial_type":"image-button-response","trial_index":61,"time_elapsed":665729,"internal_node_id":"0.0-4.0-0.25","subject_id":"5eb2e299831ce0092dd2b965","study_id":"6197b3f67c2b5cd3b6d9596a","session_id":"619be4558ed9d7b727785038","condition":"contingent","relevant_dimensions":["pattern","legs"],"bee_group":{"antennae":"X","wings":"X","pattern":"D","legs":"F"},"action":"avoid","summary":"good-avoid","bonus":0.9200000000000009},{"rt":1196.2999999821186,"stimulus":"\n                    <p><b>Action: <em>avoid</em></b></p>\n                    <p>This is the bee that you just saw.</p>\n                    <img src=\"bees-with-color/bee-A1DF.svg\" width=\"200\">\n                    <p><br>Your bonus pay is unchanged, and remains at $0.36.</p>\n            ","response":0,"trial_type":"html-button-response","trial_index":62,"time_elapsed":666930,"internal_node_id":"0.0-4.0-1.25","subject_id":"5eb2e299831ce0092dd2b965","study_id":"6197b3f67c2b5cd3b6d9596a","session_id":"619be4558ed9d7b727785038","condition":"contingent","relevant_dimensions":["pattern","legs"],"bee_group":{"antennae":"X","wings":"X","pattern":"D","legs":"F"},"bonus":0.9200000000000009},{"rt":1114.2999999821186,"stimulus":"bees-with-color/bee-B2SM.svg","response":0,"trial_type":"image-button-response","trial_index":63,"time_elapsed":668049,"internal_node_id":"0.0-4.0-0.26","subject_id":"5eb2e299831ce0092dd2b965","study_id":"6197b3f67c2b5cd3b6d9596a","session_id":"619be4558ed9d7b727785038","condition":"contingent","relevant_dimensions":["pattern","legs"],"bee_group":{"antennae":"X","wings":"X","pattern":"D","legs":"F"},"action":"harvest","summary":"good-harvest","bonus":0.9200000000000009},{"rt":764.9000000059605,"stimulus":"\n                    <p><b>Action: <em>harvest</em></b></p>\n                    <p>This is the bee that you just saw.</p>\n                    <img src=\"bees-with-color/bee-B2SM.svg\" width=\"200\">\n                    <p><span class=\"greenText\"><b>Successful harvest!</b></span><br>Your pay has increased by $0.02. Your bonus pay is now $0.38.</p>\n            ","response":0,"trial_type":"html-button-response","trial_index":64,"time_elapsed":668819,"internal_node_id":"0.0-4.0-1.26","subject_id":"5eb2e299831ce0092dd2b965","study_id":"6197b3f67c2b5cd3b6d9596a","session_id":"619be4558ed9d7b727785038","condition":"contingent","relevant_dimensions":["pattern","legs"],"bee_group":{"antennae":"X","wings":"X","pattern":"D","legs":"F"},"bonus":0.9200000000000009},{"rt":1201.699999988079,"stimulus":"bees-with-color/bee-B1SF.svg","response":1,"trial_type":"image-button-response","trial_index":65,"time_elapsed":670026,"internal_node_id":"0.0-4.0-0.27","subject_id":"5eb2e299831ce0092dd2b965","study_id":"6197b3f67c2b5cd3b6d9596a","session_id":"619be4558ed9d7b727785038","condition":"contingent","relevant_dimensions":["pattern","legs"],"bee_group":{"antennae":"X","wings":"X","pattern":"D","legs":"F"},"action":"avoid","summary":"bad-avoid","bonus":0.9200000000000009},{"rt":605.8999999761581,"stimulus":"\n                    <p><b>Action: <em>avoid</em></b></p>\n                    <p>This is the bee that you just saw.</p>\n                    <img src=\"bees-with-color/bee-B1SF.svg\" width=\"200\">\n                    <p><br>Your bonus pay is unchanged, and remains at $0.38.</p>\n            ","response":0,"trial_type":"html-button-response","trial_index":66,"time_elapsed":670635,"internal_node_id":"0.0-4.0-1.27","subject_id":"5eb2e299831ce0092dd2b965","study_id":"6197b3f67c2b5cd3b6d9596a","session_id":"619be4558ed9d7b727785038","condition":"contingent","relevant_dimensions":["pattern","legs"],"bee_group":{"antennae":"X","wings":"X","pattern":"D","legs":"F"},"bonus":0.9200000000000009},{"rt":1152.5,"stimulus":"bees-with-color/bee-A2DM.svg","response":0,"trial_type":"image-button-response","trial_index":67,"time_elapsed":671790,"internal_node_id":"0.0-4.0-0.28","subject_id":"5eb2e299831ce0092dd2b965","study_id":"6197b3f67c2b5cd3b6d9596a","session_id":"619be4558ed9d7b727785038","condition":"contingent","relevant_dimensions":["pattern","legs"],"bee_group":{"antennae":"X","wings":"X","pattern":"D","legs":"F"},"action":"harvest","summary":"good-harvest","bonus":0.9200000000000009},{"rt":780.6999999880791,"stimulus":"\n                    <p><b>Action: <em>harvest</em></b></p>\n                    <p>This is the bee that you just saw.</p>\n                    <img src=\"bees-with-color/bee-A2DM.svg\" width=\"200\">\n                    <p><span class=\"greenText\"><b>Successful harvest!</b></span><br>Your pay has increased by $0.02. Your bonus pay is now $0.40.</p>\n            ","response":0,"trial_type":"html-button-response","trial_index":68,"time_elapsed":672575,"internal_node_id":"0.0-4.0-1.28","subject_id":"5eb2e299831ce0092dd2b965","study_id":"6197b3f67c2b5cd3b6d9596a","session_id":"619be4558ed9d7b727785038","condition":"contingent","relevant_dimensions":["pattern","legs"],"bee_group":{"antennae":"X","wings":"X","pattern":"D","legs":"F"},"bonus":0.9200000000000009},{"rt":990.4000000059605,"stimulus":"bees-with-color/bee-A1SF.svg","response":1,"trial_type":"image-button-response","trial_index":69,"time_elapsed":673569,"internal_node_id":"0.0-4.0-0.29","subject_id":"5eb2e299831ce0092dd2b965","study_id":"6197b3f67c2b5cd3b6d9596a","session_id":"619be4558ed9d7b727785038","condition":"contingent","relevant_dimensions":["pattern","legs"],"bee_group":{"antennae":"X","wings":"X","pattern":"D","legs":"F"},"action":"avoid","summary":"bad-avoid","bonus":0.9200000000000009},{"rt":835.3000000119209,"stimulus":"\n                    <p><b>Action: <em>avoid</em></b></p>\n                    <p>This is the bee that you just saw.</p>\n                    <img src=\"bees-with-color/bee-A1SF.svg\" width=\"200\">\n                    <p><br>Your bonus pay is unchanged, and remains at $0.40.</p>\n            ","response":0,"trial_type":"html-button-response","trial_index":70,"time_elapsed":674408,"internal_node_id":"0.0-4.0-1.29","subject_id":"5eb2e299831ce0092dd2b965","study_id":"6197b3f67c2b5cd3b6d9596a","session_id":"619be4558ed9d7b727785038","condition":"contingent","relevant_dimensions":["pattern","legs"],"bee_group":{"antennae":"X","wings":"X","pattern":"D","legs":"F"},"bonus":0.9200000000000009},{"rt":1569.3999999761581,"stimulus":"bees-with-color/bee-B1DF.svg","response":1,"trial_type":"image-button-response","trial_index":71,"time_elapsed":675980,"internal_node_id":"0.0-4.0-0.30","subject_id":"5eb2e299831ce0092dd2b965","study_id":"6197b3f67c2b5cd3b6d9596a","session_id":"619be4558ed9d7b727785038","condition":"contingent","relevant_dimensions":["pattern","legs"],"bee_group":{"antennae":"X","wings":"X","pattern":"D","legs":"F"},"action":"avoid","summary":"good-avoid","bonus":0.9200000000000009},{"rt":981.5,"stimulus":"\n                    <p><b>Action: <em>avoid</em></b></p>\n                    <p>This is the bee that you just saw.</p>\n                    <img src=\"bees-with-color/bee-B1DF.svg\" width=\"200\">\n                    <p><br>Your bonus pay is unchanged, and remains at $0.40.</p>\n            ","response":0,"trial_type":"html-button-response","trial_index":72,"time_elapsed":676967,"internal_node_id":"0.0-4.0-1.30","subject_id":"5eb2e299831ce0092dd2b965","study_id":"6197b3f67c2b5cd3b6d9596a","session_id":"619be4558ed9d7b727785038","condition":"contingent","relevant_dimensions":["pattern","legs"],"bee_group":{"antennae":"X","wings":"X","pattern":"D","legs":"F"},"bonus":0.9200000000000009},{"rt":2051.199999988079,"stimulus":"bees-with-color/bee-A2SF.svg","response":0,"trial_type":"image-button-response","trial_index":73,"time_elapsed":679022,"internal_node_id":"0.0-4.0-0.31","subject_id":"5eb2e299831ce0092dd2b965","study_id":"6197b3f67c2b5cd3b6d9596a","session_id":"619be4558ed9d7b727785038","condition":"contingent","relevant_dimensions":["pattern","legs"],"bee_group":{"antennae":"X","wings":"X","pattern":"D","legs":"F"},"action":"harvest","summary":"good-harvest","bonus":0.9200000000000009},{"rt":694.2999999821186,"stimulus":"\n                    <p><b>Action: <em>harvest</em></b></p>\n                    <p>This is the bee that you just saw.</p>\n                    <img src=\"bees-with-color/bee-A2SF.svg\" width=\"200\">\n                    <p><span class=\"greenText\"><b>Successful harvest!</b></span><br>Your pay has increased by $0.02. Your bonus pay is now $0.42.</p>\n            ","response":0,"trial_type":"html-button-response","trial_index":74,"time_elapsed":679722,"internal_node_id":"0.0-4.0-1.31","subject_id":"5eb2e299831ce0092dd2b965","study_id":"6197b3f67c2b5cd3b6d9596a","session_id":"619be4558ed9d7b727785038","condition":"contingent","relevant_dimensions":["pattern","legs"],"bee_group":{"antennae":"X","wings":"X","pattern":"D","legs":"F"},"bonus":0.9200000000000009},{"rt":1005.3999999761581,"stimulus":"bees-with-color/bee-B1DF.svg","response":1,"trial_type":"image-button-response","trial_index":75,"time_elapsed":680730,"internal_node_id":"0.0-4.0-0.32","subject_id":"5eb2e299831ce0092dd2b965","study_id":"6197b3f67c2b5cd3b6d9596a","session_id":"619be4558ed9d7b727785038","condition":"contingent","relevant_dimensions":["pattern","legs"],"bee_group":{"antennae":"X","wings":"X","pattern":"D","legs":"F"},"action":"avoid","summary":"good-avoid","bonus":0.9200000000000009},{"rt":643.4000000059605,"stimulus":"\n                    <p><b>Action: <em>avoid</em></b></p>\n                    <p>This is the bee that you just saw.</p>\n                    <img src=\"bees-with-color/bee-B1DF.svg\" width=\"200\">\n                    <p><br>Your bonus pay is unchanged, and remains at $0.42.</p>\n            ","response":0,"trial_type":"html-button-response","trial_index":76,"time_elapsed":681378,"internal_node_id":"0.0-4.0-1.32","subject_id":"5eb2e299831ce0092dd2b965","study_id":"6197b3f67c2b5cd3b6d9596a","session_id":"619be4558ed9d7b727785038","condition":"contingent","relevant_dimensions":["pattern","legs"],"bee_group":{"antennae":"X","wings":"X","pattern":"D","legs":"F"},"bonus":0.9200000000000009},{"rt":983.0999999940395,"stimulus":"bees-with-color/bee-B1DM.svg","response":0,"trial_type":"image-button-response","trial_index":77,"time_elapsed":682364,"internal_node_id":"0.0-4.0-0.33","subject_id":"5eb2e299831ce0092dd2b965","study_id":"6197b3f67c2b5cd3b6d9596a","session_id":"619be4558ed9d7b727785038","condition":"contingent","relevant_dimensions":["pattern","legs"],"bee_group":{"antennae":"X","wings":"X","pattern":"D","legs":"F"},"action":"harvest","summary":"good-harvest","bonus":0.9200000000000009},{"rt":740.5,"stimulus":"\n                    <p><b>Action: <em>harvest</em></b></p>\n                    <p>This is the bee that you just saw.</p>\n                    <img src=\"bees-with-color/bee-B1DM.svg\" width=\"200\">\n                    <p><span class=\"greenText\"><b>Successful harvest!</b></span><br>Your pay has increased by $0.02. Your bonus pay is now $0.44.</p>\n            ","response":0,"trial_type":"html-button-response","trial_index":78,"time_elapsed":683110,"internal_node_id":"0.0-4.0-1.33","subject_id":"5eb2e299831ce0092dd2b965","study_id":"6197b3f67c2b5cd3b6d9596a","session_id":"619be4558ed9d7b727785038","condition":"contingent","relevant_dimensions":["pattern","legs"],"bee_group":{"antennae":"X","wings":"X","pattern":"D","legs":"F"},"bonus":0.9200000000000009},{"rt":1608.2999999821186,"stimulus":"bees-with-color/bee-A2SF.svg","response":1,"trial_type":"image-button-response","trial_index":79,"time_elapsed":684721,"internal_node_id":"0.0-4.0-0.34","subject_id":"5eb2e299831ce0092dd2b965","study_id":"6197b3f67c2b5cd3b6d9596a","session_id":"619be4558ed9d7b727785038","condition":"contingent","relevant_dimensions":["pattern","legs"],"bee_group":{"antennae":"X","wings":"X","pattern":"D","legs":"F"},"action":"avoid","summary":"bad-avoid","bonus":0.9200000000000009},{"rt":619.4000000059605,"stimulus":"\n                    <p><b>Action: <em>avoid</em></b></p>\n                    <p>This is the bee that you just saw.</p>\n                    <img src=\"bees-with-color/bee-A2SF.svg\" width=\"200\">\n                    <p><br>Your bonus pay is unchanged, and remains at $0.44.</p>\n            ","response":0,"trial_type":"html-button-response","trial_index":80,"time_elapsed":685345,"internal_node_id":"0.0-4.0-1.34","subject_id":"5eb2e299831ce0092dd2b965","study_id":"6197b3f67c2b5cd3b6d9596a","session_id":"619be4558ed9d7b727785038","condition":"contingent","relevant_dimensions":["pattern","legs"],"bee_group":{"antennae":"X","wings":"X","pattern":"D","legs":"F"},"bonus":0.9200000000000009},{"rt":2446.5,"stimulus":"bees-with-color/bee-B2DF.svg","response":1,"trial_type":"image-button-response","trial_index":81,"time_elapsed":687795,"internal_node_id":"0.0-4.0-0.35","subject_id":"5eb2e299831ce0092dd2b965","study_id":"6197b3f67c2b5cd3b6d9596a","session_id":"619be4558ed9d7b727785038","condition":"contingent","relevant_dimensions":["pattern","legs"],"bee_group":{"antennae":"X","wings":"X","pattern":"D","legs":"F"},"action":"avoid","summary":"good-avoid","bonus":0.9200000000000009},{"rt":514.9000000059605,"stimulus":"\n                    <p><b>Action: <em>avoid</em></b></p>\n                    <p>This is the bee that you just saw.</p>\n                    <img src=\"bees-with-color/bee-B2DF.svg\" width=\"200\">\n                    <p><br>Your bonus pay is unchanged, and remains at $0.44.</p>\n            ","response":0,"trial_type":"html-button-response","trial_index":82,"time_elapsed":688315,"internal_node_id":"0.0-4.0-1.35","subject_id":"5eb2e299831ce0092dd2b965","study_id":"6197b3f67c2b5cd3b6d9596a","session_id":"619be4558ed9d7b727785038","condition":"contingent","relevant_dimensions":["pattern","legs"],"bee_group":{"antennae":"X","wings":"X","pattern":"D","legs":"F"},"bonus":0.9200000000000009},{"rt":1170.9000000059605,"stimulus":"bees-with-color/bee-B1SM.svg","response":1,"trial_type":"image-button-response","trial_index":83,"time_elapsed":689489,"internal_node_id":"0.0-4.0-0.36","subject_id":"5eb2e299831ce0092dd2b965","study_id":"6197b3f67c2b5cd3b6d9596a","session_id":"619be4558ed9d7b727785038","condition":"contingent","relevant_dimensions":["pattern","legs"],"bee_group":{"antennae":"X","wings":"X","pattern":"D","legs":"F"},"action":"avoid","summary":"bad-avoid","bonus":0.9200000000000009},{"rt":753.1999999880791,"stimulus":"\n                    <p><b>Action: <em>avoid</em></b></p>\n                    <p>This is the bee that you just saw.</p>\n                    <img src=\"bees-with-color/bee-B1SM.svg\" width=\"200\">\n                    <p><br>Your bonus pay is unchanged, and remains at $0.44.</p>\n            ","response":0,"trial_type":"html-button-response","trial_index":84,"time_elapsed":690250,"internal_node_id":"0.0-4.0-1.36","subject_id":"5eb2e299831ce0092dd2b965","study_id":"6197b3f67c2b5cd3b6d9596a","session_id":"619be4558ed9d7b727785038","condition":"contingent","relevant_dimensions":["pattern","legs"],"bee_group":{"antennae":"X","wings":"X","pattern":"D","legs":"F"},"bonus":0.9200000000000009},{"rt":782.1999999880791,"stimulus":"bees-with-color/bee-B1SF.svg","response":1,"trial_type":"image-button-response","trial_index":85,"time_elapsed":691035,"internal_node_id":"0.0-4.0-0.37","subject_id":"5eb2e299831ce0092dd2b965","study_id":"6197b3f67c2b5cd3b6d9596a","session_id":"619be4558ed9d7b727785038","condition":"contingent","relevant_dimensions":["pattern","legs"],"bee_group":{"antennae":"X","wings":"X","pattern":"D","legs":"F"},"action":"avoid","summary":"bad-avoid","bonus":0.9200000000000009},{"rt":627.3000000119209,"stimulus":"\n                    <p><b>Action: <em>avoid</em></b></p>\n                    <p>This is the bee that you just saw.</p>\n                    <img src=\"bees-with-color/bee-B1SF.svg\" width=\"200\">\n                    <p><br>Your bonus pay is unchanged, and remains at $0.44.</p>\n            ","response":0,"trial_type":"html-button-response","trial_index":86,"time_elapsed":691665,"internal_node_id":"0.0-4.0-1.37","subject_id":"5eb2e299831ce0092dd2b965","study_id":"6197b3f67c2b5cd3b6d9596a","session_id":"619be4558ed9d7b727785038","condition":"contingent","relevant_dimensions":["pattern","legs"],"bee_group":{"antennae":"X","wings":"X","pattern":"D","legs":"F"},"bonus":0.9200000000000009},{"rt":999.5,"stimulus":"bees-with-color/bee-B2DM.svg","response":0,"trial_type":"image-button-response","trial_index":87,"time_elapsed":692668,"internal_node_id":"0.0-4.0-0.38","subject_id":"5eb2e299831ce0092dd2b965","study_id":"6197b3f67c2b5cd3b6d9596a","session_id":"619be4558ed9d7b727785038","condition":"contingent","relevant_dimensions":["pattern","legs"],"bee_group":{"antennae":"X","wings":"X","pattern":"D","legs":"F"},"action":"harvest","summary":"good-harvest","bonus":0.9200000000000009},{"rt":687.9000000059605,"stimulus":"\n                    <p><b>Action: <em>harvest</em></b></p>\n                    <p>This is the bee that you just saw.</p>\n                    <img src=\"bees-with-color/bee-B2DM.svg\" width=\"200\">\n                    <p><span class=\"greenText\"><b>Successful harvest!</b></span><br>Your pay has increased by $0.02. Your bonus pay is now $0.46.</p>\n            ","response":0,"trial_type":"html-button-response","trial_index":88,"time_elapsed":693362,"internal_node_id":"0.0-4.0-1.38","subject_id":"5eb2e299831ce0092dd2b965","study_id":"6197b3f67c2b5cd3b6d9596a","session_id":"619be4558ed9d7b727785038","condition":"contingent","relevant_dimensions":["pattern","legs"],"bee_group":{"antennae":"X","wings":"X","pattern":"D","legs":"F"},"bonus":0.9200000000000009},{"rt":1303.800000011921,"stimulus":"bees-with-color/bee-A1SF.svg","response":1,"trial_type":"image-button-response","trial_index":89,"time_elapsed":694670,"internal_node_id":"0.0-4.0-0.39","subject_id":"5eb2e299831ce0092dd2b965","study_id":"6197b3f67c2b5cd3b6d9596a","session_id":"619be4558ed9d7b727785038","condition":"contingent","relevant_dimensions":["pattern","legs"],"bee_group":{"antennae":"X","wings":"X","pattern":"D","legs":"F"},"action":"avoid","summary":"bad-avoid","bonus":0.9200000000000009},{"rt":526.2000000178814,"stimulus":"\n                    <p><b>Action: <em>avoid</em></b></p>\n                    <p>This is the bee that you just saw.</p>\n                    <img src=\"bees-with-color/bee-A1SF.svg\" width=\"200\">\n                    <p><br>Your bonus pay is unchanged, and remains at $0.46.</p>\n            ","response":0,"trial_type":"html-button-response","trial_index":90,"time_elapsed":695202,"internal_node_id":"0.0-4.0-1.39","subject_id":"5eb2e299831ce0092dd2b965","study_id":"6197b3f67c2b5cd3b6d9596a","session_id":"619be4558ed9d7b727785038","condition":"contingent","relevant_dimensions":["pattern","legs"],"bee_group":{"antennae":"X","wings":"X","pattern":"D","legs":"F"},"bonus":0.9200000000000009},{"rt":1127.4000000059605,"stimulus":"bees-with-color/bee-B2SM.svg","response":0,"trial_type":"image-button-response","trial_index":91,"time_elapsed":696333,"internal_node_id":"0.0-4.0-0.40","subject_id":"5eb2e299831ce0092dd2b965","study_id":"6197b3f67c2b5cd3b6d9596a","session_id":"619be4558ed9d7b727785038","condition":"contingent","relevant_dimensions":["pattern","legs"],"bee_group":{"antennae":"X","wings":"X","pattern":"D","legs":"F"},"action":"harvest","summary":"good-harvest","bonus":0.9200000000000009},{"rt":620.5999999940395,"stimulus":"\n                    <p><b>Action: <em>harvest</em></b></p>\n                    <p>This is the bee that you just saw.</p>\n                    <img src=\"bees-with-color/bee-B2SM.svg\" width=\"200\">\n                    <p><span class=\"greenText\"><b>Successful harvest!</b></span><br>Your pay has increased by $0.02. Your bonus pay is now $0.48.</p>\n            ","response":0,"trial_type":"html-button-response","trial_index":92,"time_elapsed":696958,"internal_node_id":"0.0-4.0-1.40","subject_id":"5eb2e299831ce0092dd2b965","study_id":"6197b3f67c2b5cd3b6d9596a","session_id":"619be4558ed9d7b727785038","condition":"contingent","relevant_dimensions":["pattern","legs"],"bee_group":{"antennae":"X","wings":"X","pattern":"D","legs":"F"},"bonus":0.9200000000000009},{"rt":1312,"stimulus":"bees-with-color/bee-A1DF.svg","response":1,"trial_type":"image-button-response","trial_index":93,"time_elapsed":698274,"internal_node_id":"0.0-4.0-0.41","subject_id":"5eb2e299831ce0092dd2b965","study_id":"6197b3f67c2b5cd3b6d9596a","session_id":"619be4558ed9d7b727785038","condition":"contingent","relevant_dimensions":["pattern","legs"],"bee_group":{"antennae":"X","wings":"X","pattern":"D","legs":"F"},"action":"avoid","summary":"good-avoid","bonus":0.9200000000000009},{"rt":750.0999999940395,"stimulus":"\n                    <p><b>Action: <em>avoid</em></b></p>\n                    <p>This is the bee that you just saw.</p>\n                    <img src=\"bees-with-color/bee-A1DF.svg\" width=\"200\">\n                    <p><br>Your bonus pay is unchanged, and remains at $0.48.</p>\n            ","response":0,"trial_type":"html-button-response","trial_index":94,"time_elapsed":699029,"internal_node_id":"0.0-4.0-1.41","subject_id":"5eb2e299831ce0092dd2b965","study_id":"6197b3f67c2b5cd3b6d9596a","session_id":"619be4558ed9d7b727785038","condition":"contingent","relevant_dimensions":["pattern","legs"],"bee_group":{"antennae":"X","wings":"X","pattern":"D","legs":"F"},"bonus":0.9200000000000009},{"rt":851,"stimulus":"bees-with-color/bee-A2DM.svg","response":0,"trial_type":"image-button-response","trial_index":95,"time_elapsed":699884,"internal_node_id":"0.0-4.0-0.42","subject_id":"5eb2e299831ce0092dd2b965","study_id":"6197b3f67c2b5cd3b6d9596a","session_id":"619be4558ed9d7b727785038","condition":"contingent","relevant_dimensions":["pattern","legs"],"bee_group":{"antennae":"X","wings":"X","pattern":"D","legs":"F"},"action":"harvest","summary":"good-harvest","bonus":0.9200000000000009},{"rt":1296.5999999940395,"stimulus":"\n                    <p><b>Action: <em>harvest</em></b></p>\n                    <p>This is the bee that you just saw.</p>\n                    <img src=\"bees-with-color/bee-A2DM.svg\" width=\"200\">\n                    <p><span class=\"greenText\"><b>Successful harvest!</b></span><br>Your pay has increased by $0.02. Your bonus pay is now $0.50.</p>\n            ","response":0,"trial_type":"html-button-response","trial_index":96,"time_elapsed":701186,"internal_node_id":"0.0-4.0-1.42","subject_id":"5eb2e299831ce0092dd2b965","study_id":"6197b3f67c2b5cd3b6d9596a","session_id":"619be4558ed9d7b727785038","condition":"contingent","relevant_dimensions":["pattern","legs"],"bee_group":{"antennae":"X","wings":"X","pattern":"D","legs":"F"},"bonus":0.9200000000000009},{"rt":1151.2999999821186,"stimulus":"bees-with-color/bee-A1SM.svg","response":0,"trial_type":"image-button-response","trial_index":97,"time_elapsed":702339,"internal_node_id":"0.0-4.0-0.43","subject_id":"5eb2e299831ce0092dd2b965","study_id":"6197b3f67c2b5cd3b6d9596a","session_id":"619be4558ed9d7b727785038","condition":"contingent","relevant_dimensions":["pattern","legs"],"bee_group":{"antennae":"X","wings":"X","pattern":"D","legs":"F"},"action":"harvest","summary":"good-harvest","bonus":0.9200000000000009},{"rt":596.8000000119209,"stimulus":"\n                    <p><b>Action: <em>harvest</em></b></p>\n                    <p>This is the bee that you just saw.</p>\n                    <img src=\"bees-with-color/bee-A1SM.svg\" width=\"200\">\n                    <p><span class=\"greenText\"><b>Successful harvest!</b></span><br>Your pay has increased by $0.02. Your bonus pay is now $0.52.</p>\n            ","response":0,"trial_type":"html-button-response","trial_index":98,"time_elapsed":702941,"internal_node_id":"0.0-4.0-1.43","subject_id":"5eb2e299831ce0092dd2b965","study_id":"6197b3f67c2b5cd3b6d9596a","session_id":"619be4558ed9d7b727785038","condition":"contingent","relevant_dimensions":["pattern","legs"],"bee_group":{"antennae":"X","wings":"X","pattern":"D","legs":"F"},"bonus":0.9200000000000009},{"rt":1168.300000011921,"stimulus":"bees-with-color/bee-B2SF.svg","response":1,"trial_type":"image-button-response","trial_index":99,"time_elapsed":704112,"internal_node_id":"0.0-4.0-0.44","subject_id":"5eb2e299831ce0092dd2b965","study_id":"6197b3f67c2b5cd3b6d9596a","session_id":"619be4558ed9d7b727785038","condition":"contingent","relevant_dimensions":["pattern","legs"],"bee_group":{"antennae":"X","wings":"X","pattern":"D","legs":"F"},"action":"avoid","summary":"bad-avoid","bonus":0.9200000000000009},{"rt":695.4000000059605,"stimulus":"\n                    <p><b>Action: <em>avoid</em></b></p>\n                    <p>This is the bee that you just saw.</p>\n                    <img src=\"bees-with-color/bee-B2SF.svg\" width=\"200\">\n                    <p><br>Your bonus pay is unchanged, and remains at $0.52.</p>\n            ","response":0,"trial_type":"html-button-response","trial_index":100,"time_elapsed":704812,"internal_node_id":"0.0-4.0-1.44","subject_id":"5eb2e299831ce0092dd2b965","study_id":"6197b3f67c2b5cd3b6d9596a","session_id":"619be4558ed9d7b727785038","condition":"contingent","relevant_dimensions":["pattern","legs"],"bee_group":{"antennae":"X","wings":"X","pattern":"D","legs":"F"},"bonus":0.9200000000000009},{"rt":760.0999999940395,"stimulus":"bees-with-color/bee-A1DM.svg","response":0,"trial_type":"image-button-response","trial_index":101,"time_elapsed":705574,"internal_node_id":"0.0-4.0-0.45","subject_id":"5eb2e299831ce0092dd2b965","study_id":"6197b3f67c2b5cd3b6d9596a","session_id":"619be4558ed9d7b727785038","condition":"contingent","relevant_dimensions":["pattern","legs"],"bee_group":{"antennae":"X","wings":"X","pattern":"D","legs":"F"},"action":"harvest","summary":"good-harvest","bonus":0.9200000000000009},{"rt":728.7999999821186,"stimulus":"\n                    <p><b>Action: <em>harvest</em></b></p>\n                    <p>This is the bee that you just saw.</p>\n                    <img src=\"bees-with-color/bee-A1DM.svg\" width=\"200\">\n                    <p><span class=\"greenText\"><b>Successful harvest!</b></span><br>Your pay has increased by $0.02. Your bonus pay is now $0.54.</p>\n            ","response":0,"trial_type":"html-button-response","trial_index":102,"time_elapsed":706307,"internal_node_id":"0.0-4.0-1.45","subject_id":"5eb2e299831ce0092dd2b965","study_id":"6197b3f67c2b5cd3b6d9596a","session_id":"619be4558ed9d7b727785038","condition":"contingent","relevant_dimensions":["pattern","legs"],"bee_group":{"antennae":"X","wings":"X","pattern":"D","legs":"F"},"bonus":0.9200000000000009},{"rt":1167.300000011921,"stimulus":"bees-with-color/bee-A2SM.svg","response":0,"trial_type":"image-button-response","trial_index":103,"time_elapsed":707476,"internal_node_id":"0.0-4.0-0.46","subject_id":"5eb2e299831ce0092dd2b965","study_id":"6197b3f67c2b5cd3b6d9596a","session_id":"619be4558ed9d7b727785038","condition":"contingent","relevant_dimensions":["pattern","legs"],"bee_group":{"antennae":"X","wings":"X","pattern":"D","legs":"F"},"action":"harvest","summary":"good-harvest","bonus":0.9200000000000009},{"rt":659.5999999940395,"stimulus":"\n                    <p><b>Action: <em>harvest</em></b></p>\n                    <p>This is the bee that you just saw.</p>\n                    <img src=\"bees-with-color/bee-A2SM.svg\" width=\"200\">\n                    <p><span class=\"greenText\"><b>Successful harvest!</b></span><br>Your pay has increased by $0.02. Your bonus pay is now $0.56.</p>\n            ","response":0,"trial_type":"html-button-response","trial_index":104,"time_elapsed":708139,"internal_node_id":"0.0-4.0-1.46","subject_id":"5eb2e299831ce0092dd2b965","study_id":"6197b3f67c2b5cd3b6d9596a","session_id":"619be4558ed9d7b727785038","condition":"contingent","relevant_dimensions":["pattern","legs"],"bee_group":{"antennae":"X","wings":"X","pattern":"D","legs":"F"},"bonus":0.9200000000000009},{"rt":1568,"stimulus":"bees-with-color/bee-A2DF.svg","response":1,"trial_type":"image-button-response","trial_index":105,"time_elapsed":709709,"internal_node_id":"0.0-4.0-0.47","subject_id":"5eb2e299831ce0092dd2b965","study_id":"6197b3f67c2b5cd3b6d9596a","session_id":"619be4558ed9d7b727785038","condition":"contingent","relevant_dimensions":["pattern","legs"],"bee_group":{"antennae":"X","wings":"X","pattern":"D","legs":"F"},"action":"avoid","summary":"good-avoid","bonus":0.9200000000000009},{"rt":653.4000000059605,"stimulus":"\n                    <p><b>Action: <em>avoid</em></b></p>\n                    <p>This is the bee that you just saw.</p>\n                    <img src=\"bees-with-color/bee-A2DF.svg\" width=\"200\">\n                    <p><br>Your bonus pay is unchanged, and remains at $0.56.</p>\n            ","response":0,"trial_type":"html-button-response","trial_index":106,"time_elapsed":710366,"internal_node_id":"0.0-4.0-1.47","subject_id":"5eb2e299831ce0092dd2b965","study_id":"6197b3f67c2b5cd3b6d9596a","session_id":"619be4558ed9d7b727785038","condition":"contingent","relevant_dimensions":["pattern","legs"],"bee_group":{"antennae":"X","wings":"X","pattern":"D","legs":"F"},"bonus":0.9200000000000009},{"rt":926.8000000119209,"stimulus":"bees-with-color/bee-B2SF.svg","response":1,"trial_type":"image-button-response","trial_index":107,"time_elapsed":711297,"internal_node_id":"0.0-4.0-0.48","subject_id":"5eb2e299831ce0092dd2b965","study_id":"6197b3f67c2b5cd3b6d9596a","session_id":"619be4558ed9d7b727785038","condition":"contingent","relevant_dimensions":["pattern","legs"],"bee_group":{"antennae":"X","wings":"X","pattern":"D","legs":"F"},"action":"avoid","summary":"bad-avoid","bonus":0.9200000000000009},{"rt":480.5,"stimulus":"\n                    <p><b>Action: <em>avoid</em></b></p>\n                    <p>This is the bee that you just saw.</p>\n                    <img src=\"bees-with-color/bee-B2SF.svg\" width=\"200\">\n                    <p><br>Your bonus pay is unchanged, and remains at $0.56.</p>\n            ","response":0,"trial_type":"html-button-response","trial_index":108,"time_elapsed":711781,"internal_node_id":"0.0-4.0-1.48","subject_id":"5eb2e299831ce0092dd2b965","study_id":"6197b3f67c2b5cd3b6d9596a","session_id":"619be4558ed9d7b727785038","condition":"contingent","relevant_dimensions":["pattern","legs"],"bee_group":{"antennae":"X","wings":"X","pattern":"D","legs":"F"},"bonus":0.9200000000000009},{"rt":821.8000000119209,"stimulus":"bees-with-color/bee-A1DM.svg","response":0,"trial_type":"image-button-response","trial_index":109,"time_elapsed":712605,"internal_node_id":"0.0-4.0-0.49","subject_id":"5eb2e299831ce0092dd2b965","study_id":"6197b3f67c2b5cd3b6d9596a","session_id":"619be4558ed9d7b727785038","condition":"contingent","relevant_dimensions":["pattern","legs"],"bee_group":{"antennae":"X","wings":"X","pattern":"D","legs":"F"},"action":"harvest","summary":"good-harvest","bonus":0.9200000000000009},{"rt":625.9000000059605,"stimulus":"\n                    <p><b>Action: <em>harvest</em></b></p>\n                    <p>This is the bee that you just saw.</p>\n                    <img src=\"bees-with-color/bee-A1DM.svg\" width=\"200\">\n                    <p><span class=\"greenText\"><b>Successful harvest!</b></span><br>Your pay has increased by $0.02. Your bonus pay is now $0.58.</p>\n            ","response":0,"trial_type":"html-button-response","trial_index":110,"time_elapsed":713237,"internal_node_id":"0.0-4.0-1.49","subject_id":"5eb2e299831ce0092dd2b965","study_id":"6197b3f67c2b5cd3b6d9596a","session_id":"619be4558ed9d7b727785038","condition":"contingent","relevant_dimensions":["pattern","legs"],"bee_group":{"antennae":"X","wings":"X","pattern":"D","legs":"F"},"bonus":0.9200000000000009},{"rt":1014.9000000059605,"stimulus":"bees-with-color/bee-B2DF.svg","response":0,"trial_type":"image-button-response","trial_index":111,"time_elapsed":714254,"internal_node_id":"0.0-4.0-0.50","subject_id":"5eb2e299831ce0092dd2b965","study_id":"6197b3f67c2b5cd3b6d9596a","session_id":"619be4558ed9d7b727785038","condition":"contingent","relevant_dimensions":["pattern","legs"],"bee_group":{"antennae":"X","wings":"X","pattern":"D","legs":"F"},"action":"harvest","summary":"bad-harvest","bonus":0.9200000000000009},{"rt":972.6999999880791,"stimulus":"\n                    <p><b>Action: <em>harvest</em></b></p>\n                    <p>This is the bee that you just saw.</p>\n                    <img src=\"bees-with-color/bee-B2DF.svg\" width=\"200\">\n                    <p><span class=\"redText\">Bad choice, the bee was angry.</span><br><b>You have been stung!</b><br>Your pay has been decreased by $0.10. Your bonus pay is now $0.48.</p>\n            ","response":0,"trial_type":"html-button-response","trial_index":112,"time_elapsed":715232,"internal_node_id":"0.0-4.0-1.50","subject_id":"5eb2e299831ce0092dd2b965","study_id":"6197b3f67c2b5cd3b6d9596a","session_id":"619be4558ed9d7b727785038","condition":"contingent","relevant_dimensions":["pattern","legs"],"bee_group":{"antennae":"X","wings":"X","pattern":"D","legs":"F"},"bonus":0.9200000000000009},{"rt":1098.800000011921,"stimulus":"bees-with-color/bee-A2SF.svg","response":1,"trial_type":"image-button-response","trial_index":113,"time_elapsed":716334,"internal_node_id":"0.0-4.0-0.51","subject_id":"5eb2e299831ce0092dd2b965","study_id":"6197b3f67c2b5cd3b6d9596a","session_id":"619be4558ed9d7b727785038","condition":"contingent","relevant_dimensions":["pattern","legs"],"bee_group":{"antennae":"X","wings":"X","pattern":"D","legs":"F"},"action":"avoid","summary":"bad-avoid","bonus":0.9200000000000009},{"rt":579.6999999880791,"stimulus":"\n                    <p><b>Action: <em>avoid</em></b></p>\n                    <p>This is the bee that you just saw.</p>\n                    <img src=\"bees-with-color/bee-A2SF.svg\" width=\"200\">\n                    <p><br>Your bonus pay is unchanged, and remains at $0.48.</p>\n            ","response":0,"trial_type":"html-button-response","trial_index":114,"time_elapsed":716919,"internal_node_id":"0.0-4.0-1.51","subject_id":"5eb2e299831ce0092dd2b965","study_id":"6197b3f67c2b5cd3b6d9596a","session_id":"619be4558ed9d7b727785038","condition":"contingent","relevant_dimensions":["pattern","legs"],"bee_group":{"antennae":"X","wings":"X","pattern":"D","legs":"F"},"bonus":0.9200000000000009},{"rt":1157.8999999761581,"stimulus":"bees-with-color/bee-B1SF.svg","response":1,"trial_type":"image-button-response","trial_index":115,"time_elapsed":718082,"internal_node_id":"0.0-4.0-0.52","subject_id":"5eb2e299831ce0092dd2b965","study_id":"6197b3f67c2b5cd3b6d9596a","session_id":"619be4558ed9d7b727785038","condition":"contingent","relevant_dimensions":["pattern","legs"],"bee_group":{"antennae":"X","wings":"X","pattern":"D","legs":"F"},"action":"avoid","summary":"bad-avoid","bonus":0.9200000000000009},{"rt":494.59999999403954,"stimulus":"\n                    <p><b>Action: <em>avoid</em></b></p>\n                    <p>This is the bee that you just saw.</p>\n                    <img src=\"bees-with-color/bee-B1SF.svg\" width=\"200\">\n                    <p><br>Your bonus pay is unchanged, and remains at $0.48.</p>\n            ","response":0,"trial_type":"html-button-response","trial_index":116,"time_elapsed":718582,"internal_node_id":"0.0-4.0-1.52","subject_id":"5eb2e299831ce0092dd2b965","study_id":"6197b3f67c2b5cd3b6d9596a","session_id":"619be4558ed9d7b727785038","condition":"contingent","relevant_dimensions":["pattern","legs"],"bee_group":{"antennae":"X","wings":"X","pattern":"D","legs":"F"},"bonus":0.9200000000000009},{"rt":728,"stimulus":"bees-with-color/bee-A2SM.svg","response":0,"trial_type":"image-button-response","trial_index":117,"time_elapsed":719314,"internal_node_id":"0.0-4.0-0.53","subject_id":"5eb2e299831ce0092dd2b965","study_id":"6197b3f67c2b5cd3b6d9596a","session_id":"619be4558ed9d7b727785038","condition":"contingent","relevant_dimensions":["pattern","legs"],"bee_group":{"antennae":"X","wings":"X","pattern":"D","legs":"F"},"action":"harvest","summary":"good-harvest","bonus":0.9200000000000009},{"rt":641.1999999880791,"stimulus":"\n                    <p><b>Action: <em>harvest</em></b></p>\n                    <p>This is the bee that you just saw.</p>\n                    <img src=\"bees-with-color/bee-A2SM.svg\" width=\"200\">\n                    <p><span class=\"greenText\"><b>Successful harvest!</b></span><br>Your pay has increased by $0.02. Your bonus pay is now $0.50.</p>\n            ","response":0,"trial_type":"html-button-response","trial_index":118,"time_elapsed":719960,"internal_node_id":"0.0-4.0-1.53","subject_id":"5eb2e299831ce0092dd2b965","study_id":"6197b3f67c2b5cd3b6d9596a","session_id":"619be4558ed9d7b727785038","condition":"contingent","relevant_dimensions":["pattern","legs"],"bee_group":{"antennae":"X","wings":"X","pattern":"D","legs":"F"},"bonus":0.9200000000000009},{"rt":1073.0999999940395,"stimulus":"bees-with-color/bee-A2DM.svg","response":0,"trial_type":"image-button-response","trial_index":119,"time_elapsed":721038,"internal_node_id":"0.0-4.0-0.54","subject_id":"5eb2e299831ce0092dd2b965","study_id":"6197b3f67c2b5cd3b6d9596a","session_id":"619be4558ed9d7b727785038","condition":"contingent","relevant_dimensions":["pattern","legs"],"bee_group":{"antennae":"X","wings":"X","pattern":"D","legs":"F"},"action":"harvest","summary":"good-harvest","bonus":0.9200000000000009},{"rt":679.7999999821186,"stimulus":"\n                    <p><b>Action: <em>harvest</em></b></p>\n                    <p>This is the bee that you just saw.</p>\n                    <img src=\"bees-with-color/bee-A2DM.svg\" width=\"200\">\n                    <p><span class=\"greenText\"><b>Successful harvest!</b></span><br>Your pay has increased by $0.02. Your bonus pay is now $0.52.</p>\n            ","response":0,"trial_type":"html-button-response","trial_index":120,"time_elapsed":721724,"internal_node_id":"0.0-4.0-1.54","subject_id":"5eb2e299831ce0092dd2b965","study_id":"6197b3f67c2b5cd3b6d9596a","session_id":"619be4558ed9d7b727785038","condition":"contingent","relevant_dimensions":["pattern","legs"],"bee_group":{"antennae":"X","wings":"X","pattern":"D","legs":"F"},"bonus":0.9200000000000009},{"rt":796.7000000178814,"stimulus":"bees-with-color/bee-A1DF.svg","response":1,"trial_type":"image-button-response","trial_index":121,"time_elapsed":722524,"internal_node_id":"0.0-4.0-0.55","subject_id":"5eb2e299831ce0092dd2b965","study_id":"6197b3f67c2b5cd3b6d9596a","session_id":"619be4558ed9d7b727785038","condition":"contingent","relevant_dimensions":["pattern","legs"],"bee_group":{"antennae":"X","wings":"X","pattern":"D","legs":"F"},"action":"avoid","summary":"good-avoid","bonus":0.9200000000000009},{"rt":602.5999999940395,"stimulus":"\n                    <p><b>Action: <em>avoid</em></b></p>\n                    <p>This is the bee that you just saw.</p>\n                    <img src=\"bees-with-color/bee-A1DF.svg\" width=\"200\">\n                    <p><br>Your bonus pay is unchanged, and remains at $0.52.</p>\n            ","response":0,"trial_type":"html-button-response","trial_index":122,"time_elapsed":723134,"internal_node_id":"0.0-4.0-1.55","subject_id":"5eb2e299831ce0092dd2b965","study_id":"6197b3f67c2b5cd3b6d9596a","session_id":"619be4558ed9d7b727785038","condition":"contingent","relevant_dimensions":["pattern","legs"],"bee_group":{"antennae":"X","wings":"X","pattern":"D","legs":"F"},"bonus":0.9200000000000009},{"rt":746.9000000059605,"stimulus":"bees-with-color/bee-B2SM.svg","response":0,"trial_type":"image-button-response","trial_index":123,"time_elapsed":723885,"internal_node_id":"0.0-4.0-0.56","subject_id":"5eb2e299831ce0092dd2b965","study_id":"6197b3f67c2b5cd3b6d9596a","session_id":"619be4558ed9d7b727785038","condition":"contingent","relevant_dimensions":["pattern","legs"],"bee_group":{"antennae":"X","wings":"X","pattern":"D","legs":"F"},"action":"harvest","summary":"good-harvest","bonus":0.9200000000000009},{"rt":745.1999999880791,"stimulus":"\n                    <p><b>Action: <em>harvest</em></b></p>\n                    <p>This is the bee that you just saw.</p>\n                    <img src=\"bees-with-color/bee-B2SM.svg\" width=\"200\">\n                    <p><span class=\"greenText\"><b>Successful harvest!</b></span><br>Your pay has increased by $0.02. Your bonus pay is now $0.54.</p>\n            ","response":0,"trial_type":"html-button-response","trial_index":124,"time_elapsed":724642,"internal_node_id":"0.0-4.0-1.56","subject_id":"5eb2e299831ce0092dd2b965","study_id":"6197b3f67c2b5cd3b6d9596a","session_id":"619be4558ed9d7b727785038","condition":"contingent","relevant_dimensions":["pattern","legs"],"bee_group":{"antennae":"X","wings":"X","pattern":"D","legs":"F"},"bonus":0.9200000000000009},{"rt":2808.300000011921,"stimulus":"bees-with-color/bee-A2DF.svg","response":1,"trial_type":"image-button-response","trial_index":125,"time_elapsed":727454,"internal_node_id":"0.0-4.0-0.57","subject_id":"5eb2e299831ce0092dd2b965","study_id":"6197b3f67c2b5cd3b6d9596a","session_id":"619be4558ed9d7b727785038","condition":"contingent","relevant_dimensions":["pattern","legs"],"bee_group":{"antennae":"X","wings":"X","pattern":"D","legs":"F"},"action":"avoid","summary":"good-avoid","bonus":0.9200000000000009},{"rt":576.5,"stimulus":"\n                    <p><b>Action: <em>avoid</em></b></p>\n                    <p>This is the bee that you just saw.</p>\n                    <img src=\"bees-with-color/bee-A2DF.svg\" width=\"200\">\n                    <p><br>Your bonus pay is unchanged, and remains at $0.54.</p>\n            ","response":0,"trial_type":"html-button-response","trial_index":126,"time_elapsed":728036,"internal_node_id":"0.0-4.0-1.57","subject_id":"5eb2e299831ce0092dd2b965","study_id":"6197b3f67c2b5cd3b6d9596a","session_id":"619be4558ed9d7b727785038","condition":"contingent","relevant_dimensions":["pattern","legs"],"bee_group":{"antennae":"X","wings":"X","pattern":"D","legs":"F"},"bonus":0.9200000000000009},{"rt":784.2999999821186,"stimulus":"bees-with-color/bee-B1SM.svg","response":0,"trial_type":"image-button-response","trial_index":127,"time_elapsed":728824,"internal_node_id":"0.0-4.0-0.58","subject_id":"5eb2e299831ce0092dd2b965","study_id":"6197b3f67c2b5cd3b6d9596a","session_id":"619be4558ed9d7b727785038","condition":"contingent","relevant_dimensions":["pattern","legs"],"bee_group":{"antennae":"X","wings":"X","pattern":"D","legs":"F"},"action":"harvest","summary":"good-harvest","bonus":0.9200000000000009},{"rt":718.7999999821186,"stimulus":"\n                    <p><b>Action: <em>harvest</em></b></p>\n                    <p>This is the bee that you just saw.</p>\n                    <img src=\"bees-with-color/bee-B1SM.svg\" width=\"200\">\n                    <p><span class=\"greenText\"><b>Successful harvest!</b></span><br>Your pay has increased by $0.02. Your bonus pay is now $0.56.</p>\n            ","response":0,"trial_type":"html-button-response","trial_index":128,"time_elapsed":729548,"internal_node_id":"0.0-4.0-1.58","subject_id":"5eb2e299831ce0092dd2b965","study_id":"6197b3f67c2b5cd3b6d9596a","session_id":"619be4558ed9d7b727785038","condition":"contingent","relevant_dimensions":["pattern","legs"],"bee_group":{"antennae":"X","wings":"X","pattern":"D","legs":"F"},"bonus":0.9200000000000009},{"rt":799.2999999821186,"stimulus":"bees-with-color/bee-B1DF.svg","response":1,"trial_type":"image-button-response","trial_index":129,"time_elapsed":730350,"internal_node_id":"0.0-4.0-0.59","subject_id":"5eb2e299831ce0092dd2b965","study_id":"6197b3f67c2b5cd3b6d9596a","session_id":"619be4558ed9d7b727785038","condition":"contingent","relevant_dimensions":["pattern","legs"],"bee_group":{"antennae":"X","wings":"X","pattern":"D","legs":"F"},"action":"avoid","summary":"good-avoid","bonus":0.9200000000000009},{"rt":524.8999999761581,"stimulus":"\n                    <p><b>Action: <em>avoid</em></b></p>\n                    <p>This is the bee that you just saw.</p>\n                    <img src=\"bees-with-color/bee-B1DF.svg\" width=\"200\">\n                    <p><br>Your bonus pay is unchanged, and remains at $0.56.</p>\n            ","response":0,"trial_type":"html-button-response","trial_index":130,"time_elapsed":730879,"internal_node_id":"0.0-4.0-1.59","subject_id":"5eb2e299831ce0092dd2b965","study_id":"6197b3f67c2b5cd3b6d9596a","session_id":"619be4558ed9d7b727785038","condition":"contingent","relevant_dimensions":["pattern","legs"],"bee_group":{"antennae":"X","wings":"X","pattern":"D","legs":"F"},"bonus":0.9200000000000009},{"rt":1000.7000000178814,"stimulus":"bees-with-color/bee-B2DM.svg","response":0,"trial_type":"image-button-response","trial_index":131,"time_elapsed":731881,"internal_node_id":"0.0-4.0-0.60","subject_id":"5eb2e299831ce0092dd2b965","study_id":"6197b3f67c2b5cd3b6d9596a","session_id":"619be4558ed9d7b727785038","condition":"contingent","relevant_dimensions":["pattern","legs"],"bee_group":{"antennae":"X","wings":"X","pattern":"D","legs":"F"},"action":"harvest","summary":"good-harvest","bonus":0.9200000000000009},{"rt":717.3000000119209,"stimulus":"\n                    <p><b>Action: <em>harvest</em></b></p>\n                    <p>This is the bee that you just saw.</p>\n                    <img src=\"bees-with-color/bee-B2DM.svg\" width=\"200\">\n                    <p><span class=\"greenText\"><b>Successful harvest!</b></span><br>Your pay has increased by $0.02. Your bonus pay is now $0.58.</p>\n            ","response":0,"trial_type":"html-button-response","trial_index":132,"time_elapsed":732606,"internal_node_id":"0.0-4.0-1.60","subject_id":"5eb2e299831ce0092dd2b965","study_id":"6197b3f67c2b5cd3b6d9596a","session_id":"619be4558ed9d7b727785038","condition":"contingent","relevant_dimensions":["pattern","legs"],"bee_group":{"antennae":"X","wings":"X","pattern":"D","legs":"F"},"bonus":0.9200000000000009},{"rt":1029.5999999940395,"stimulus":"bees-with-color/bee-B1DM.svg","response":0,"trial_type":"image-button-response","trial_index":133,"time_elapsed":733638,"internal_node_id":"0.0-4.0-0.61","subject_id":"5eb2e299831ce0092dd2b965","study_id":"6197b3f67c2b5cd3b6d9596a","session_id":"619be4558ed9d7b727785038","condition":"contingent","relevant_dimensions":["pattern","legs"],"bee_group":{"antennae":"X","wings":"X","pattern":"D","legs":"F"},"action":"harvest","summary":"good-harvest","bonus":0.9200000000000009},{"rt":562.5999999940395,"stimulus":"\n                    <p><b>Action: <em>harvest</em></b></p>\n                    <p>This is the bee that you just saw.</p>\n                    <img src=\"bees-with-color/bee-B1DM.svg\" width=\"200\">\n                    <p><span class=\"greenText\"><b>Successful harvest!</b></span><br>Your pay has increased by $0.02. Your bonus pay is now $0.60.</p>\n            ","response":0,"trial_type":"html-button-response","trial_index":134,"time_elapsed":734206,"internal_node_id":"0.0-4.0-1.61","subject_id":"5eb2e299831ce0092dd2b965","study_id":"6197b3f67c2b5cd3b6d9596a","session_id":"619be4558ed9d7b727785038","condition":"contingent","relevant_dimensions":["pattern","legs"],"bee_group":{"antennae":"X","wings":"X","pattern":"D","legs":"F"},"bonus":0.9200000000000009},{"rt":1052.199999988079,"stimulus":"bees-with-color/bee-A1SM.svg","response":0,"trial_type":"image-button-response","trial_index":135,"time_elapsed":735262,"internal_node_id":"0.0-4.0-0.62","subject_id":"5eb2e299831ce0092dd2b965","study_id":"6197b3f67c2b5cd3b6d9596a","session_id":"619be4558ed9d7b727785038","condition":"contingent","relevant_dimensions":["pattern","legs"],"bee_group":{"antennae":"X","wings":"X","pattern":"D","legs":"F"},"action":"harvest","summary":"good-harvest","bonus":0.9200000000000009},{"rt":595.1000000238419,"stimulus":"\n                    <p><b>Action: <em>harvest</em></b></p>\n                    <p>This is the bee that you just saw.</p>\n                    <img src=\"bees-with-color/bee-A1SM.svg\" width=\"200\">\n                    <p><span class=\"greenText\"><b>Successful harvest!</b></span><br>Your pay has increased by $0.02. Your bonus pay is now $0.62.</p>\n            ","response":0,"trial_type":"html-button-response","trial_index":136,"time_elapsed":735862,"internal_node_id":"0.0-4.0-1.62","subject_id":"5eb2e299831ce0092dd2b965","study_id":"6197b3f67c2b5cd3b6d9596a","session_id":"619be4558ed9d7b727785038","condition":"contingent","relevant_dimensions":["pattern","legs"],"bee_group":{"antennae":"X","wings":"X","pattern":"D","legs":"F"},"bonus":0.9200000000000009},{"rt":698.0999999940395,"stimulus":"bees-with-color/bee-A1SF.svg","response":1,"trial_type":"image-button-response","trial_index":137,"time_elapsed":736564,"internal_node_id":"0.0-4.0-0.63","subject_id":"5eb2e299831ce0092dd2b965","study_id":"6197b3f67c2b5cd3b6d9596a","session_id":"619be4558ed9d7b727785038","condition":"contingent","relevant_dimensions":["pattern","legs"],"bee_group":{"antennae":"X","wings":"X","pattern":"D","legs":"F"},"action":"avoid","summary":"bad-avoid","bonus":0.9200000000000009},{"rt":549,"stimulus":"\n                    <p><b>Action: <em>avoid</em></b></p>\n                    <p>This is the bee that you just saw.</p>\n                    <img src=\"bees-with-color/bee-A1SF.svg\" width=\"200\">\n                    <p><br>Your bonus pay is unchanged, and remains at $0.62.</p>\n            ","response":0,"trial_type":"html-button-response","trial_index":138,"time_elapsed":737118,"internal_node_id":"0.0-4.0-1.63","subject_id":"5eb2e299831ce0092dd2b965","study_id":"6197b3f67c2b5cd3b6d9596a","session_id":"619be4558ed9d7b727785038","condition":"contingent","relevant_dimensions":["pattern","legs"],"bee_group":{"antennae":"X","wings":"X","pattern":"D","legs":"F"},"bonus":0.9200000000000009},{"rt":3131.5,"stimulus":"You have completed the first part of this experiment.<br><br>You will now begin a shorter second part, in which you will receive no feedback.<br>The same rules regarding bonus pay apply.<br><br>Press any key to begin.","response":" ","trial_type":"html-keyboard-response","trial_index":139,"time_elapsed":740253,"internal_node_id":"0.0-5.0","subject_id":"5eb2e299831ce0092dd2b965","study_id":"6197b3f67c2b5cd3b6d9596a","session_id":"619be4558ed9d7b727785038","condition":"contingent","relevant_dimensions":["pattern","legs"],"bee_group":{"antennae":"X","wings":"X","pattern":"D","legs":"F"},"bonus":0.9200000000000009},{"rt":1768,"stimulus":"bees-with-color/bee-B2DM.svg","response":0,"trial_type":"image-button-response","trial_index":140,"time_elapsed":742048,"internal_node_id":"0.0-6.0-0.0","subject_id":"5eb2e299831ce0092dd2b965","study_id":"6197b3f67c2b5cd3b6d9596a","session_id":"619be4558ed9d7b727785038","condition":"contingent","relevant_dimensions":["pattern","legs"],"bee_group":{"antennae":"X","wings":"X","pattern":"D","legs":"F"},"bonus":0.9200000000000009},{"rt":2072.5,"stimulus":"bees-with-color/bee-B1SM.svg","response":0,"trial_type":"image-button-response","trial_index":141,"time_elapsed":744126,"internal_node_id":"0.0-6.0-0.1","subject_id":"5eb2e299831ce0092dd2b965","study_id":"6197b3f67c2b5cd3b6d9596a","session_id":"619be4558ed9d7b727785038","condition":"contingent","relevant_dimensions":["pattern","legs"],"bee_group":{"antennae":"X","wings":"X","pattern":"D","legs":"F"},"bonus":0.9200000000000009},{"rt":1382.0999999940395,"stimulus":"bees-with-color/bee-B2SM.svg","response":0,"trial_type":"image-button-response","trial_index":142,"time_elapsed":745514,"internal_node_id":"0.0-6.0-0.2","subject_id":"5eb2e299831ce0092dd2b965","study_id":"6197b3f67c2b5cd3b6d9596a","session_id":"619be4558ed9d7b727785038","condition":"contingent","relevant_dimensions":["pattern","legs"],"bee_group":{"antennae":"X","wings":"X","pattern":"D","legs":"F"},"bonus":0.9200000000000009},{"rt":3890.300000011921,"stimulus":"bees-with-color/bee-A1SM.svg","response":1,"trial_type":"image-button-response","trial_index":143,"time_elapsed":749410,"internal_node_id":"0.0-6.0-0.3","subject_id":"5eb2e299831ce0092dd2b965","study_id":"6197b3f67c2b5cd3b6d9596a","session_id":"619be4558ed9d7b727785038","condition":"contingent","relevant_dimensions":["pattern","legs"],"bee_group":{"antennae":"X","wings":"X","pattern":"D","legs":"F"},"bonus":0.9200000000000009},{"rt":1032.5,"stimulus":"bees-with-color/bee-A2SM.svg","response":0,"trial_type":"image-button-response","trial_index":144,"time_elapsed":750449,"internal_node_id":"0.0-6.0-0.4","subject_id":"5eb2e299831ce0092dd2b965","study_id":"6197b3f67c2b5cd3b6d9596a","session_id":"619be4558ed9d7b727785038","condition":"contingent","relevant_dimensions":["pattern","legs"],"bee_group":{"antennae":"X","wings":"X","pattern":"D","legs":"F"},"bonus":0.9200000000000009},{"rt":890.7000000178814,"stimulus":"bees-with-color/bee-A2DF.svg","response":1,"trial_type":"image-button-response","trial_index":145,"time_elapsed":751344,"internal_node_id":"0.0-6.0-0.5","subject_id":"5eb2e299831ce0092dd2b965","study_id":"6197b3f67c2b5cd3b6d9596a","session_id":"619be4558ed9d7b727785038","condition":"contingent","relevant_dimensions":["pattern","legs"],"bee_group":{"antennae":"X","wings":"X","pattern":"D","legs":"F"},"bonus":0.9200000000000009},{"rt":987.8000000119209,"stimulus":"bees-with-color/bee-A2DM.svg","response":0,"trial_type":"image-button-response","trial_index":146,"time_elapsed":752338,"internal_node_id":"0.0-6.0-0.6","subject_id":"5eb2e299831ce0092dd2b965","study_id":"6197b3f67c2b5cd3b6d9596a","session_id":"619be4558ed9d7b727785038","condition":"contingent","relevant_dimensions":["pattern","legs"],"bee_group":{"antennae":"X","wings":"X","pattern":"D","legs":"F"},"bonus":0.9200000000000009},{"rt":803,"stimulus":"bees-with-color/bee-A1DF.svg","response":1,"trial_type":"image-button-response","trial_index":147,"time_elapsed":753146,"internal_node_id":"0.0-6.0-0.7","subject_id":"5eb2e299831ce0092dd2b965","study_id":"6197b3f67c2b5cd3b6d9596a","session_id":"619be4558ed9d7b727785038","condition":"contingent","relevant_dimensions":["pattern","legs"],"bee_group":{"antennae":"X","wings":"X","pattern":"D","legs":"F"},"bonus":0.9200000000000009},{"rt":942.2000000178814,"stimulus":"bees-with-color/bee-B2DF.svg","response":1,"trial_type":"image-button-response","trial_index":148,"time_elapsed":754094,"internal_node_id":"0.0-6.0-0.8","subject_id":"5eb2e299831ce0092dd2b965","study_id":"6197b3f67c2b5cd3b6d9596a","session_id":"619be4558ed9d7b727785038","condition":"contingent","relevant_dimensions":["pattern","legs"],"bee_group":{"antennae":"X","wings":"X","pattern":"D","legs":"F"},"bonus":0.9200000000000009},{"rt":817.0999999940395,"stimulus":"bees-with-color/bee-B1DF.svg","response":1,"trial_type":"image-button-response","trial_index":149,"time_elapsed":754918,"internal_node_id":"0.0-6.0-0.9","subject_id":"5eb2e299831ce0092dd2b965","study_id":"6197b3f67c2b5cd3b6d9596a","session_id":"619be4558ed9d7b727785038","condition":"contingent","relevant_dimensions":["pattern","legs"],"bee_group":{"antennae":"X","wings":"X","pattern":"D","legs":"F"},"bonus":0.9200000000000009},{"rt":1619,"stimulus":"bees-with-color/bee-A2SF.svg","response":1,"trial_type":"image-button-response","trial_index":150,"time_elapsed":756542,"internal_node_id":"0.0-6.0-0.10","subject_id":"5eb2e299831ce0092dd2b965","study_id":"6197b3f67c2b5cd3b6d9596a","session_id":"619be4558ed9d7b727785038","condition":"contingent","relevant_dimensions":["pattern","legs"],"bee_group":{"antennae":"X","wings":"X","pattern":"D","legs":"F"},"bonus":0.9200000000000009},{"rt":881.3000000119209,"stimulus":"bees-with-color/bee-A1SF.svg","response":1,"trial_type":"image-button-response","trial_index":151,"time_elapsed":757428,"internal_node_id":"0.0-6.0-0.11","subject_id":"5eb2e299831ce0092dd2b965","study_id":"6197b3f67c2b5cd3b6d9596a","session_id":"619be4558ed9d7b727785038","condition":"contingent","relevant_dimensions":["pattern","legs"],"bee_group":{"antennae":"X","wings":"X","pattern":"D","legs":"F"},"bonus":0.9200000000000009},{"rt":1035.5,"stimulus":"bees-with-color/bee-A1DM.svg","response":0,"trial_type":"image-button-response","trial_index":152,"time_elapsed":758468,"internal_node_id":"0.0-6.0-0.12","subject_id":"5eb2e299831ce0092dd2b965","study_id":"6197b3f67c2b5cd3b6d9596a","session_id":"619be4558ed9d7b727785038","condition":"contingent","relevant_dimensions":["pattern","legs"],"bee_group":{"antennae":"X","wings":"X","pattern":"D","legs":"F"},"bonus":0.9200000000000009},{"rt":834.5,"stimulus":"bees-with-color/bee-B1SF.svg","response":1,"trial_type":"image-button-response","trial_index":153,"time_elapsed":759308,"internal_node_id":"0.0-6.0-0.13","subject_id":"5eb2e299831ce0092dd2b965","study_id":"6197b3f67c2b5cd3b6d9596a","session_id":"619be4558ed9d7b727785038","condition":"contingent","relevant_dimensions":["pattern","legs"],"bee_group":{"antennae":"X","wings":"X","pattern":"D","legs":"F"},"bonus":0.9200000000000009},{"rt":957.4000000059605,"stimulus":"bees-with-color/bee-B1DM.svg","response":0,"trial_type":"image-button-response","trial_index":154,"time_elapsed":760270,"internal_node_id":"0.0-6.0-0.14","subject_id":"5eb2e299831ce0092dd2b965","study_id":"6197b3f67c2b5cd3b6d9596a","session_id":"619be4558ed9d7b727785038","condition":"contingent","relevant_dimensions":["pattern","legs"],"bee_group":{"antennae":"X","wings":"X","pattern":"D","legs":"F"},"bonus":0.9200000000000009},{"rt":1588.7999999821186,"stimulus":"bees-with-color/bee-B2SF.svg","response":1,"trial_type":"image-button-response","trial_index":155,"time_elapsed":761865,"internal_node_id":"0.0-6.0-0.15","subject_id":"5eb2e299831ce0092dd2b965","study_id":"6197b3f67c2b5cd3b6d9596a","session_id":"619be4558ed9d7b727785038","condition":"contingent","relevant_dimensions":["pattern","legs"],"bee_group":{"antennae":"X","wings":"X","pattern":"D","legs":"F"},"bonus":0.9200000000000009},{"rt":824.7000000178814,"stimulus":"bees-with-color/bee-A2SM.svg","response":0,"trial_type":"image-button-response","trial_index":156,"time_elapsed":762696,"internal_node_id":"0.0-6.0-0.16","subject_id":"5eb2e299831ce0092dd2b965","study_id":"6197b3f67c2b5cd3b6d9596a","session_id":"619be4558ed9d7b727785038","condition":"contingent","relevant_dimensions":["pattern","legs"],"bee_group":{"antennae":"X","wings":"X","pattern":"D","legs":"F"},"bonus":0.9200000000000009},{"rt":1368.300000011921,"stimulus":"bees-with-color/bee-A1SF.svg","response":1,"trial_type":"image-button-response","trial_index":157,"time_elapsed":764068,"internal_node_id":"0.0-6.0-0.17","subject_id":"5eb2e299831ce0092dd2b965","study_id":"6197b3f67c2b5cd3b6d9596a","session_id":"619be4558ed9d7b727785038","condition":"contingent","relevant_dimensions":["pattern","legs"],"bee_group":{"antennae":"X","wings":"X","pattern":"D","legs":"F"},"bonus":0.9200000000000009},{"rt":578.8999999761581,"stimulus":"bees-with-color/bee-B1SF.svg","response":1,"trial_type":"image-button-response","trial_index":158,"time_elapsed":764652,"internal_node_id":"0.0-6.0-0.18","subject_id":"5eb2e299831ce0092dd2b965","study_id":"6197b3f67c2b5cd3b6d9596a","session_id":"619be4558ed9d7b727785038","condition":"contingent","relevant_dimensions":["pattern","legs"],"bee_group":{"antennae":"X","wings":"X","pattern":"D","legs":"F"},"bonus":0.9200000000000009},{"rt":949.3000000119209,"stimulus":"bees-with-color/bee-B1DM.svg","response":0,"trial_type":"image-button-response","trial_index":159,"time_elapsed":765608,"internal_node_id":"0.0-6.0-0.19","subject_id":"5eb2e299831ce0092dd2b965","study_id":"6197b3f67c2b5cd3b6d9596a","session_id":"619be4558ed9d7b727785038","condition":"contingent","relevant_dimensions":["pattern","legs"],"bee_group":{"antennae":"X","wings":"X","pattern":"D","legs":"F"},"bonus":0.9200000000000009},{"rt":1099.199999988079,"stimulus":"bees-with-color/bee-A1DF.svg","response":1,"trial_type":"image-button-response","trial_index":160,"time_elapsed":766711,"internal_node_id":"0.0-6.0-0.20","subject_id":"5eb2e299831ce0092dd2b965","study_id":"6197b3f67c2b5cd3b6d9596a","session_id":"619be4558ed9d7b727785038","condition":"contingent","relevant_dimensions":["pattern","legs"],"bee_group":{"antennae":"X","wings":"X","pattern":"D","legs":"F"},"bonus":0.9200000000000009},{"rt":657,"stimulus":"bees-with-color/bee-B1SM.svg","response":0,"trial_type":"image-button-response","trial_index":161,"time_elapsed":767371,"internal_node_id":"0.0-6.0-0.21","subject_id":"5eb2e299831ce0092dd2b965","study_id":"6197b3f67c2b5cd3b6d9596a","session_id":"619be4558ed9d7b727785038","condition":"contingent","relevant_dimensions":["pattern","legs"],"bee_group":{"antennae":"X","wings":"X","pattern":"D","legs":"F"},"bonus":0.9200000000000009},{"rt":1814.8999999761581,"stimulus":"bees-with-color/bee-B1DF.svg","response":1,"trial_type":"image-button-response","trial_index":162,"time_elapsed":769189,"internal_node_id