[{"success":true,"trial_type":"fullscreen","trial_index":0,"time_elapsed":3086,"internal_node_id":"0.0-0.0","subject_id":"6054bc49a73ad1f484b6ce32","study_id":"6197b3f67c2b5cd3b6d9596a","session_id":"619be326413e41e9cfd4c9c0","condition":"full-information","relevant_dimensions":["antennae","pattern"],"bee_group":{"antennae":"B","wings":"X","pattern":"D","legs":"X"},"bonus":0.22000000000000072},{"success":true,"timeout":false,"failed_images":[],"failed_audio":[],"failed_video":[],"trial_type":"preload","trial_index":1,"time_elapsed":4461,"internal_node_id":"0.0-1.0","subject_id":"6054bc49a73ad1f484b6ce32","study_id":"6197b3f67c2b5cd3b6d9596a","session_id":"619be326413e41e9cfd4c9c0","condition":"full-information","relevant_dimensions":["antennae","pattern"],"bee_group":{"antennae":"B","wings":"X","pattern":"D","legs":"X"},"bonus":0.22000000000000072},{"rt":3086.7000000476837,"stimulus":"Welcome! Press any key to begin.","response":"enter","trial_type":"html-keyboard-response","trial_index":2,"time_elapsed":7552,"internal_node_id":"0.0-2.0","subject_id":"6054bc49a73ad1f484b6ce32","study_id":"6197b3f67c2b5cd3b6d9596a","session_id":"619be326413e41e9cfd4c9c0","condition":"full-information","relevant_dimensions":["antennae","pattern"],"bee_group":{"antennae":"B","wings":"X","pattern":"D","legs":"X"},"bonus":0.22000000000000072},{"view_history":[{"page_index":0,"viewing_time":3065.399999976158},{"page_index":1,"viewing_time":7484.200000047684},{"page_index":2,"viewing_time":7466},{"page_index":3,"viewing_time":6593.100000023842},{"page_index":4,"viewing_time":4392},{"page_index":5,"viewing_time":3133},{"page_index":6,"viewing_time":6681.100000023842},{"page_index":7,"viewing_time":6257},{"page_index":8,"viewing_time":3660.399999976158},{"page_index":9,"viewing_time":4481.299999952316},{"page_index":10,"viewing_time":1959.2000000476837},{"page_index":11,"viewing_time":5432.799999952316},{"page_index":12,"viewing_time":6316.200000047684},{"page_index":13,"viewing_time":2349.399999976158},{"page_index":14,"viewing_time":1371.2999999523163}],"rt":70643.30000007153,"trial_type":"instructions","trial_index":3,"time_elapsed":78203,"internal_node_id":"0.0-3.0-0.0","subject_id":"6054bc49a73ad1f484b6ce32","study_id":"6197b3f67c2b5cd3b6d9596a","session_id":"619be326413e41e9cfd4c9c0","condition":"full-information","relevant_dimensions":["antennae","pattern"],"bee_group":{"antennae":"B","wings":"X","pattern":"D","legs":"X"},"bonus":0.22000000000000072},{"rt":10579.100000023842,"response":{"Q0":["Two or six legs","Stripes or spots on body","Single or double wings","Antennae or no antennae"]},"question_order":[0],"trial_type":"survey-multi-select","trial_index":4,"time_elapsed":88794,"internal_node_id":"0.0-3.0-1.0","subject_id":"6054bc49a73ad1f484b6ce32","study_id":"6197b3f67c2b5cd3b6d9596a","session_id":"619be326413e41e9cfd4c9c0","condition":"full-information","relevant_dimensions":["antennae","pattern"],"bee_group":{"antennae":"B","wings":"X","pattern":"D","legs":"X"},"correct":true,"bonus":0.22000000000000072},{"rt":18179.600000023842,"response":{"Q1":"No.","Q2":"Based on the four features of the bee.","Q3":"You learn if it was friendly or dangerous, but do not alter your bonus."},"question_order":[0,1,2],"trial_type":"survey-multi-choice","trial_index":5,"time_elapsed":106980,"internal_node_id":"0.0-3.0-2.0","subject_id":"6054bc49a73ad1f484b6ce32","study_id":"6197b3f67c2b5cd3b6d9596a","session_id":"619be326413e41e9cfd4c9c0","condition":"full-information","relevant_dimensions":["antennae","pattern"],"bee_group":{"antennae":"B","wings":"X","pattern":"D","legs":"X"},"correct":true,"bonus":0.22000000000000072},{"rt":2692.600000023842,"stimulus":"<p>Congrats, you got everything right<br>When you're ready, click the button below to continue to the experiment.</p>","response":0,"trial_type":"html-button-response","trial_index":6,"time_elapsed":109677,"internal_node_id":"0.0-3.0-3.0","subject_id":"6054bc49a73ad1f484b6ce32","study_id":"6197b3f67c2b5cd3b6d9596a","session_id":"619be326413e41e9cfd4c9c0","condition":"full-information","relevant_dimensions":["antennae","pattern"],"bee_group":{"antennae":"B","wings":"X","pattern":"D","legs":"X"},"bonus":0.22000000000000072},{"rt":3340.399999976158,"stimulus":"bees-with-color/bee-B2DF.svg","response":0,"trial_type":"image-button-response","trial_index":7,"time_elapsed":113024,"internal_node_id":"0.0-4.0-0.0","subject_id":"6054bc49a73ad1f484b6ce32","study_id":"6197b3f67c2b5cd3b6d9596a","session_id":"619be326413e41e9cfd4c9c0","condition":"full-information","relevant_dimensions":["antennae","pattern"],"bee_group":{"antennae":"B","wings":"X","pattern":"D","legs":"X"},"action":"harvest","summary":"bad-harvest","bonus":0.22000000000000072},{"rt":15584.5,"stimulus":"\n                    <p><b>Action: <em>harvest</em></b></p>\n                    <p>This is the bee that you just saw.</p>\n                    <img src=\"bees-with-color/bee-B2DF.svg\" width=\"200\">\n                    <p><span class=\"redText\">Bad choice, the bee was angry.</span><br><b>You have been stung!</b><br>Your pay has been decreased by $0.10. Your bonus pay is now $0.44.</p>\n            ","response":0,"trial_type":"html-button-response","trial_index":8,"time_elapsed":128622,"internal_node_id":"0.0-4.0-1.0","subject_id":"6054bc49a73ad1f484b6ce32","study_id":"6197b3f67c2b5cd3b6d9596a","session_id":"619be326413e41e9cfd4c9c0","condition":"full-information","relevant_dimensions":["antennae","pattern"],"bee_group":{"antennae":"B","wings":"X","pattern":"D","legs":"X"},"bonus":0.22000000000000072},{"rt":10990.200000047684,"stimulus":"bees-with-color/bee-B2DM.svg","response":0,"trial_type":"image-button-response","trial_index":9,"time_elapsed":139617,"internal_node_id":"0.0-4.0-0.1","subject_id":"6054bc49a73ad1f484b6ce32","study_id":"6197b3f67c2b5cd3b6d9596a","session_id":"619be326413e41e9cfd4c9c0","condition":"full-information","relevant_dimensions":["antennae","pattern"],"bee_group":{"antennae":"B","wings":"X","pattern":"D","legs":"X"},"action":"harvest","summary":"bad-harvest","bonus":0.22000000000000072},{"rt":4817.300000071526,"stimulus":"\n                    <p><b>Action: <em>harvest</em></b></p>\n                    <p>This is the bee that you just saw.</p>\n                    <img src=\"bees-with-color/bee-B2DM.svg\" width=\"200\">\n                    <p><span class=\"redText\">Bad choice, the bee was angry.</span><br><b>You have been stung!</b><br>Your pay has been decreased by $0.10. Your bonus pay is now $0.34.</p>\n            ","response":0,"trial_type":"html-button-response","trial_index":10,"time_elapsed":144441,"internal_node_id":"0.0-4.0-1.1","subject_id":"6054bc49a73ad1f484b6ce32","study_id":"6197b3f67c2b5cd3b6d9596a","session_id":"619be326413e41e9cfd4c9c0","condition":"full-information","relevant_dimensions":["antennae","pattern"],"bee_group":{"antennae":"B","wings":"X","pattern":"D","legs":"X"},"bonus":0.22000000000000072},{"rt":4304.899999976158,"stimulus":"bees-with-color/bee-A2DF.svg","response":1,"trial_type":"image-button-response","trial_index":11,"time_elapsed":148751,"internal_node_id":"0.0-4.0-0.2","subject_id":"6054bc49a73ad1f484b6ce32","study_id":"6197b3f67c2b5cd3b6d9596a","session_id":"619be326413e41e9cfd4c9c0","condition":"full-information","relevant_dimensions":["antennae","pattern"],"bee_group":{"antennae":"B","wings":"X","pattern":"D","legs":"X"},"action":"avoid","summary":"bad-avoid","bonus":0.22000000000000072},{"rt":10142.599999904633,"stimulus":"\n                    <p><b>Action: <em>avoid</em></b></p>\n                    <p>This is the bee that you just saw.</p>\n                    <img src=\"bees-with-color/bee-A2DF.svg\" width=\"200\">\n                    <p><span class=\"redText\">Bad choice,</span> the bee was friendly.<br>Your bonus pay is unchanged, and remains at $0.34.</p>\n            ","response":0,"trial_type":"html-button-response","trial_index":12,"time_elapsed":158899,"internal_node_id":"0.0-4.0-1.2","subject_id":"6054bc49a73ad1f484b6ce32","study_id":"6197b3f67c2b5cd3b6d9596a","session_id":"619be326413e41e9cfd4c9c0","condition":"full-information","relevant_dimensions":["antennae","pattern"],"bee_group":{"antennae":"B","wings":"X","pattern":"D","legs":"X"},"bonus":0.22000000000000072},{"rt":4107.899999976158,"stimulus":"bees-with-color/bee-A2SF.svg","response":0,"trial_type":"image-button-response","trial_index":13,"time_elapsed":163012,"internal_node_id":"0.0-4.0-0.3","subject_id":"6054bc49a73ad1f484b6ce32","study_id":"6197b3f67c2b5cd3b6d9596a","session_id":"619be326413e41e9cfd4c9c0","condition":"full-information","relevant_dimensions":["antennae","pattern"],"bee_group":{"antennae":"B","wings":"X","pattern":"D","legs":"X"},"action":"harvest","summary":"good-harvest","bonus":0.22000000000000072},{"rt":5930.300000071526,"stimulus":"\n                    <p><b>Action: <em>harvest</em></b></p>\n                    <p>This is the bee that you just saw.</p>\n                    <img src=\"bees-with-color/bee-A2SF.svg\" width=\"200\">\n                    <p><span class=\"greenText\"><b>Successful harvest!</b></span><br>Your pay has increased by $0.02. Your bonus pay is now $0.36.</p>\n            ","response":0,"trial_type":"html-button-response","trial_index":14,"time_elapsed":168946,"internal_node_id":"0.0-4.0-1.3","subject_id":"6054bc49a73ad1f484b6ce32","study_id":"6197b3f67c2b5cd3b6d9596a","session_id":"619be326413e41e9cfd4c9c0","condition":"full-information","relevant_dimensions":["antennae","pattern"],"bee_group":{"antennae":"B","wings":"X","pattern":"D","legs":"X"},"bonus":0.22000000000000072},{"rt":2646.100000023842,"stimulus":"bees-with-color/bee-A1SF.svg","response":1,"trial_type":"image-button-response","trial_index":15,"time_elapsed":171596,"internal_node_id":"0.0-4.0-0.4","subject_id":"6054bc49a73ad1f484b6ce32","study_id":"6197b3f67c2b5cd3b6d9596a","session_id":"619be326413e41e9cfd4c9c0","condition":"full-information","relevant_dimensions":["antennae","pattern"],"bee_group":{"antennae":"B","wings":"X","pattern":"D","legs":"X"},"action":"avoid","summary":"bad-avoid","bonus":0.22000000000000072},{"rt":5975.700000047684,"stimulus":"\n                    <p><b>Action: <em>avoid</em></b></p>\n                    <p>This is the bee that you just saw.</p>\n                    <img src=\"bees-with-color/bee-A1SF.svg\" width=\"200\">\n                    <p><span class=\"redText\">Bad choice,</span> the bee was friendly.<br>Your bonus pay is unchanged, and remains at $0.36.</p>\n            ","response":0,"trial_type":"html-button-response","trial_index":16,"time_elapsed":177575,"internal_node_id":"0.0-4.0-1.4","subject_id":"6054bc49a73ad1f484b6ce32","study_id":"6197b3f67c2b5cd3b6d9596a","session_id":"619be326413e41e9cfd4c9c0","condition":"full-information","relevant_dimensions":["antennae","pattern"],"bee_group":{"antennae":"B","wings":"X","pattern":"D","legs":"X"},"bonus":0.22000000000000072},{"rt":2742.5,"stimulus":"bees-with-color/bee-B2SM.svg","response":0,"trial_type":"image-button-response","trial_index":17,"time_elapsed":180322,"internal_node_id":"0.0-4.0-0.5","subject_id":"6054bc49a73ad1f484b6ce32","study_id":"6197b3f67c2b5cd3b6d9596a","session_id":"619be326413e41e9cfd4c9c0","condition":"full-information","relevant_dimensions":["antennae","pattern"],"bee_group":{"antennae":"B","wings":"X","pattern":"D","legs":"X"},"action":"harvest","summary":"good-harvest","bonus":0.22000000000000072},{"rt":2596.8000000715256,"stimulus":"\n                    <p><b>Action: <em>harvest</em></b></p>\n                    <p>This is the bee that you just saw.</p>\n                    <img src=\"bees-with-color/bee-B2SM.svg\" width=\"200\">\n                    <p><span class=\"greenText\"><b>Successful harvest!</b></span><br>Your pay has increased by $0.02. Your bonus pay is now $0.38.</p>\n            ","response":0,"trial_type":"html-button-response","trial_index":18,"time_elapsed":182923,"internal_node_id":"0.0-4.0-1.5","subject_id":"6054bc49a73ad1f484b6ce32","study_id":"6197b3f67c2b5cd3b6d9596a","session_id":"619be326413e41e9cfd4c9c0","condition":"full-information","relevant_dimensions":["antennae","pattern"],"bee_group":{"antennae":"B","wings":"X","pattern":"D","legs":"X"},"bonus":0.22000000000000072},{"rt":6861.5,"stimulus":"bees-with-color/bee-A1DF.svg","response":1,"trial_type":"image-button-response","trial_index":19,"time_elapsed":189789,"internal_node_id":"0.0-4.0-0.6","subject_id":"6054bc49a73ad1f484b6ce32","study_id":"6197b3f67c2b5cd3b6d9596a","session_id":"619be326413e41e9cfd4c9c0","condition":"full-information","relevant_dimensions":["antennae","pattern"],"bee_group":{"antennae":"B","wings":"X","pattern":"D","legs":"X"},"action":"avoid","summary":"bad-avoid","bonus":0.22000000000000072},{"rt":10363.200000047684,"stimulus":"\n                    <p><b>Action: <em>avoid</em></b></p>\n                    <p>This is the bee that you just saw.</p>\n                    <img src=\"bees-with-color/bee-A1DF.svg\" width=\"200\">\n                    <p><span class=\"redText\">Bad choice,</span> the bee was friendly.<br>Your bonus pay is unchanged, and remains at $0.38.</p>\n            ","response":0,"trial_type":"html-button-response","trial_index":20,"time_elapsed":200156,"internal_node_id":"0.0-4.0-1.6","subject_id":"6054bc49a73ad1f484b6ce32","study_id":"6197b3f67c2b5cd3b6d9596a","session_id":"619be326413e41e9cfd4c9c0","condition":"full-information","relevant_dimensions":["antennae","pattern"],"bee_group":{"antennae":"B","wings":"X","pattern":"D","legs":"X"},"bonus":0.22000000000000072},{"rt":3864.2999999523163,"stimulus":"bees-with-color/bee-A2DM.svg","response":0,"trial_type":"image-button-response","trial_index":21,"time_elapsed":204024,"internal_node_id":"0.0-4.0-0.7","subject_id":"6054bc49a73ad1f484b6ce32","study_id":"6197b3f67c2b5cd3b6d9596a","session_id":"619be326413e41e9cfd4c9c0","condition":"full-information","relevant_dimensions":["antennae","pattern"],"bee_group":{"antennae":"B","wings":"X","pattern":"D","legs":"X"},"action":"harvest","summary":"good-harvest","bonus":0.22000000000000072},{"rt":3321.2999999523163,"stimulus":"\n                    <p><b>Action: <em>harvest</em></b></p>\n                    <p>This is the bee that you just saw.</p>\n                    <img src=\"bees-with-color/bee-A2DM.svg\" width=\"200\">\n                    <p><span class=\"greenText\"><b>Successful harvest!</b></span><br>Your pay has increased by $0.02. Your bonus pay is now $0.40.</p>\n            ","response":0,"trial_type":"html-button-response","trial_index":22,"time_elapsed":207349,"internal_node_id":"0.0-4.0-1.7","subject_id":"6054bc49a73ad1f484b6ce32","study_id":"6197b3f67c2b5cd3b6d9596a","session_id":"619be326413e41e9cfd4c9c0","condition":"full-information","relevant_dimensions":["antennae","pattern"],"bee_group":{"antennae":"B","wings":"X","pattern":"D","legs":"X"},"bonus":0.22000000000000072},{"rt":7884.5,"stimulus":"bees-with-color/bee-B1DM.svg","response":0,"trial_type":"image-button-response","trial_index":23,"time_elapsed":215240,"internal_node_id":"0.0-4.0-0.8","subject_id":"6054bc49a73ad1f484b6ce32","study_id":"6197b3f67c2b5cd3b6d9596a","session_id":"619be326413e41e9cfd4c9c0","condition":"full-information","relevant_dimensions":["antennae","pattern"],"bee_group":{"antennae":"B","wings":"X","pattern":"D","legs":"X"},"action":"harvest","summary":"bad-harvest","bonus":0.22000000000000072},{"rt":3733,"stimulus":"\n                    <p><b>Action: <em>harvest</em></b></p>\n                    <p>This is the bee that you just saw.</p>\n                    <img src=\"bees-with-color/bee-B1DM.svg\" width=\"200\">\n                    <p><span class=\"redText\">Bad choice, the bee was angry.</span><br><b>You have been stung!</b><br>Your pay has been decreased by $0.10. Your bonus pay is now $0.30.</p>\n            ","response":0,"trial_type":"html-button-response","trial_index":24,"time_elapsed":218976,"internal_node_id":"0.0-4.0-1.8","subject_id":"6054bc49a73ad1f484b6ce32","study_id":"6197b3f67c2b5cd3b6d9596a","session_id":"619be326413e41e9cfd4c9c0","condition":"full-information","relevant_dimensions":["antennae","pattern"],"bee_group":{"antennae":"B","wings":"X","pattern":"D","legs":"X"},"bonus":0.22000000000000072},{"rt":5328.899999976158,"stimulus":"bees-with-color/bee-B1SM.svg","response":0,"trial_type":"image-button-response","trial_index":25,"time_elapsed":224310,"internal_node_id":"0.0-4.0-0.9","subject_id":"6054bc49a73ad1f484b6ce32","study_id":"6197b3f67c2b5cd3b6d9596a","session_id":"619be326413e41e9cfd4c9c0","condition":"full-information","relevant_dimensions":["antennae","pattern"],"bee_group":{"antennae":"B","wings":"X","pattern":"D","legs":"X"},"action":"harvest","summary":"good-harvest","bonus":0.22000000000000072},{"rt":3493.5,"stimulus":"\n                    <p><b>Action: <em>harvest</em></b></p>\n                    <p>This is the bee that you just saw.</p>\n                    <img src=\"bees-with-color/bee-B1SM.svg\" width=\"200\">\n                    <p><span class=\"greenText\"><b>Successful harvest!</b></span><br>Your pay has increased by $0.02. Your bonus pay is now $0.32.</p>\n            ","response":0,"trial_type":"html-button-response","trial_index":26,"time_elapsed":227807,"internal_node_id":"0.0-4.0-1.9","subject_id":"6054bc49a73ad1f484b6ce32","study_id":"6197b3f67c2b5cd3b6d9596a","session_id":"619be326413e41e9cfd4c9c0","condition":"full-information","relevant_dimensions":["antennae","pattern"],"bee_group":{"antennae":"B","wings":"X","pattern":"D","legs":"X"},"bonus":0.22000000000000072},{"rt":4378.299999952316,"stimulus":"bees-with-color/bee-A1DM.svg","response":0,"trial_type":"image-button-response","trial_index":27,"time_elapsed":232190,"internal_node_id":"0.0-4.0-0.10","subject_id":"6054bc49a73ad1f484b6ce32","study_id":"6197b3f67c2b5cd3b6d9596a","session_id":"619be326413e41e9cfd4c9c0","condition":"full-information","relevant_dimensions":["antennae","pattern"],"bee_group":{"antennae":"B","wings":"X","pattern":"D","legs":"X"},"action":"harvest","summary":"good-harvest","bonus":0.22000000000000072},{"rt":2861.4000000953674,"stimulus":"\n                    <p><b>Action: <em>harvest</em></b></p>\n                    <p>This is the bee that you just saw.</p>\n                    <img src=\"bees-with-color/bee-A1DM.svg\" width=\"200\">\n                    <p><span class=\"greenText\"><b>Successful harvest!</b></span><br>Your pay has increased by $0.02. Your bonus pay is now $0.34.</p>\n            ","response":0,"trial_type":"html-button-response","trial_index":28,"time_elapsed":235054,"internal_node_id":"0.0-4.0-1.10","subject_id":"6054bc49a73ad1f484b6ce32","study_id":"6197b3f67c2b5cd3b6d9596a","session_id":"619be326413e41e9cfd4c9c0","condition":"full-information","relevant_dimensions":["antennae","pattern"],"bee_group":{"antennae":"B","wings":"X","pattern":"D","legs":"X"},"bonus":0.22000000000000072},{"rt":4031.399999976158,"stimulus":"bees-with-color/bee-A1SM.svg","response":0,"trial_type":"image-button-response","trial_index":29,"time_elapsed":239089,"internal_node_id":"0.0-4.0-0.11","subject_id":"6054bc49a73ad1f484b6ce32","study_id":"6197b3f67c2b5cd3b6d9596a","session_id":"619be326413e41e9cfd4c9c0","condition":"full-information","relevant_dimensions":["antennae","pattern"],"bee_group":{"antennae":"B","wings":"X","pattern":"D","legs":"X"},"action":"harvest","summary":"good-harvest","bonus":0.22000000000000072},{"rt":1654.9000000953674,"stimulus":"\n                    <p><b>Action: <em>harvest</em></b></p>\n                    <p>This is the bee that you just saw.</p>\n                    <img src=\"bees-with-color/bee-A1SM.svg\" width=\"200\">\n                    <p><span class=\"greenText\"><b>Successful harvest!</b></span><br>Your pay has increased by $0.02. Your bonus pay is now $0.36.</p>\n            ","response":0,"trial_type":"html-button-response","trial_index":30,"time_elapsed":240748,"internal_node_id":"0.0-4.0-1.11","subject_id":"6054bc49a73ad1f484b6ce32","study_id":"6197b3f67c2b5cd3b6d9596a","session_id":"619be326413e41e9cfd4c9c0","condition":"full-information","relevant_dimensions":["antennae","pattern"],"bee_group":{"antennae":"B","wings":"X","pattern":"D","legs":"X"},"bonus":0.22000000000000072},{"rt":3074,"stimulus":"bees-with-color/bee-A2SM.svg","response":0,"trial_type":"image-button-response","trial_index":31,"time_elapsed":243826,"internal_node_id":"0.0-4.0-0.12","subject_id":"6054bc49a73ad1f484b6ce32","study_id":"6197b3f67c2b5cd3b6d9596a","session_id":"619be326413e41e9cfd4c9c0","condition":"full-information","relevant_dimensions":["antennae","pattern"],"bee_group":{"antennae":"B","wings":"X","pattern":"D","legs":"X"},"action":"harvest","summary":"good-harvest","bonus":0.22000000000000072},{"rt":1906.8000000715256,"stimulus":"\n                    <p><b>Action: <em>harvest</em></b></p>\n                    <p>This is the bee that you just saw.</p>\n                    <img src=\"bees-with-color/bee-A2SM.svg\" width=\"200\">\n                    <p><span class=\"greenText\"><b>Successful harvest!</b></span><br>Your pay has increased by $0.02. Your bonus pay is now $0.38.</p>\n            ","response":0,"trial_type":"html-button-response","trial_index":32,"time_elapsed":245737,"internal_node_id":"0.0-4.0-1.12","subject_id":"6054bc49a73ad1f484b6ce32","study_id":"6197b3f67c2b5cd3b6d9596a","session_id":"619be326413e41e9cfd4c9c0","condition":"full-information","relevant_dimensions":["antennae","pattern"],"bee_group":{"antennae":"B","wings":"X","pattern":"D","legs":"X"},"bonus":0.22000000000000072},{"rt":2263.600000023842,"stimulus":"bees-with-color/bee-B1SF.svg","response":1,"trial_type":"image-button-response","trial_index":33,"time_elapsed":248005,"internal_node_id":"0.0-4.0-0.13","subject_id":"6054bc49a73ad1f484b6ce32","study_id":"6197b3f67c2b5cd3b6d9596a","session_id":"619be326413e41e9cfd4c9c0","condition":"full-information","relevant_dimensions":["antennae","pattern"],"bee_group":{"antennae":"B","wings":"X","pattern":"D","legs":"X"},"action":"avoid","summary":"bad-avoid","bonus":0.22000000000000072},{"rt":4043.2000000476837,"stimulus":"\n                    <p><b>Action: <em>avoid</em></b></p>\n                    <p>This is the bee that you just saw.</p>\n                    <img src=\"bees-with-color/bee-B1SF.svg\" width=\"200\">\n                    <p><span class=\"redText\">Bad choice,</span> the bee was friendly.<br>Your bonus pay is unchanged, and remains at $0.38.</p>\n            ","response":0,"trial_type":"html-button-response","trial_index":34,"time_elapsed":252051,"internal_node_id":"0.0-4.0-1.13","subject_id":"6054bc49a73ad1f484b6ce32","study_id":"6197b3f67c2b5cd3b6d9596a","session_id":"619be326413e41e9cfd4c9c0","condition":"full-information","relevant_dimensions":["antennae","pattern"],"bee_group":{"antennae":"B","wings":"X","pattern":"D","legs":"X"},"bonus":0.22000000000000072},{"rt":5324.100000023842,"stimulus":"bees-with-color/bee-B2SF.svg","response":0,"trial_type":"image-button-response","trial_index":35,"time_elapsed":257381,"internal_node_id":"0.0-4.0-0.14","subject_id":"6054bc49a73ad1f484b6ce32","study_id":"6197b3f67c2b5cd3b6d9596a","session_id":"619be326413e41e9cfd4c9c0","condition":"full-information","relevant_dimensions":["antennae","pattern"],"bee_group":{"antennae":"B","wings":"X","pattern":"D","legs":"X"},"action":"harvest","summary":"good-harvest","bonus":0.22000000000000072},{"rt":2005.3999999761581,"stimulus":"\n                    <p><b>Action: <em>harvest</em></b></p>\n                    <p>This is the bee that you just saw.</p>\n                    <img src=\"bees-with-color/bee-B2SF.svg\" width=\"200\">\n                    <p><span class=\"greenText\"><b>Successful harvest!</b></span><br>Your pay has increased by $0.02. Your bonus pay is now $0.40.</p>\n            ","response":0,"trial_type":"html-button-response","trial_index":36,"time_elapsed":259390,"internal_node_id":"0.0-4.0-1.14","subject_id":"6054bc49a73ad1f484b6ce32","study_id":"6197b3f67c2b5cd3b6d9596a","session_id":"619be326413e41e9cfd4c9c0","condition":"full-information","relevant_dimensions":["antennae","pattern"],"bee_group":{"antennae":"B","wings":"X","pattern":"D","legs":"X"},"bonus":0.22000000000000072},{"rt":5615.399999976158,"stimulus":"bees-with-color/bee-B1DF.svg","response":0,"trial_type":"image-button-response","trial_index":37,"time_elapsed":265010,"internal_node_id":"0.0-4.0-0.15","subject_id":"6054bc49a73ad1f484b6ce32","study_id":"6197b3f67c2b5cd3b6d9596a","session_id":"619be326413e41e9cfd4c9c0","condition":"full-information","relevant_dimensions":["antennae","pattern"],"bee_group":{"antennae":"B","wings":"X","pattern":"D","legs":"X"},"action":"harvest","summary":"bad-harvest","bonus":0.22000000000000072},{"rt":1688.2999999523163,"stimulus":"\n                    <p><b>Action: <em>harvest</em></b></p>\n                    <p>This is the bee that you just saw.</p>\n                    <img src=\"bees-with-color/bee-B1DF.svg\" width=\"200\">\n                    <p><span class=\"redText\">Bad choice, the bee was angry.</span><br><b>You have been stung!</b><br>Your pay has been decreased by $0.10. Your bonus pay is now $0.30.</p>\n            ","response":0,"trial_type":"html-button-response","trial_index":38,"time_elapsed":266702,"internal_node_id":"0.0-4.0-1.15","subject_id":"6054bc49a73ad1f484b6ce32","study_id":"6197b3f67c2b5cd3b6d9596a","session_id":"619be326413e41e9cfd4c9c0","condition":"full-information","relevant_dimensions":["antennae","pattern"],"bee_group":{"antennae":"B","wings":"X","pattern":"D","legs":"X"},"bonus":0.22000000000000072},{"rt":2359.2999999523163,"stimulus":"bees-with-color/bee-B1DM.svg","response":0,"trial_type":"image-button-response","trial_index":39,"time_elapsed":269066,"internal_node_id":"0.0-4.0-0.16","subject_id":"6054bc49a73ad1f484b6ce32","study_id":"6197b3f67c2b5cd3b6d9596a","session_id":"619be326413e41e9cfd4c9c0","condition":"full-information","relevant_dimensions":["antennae","pattern"],"bee_group":{"antennae":"B","wings":"X","pattern":"D","legs":"X"},"action":"harvest","summary":"bad-harvest","bonus":0.22000000000000072},{"rt":1593.6999999284744,"stimulus":"\n                    <p><b>Action: <em>harvest</em></b></p>\n                    <p>This is the bee that you just saw.</p>\n                    <img src=\"bees-with-color/bee-B1DM.svg\" width=\"200\">\n                    <p><span class=\"redText\">Bad choice, the bee was angry.</span><br><b>You have been stung!</b><br>Your pay has been decreased by $0.10. Your bonus pay is now $0.20.</p>\n            ","response":0,"trial_type":"html-button-response","trial_index":40,"time_elapsed":270666,"internal_node_id":"0.0-4.0-1.16","subject_id":"6054bc49a73ad1f484b6ce32","study_id":"6197b3f67c2b5cd3b6d9596a","session_id":"619be326413e41e9cfd4c9c0","condition":"full-information","relevant_dimensions":["antennae","pattern"],"bee_group":{"antennae":"B","wings":"X","pattern":"D","legs":"X"},"bonus":0.22000000000000072},{"rt":2018.8999999761581,"stimulus":"bees-with-color/bee-A2SF.svg","response":0,"trial_type":"image-button-response","trial_index":41,"time_elapsed":272689,"internal_node_id":"0.0-4.0-0.17","subject_id":"6054bc49a73ad1f484b6ce32","study_id":"6197b3f67c2b5cd3b6d9596a","session_id":"619be326413e41e9cfd4c9c0","condition":"full-information","relevant_dimensions":["antennae","pattern"],"bee_group":{"antennae":"B","wings":"X","pattern":"D","legs":"X"},"action":"harvest","summary":"good-harvest","bonus":0.22000000000000072},{"rt":1499.5,"stimulus":"\n                    <p><b>Action: <em>harvest</em></b></p>\n                    <p>This is the bee that you just saw.</p>\n                    <img src=\"bees-with-color/bee-A2SF.svg\" width=\"200\">\n                    <p><span class=\"greenText\"><b>Successful harvest!</b></span><br>Your pay has increased by $0.02. Your bonus pay is now $0.22.</p>\n            ","response":0,"trial_type":"html-button-response","trial_index":42,"time_elapsed":274192,"internal_node_id":"0.0-4.0-1.17","subject_id":"6054bc49a73ad1f484b6ce32","study_id":"6197b3f67c2b5cd3b6d9596a","session_id":"619be326413e41e9cfd4c9c0","condition":"full-information","relevant_dimensions":["antennae","pattern"],"bee_group":{"antennae":"B","wings":"X","pattern":"D","legs":"X"},"bonus":0.22000000000000072},{"rt":1860.3999999761581,"stimulus":"bees-with-color/bee-A2SM.svg","response":0,"trial_type":"image-button-response","trial_index":43,"time_elapsed":276058,"internal_node_id":"0.0-4.0-0.18","subject_id":"6054bc49a73ad1f484b6ce32","study_id":"6197b3f67c2b5cd3b6d9596a","session_id":"619be326413e41e9cfd4c9c0","condition":"full-information","relevant_dimensions":["antennae","pattern"],"bee_group":{"antennae":"B","wings":"X","pattern":"D","legs":"X"},"action":"harvest","summary":"good-harvest","bonus":0.22000000000000072},{"rt":1364,"stimulus":"\n                    <p><b>Action: <em>harvest</em></b></p>\n                    <p>This is the bee that you just saw.</p>\n                    <img src=\"bees-with-color/bee-A2SM.svg\" width=\"200\">\n                    <p><span class=\"greenText\"><b>Successful harvest!</b></span><br>Your pay has increased by $0.02. Your bonus pay is now $0.24.</p>\n            ","response":0,"trial_type":"html-button-response","trial_index":44,"time_elapsed":277425,"internal_node_id":"0.0-4.0-1.18","subject_id":"6054bc49a73ad1f484b6ce32","study_id":"6197b3f67c2b5cd3b6d9596a","session_id":"619be326413e41e9cfd4c9c0","condition":"full-information","relevant_dimensions":["antennae","pattern"],"bee_group":{"antennae":"B","wings":"X","pattern":"D","legs":"X"},"bonus":0.22000000000000072},{"rt":2769.7999999523163,"stimulus":"bees-with-color/bee-B2SF.svg","response":1,"trial_type":"image-button-response","trial_index":45,"time_elapsed":280199,"internal_node_id":"0.0-4.0-0.19","subject_id":"6054bc49a73ad1f484b6ce32","study_id":"6197b3f67c2b5cd3b6d9596a","session_id":"619be326413e41e9cfd4c9c0","condition":"full-information","relevant_dimensions":["antennae","pattern"],"bee_group":{"antennae":"B","wings":"X","pattern":"D","legs":"X"},"action":"avoid","summary":"bad-avoid","bonus":0.22000000000000072},{"rt":2544.600000023842,"stimulus":"\n                    <p><b>Action: <em>avoid</em></b></p>\n                    <p>This is the bee that you just saw.</p>\n                    <img src=\"bees-with-color/bee-B2SF.svg\" width=\"200\">\n                    <p><span class=\"redText\">Bad choice,</span> the bee was friendly.<br>Your bonus pay is unchanged, and remains at $0.24.</p>\n            ","response":0,"trial_type":"html-button-response","trial_index":46,"time_elapsed":282751,"internal_node_id":"0.0-4.0-1.19","subject_id":"6054bc49a73ad1f484b6ce32","study_id":"6197b3f67c2b5cd3b6d9596a","session_id":"619be326413e41e9cfd4c9c0","condition":"full-information","relevant_dimensions":["antennae","pattern"],"bee_group":{"antennae":"B","wings":"X","pattern":"D","legs":"X"},"bonus":0.22000000000000072},{"rt":2891.5,"stimulus":"bees-with-color/bee-A1SM.svg","response":0,"trial_type":"image-button-response","trial_index":47,"time_elapsed":285648,"internal_node_id":"0.0-4.0-0.20","subject_id":"6054bc49a73ad1f484b6ce32","study_id":"6197b3f67c2b5cd3b6d9596a","session_id":"619be326413e41e9cfd4c9c0","condition":"full-information","relevant_dimensions":["antennae","pattern"],"bee_group":{"antennae":"B","wings":"X","pattern":"D","legs":"X"},"action":"harvest","summary":"good-harvest","bonus":0.22000000000000072},{"rt":1413,"stimulus":"\n                    <p><b>Action: <em>harvest</em></b></p>\n                    <p>This is the bee that you just saw.</p>\n                    <img src=\"bees-with-color/bee-A1SM.svg\" width=\"200\">\n                    <p><span class=\"greenText\"><b>Successful harvest!</b></span><br>Your pay has increased by $0.02. Your bonus pay is now $0.26.</p>\n            ","response":0,"trial_type":"html-button-response","trial_index":48,"time_elapsed":287066,"internal_node_id":"0.0-4.0-1.20","subject_id":"6054bc49a73ad1f484b6ce32","study_id":"6197b3f67c2b5cd3b6d9596a","session_id":"619be326413e41e9cfd4c9c0","condition":"full-information","relevant_dimensions":["antennae","pattern"],"bee_group":{"antennae":"B","wings":"X","pattern":"D","legs":"X"},"bonus":0.22000000000000072},{"rt":4119.5,"stimulus":"bees-with-color/bee-B2DF.svg","response":1,"trial_type":"image-button-response","trial_index":49,"time_elapsed":291191,"internal_node_id":"0.0-4.0-0.21","subject_id":"6054bc49a73ad1f484b6ce32","study_id":"6197b3f67c2b5cd3b6d9596a","session_id":"619be326413e41e9cfd4c9c0","condition":"full-information","relevant_dimensions":["antennae","pattern"],"bee_group":{"antennae":"B","wings":"X","pattern":"D","legs":"X"},"action":"avoid","summary":"good-avoid","bonus":0.22000000000000072},{"rt":3677.6999999284744,"stimulus":"\n                    <p><b>Action: <em>avoid</em></b></p>\n                    <p>This is the bee that you just saw.</p>\n                    <img src=\"bees-with-color/bee-B2DF.svg\" width=\"200\">\n                    <p><span class=\"greenText\">Good choice!</span>  This bee would have stung you.<br>Your bonus pay is unchanged, and remains at $0.26.</p>\n            ","response":0,"trial_type":"html-button-response","trial_index":50,"time_elapsed":294872,"internal_node_id":"0.0-4.0-1.21","subject_id":"6054bc49a73ad1f484b6ce32","study_id":"6197b3f67c2b5cd3b6d9596a","session_id":"619be326413e41e9cfd4c9c0","condition":"full-information","relevant_dimensions":["antennae","pattern"],"bee_group":{"antennae":"B","wings":"X","pattern":"D","legs":"X"},"bonus":0.22000000000000072},{"rt":3495,"stimulus":"bees-with-color/bee-A1SF.svg","response":1,"trial_type":"image-button-response","trial_index":51,"time_elapsed":298371,"internal_node_id":"0.0-4.0-0.22","subject_id":"6054bc49a73ad1f484b6ce32","study_id":"6197b3f67c2b5cd3b6d9596a","session_id":"619be326413e41e9cfd4c9c0","condition":"full-information","relevant_dimensions":["antennae","pattern"],"bee_group":{"antennae":"B","wings":"X","pattern":"D","legs":"X"},"action":"avoid","summary":"bad-avoid","bonus":0.22000000000000072},{"rt":1413,"stimulus":"\n                    <p><b>Action: <em>avoid</em></b></p>\n                    <p>This is the bee that you just saw.</p>\n                    <img src=\"bees-with-color/bee-A1SF.svg\" width=\"200\">\n                    <p><span class=\"redText\">Bad choice,</span> the bee was friendly.<br>Your bonus pay is unchanged, and remains at $0.26.</p>\n            ","response":0,"trial_type":"html-button-response","trial_index":52,"time_elapsed":299787,"internal_node_id":"0.0-4.0-1.22","subject_id":"6054bc49a73ad1f484b6ce32","study_id":"6197b3f67c2b5cd3b6d9596a","session_id":"619be326413e41e9cfd4c9c0","condition":"full-information","relevant_dimensions":["antennae","pattern"],"bee_group":{"antennae":"B","wings":"X","pattern":"D","legs":"X"},"bonus":0.22000000000000072},{"rt":1784.7000000476837,"stimulus":"bees-with-color/bee-B1SF.svg","response":1,"trial_type":"image-button-response","trial_index":53,"time_elapsed":301575,"internal_node_id":"0.0-4.0-0.23","subject_id":"6054bc49a73ad1f484b6ce32","study_id":"6197b3f67c2b5cd3b6d9596a","session_id":"619be326413e41e9cfd4c9c0","condition":"full-information","relevant_dimensions":["antennae","pattern"],"bee_group":{"antennae":"B","wings":"X","pattern":"D","legs":"X"},"action":"avoid","summary":"bad-avoid","bonus":0.22000000000000072},{"rt":1378.7999999523163,"stimulus":"\n                    <p><b>Action: <em>avoid</em></b></p>\n                    <p>This is the bee that you just saw.</p>\n                    <img src=\"bees-with-color/bee-B1SF.svg\" width=\"200\">\n                    <p><span class=\"redText\">Bad choice,</span> the bee was friendly.<br>Your bonus pay is unchanged, and remains at $0.26.</p>\n            ","response":0,"trial_type":"html-button-response","trial_index":54,"time_elapsed":302957,"internal_node_id":"0.0-4.0-1.23","subject_id":"6054bc49a73ad1f484b6ce32","study_id":"6197b3f67c2b5cd3b6d9596a","session_id":"619be326413e41e9cfd4c9c0","condition":"full-information","relevant_dimensions":["antennae","pattern"],"bee_group":{"antennae":"B","wings":"X","pattern":"D","legs":"X"},"bonus":0.22000000000000072},{"rt":1880.5,"stimulus":"bees-with-color/bee-B1DF.svg","response":1,"trial_type":"image-button-response","trial_index":55,"time_elapsed":304841,"internal_node_id":"0.0-4.0-0.24","subject_id":"6054bc49a73ad1f484b6ce32","study_id":"6197b3f67c2b5cd3b6d9596a","session_id":"619be326413e41e9cfd4c9c0","condition":"full-information","relevant_dimensions":["antennae","pattern"],"bee_group":{"antennae":"B","wings":"X","pattern":"D","legs":"X"},"action":"avoid","summary":"good-avoid","bonus":0.22000000000000072},{"rt":1442.2000000476837,"stimulus":"\n                    <p><b>Action: <em>avoid</em></b></p>\n                    <p>This is the bee that you just saw.</p>\n                    <img src=\"bees-with-color/bee-B1DF.svg\" width=\"200\">\n                    <p><span class=\"greenText\">Good choice!</span>  This bee would have stung you.<br>Your bonus pay is unchanged, and remains at $0.26.</p>\n            ","response":0,"trial_type":"html-button-response","trial_index":56,"time_elapsed":306287,"internal_node_id":"0.0-4.0-1.24","subject_id":"6054bc49a73ad1f484b6ce32","study_id":"6197b3f67c2b5cd3b6d9596a","session_id":"619be326413e41e9cfd4c9c0","condition":"full-information","relevant_dimensions":["antennae","pattern"],"bee_group":{"antennae":"B","wings":"X","pattern":"D","legs":"X"},"bonus":0.22000000000000072},{"rt":1955.3999999761581,"stimulus":"bees-with-color/bee-A2DF.svg","response":0,"trial_type":"image-button-response","trial_index":57,"time_elapsed":308245,"internal_node_id":"0.0-4.0-0.25","subject_id":"6054bc49a73ad1f484b6ce32","study_id":"6197b3f67c2b5cd3b6d9596a","session_id":"619be326413e41e9cfd4c9c0","condition":"full-information","relevant_dimensions":["antennae","pattern"],"bee_group":{"antennae":"B","wings":"X","pattern":"D","legs":"X"},"action":"harvest","summary":"good-harvest","bonus":0.22000000000000072},{"rt":1362.1000000238419,"stimulus":"\n                    <p><b>Action: <em>harvest</em></b></p>\n                    <p>This is the bee that you just saw.</p>\n                    <img src=\"bees-with-color/bee-A2DF.svg\" width=\"200\">\n                    <p><span class=\"greenText\"><b>Successful harvest!</b></span><br>Your pay has increased by $0.02. Your bonus pay is now $0.28.</p>\n            ","response":0,"trial_type":"html-button-response","trial_index":58,"time_elapsed":309611,"internal_node_id":"0.0-4.0-1.25","subject_id":"6054bc49a73ad1f484b6ce32","study_id":"6197b3f67c2b5cd3b6d9596a","session_id":"619be326413e41e9cfd4c9c0","condition":"full-information","relevant_dimensions":["antennae","pattern"],"bee_group":{"antennae":"B","wings":"X","pattern":"D","legs":"X"},"bonus":0.22000000000000072},{"rt":3565.100000023842,"stimulus":"bees-with-color/bee-B1SM.svg","response":0,"trial_type":"image-button-response","trial_index":59,"time_elapsed":313180,"internal_node_id":"0.0-4.0-0.26","subject_id":"6054bc49a73ad1f484b6ce32","study_id":"6197b3f67c2b5cd3b6d9596a","session_id":"619be326413e41e9cfd4c9c0","condition":"full-information","relevant_dimensions":["antennae","pattern"],"bee_group":{"antennae":"B","wings":"X","pattern":"D","legs":"X"},"action":"harvest","summary":"good-harvest","bonus":0.22000000000000072},{"rt":1303.5,"stimulus":"\n                    <p><b>Action: <em>harvest</em></b></p>\n                    <p>This is the bee that you just saw.</p>\n                    <img src=\"bees-with-color/bee-B1SM.svg\" width=\"200\">\n                    <p><span class=\"greenText\"><b>Successful harvest!</b></span><br>Your pay has increased by $0.02. Your bonus pay is now $0.30.</p>\n            ","response":0,"trial_type":"html-button-response","trial_index":60,"time_elapsed":314488,"internal_node_id":"0.0-4.0-1.26","subject_id":"6054bc49a73ad1f484b6ce32","study_id":"6197b3f67c2b5cd3b6d9596a","session_id":"619be326413e41e9cfd4c9c0","condition":"full-information","relevant_dimensions":["antennae","pattern"],"bee_group":{"antennae":"B","wings":"X","pattern":"D","legs":"X"},"bonus":0.22000000000000072},{"rt":3436.100000023842,"stimulus":"bees-with-color/bee-A1DF.svg","response":0,"trial_type":"image-button-response","trial_index":61,"time_elapsed":317928,"internal_node_id":"0.0-4.0-0.27","subject_id":"6054bc49a73ad1f484b6ce32","study_id":"6197b3f67c2b5cd3b6d9596a","session_id":"619be326413e41e9cfd4c9c0","condition":"full-information","relevant_dimensions":["antennae","pattern"],"bee_group":{"antennae":"B","wings":"X","pattern":"D","legs":"X"},"action":"harvest","summary":"good-harvest","bonus":0.22000000000000072},{"rt":1340.5,"stimulus":"\n                    <p><b>Action: <em>harvest</em></b></p>\n                    <p>This is the bee that you just saw.</p>\n                    <img src=\"bees-with-color/bee-A1DF.svg\" width=\"200\">\n                    <p><span class=\"greenText\"><b>Successful harvest!</b></span><br>Your pay has increased by $0.02. Your bonus pay is now $0.32.</p>\n            ","response":0,"trial_type":"html-button-response","trial_index":62,"time_elapsed":319272,"internal_node_id":"0.0-4.0-1.27","subject_id":"6054bc49a73ad1f484b6ce32","study_id":"6197b3f67c2b5cd3b6d9596a","session_id":"619be326413e41e9cfd4c9c0","condition":"full-information","relevant_dimensions":["antennae","pattern"],"bee_group":{"antennae":"B","wings":"X","pattern":"D","legs":"X"},"bonus":0.22000000000000072},{"rt":2085.7999999523163,"stimulus":"bees-with-color/bee-B2DM.svg","response":0,"trial_type":"image-button-response","trial_index":63,"time_elapsed":321362,"internal_node_id":"0.0-4.0-0.28","subject_id":"6054bc49a73ad1f484b6ce32","study_id":"6197b3f67c2b5cd3b6d9596a","session_id":"619be326413e41e9cfd4c9c0","condition":"full-information","relevant_dimensions":["antennae","pattern"],"bee_group":{"antennae":"B","wings":"X","pattern":"D","legs":"X"},"action":"harvest","summary":"bad-harvest","bonus":0.22000000000000072},{"rt":1438.7000000476837,"stimulus":"\n                    <p><b>Action: <em>harvest</em></b></p>\n                    <p>This is the bee that you just saw.</p>\n                    <img src=\"bees-with-color/bee-B2DM.svg\" width=\"200\">\n                    <p><span class=\"redText\">Bad choice, the bee was angry.</span><br><b>You have been stung!</b><br>Your pay has been decreased by $0.10. Your bonus pay is now $0.22.</p>\n            ","response":0,"trial_type":"html-button-response","trial_index":64,"time_elapsed":322804,"internal_node_id":"0.0-4.0-1.28","subject_id":"6054bc49a73ad1f484b6ce32","study_id":"6197b3f67c2b5cd3b6d9596a","session_id":"619be326413e41e9cfd4c9c0","condition":"full-information","relevant_dimensions":["antennae","pattern"],"bee_group":{"antennae":"B","wings":"X","pattern":"D","legs":"X"},"bonus":0.22000000000000072},{"rt":4663.600000023842,"stimulus":"bees-with-color/bee-B2SM.svg","response":0,"trial_type":"image-button-response","trial_index":65,"time_elapsed":327470,"internal_node_id":"0.0-4.0-0.29","subject_id":"6054bc49a73ad1f484b6ce32","study_id":"6197b3f67c2b5cd3b6d9596a","session_id":"619be326413e41e9cfd4c9c0","condition":"full-information","relevant_dimensions":["antennae","pattern"],"bee_group":{"antennae":"B","wings":"X","pattern":"D","legs":"X"},"action":"harvest","summary":"good-harvest","bonus":0.22000000000000072},{"rt":1208.5,"stimulus":"\n                    <p><b>Action: <em>harvest</em></b></p>\n                    <p>This is the bee that you just saw.</p>\n                    <img src=\"bees-with-color/bee-B2SM.svg\" width=\"200\">\n                    <p><span class=\"greenText\"><b>Successful harvest!</b></span><br>Your pay has increased by $0.02. Your bonus pay is now $0.24.</p>\n            ","response":0,"trial_type":"html-button-response","trial_index":66,"time_elapsed":328683,"internal_node_id":"0.0-4.0-1.29","subject_id":"6054bc49a73ad1f484b6ce32","study_id":"6197b3f67c2b5cd3b6d9596a","session_id":"619be326413e41e9cfd4c9c0","condition":"full-information","relevant_dimensions":["antennae","pattern"],"bee_group":{"antennae":"B","wings":"X","pattern":"D","legs":"X"},"bonus":0.22000000000000072},{"rt":1995,"stimulus":"bees-with-color/bee-A2DM.svg","response":0,"trial_type":"image-button-response","trial_index":67,"time_elapsed":330683,"internal_node_id":"0.0-4.0-0.30","subject_id":"6054bc49a73ad1f484b6ce32","study_id":"6197b3f67c2b5cd3b6d9596a","session_id":"619be326413e41e9cfd4c9c0","condition":"full-information","relevant_dimensions":["antennae","pattern"],"bee_group":{"antennae":"B","wings":"X","pattern":"D","legs":"X"},"action":"harvest","summary":"good-harvest","bonus":0.22000000000000072},{"rt":1365.4000000953674,"stimulus":"\n                    <p><b>Action: <em>harvest</em></b></p>\n                    <p>This is the bee that you just saw.</p>\n                    <img src=\"bees-with-color/bee-A2DM.svg\" width=\"200\">\n                    <p><span class=\"greenText\"><b>Successful harvest!</b></span><br>Your pay has increased by $0.02. Your bonus pay is now $0.26.</p>\n            ","response":0,"trial_type":"html-button-response","trial_index":68,"time_elapsed":332053,"internal_node_id":"0.0-4.0-1.30","subject_id":"6054bc49a73ad1f484b6ce32","study_id":"6197b3f67c2b5cd3b6d9596a","session_id":"619be326413e41e9cfd4c9c0","condition":"full-information","relevant_dimensions":["antennae","pattern"],"bee_group":{"antennae":"B","wings":"X","pattern":"D","legs":"X"},"bonus":0.22000000000000072},{"rt":1493,"stimulus":"bees-with-color/bee-A1DM.svg","response":0,"trial_type":"image-button-response","trial_index":69,"time_elapsed":333550,"internal_node_id":"0.0-4.0-0.31","subject_id":"6054bc49a73ad1f484b6ce32","study_id":"6197b3f67c2b5cd3b6d9596a","session_id":"619be326413e41e9cfd4c9c0","condition":"full-information","relevant_dimensions":["antennae","pattern"],"bee_group":{"antennae":"B","wings":"X","pattern":"D","legs":"X"},"action":"harvest","summary":"good-harvest","bonus":0.22000000000000072},{"rt":1316.7999999523163,"stimulus":"\n                    <p><b>Action: <em>harvest</em></b></p>\n                    <p>This is the bee that you just saw.</p>\n                    <img src=\"bees-with-color/bee-A1DM.svg\" width=\"200\">\n                    <p><span class=\"greenText\"><b>Successful harvest!</b></span><br>Your pay has increased by $0.02. Your bonus pay is now $0.28.</p>\n            ","response":0,"trial_type":"html-button-response","trial_index":70,"time_elapsed":334872,"internal_node_id":"0.0-4.0-1.31","subject_id":"6054bc49a73ad1f484b6ce32","study_id":"6197b3f67c2b5cd3b6d9596a","session_id":"619be326413e41e9cfd4c9c0","condition":"full-information","relevant_dimensions":["antennae","pattern"],"bee_group":{"antennae":"B","wings":"X","pattern":"D","legs":"X"},"bonus":0.22000000000000072},{"rt":2394.9000000953674,"stimulus":"bees-with-color/bee-B1DF.svg","response":1,"trial_type":"image-button-response","trial_index":71,"time_elapsed":337270,"internal_node_id":"0.0-4.0-0.32","subject_id":"6054bc49a73ad1f484b6ce32","study_id":"6197b3f67c2b5cd3b6d9596a","session_id":"619be326413e41e9cfd4c9c0","condition":"full-information","relevant_dimensions":["antennae","pattern"],"bee_group":{"antennae":"B","wings":"X","pattern":"D","legs":"X"},"action":"avoid","summary":"good-avoid","bonus":0.22000000000000072},{"rt":2840,"stimulus":"\n                    <p><b>Action: <em>avoid</em></b></p>\n                    <p>This is the bee that you just saw.</p>\n                    <img src=\"bees-with-color/bee-B1DF.svg\" width=\"200\">\n                    <p><span class=\"greenText\">Good choice!</span>  This bee would have stung you.<br>Your bonus pay is unchanged, and remains at $0.28.</p>\n            ","response":0,"trial_type":"html-button-response","trial_index":72,"time_elapsed":340114,"internal_node_id":"0.0-4.0-1.32","subject_id":"6054bc49a73ad1f484b6ce32","study_id":"6197b3f67c2b5cd3b6d9596a","session_id":"619be326413e41e9cfd4c9c0","condition":"full-information","relevant_dimensions":["antennae","pattern"],"bee_group":{"antennae":"B","wings":"X","pattern":"D","legs":"X"},"bonus":0.22000000000000072},{"rt":2576.100000023842,"stimulus":"bees-with-color/bee-A1DF.svg","response":0,"trial_type":"image-button-response","trial_index":73,"time_elapsed":342694,"internal_node_id":"0.0-4.0-0.33","subject_id":"6054bc49a73ad1f484b6ce32","study_id":"6197b3f67c2b5cd3b6d9596a","session_id":"619be326413e41e9cfd4c9c0","condition":"full-information","relevant_dimensions":["antennae","pattern"],"bee_group":{"antennae":"B","wings":"X","pattern":"D","legs":"X"},"action":"harvest","summary":"good-harvest","bonus":0.22000000000000072},{"rt":1300.3000000715256,"stimulus":"\n                    <p><b>Action: <em>harvest</em></b></p>\n                    <p>This is the bee that you just saw.</p>\n                    <img src=\"bees-with-color/bee-A1DF.svg\" width=\"200\">\n                    <p><span class=\"greenText\"><b>Successful harvest!</b></span><br>Your pay has increased by $0.02. Your bonus pay is now $0.30.</p>\n            ","response":0,"trial_type":"html-button-response","trial_index":74,"time_elapsed":343998,"internal_node_id":"0.0-4.0-1.33","subject_id":"6054bc49a73ad1f484b6ce32","study_id":"6197b3f67c2b5cd3b6d9596a","session_id":"619be326413e41e9cfd4c9c0","condition":"full-information","relevant_dimensions":["antennae","pattern"],"bee_group":{"antennae":"B","wings":"X","pattern":"D","legs":"X"},"bonus":0.22000000000000072},{"rt":2230.399999976158,"stimulus":"bees-with-color/bee-B2SM.svg","response":0,"trial_type":"image-button-response","trial_index":75,"time_elapsed":346234,"internal_node_id":"0.0-4.0-0.34","subject_id":"6054bc49a73ad1f484b6ce32","study_id":"6197b3f67c2b5cd3b6d9596a","session_id":"619be326413e41e9cfd4c9c0","condition":"full-information","relevant_dimensions":["antennae","pattern"],"bee_group":{"antennae":"B","wings":"X","pattern":"D","legs":"X"},"action":"harvest","summary":"good-harvest","bonus":0.22000000000000072},{"rt":1187.5,"stimulus":"\n                    <p><b>Action: <em>harvest</em></b></p>\n                    <p>This is the bee that you just saw.</p>\n                    <img src=\"bees-with-color/bee-B2SM.svg\" width=\"200\">\n                    <p><span class=\"greenText\"><b>Successful harvest!</b></span><br>Your pay has increased by $0.02. Your bonus pay is now $0.32.</p>\n            ","response":0,"trial_type":"html-button-response","trial_index":76,"time_elapsed":347426,"internal_node_id":"0.0-4.0-1.34","subject_id":"6054bc49a73ad1f484b6ce32","study_id":"6197b3f67c2b5cd3b6d9596a","session_id":"619be326413e41e9cfd4c9c0","condition":"full-information","relevant_dimensions":["antennae","pattern"],"bee_group":{"antennae":"B","wings":"X","pattern":"D","legs":"X"},"bonus":0.22000000000000072},{"rt":2412.8000000715256,"stimulus":"bees-with-color/bee-A1SM.svg","response":0,"trial_type":"image-button-response","trial_index":77,"time_elapsed":349843,"internal_node_id":"0.0-4.0-0.35","subject_id":"6054bc49a73ad1f484b6ce32","study_id":"6197b3f67c2b5cd3b6d9596a","session_id":"619be326413e41e9cfd4c9c0","condition":"full-information","relevant_dimensions":["antennae","pattern"],"bee_group":{"antennae":"B","wings":"X","pattern":"D","legs":"X"},"action":"harvest","summary":"good-harvest","bonus":0.22000000000000072},{"rt":1213.8000000715256,"stimulus":"\n                    <p><b>Action: <em>harvest</em></b></p>\n                    <p>This is the bee that you just saw.</p>\n                    <img src=\"bees-with-color/bee-A1SM.svg\" width=\"200\">\n                    <p><span class=\"greenText\"><b>Successful harvest!</b></span><br>Your pay has increased by $0.02. Your bonus pay is now $0.34.</p>\n            ","response":0,"trial_type":"html-button-response","trial_index":78,"time_elapsed":351061,"internal_node_id":"0.0-4.0-1.35","subject_id":"6054bc49a73ad1f484b6ce32","study_id":"6197b3f67c2b5cd3b6d9596a","session_id":"619be326413e41e9cfd4c9c0","condition":"full-information","relevant_dimensions":["antennae","pattern"],"bee_group":{"antennae":"B","wings":"X","pattern":"D","legs":"X"},"bonus":0.22000000000000072},{"rt":4404.799999952316,"stimulus":"bees-with-color/bee-A1SF.svg","response":0,"trial_type":"image-button-response","trial_index":79,"time_elapsed":355470,"internal_node_id":"0.0-4.0-0.36","subject_id":"6054bc49a73ad1f484b6ce32","study_id":"6197b3f67c2b5cd3b6d9596a","session_id":"619be326413e41e9cfd4c9c0","condition":"full-information","relevant_dimensions":["antennae","pattern"],"bee_group":{"antennae":"B","wings":"X","pattern":"D","legs":"X"},"action":"harvest","summary":"good-harvest","bonus":0.22000000000000072},{"rt":1247.2999999523163,"stimulus":"\n                    <p><b>Action: <em>harvest</em></b></p>\n                    <p>This is the bee that you just saw.</p>\n                    <img src=\"bees-with-color/bee-A1SF.svg\" width=\"200\">\n                    <p><span class=\"greenText\"><b>Successful harvest!</b></span><br>Your pay has increased by $0.02. Your bonus pay is now $0.36.</p>\n            ","response":0,"trial_type":"html-button-response","trial_index":80,"time_elapsed":356721,"internal_node_id":"0.0-4.0-1.36","subject_id":"6054bc49a73ad1f484b6ce32","study_id":"6197b3f67c2b5cd3b6d9596a","session_id":"619be326413e41e9cfd4c9c0","condition":"full-information","relevant_dimensions":["antennae","pattern"],"bee_group":{"antennae":"B","wings":"X","pattern":"D","legs":"X"},"bonus":0.22000000000000072},{"rt":2860.2999999523163,"stimulus":"bees-with-color/bee-A2SF.svg","response":0,"trial_type":"image-button-response","trial_index":81,"time_elapsed":359586,"internal_node_id":"0.0-4.0-0.37","subject_id":"6054bc49a73ad1f484b6ce32","study_id":"6197b3f67c2b5cd3b6d9596a","session_id":"619be326413e41e9cfd4c9c0","condition":"full-information","relevant_dimensions":["antennae","pattern"],"bee_group":{"antennae":"B","wings":"X","pattern":"D","legs":"X"},"action":"harvest","summary":"good-harvest","bonus":0.22000000000000072},{"rt":1235.2999999523163,"stimulus":"\n                    <p><b>Action: <em>harvest</em></b></p>\n                    <p>This is the bee that you just saw.</p>\n                    <img src=\"bees-with-color/bee-A2SF.svg\" width=\"200\">\n                    <p><span class=\"greenText\"><b>Successful harvest!</b></span><br>Your pay has increased by $0.02. Your bonus pay is now $0.38.</p>\n            ","response":0,"trial_type":"html-button-response","trial_index":82,"time_elapsed":360825,"internal_node_id":"0.0-4.0-1.37","subject_id":"6054bc49a73ad1f484b6ce32","study_id":"6197b3f67c2b5cd3b6d9596a","session_id":"619be326413e41e9cfd4c9c0","condition":"full-information","relevant_dimensions":["antennae","pattern"],"bee_group":{"antennae":"B","wings":"X","pattern":"D","legs":"X"},"bonus":0.22000000000000072},{"rt":3004.7999999523163,"stimulus":"bees-with-color/bee-B2DM.svg","response":0,"trial_type":"image-button-response","trial_index":83,"time_elapsed":363836,"internal_node_id":"0.0-4.0-0.38","subject_id":"6054bc49a73ad1f484b6ce32","study_id":"6197b3f67c2b5cd3b6d9596a","session_id":"619be326413e41e9cfd4c9c0","condition":"full-information","relevant_dimensions":["antennae","pattern"],"bee_group":{"antennae":"B","wings":"X","pattern":"D","legs":"X"},"action":"harvest","summary":"bad-harvest","bonus":0.22000000000000072},{"rt":1175.1999999284744,"stimulus":"\n                    <p><b>Action: <em>harvest</em></b></p>\n                    <p>This is the bee that you just saw.</p>\n                    <img src=\"bees-with-color/bee-B2DM.svg\" width=\"200\">\n                    <p><span class=\"redText\">Bad choice, the bee was angry.</span><br><b>You have been stung!</b><br>Your pay has been decreased by $0.10. Your bonus pay is now $0.28.</p>\n            ","response":0,"trial_type":"html-button-response","trial_index":84,"time_elapsed":365015,"internal_node_id":"0.0-4.0-1.38","subject_id":"6054bc49a73ad1f484b6ce32","study_id":"6197b3f67c2b5cd3b6d9596a","session_id":"619be326413e41e9cfd4c9c0","condition":"full-information","relevant_dimensions":["antennae","pattern"],"bee_group":{"antennae":"B","wings":"X","pattern":"D","legs":"X"},"bonus":0.22000000000000072},{"rt":1816.2999999523163,"stimulus":"bees-with-color/bee-A2DF.svg","response":0,"trial_type":"image-button-response","trial_index":85,"time_elapsed":366837,"internal_node_id":"0.0-4.0-0.39","subject_id":"6054bc49a73ad1f484b6ce32","study_id":"6197b3f67c2b5cd3b6d9596a","session_id":"619be326413e41e9cfd4c9c0","condition":"full-information","relevant_dimensions":["antennae","pattern"],"bee_group":{"antennae":"B","wings":"X","pattern":"D","legs":"X"},"action":"harvest","summary":"good-harvest","bonus":0.22000000000000072},{"rt":1165.6000000238419,"stimulus":"\n                    <p><b>Action: <em>harvest</em></b></p>\n                    <p>This is the bee that you just saw.</p>\n                    <img src=\"bees-with-color/bee-A2DF.svg\" width=\"200\">\n                    <p><span class=\"greenText\"><b>Successful harvest!</b></span><br>Your pay has increased by $0.02. Your bonus pay is now $0.30.</p>\n            ","response":0,"trial_type":"html-button-response","trial_index":86,"time_elapsed":368007,"internal_node_id":"0.0-4.0-1.39","subject_id":"6054bc49a73ad1f484b6ce32","study_id":"6197b3f67c2b5cd3b6d9596a","session_id":"619be326413e41e9cfd4c9c0","condition":"full-information","relevant_dimensions":["antennae","pattern"],"bee_group":{"antennae":"B","wings":"X","pattern":"D","legs":"X"},"bonus":0.22000000000000072},{"rt":1777.2000000476837,"stimulus":"bees-with-color/bee-A2DM.svg","response":0,"trial_type":"image-button-response","trial_index":87,"time_elapsed":369788,"internal_node_id":"0.0-4.0-0.40","subject_id":"6054bc49a73ad1f484b6ce32","study_id":"6197b3f67c2b5cd3b6d9596a","session_id":"619be326413e41e9cfd4c9c0","condition":"full-information","relevant_dimensions":["antennae","pattern"],"bee_group":{"antennae":"B","wings":"X","pattern":"D","legs":"X"},"action":"harvest","summary":"good-harvest","bonus":0.22000000000000072},{"rt":1179.5,"stimulus":"\n                    <p><b>Action: <em>harvest</em></b></p>\n                    <p>This is the bee that you just saw.</p>\n                    <img src=\"bees-with-color/bee-A2DM.svg\" width=\"200\">\n                    <p><span class=\"greenText\"><b>Successful harvest!</b></span><br>Your pay has increased by $0.02. Your bonus pay is now $0.32.</p>\n            ","response":0,"trial_type":"html-button-response","trial_index":88,"time_elapsed":370971,"internal_node_id":"0.0-4.0-1.40","subject_id":"6054bc49a73ad1f484b6ce32","study_id":"6197b3f67c2b5cd3b6d9596a","session_id":"619be326413e41e9cfd4c9c0","condition":"full-information","relevant_dimensions":["antennae","pattern"],"bee_group":{"antennae":"B","wings":"X","pattern":"D","legs":"X"},"bonus":0.22000000000000072},{"rt":6063.700000047684,"stimulus":"bees-with-color/bee-B1SM.svg","response":0,"trial_type":"image-button-response","trial_index":89,"time_elapsed":377037,"internal_node_id":"0.0-4.0-0.41","subject_id":"6054bc49a73ad1f484b6ce32","study_id":"6197b3f67c2b5cd3b6d9596a","session_id":"619be326413e41e9cfd4c9c0","condition":"full-information","relevant_dimensions":["antennae","pattern"],"bee_group":{"antennae":"B","wings":"X","pattern":"D","legs":"X"},"action":"harvest","summary":"good-harvest","bonus":0.22000000000000072},{"rt":1339.1000000238419,"stimulus":"\n                    <p><b>Action: <em>harvest</em></b></p>\n                    <p>This is the bee that you just saw.</p>\n                    <img src=\"bees-with-color/bee-B1SM.svg\" width=\"200\">\n                    <p><span class=\"greenText\"><b>Successful harvest!</b></span><br>Your pay has increased by $0.02. Your bonus pay is now $0.34.</p>\n            ","response":0,"trial_type":"html-button-response","trial_index":90,"time_elapsed":378379,"internal_node_id":"0.0-4.0-1.41","subject_id":"6054bc49a73ad1f484b6ce32","study_id":"6197b3f67c2b5cd3b6d9596a","session_id":"619be326413e41e9cfd4c9c0","condition":"full-information","relevant_dimensions":["antennae","pattern"],"bee_group":{"antennae":"B","wings":"X","pattern":"D","legs":"X"},"bonus":0.22000000000000072},{"rt":2043.8000000715256,"stimulus":"bees-with-color/bee-A1DM.svg","response":0,"trial_type":"image-button-response","trial_index":91,"time_elapsed":380431,"internal_node_id":"0.0-4.0-0.42","subject_id":"6054bc49a73ad1f484b6ce32","study_id":"6197b3f67c2b5cd3b6d9596a","session_id":"619be326413e41e9cfd4c9c0","condition":"full-information","relevant_dimensions":["antennae","pattern"],"bee_group":{"antennae":"B","wings":"X","pattern":"D","legs":"X"},"action":"harvest","summary":"good-harvest","bonus":0.22000000000000072},{"rt":1347.7999999523163,"stimulus":"\n                    <p><b>Action: <em>harvest</em></b></p>\n                    <p>This is the bee that you just saw.</p>\n                    <img src=\"bees-with-color/bee-A1DM.svg\" width=\"200\">\n                    <p><span class=\"greenText\"><b>Successful harvest!</b></span><br>Your pay has increased by $0.02. Your bonus pay is now $0.36.</p>\n            ","response":0,"trial_type":"html-button-response","trial_index":92,"time_elapsed":381785,"internal_node_id":"0.0-4.0-1.42","subject_id":"6054bc49a73ad1f484b6ce32","study_id":"6197b3f67c2b5cd3b6d9596a","session_id":"619be326413e41e9cfd4c9c0","condition":"full-information","relevant_dimensions":["antennae","pattern"],"bee_group":{"antennae":"B","wings":"X","pattern":"D","legs":"X"},"bonus":0.22000000000000072},{"rt":3081,"stimulus":"bees-with-color/bee-B2DF.svg","response":1,"trial_type":"image-button-response","trial_index":93,"time_elapsed":384869,"internal_node_id":"0.0-4.0-0.43","subject_id":"6054bc49a73ad1f484b6ce32","study_id":"6197b3f67c2b5cd3b6d9596a","session_id":"619be326413e41e9cfd4c9c0","condition":"full-information","relevant_dimensions":["antennae","pattern"],"bee_group":{"antennae":"B","wings":"X","pattern":"D","legs":"X"},"action":"avoid","summary":"good-avoid","bonus":0.22000000000000072},{"rt":2472.7000000476837,"stimulus":"\n                    <p><b>Action: <em>avoid</em></b></p>\n                    <p>This is the bee that you just saw.</p>\n                    <img src=\"bees-with-color/bee-B2DF.svg\" width=\"200\">\n                    <p><span class=\"greenText\">Good choice!</span>  This bee would have stung you.<br>Your bonus pay is unchanged, and remains at $0.36.</p>\n            ","response":0,"trial_type":"html-button-response","trial_index":94,"time_elapsed":387344,"internal_node_id":"0.0-4.0-1.43","subject_id":"6054bc49a73ad1f484b6ce32","study_id":"6197b3f67c2b5cd3b6d9596a","session_id":"619be326413e41e9cfd4c9c0","condition":"full-information","relevant_dimensions":["antennae","pattern"],"bee_group":{"antennae":"B","wings":"X","pattern":"D","legs":"X"},"bonus":0.22000000000000072},{"rt":1737.2000000476837,"stimulus":"bees-with-color/bee-B1DM.svg","response":1,"trial_type":"image-button-response","trial_index":95,"time_elapsed":389085,"internal_node_id":"0.0-4.0-0.44","subject_id":"6054bc49a73ad1f484b6ce32","study_id":"6197b3f67c2b5cd3b6d9596a","session_id":"619be326413e41e9cfd4c9c0","condition":"full-information","relevant_dimensions":["antennae","pattern"],"bee_group":{"antennae":"B","wings":"X","pattern":"D","legs":"X"},"action":"avoid","summary":"good-avoid","bonus":0.22000000000000072},{"rt":1418.6000000238419,"stimulus":"\n                    <p><b>Action: <em>avoid</em></b></p>\n                    <p>This is the bee that you just saw.</p>\n                    <img src=\"bees-with-color/bee-B1DM.svg\" width=\"200\">\n                    <p><span class=\"greenText\">Good choice!</span>  This bee would have stung you.<br>Your bonus pay is unchanged, and remains at $0.36.</p>\n            ","response":0,"trial_type":"html-button-response","trial_index":96,"time_elapsed":390507,"internal_node_id":"0.0-4.0-1.44","subject_id":"6054bc49a73ad1f484b6ce32","study_id":"6197b3f67c2b5cd3b6d9596a","session_id":"619be326413e41e9cfd4c9c0","condition":"full-information","relevant_dimensions":["antennae","pattern"],"bee_group":{"antennae":"B","wings":"X","pattern":"D","legs":"X"},"bonus":0.22000000000000072},{"rt":2229.5,"stimulus":"bees-with-color/bee-B2SF.svg","response":1,"trial_type":"image-button-response","trial_index":97,"time_elapsed":392741,"internal_node_id":"0.0-4.0-0.45","subject_id":"6054bc49a73ad1f484b6ce32","study_id":"6197b3f67c2b5cd3b6d9596a","session_id":"619be326413e41e9cfd4c9c0","condition":"full-information","relevant_dimensions":["antennae","pattern"],"bee_group":{"antennae":"B","wings":"X","pattern":"D","legs":"X"},"action":"avoid","summary":"bad-avoid","bonus":0.22000000000000072},{"rt":1271.6999999284744,"stimulus":"\n                    <p><b>Action: <em>avoid</em></b></p>\n                    <p>This is the bee that you just saw.</p>\n                    <img src=\"bees-with-color/bee-B2SF.svg\" width=\"200\">\n                    <p><span class=\"redText\">Bad choice,</span> the bee was friendly.<br>Your bonus pay is unchanged, and remains at $0.36.</p>\n            ","response":0,"trial_type":"html-button-response","trial_index":98,"time_elapsed":394016,"internal_node_id":"0.0-4.0-1.45","subject_id":"6054bc49a73ad1f484b6ce32","study_id":"6197b3f67c2b5cd3b6d9596a","session_id":"619be326413e41e9cfd4c9c0","condition":"full-information","relevant_dimensions":["antennae","pattern"],"bee_group":{"antennae":"B","wings":"X","pattern":"D","legs":"X"},"bonus":0.22000000000000072},{"rt":2083.7000000476837,"stimulus":"bees-with-color/bee-B1SF.svg","response":1,"trial_type":"image-button-response","trial_index":99,"time_elapsed":396103,"internal_node_id":"0.0-4.0-0.46","subject_id":"6054bc49a73ad1f484b6ce32","study_id":"6197b3f67c2b5cd3b6d9596a","session_id":"619be326413e41e9cfd4c9c0","condition":"full-information","relevant_dimensions":["antennae","pattern"],"bee_group":{"antennae":"B","wings":"X","pattern":"D","legs":"X"},"action":"avoid","summary":"bad-avoid","bonus":0.22000000000000072},{"rt":1239.6000000238419,"stimulus":"\n                    <p><b>Action: <em>avoid</em></b></p>\n                    <p>This is the bee that you just saw.</p>\n                    <img src=\"bees-with-color/bee-B1SF.svg\" width=\"200\">\n                    <p><span class=\"redText\">Bad choice,</span> the bee was friendly.<br>Your bonus pay is unchanged, and remains at $0.36.</p>\n            ","response":0,"trial_type":"html-button-response","trial_index":100,"time_elapsed":397346,"internal_node_id":"0.0-4.0-1.46","subject_id":"6054bc49a73ad1f484b6ce32","study_id":"6197b3f67c2b5cd3b6d9596a","session_id":"619be326413e41e9cfd4c9c0","condition":"full-information","relevant_dimensions":["antennae","pattern"],"bee_group":{"antennae":"B","wings":"X","pattern":"D","legs":"X"},"bonus":0.22000000000000072},{"rt":1641.1000000238419,"stimulus":"bees-with-color/bee-A2SM.svg","response":0,"trial_type":"image-button-response","trial_index":101,"time_elapsed":398992,"internal_node_id":"0.0-4.0-0.47","subject_id":"6054bc49a73ad1f484b6ce32","study_id":"6197b3f67c2b5cd3b6d9596a","session_id":"619be326413e41e9cfd4c9c0","condition":"full-information","relevant_dimensions":["antennae","pattern"],"bee_group":{"antennae":"B","wings":"X","pattern":"D","legs":"X"},"action":"harvest","summary":"good-harvest","bonus":0.22000000000000072},{"rt":1035.2999999523163,"stimulus":"\n                    <p><b>Action: <em>harvest</em></b></p>\n                    <p>This is the bee that you just saw.</p>\n                    <img src=\"bees-with-color/bee-A2SM.svg\" width=\"200\">\n                    <p><span class=\"greenText\"><b>Successful harvest!</b></span><br>Your pay has increased by $0.02. Your bonus pay is now $0.38.</p>\n            ","response":0,"trial_type":"html-button-response","trial_index":102,"time_elapsed":400031,"internal_node_id":"0.0-4.0-1.47","subject_id":"6054bc49a73ad1f484b6ce32","study_id":"6197b3f67c2b5cd3b6d9596a","session_id":"619be326413e41e9cfd4c9c0","condition":"full-information","relevant_dimensions":["antennae","pattern"],"bee_group":{"antennae":"B","wings":"X","pattern":"D","legs":"X"},"bonus":0.22000000000000072},{"rt":1769.6000000238419,"stimulus":"bees-with-color/bee-A2SF.svg","response":0,"trial_type":"image-button-response","trial_index":103,"time_elapsed":401805,"internal_node_id":"0.0-4.0-0.48","subject_id":"6054bc49a73ad1f484b6ce32","study_id":"6197b3f67c2b5cd3b6d9596a","session_id":"619be326413e41e9cfd4c9c0","condition":"full-information","relevant_dimensions":["antennae","pattern"],"bee_group":{"antennae":"B","wings":"X","pattern":"D","legs":"X"},"action":"harvest","summary":"good-harvest","bonus":0.22000000000000072},{"rt":1323.5,"stimulus":"\n                    <p><b>Action: <em>harvest</em></b></p>\n                    <p>This is the bee that you just saw.</p>\n                    <img src=\"bees-with-color/bee-A2SF.svg\" width=\"200\">\n                    <p><span class=\"greenText\"><b>Successful harvest!</b></span><br>Your pay has increased by $0.02. Your bonus pay is now $0.40.</p>\n            ","response":0,"trial_type":"html-button-response","trial_index":104,"time_elapsed":403132,"internal_node_id":"0.0-4.0-1.48","subject_id":"6054bc49a73ad1f484b6ce32","study_id":"6197b3f67c2b5cd3b6d9596a","session_id":"619be326413e41e9cfd4c9c0","condition":"full-information","relevant_dimensions":["antennae","pattern"],"bee_group":{"antennae":"B","wings":"X","pattern":"D","legs":"X"},"bonus":0.22000000000000072},{"rt":2964.7999999523163,"stimulus":"bees-with-color/bee-B1SF.svg","response":1,"trial_type":"image-button-response","trial_index":105,"time_elapsed":406102,"internal_node_id":"0.0-4.0-0.49","subject_id":"6054bc49a73ad1f484b6ce32","study_id":"6197b3f67c2b5cd3b6d9596a","session_id":"619be326413e41e9cfd4c9c0","condition":"full-information","relevant_dimensions":["antennae","pattern"],"bee_group":{"antennae":"B","wings":"X","pattern":"D","legs":"X"},"action":"avoid","summary":"bad-avoid","bonus":0.22000000000000072},{"rt":1473.2000000476837,"stimulus":"\n                    <p><b>Action: <em>avoid</em></b></p>\n                    <p>This is the bee that you just saw.</p>\n                    <img src=\"bees-with-color/bee-B1SF.svg\" width=\"200\">\n                    <p><span class=\"redText\">Bad choice,</span> the bee was friendly.<br>Your bonus pay is unchanged, and remains at $0.40.</p>\n            ","response":0,"trial_type":"html-button-response","trial_index":106,"time_elapsed":407578,"internal_node_id":"0.0-4.0-1.49","subject_id":"6054bc49a73ad1f484b6ce32","study_id":"6197b3f67c2b5cd3b6d9596a","session_id":"619be326413e41e9cfd4c9c0","condition":"full-information","relevant_dimensions":["antennae","pattern"],"bee_group":{"antennae":"B","wings":"X","pattern":"D","legs":"X"},"bonus":0.22000000000000072},{"rt":2447.7000000476837,"stimulus":"bees-with-color/bee-B2SF.svg","response":0,"trial_type":"image-button-response","trial_index":107,"time_elapsed":410030,"internal_node_id":"0.0-4.0-0.50","subject_id":"6054bc49a73ad1f484b6ce32","study_id":"6197b3f67c2b5cd3b6d9596a","session_id":"619be326413e41e9cfd4c9c0","condition":"full-information","relevant_dimensions":["antennae","pattern"],"bee_group":{"antennae":"B","wings":"X","pattern":"D","legs":"X"},"action":"harvest","summary":"good-harvest","bonus":0.22000000000000072},{"rt":1250.5,"stimulus":"\n                    <p><b>Action: <em>harvest</em></b></p>\n                    <p>This is the bee that you just saw.</p>\n                    <img src=\"bees-with-color/bee-B2SF.svg\" width=\"200\">\n                    <p><span class=\"greenText\"><b>Successful harvest!</b></span><br>Your pay has increased by $0.02. Your bonus pay is now $0.42.</p>\n            ","response":0,"trial_type":"html-button-response","trial_index":108,"time_elapsed":411285,"internal_node_id":"0.0-4.0-1.50","subject_id":"6054bc49a73ad1f484b6ce32","study_id":"6197b3f67c2b5cd3b6d9596a","session_id":"619be326413e41e9cfd4c9c0","condition":"full-information","relevant_dimensions":["antennae","pattern"],"bee_group":{"antennae":"B","wings":"X","pattern":"D","legs":"X"},"bonus":0.22000000000000072},{"rt":2364.7999999523163,"stimulus":"bees-with-color/bee-A2DF.svg","response":0,"trial_type":"image-button-response","trial_index":109,"time_elapsed":413654,"internal_node_id":"0.0-4.0-0.51","subject_id":"6054bc49a73ad1f484b6ce32","study_id":"6197b3f67c2b5cd3b6d9596a","session_id":"619be326413e41e9cfd4c9c0","condition":"full-information","relevant_dimensions":["antennae","pattern"],"bee_group":{"antennae":"B","wings":"X","pattern":"D","legs":"X"},"action":"harvest","summary":"good-harvest","bonus":0.22000000000000072},{"rt":1264.6999999284744,"stimulus":"\n                    <p><b>Action: <em>harvest</em></b></p>\n                    <p>This is the bee that you just saw.</p>\n                    <img src=\"bees-with-color/bee-A2DF.svg\" width=\"200\">\n                    <p><span class=\"greenText\"><b>Successful harvest!</b></span><br>Your pay has increased by $0.02. Your bonus pay is now $0.44.</p>\n            ","response":0,"trial_type":"html-button-response","trial_index":110,"time_elapsed":414922,"internal_node_id":"0.0-4.0-1.51","subject_id":"6054bc49a73ad1f484b6ce32","study_id":"6197b3f67c2b5cd3b6d9596a","session_id":"619be326413e41e9cfd4c9c0","condition":"full-information","relevant_dimensions":["antennae","pattern"],"bee_group":{"antennae":"B","wings":"X","pattern":"D","legs":"X"},"bonus":0.22000000000000072},{"rt":1893.8000000715256,"stimulus":"bees-with-color/bee-A1DM.svg","response":0,"trial_type":"image-button-response","trial_index":111,"time_elapsed":416820,"internal_node_id":"0.0-4.0-0.52","subject_id":"6054bc49a73ad1f484b6ce32","study_id":"6197b3f67c2b5cd3b6d9596a","session_id":"619be326413e41e9cfd4c9c0","condition":"full-information","relevant_dimensions":["antennae","pattern"],"bee_group":{"antennae":"B","wings":"X","pattern":"D","legs":"X"},"action":"harvest","summary":"good-harvest","bonus":0.22000000000000072},{"rt":1130,"stimulus":"\n                    <p><b>Action: <em>harvest</em></b></p>\n                    <p>This is the bee that you just saw.</p>\n                    <img src=\"bees-with-color/bee-A1DM.svg\" width=\"200\">\n                    <p><span class=\"greenText\"><b>Successful harvest!</b></span><br>Your pay has increased by $0.02. Your bonus pay is now $0.46.</p>\n            ","response":0,"trial_type":"html-button-response","trial_index":112,"time_elapsed":417954,"internal_node_id":"0.0-4.0-1.52","subject_id":"6054bc49a73ad1f484b6ce32","study_id":"6197b3f67c2b5cd3b6d9596a","session_id":"619be326413e41e9cfd4c9c0","condition":"full-information","relevant_dimensions":["antennae","pattern"],"bee_group":{"antennae":"B","wings":"X","pattern":"D","legs":"X"},"bonus":0.22000000000000072},{"rt":1632,"stimulus":"bees-with-color/bee-B1DF.svg","response":1,"trial_type":"image-button-response","trial_index":113,"time_elapsed":419590,"internal_node_id":"0.0-4.0-0.53","subject_id":"6054bc49a73ad1f484b6ce32","study_id":"6197b3f67c2b5cd3b6d9596a","session_id":"619be326413e41e9cfd4c9c0","condition":"full-information","relevant_dimensions":["antennae","pattern"],"bee_group":{"antennae":"B","wings":"X","pattern":"D","legs":"X"},"action":"avoid","summary":"good-avoid","bonus":0.22000000000000072},{"rt":1386,"stimulus":"\n                    <p><b>Action: <em>avoid</em></b></p>\n                    <p>This is the bee that you just saw.</p>\n                    <img src=\"bees-with-color/bee-B1DF.svg\" width=\"200\">\n                    <p><span class=\"greenText\">Good choice!</span>  This bee would have stung you.<br>Your bonus pay is unchanged, and remains at $0.46.</p>\n            ","response":0,"trial_type":"html-button-response","trial_index":114,"time_elapsed":420979,"internal_node_id":"0.0-4.0-1.53","subject_id":"6054bc49a73ad1f484b6ce32","study_id":"6197b3f67c2b5cd3b6d9596a","session_id":"619be326413e41e9cfd4c9c0","condition":"full-information","relevant_dimensions":["antennae","pattern"],"bee_group":{"antennae":"B","wings":"X","pattern":"D","legs":"X"},"bonus":0.22000000000000072},{"rt":1669.2999999523163,"stimulus":"bees-with-color/bee-B2DM.svg","response":0,"trial_type":"image-button-response","trial_index":115,"time_elapsed":422653,"internal_node_id":"0.0-4.0-0.54","subject_id":"6054bc49a73ad1f484b6ce32","study_id":"6197b3f67c2b5cd3b6d9596a","session_id":"619be326413e41e9cfd4c9c0","condition":"full-information","relevant_dimensions":["antennae","pattern"],"bee_group":{"antennae":"B","wings":"X","pattern":"D","legs":"X"},"action":"harvest","summary":"bad-harvest","bonus":0.22000000000000072},{"rt":1253.6000000238419,"stimulus":"\n                    <p><b>Action: <em>harvest</em></b></p>\n                    <p>This is the bee that you just saw.</p>\n                    <img src=\"bees-with-color/bee-B2DM.svg\" width=\"200\">\n                    <p><span class=\"redText\">Bad choice, the bee was angry.</span><br><b>You have been stung!</b><br>Your pay has been decreased by $0.10. Your bonus pay is now $0.36.</p>\n            ","response":0,"trial_type":"html-button-response","trial_index":116,"time_elapsed":423911,"internal_node_id":"0.0-4.0-1.54","subject_id":"6054bc49a73ad1f484b6ce32","study_id":"6197b3f67c2b5cd3b6d9596a","session_id":"619be326413e41e9cfd4c9c0","condition":"full-information","relevant_dimensions":["antennae","pattern"],"bee_group":{"antennae":"B","wings":"X","pattern":"D","legs":"X"},"bonus":0.22000000000000072},{"rt":2710.600000023842,"stimulus":"bees-with-color/bee-A1SM.svg","response":0,"trial_type":"image-button-response","trial_index":117,"time_elapsed":426625,"internal_node_id":"0.0-4.0-0.55","subject_id":"6054bc49a73ad1f484b6ce32","study_id":"6197b3f67c2b5cd3b6d9596a","session_id":"619be326413e41e9cfd4c9c0","condition":"full-information","relevant_dimensions":["antennae","pattern"],"bee_group":{"antennae":"B","wings":"X","pattern":"D","legs":"X"},"action":"harvest","summary":"good-harvest","bonus":0.22000000000000072},{"rt":1222.6000000238419,"stimulus":"\n                    <p><b>Action: <em>harvest</em></b></p>\n                    <p>This is the bee that you just saw.</p>\n                    <img src=\"bees-with-color/bee-A1SM.svg\" width=\"200\">\n                    <p><span class=\"greenText\"><b>Successful harvest!</b></span><br>Your pay has increased by $0.02. Your bonus pay is now $0.38.</p>\n            ","response":0,"trial_type":"html-button-response","trial_index":118,"time_elapsed":427851,"internal_node_id":"0.0-4.0-1.55","subject_id":"6054bc49a73ad1f484b6ce32","study_id":"6197b3f67c2b5cd3b6d9596a","session_id":"619be326413e41e9cfd4c9c0","condition":"full-information","relevant_dimensions":["antennae","pattern"],"bee_group":{"antennae":"B","wings":"X","pattern":"D","legs":"X"},"bonus":0.22000000000000072},{"rt":3003.7999999523163,"stimulus":"bees-with-color/bee-B2SM.svg","response":0,"trial_type":"image-button-response","trial_index":119,"time_elapsed":430859,"internal_node_id":"0.0-4.0-0.56","subject_id":"6054bc49a73ad1f484b6ce32","study_id":"6197b3f67c2b5cd3b6d9596a","session_id":"619be326413e41e9cfd4c9c0","condition":"full-information","relevant_dimensions":["antennae","pattern"],"bee_group":{"antennae":"B","wings":"X","pattern":"D","legs":"X"},"action":"harvest","summary":"good-harvest","bonus":0.22000000000000072},{"rt":1288,"stimulus":"\n                    <p><b>Action: <em>harvest</em></b></p>\n                    <p>This is the bee that you just saw.</p>\n                    <img src=\"bees-with-color/bee-B2SM.svg\" width=\"200\">\n                    <p><span class=\"greenText\"><b>Successful harvest!</b></span><br>Your pay has increased by $0.02. Your bonus pay is now $0.40.</p>\n            ","response":0,"trial_type":"html-button-response","trial_index":120,"time_elapsed":432151,"internal_node_id":"0.0-4.0-1.56","subject_id":"6054bc49a73ad1f484b6ce32","study_id":"6197b3f67c2b5cd3b6d9596a","session_id":"619be326413e41e9cfd4c9c0","condition":"full-information","relevant_dimensions":["antennae","pattern"],"bee_group":{"antennae":"B","wings":"X","pattern":"D","legs":"X"},"bonus":0.22000000000000072},{"rt":4370.900000095367,"stimulus":"bees-with-color/bee-B2DF.svg","response":0,"trial_type":"image-button-response","trial_index":121,"time_elapsed":436526,"internal_node_id":"0.0-4.0-0.57","subject_id":"6054bc49a73ad1f484b6ce32","study_id":"6197b3f67c2b5cd3b6d9596a","session_id":"619be326413e41e9cfd4c9c0","condition":"full-information","relevant_dimensions":["antennae","pattern"],"bee_group":{"antennae":"B","wings":"X","pattern":"D","legs":"X"},"action":"harvest","summary":"bad-harvest","bonus":0.22000000000000072},{"rt":1443.7000000476837,"stimulus":"\n                    <p><b>Action: <em>harvest</em></b></p>\n                    <p>This is the bee that you just saw.</p>\n                    <img src=\"bees-with-color/bee-B2DF.svg\" width=\"200\">\n                    <p><span class=\"redText\">Bad choice, the bee was angry.</span><br><b>You have been stung!</b><br>Your pay has been decreased by $0.10. Your bonus pay is now $0.30.</p>\n            ","response":0,"trial_type":"html-button-response","trial_index":122,"time_elapsed":437974,"internal_node_id":"0.0-4.0-1.57","subject_id":"6054bc49a73ad1f484b6ce32","study_id":"6197b3f67c2b5cd3b6d9596a","session_id":"619be326413e41e9cfd4c9c0","condition":"full-information","relevant_dimensions":["antennae","pattern"],"bee_group":{"antennae":"B","wings":"X","pattern":"D","legs":"X"},"bonus":0.22000000000000072},{"rt":2658.600000023842,"stimulus":"bees-with-color/bee-A2DM.svg","response":0,"trial_type":"image-button-response","trial_index":123,"time_elapsed":440637,"internal_node_id":"0.0-4.0-0.58","subject_id":"6054bc49a73ad1f484b6ce32","study_id":"6197b3f67c2b5cd3b6d9596a","session_id":"619be326413e41e9cfd4c9c0","condition":"full-information","relevant_dimensions":["antennae","pattern"],"bee_group":{"antennae":"B","wings":"X","pattern":"D","legs":"X"},"action":"harvest","summary":"good-harvest","bonus":0.22000000000000072},{"rt":1333.2999999523163,"stimulus":"\n                    <p><b>Action: <em>harvest</em></b></p>\n                    <p>This is the bee that you just saw.</p>\n                    <img src=\"bees-with-color/bee-A2DM.svg\" width=\"200\">\n                    <p><span class=\"greenText\"><b>Successful harvest!</b></span><br>Your pay has increased by $0.02. Your bonus pay is now $0.32.</p>\n            ","response":0,"trial_type":"html-button-response","trial_index":124,"time_elapsed":441974,"internal_node_id":"0.0-4.0-1.58","subject_id":"6054bc49a73ad1f484b6ce32","study_id":"6197b3f67c2b5cd3b6d9596a","session_id":"619be326413e41e9cfd4c9c0","condition":"full-information","relevant_dimensions":["antennae","pattern"],"bee_group":{"antennae":"B","wings":"X","pattern":"D","legs":"X"},"bonus":0.22000000000000072},{"rt":1878.1000000238419,"stimulus":"bees-with-color/bee-A1DF.svg","response":1,"trial_type":"image-button-response","trial_index":125,"time_elapsed":443856,"internal_node_id":"0.0-4.0-0.59","subject_id":"6054bc49a73ad1f484b6ce32","study_id":"6197b3f67c2b5cd3b6d9596a","session_id":"619be326413e41e9cfd4c9c0","condition":"full-information","relevant_dimensions":["antennae","pattern"],"bee_group":{"antennae":"B","wings":"X","pattern":"D","legs":"X"},"action":"avoid","summary":"bad-avoid","bonus":0.22000000000000072},{"rt":1532,"stimulus":"\n                    <p><b>Action: <em>avoid</em></b></p>\n                    <p>This is the bee that you just saw.</p>\n                    <img src=\"bees-with-color/bee-A1DF.svg\" width=\"200\">\n                    <p><span class=\"redText\">Bad choice,</span> the bee was friendly.<br>Your bonus pay is unchanged, and remains at $0.32.</p>\n            ","response":0,"trial_type":"html-button-response","trial_index":126,"time_elapsed":445391,"internal_node_id":"0.0-4.0-1.59","subject_id":"6054bc49a73ad1f484b6ce32","study_id":"6197b3f67c2b5cd3b6d9596a","session_id":"619be326413e41e9cfd4c9c0","condition":"full-information","relevant_dimensions":["antennae","pattern"],"bee_group":{"antennae":"B","wings":"X","pattern":"D","legs":"X"},"bonus":0.22000000000000072},{"rt":1897.6000000238419,"stimulus":"bees-with-color/bee-A2SM.svg","response":0,"trial_type":"image-button-response","trial_index":127,"time_elapsed":447293,"internal_node_id":"0.0-4.0-0.60","subject_id":"6054bc49a73ad1f484b6ce32","study_id":"6197b3f67c2b5cd3b6d9596a","session_id":"619be326413e41e9cfd4c9c0","condition":"full-information","relevant_dimensions":["antennae","pattern"],"bee_group":{"antennae":"B","wings":"X","pattern":"D","legs":"X"},"action":"harvest","summary":"good-harvest","bonus":0.22000000000000072},{"rt":1673.8999999761581,"stimulus":"\n                    <p><b>Action: <em>harvest</em></b></p>\n                    <p>This is the bee that you just saw.</p>\n                    <img src=\"bees-with-color/bee-A2SM.svg\" width=\"200\">\n                    <p><span class=\"greenText\"><b>Successful harvest!</b></span><br>Your pay has increased by $0.02. Your bonus pay is now $0.34.</p>\n            ","response":0,"trial_type":"html-button-response","trial_index":128,"time_elapsed":448970,"internal_node_id":"0.0-4.0-1.60","subject_id":"6054bc49a73ad1f484b6ce32","study_id":"6197b3f67c2b5cd3b6d9596a","session_id":"619be326413e41e9cfd4c9c0","condition":"full-information","relevant_dimensions":["antennae","pattern"],"bee_group":{"antennae":"B","wings":"X","pattern":"D","legs":"X"},"bonus":0.22000000000000072},{"rt":4169.399999976158,"stimulus":"bees-with-color/bee-B1DM.svg","response":0,"trial_type":"image-button-response","trial_index":129,"time_elapsed":453143,"internal_node_id":"0.0-4.0-0.61","subject_id":"6054bc49a73ad1f484b6ce32","study_id":"6197b3f67c2b5cd3b6d9596a","session_id":"619be326413e41e9cfd4c9c0","condition":"full-information","relevant_dimensions":["antennae","pattern"],"bee_group":{"antennae":"B","wings":"X","pattern":"D","legs":"X"},"action":"harvest","summary":"bad-harvest","bonus":0.22000000000000072},{"rt":1333.6000000238419,"stimulus":"\n                    <p><b>Action: <em>harvest</em></b></p>\n                    <p>This is the bee that you just saw.</p>\n                    <img src=\"bees-with-color/bee-B1DM.svg\" width=\"200\">\n                    <p><span class=\"redText\">Bad choice, the bee was angry.</span><br><b>You have been stung!</b><br>Your pay has been decreased by $0.10. Your bonus pay is now $0.24.</p>\n            ","response":0,"trial_type":"html-button-response","trial_index":130,"time_elapsed":454480,"internal_node_id":"0.0-4.0-1.61","subject_id":"6054bc49a73ad1f484b6ce32","study_id":"6197b3f67c2b5cd3b6d9596a","session_id":"619be326413e41e9cfd4c9c0","condition":"full-information","relevant_dimensions":["antennae","pattern"],"bee_group":{"antennae":"B","wings":"X","pattern":"D","legs":"X"},"bonus":0.22000000000000072},{"rt":3786,"stimulus":"bees-with-color/bee-B1SM.svg","response":1,"trial_type":"image-button-response","trial_index":131,"time_elapsed":458271,"internal_node_id":"0.0-4.0-0.62","subject_id":"6054bc49a73ad1f484b6ce32","study_id":"6197b3f67c2b5cd3b6d9596a","session_id":"619be326413e41e9cfd4c9c0","condition":"full-information","relevant_dimensions":["antennae","pattern"],"bee_group":{"antennae":"B","wings":"X","pattern":"D","legs":"X"},"action":"avoid","summary":"bad-avoid","bonus":0.22000000000000072},{"rt":1312.2000000476837,"stimulus":"\n                    <p><b>Action: <em>avoid</em></b></p>\n                    <p>This is the bee that you just saw.</p>\n                    <img src=\"bees-with-color/bee-B1SM.svg\" width=\"200\">\n                    <p><span class=\"redText\">Bad choice,</span> the bee was friendly.<br>Your bonus pay is unchanged, and remains at $0.24.</p>\n            ","response":0,"trial_type":"html-button-response","trial_index":132,"time_elapsed":459587,"internal_node_id":"0.0-4.0-1.62","subject_id":"6054bc49a73ad1f484b6ce32","study_id":"6197b3f67c2b5cd3b6d9596a","session_id":"619be326413e41e9cfd4c9c0","condition":"full-information","relevant_dimensions":["antennae","pattern"],"bee_group":{"antennae":"B","wings":"X","pattern":"D","legs":"X"},"bonus":0.22000000000000072},{"rt":2441.9000000953674,"stimulus":"bees-with-color/bee-A1SF.svg","response":1,"trial_type":"image-button-response","trial_index":133,"time_elapsed":462033,"internal_node_id":"0.0-4.0-0.63","subject_id":"6054bc49a73ad1f484b6ce32","study_id":"6197b3f67c2b5cd3b6d9596a","session_id":"619be326413e41e9cfd4c9c0","condition":"full-information","relevant_dimensions":["antennae","pattern"],"bee_group":{"antennae":"B","wings":"X","pattern":"D","legs":"X"},"action":"avoid","summary":"bad-avoid","bonus":0.22000000000000072},{"rt":2793.6999999284744,"stimulus":"\n                    <p><b>Action: <em>avoid</em></b></p>\n                    <p>This is the bee that you just saw.</p>\n                    <img src=\"bees-with-color/bee-A1SF.svg\" width=\"200\">\n                    <p><span class=\"redText\">Bad choice,</span> the bee was friendly.<br>Your bonus pay is unchanged, and remains at $0.24.</p>\n            ","response":0,"trial_type":"html-button-response","trial_index":134,"time_elapsed":464830,"internal_node_id":"0.0-4.0-1.63","subject_id":"6054bc49a73ad1f484b6ce32","study_id":"6197b3f67c2b5cd3b6d9596a","session_id":"619be326413e41e9cfd4c9c0","condition":"full-information","relevant_dimensions":["antennae","pattern"],"bee_group":{"antennae":"B","wings":"X","pattern":"D","legs":"X"},"bonus":0.22000000000000072},{"rt":3736.6999999284744,"stimulus":"You have completed the first part of this experiment.<br><br>You will now begin a shorter second part, in which you will receive no feedback.<br>The same rules regarding bonus pay apply.<br><br>Press any key to begin.","response":"l","trial_type":"html-keyboard-response","trial_index":135,"time_elapsed":468572,"internal_node_id":"0.0-5.0","subject_id":"6054bc49a73ad1f484b6ce32","study_id":"6197b3f67c2b5cd3b6d9596a","session_id":"619be326413e41e9cfd4c9c0","condition":"full-information","relevant_dimensions":["antennae","pattern"],"bee_group":{"antennae":"B","wings":"X","pattern":"D","legs":"X"},"bonus":0.22000000000000072},{"rt":13276.899999976158,"stimulus":"bees-with-color/bee-A1SF.svg","response":0,"trial_type":"image-button-response","trial_index":136,"time_elapsed":481871,"internal_node_id":"0.0-6.0-0.0","subject_id":"6054bc49a73ad1f484b6ce32","study_id":"6197b3f67c2b5cd3b6d9596a","session_id":"619be326413e41e9cfd4c9c0","condition":"full-information","relevant_dimensions":["antennae","pattern"],"bee_group":{"antennae":"B","wings":"X","pattern":"D","legs":"X"},"bonus":0.22000000000000072},{"rt":9361.399999976158,"stimulus":"bees-with-color/bee-A2DF.svg","response":0,"trial_type":"image-button-response","trial_index":137,"time_elapsed":491241,"internal_node_id":"0.0-6.0-0.1","subject_id":"6054bc49a73ad1f484b6ce32","study_id":"6197b3f67c2b5cd3b6d9596a","session_id":"619be326413e41e9cfd4c9c0","condition":"full-information","relevant_dimensions":["antennae","pattern"],"bee_group":{"antennae":"B","wings":"X","pattern":"D","legs":"X"},"bonus":0.22000000000000072},{"rt":5156.899999976158,"stimulus":"bees-with-color/bee-B2DF.svg","response":0,"trial_type":"image-button-response","trial_index":138,"time_elapsed":496403,"internal_node_id":"0.0-6.0-0.2","subject_id":"6054bc49a73ad1f484b6ce32","study_id":"6197b3f67c2b5cd3b6d9596a","session_id":"619be326413e41e9cfd4c9c0","condition":"full-information","relevant_dimensions":["antennae","pattern"],"bee_group":{"antennae":"B","wings":"X","pattern":"D","legs":"X"},"bonus":0.22000000000000072},{"rt":5858.700000047684,"stimulus":"bees-with-color/bee-A2SF.svg","response":0,"trial_type":"image-button-response","trial_index":139,"time_elapsed":502267,"internal_node_id":"0.0-6.0-0.3","subject_id":"6054bc49a73ad1f484b6ce32","study_id":"6197b3f67c2b5cd3b6d9596a","session_id":"619be326413e41e9cfd4c9c0","condition":"full-information","relevant_dimensions":["antennae","pattern"],"bee_group":{"antennae":"B","wings":"X","pattern":"D","legs":"X"},"bonus":0.22000000000000072},{"rt":1961.4000000953674,"stimulus":"bees-with-color/bee-B2SF.svg","response":0,"trial_type":"image-button-response","trial_index":140,"time_elapsed":504234,"internal_node_id":"0.0-6.0-0.4","subject_id":"6054bc49a73ad1f484b6ce32","study_id":"6197b3f67c2b5cd3b6d9596a","session_id":"619be326413e41e9cfd4c9c0","condition":"full-information","relevant_dimensions":["antennae","pattern"],"bee_group":{"antennae":"B","wings":"X","pattern":"D","legs":"X"},"bonus":0.22000000000000072},{"rt":3113,"stimulus":"bees-with-color/bee-A2SM.svg","response":0,"trial_type":"image-button-response","trial_index":141,"time_elapsed":507351,"internal_node_id":"0.0-6.0-0.5","subject_id":"6054bc49a73ad1f484b6ce32","study_id":"6197b3f67c2b5cd3b6d9596a","session_id":"619be326413e41e9cfd4c9c0","condition":"full-information","relevant_dimensions":["antennae","pattern"],"bee_group":{"antennae":"B","wings":"X","pattern":"D","legs":"X"},"bonus":0.22000000000000072},{"rt":1967.1999999284744,"stimulus":"bees-with-color/bee-B1DF.svg","response":1,"trial_type":"image-button-response","trial_index":142,"time_elapsed":509324,"internal_node_id":"0.0-6.0-0.6","subject_id":"6054bc49a73ad1f484b6ce32","study_id":"6197b3f67c2b5cd3b6d9596a","session_id":"619be326413e41e9cfd4c9c0","condition":"full-information","relevant_dimensions":["antennae","pattern"],"bee_group":{"antennae":"B","wings":"X","pattern":"D","legs":"X"},"bonus":0.22000000000000072},{"rt":2748.2000000476837,"stimulus":"bees-with-color/bee-A1SM.svg","response":0,"trial_type":"image-button-response","trial_index":143,"time_elapsed":512077,"internal_node_id":"0.0-6.0-0.7","subject_id":"6054bc49a73ad1f484b6ce32","study_id":"6197b3f67c2b5cd3b6d9596a","session_id":"619be326413e41e9cfd4c9c0","condition":"full-information","relevant_dimensions":["antennae","pattern"],"bee_group":{"antennae":"B","wings":"X","pattern":"D","legs":"X"},"bonus":0.22000000000000072},{"rt":2429.5,"stimulus":"bees-with-color/bee-A1DF.svg","response":1,"trial_type":"image-button-response","trial_index":144,"time_elapsed":514512,"internal_node_id":"0.0-6.0-0.8","subject_id":"6054bc49a73ad1f484b6ce32","study_id":"6197b3f67c2b5cd3b6d9596a","session_id":"619be326413e41e9cfd4c9c0","condition":"full-information","relevant_dimensions":["antennae","pattern"],"bee_group":{"antennae":"B","wings":"X","pattern":"D","legs":"X"},"bonus":0.22000000000000072},{"rt":2938.600000023842,"stimulus":"bees-with-color/bee-A2DM.svg","response":0,"trial_type":"image-button-response","trial_index":145,"time_elapsed":517454,"internal_node_id":"0.0-6.0-0.9","subject_id":"6054bc49a73ad1f484b6ce32","study_id":"6197b3f67c2b5cd3b6d9596a","session_id":"619be326413e41e9cfd4c9c0","condition":"full-information","relevant_dimensions":["antennae","pattern"],"bee_group":{"antennae":"B","wings":"X","pattern":"D","legs":"X"},"bonus":0.22000000000000072},{"rt":1959.8000000715256,"stimulus":"bees-with-color/bee-B1SM.svg","response":0,"trial_type":"image-button-response","trial_index":146,"time_elapsed":519419,"internal_node_id":"0.0-6.0-0.10","subject_id":"6054bc49a73ad1f484b6ce32","study_id":"6197b3f67c2b5cd3b6d9596a","session_id":"619be326413e41e9cfd4c9c0","condition":"full-information","relevant_dimensions":["antennae","pattern"],"bee_group":{"antennae":"B","wings":"X","pattern":"D","legs":"X"},"bonus":0.22000000000000072},{"rt":2048.899999976158,"stimulus":"bees-with-color/bee-B2SM.svg","response":0,"trial_type":"image-button-response","trial_index":147,"time_elapsed":521472,"internal_node_id":"0.0-6.0-0.11","subject_id":"6054bc49a73ad1f484b6ce32","study_id":"6197b3f67c2b5cd3b6d9596a","session_id":"619be326413e41e9cfd4c9c0","condition":"full-information","relevant_dimensions":["antennae","pattern"],"bee_group":{"antennae":"B","wings":"X","pattern":"D","legs":"X"},"bonus":0.22000000000000072},{"rt":1643.8999999761581,"stimulus":"bees-with-color/bee-B1SF.svg","response":1,"trial_type":"image-button-response","trial_index":148,"time_elapsed":523120,"internal_node_id":"0.0-6.0-0.12","subject_id":"6054bc49a73ad1f484b6ce32","study_id":"6197b3f67c2b5cd3b6d9596a","session_id":"619be326413e41e9cfd4c9c0","condition":"full-information","relevant_dimensions":["antennae","pattern"],"bee_group":{"antennae":"B","wings":"X","pattern":"D","legs":"X"},"bonus":0.22000000000000072},{"rt":3061.600000023842,"stimulus":"bees-with-color/bee-A1DM.svg","response":0,"trial_type":"image-button-response","trial_index":149,"time_elapsed":526187,"internal_node_id":"0.0-6.0-0.13","subject_id":"6054bc49a73ad1f484b6ce32","study_id":"6197b3f67c2b5cd3b6d9596a","session_id":"619be326413e41e9cfd4c9c0","condition":"full-information","relevant_dimensions":["antennae","pattern"],"bee_group":{"antennae":"B","wings":"X","pattern":"D","legs":"X"},"bonus":0.22000000000000072},{"rt":1777,"stimulus":"bees-with-color/bee-B2DM.svg","response":0,"trial_type":"image-button-response","trial_index":150,"time_elapsed":527972,"internal_node_id":"0.0-6.0-0.14","subject_id":"6054bc49a73ad1f484b6ce32","study_id":"6197b3f67c2b5cd3b6d9596a","session_id":"619be326413e41e9cfd4c9c0","condition":"full-information","relevant_dimensions":["antennae","pattern"],"bee_group":{"antennae":"B","wings":"X","pattern":"D","legs":"X"},"bonus":0.22000000000000072},{"rt":4176.899999976158,"stimulus":"bees-with-color/bee-B1DM.svg","response":1,"trial_type":"image-button-response","trial_index":151,"time_elapsed":532153,"internal_node_id":"0.0-6.0-0.15","subject_id":"6054bc49a73ad1f484b6ce32","study_id":"6197b3f67c2b5cd3b6d9596a","session_id":"619be326413e41e9cfd4c9c0","condition":"full-information","relevant_dimensions":["antennae","pattern"],"bee_group":{"antennae":"B","wings":"X","pattern":"D","legs":"X"},"bonus":0.22000000000000072},{"rt":1677.5,"stimulus":"bees-with-color/bee-B1SF.svg","response":1,"trial_type":"image-button-response","trial_index":152,"time_elapsed":533835,"internal_node_id":"0.0-6.0-0.16","subject_id":"6054bc49a73ad1f484b6ce32","study_id":"6197b3f67c2b5cd3b6d9596a","session_id":"619be326413e41e9cfd4c9c0","condition":"full-information","relevant_dimensions":["antennae","pattern"],"bee_group":{"antennae":"B","wings":"X","pattern":"D","legs":"X"},"bonus":0.22000000000000072},{"rt":1908.3999999761581,"stimulus":"bees-with-color/bee-B2SF.svg","response":0,"trial_type":"image-button-response","trial_index":153,"time_elapsed":535748,"internal_node_id":"0.0-6.0-0.17","subject_id":"6054bc49a73ad1f484b6ce32","study_id":"6197b3f67c2b5cd3b6d9596a","session_id":"619be326413e41e9cfd4c9c0","condition":"full-information","relevant_dimensions":["antennae","pattern"],"bee_group":{"antennae":"B","wings":"X","pattern":"D","legs":"X"},"bonus":0.22000000000000072},{"rt":2800.3000000715256,"stimulus":"bees-with-color/bee-B1SM.svg","response":0,"trial_type":"image-button-response","trial_index":154,"time_elapsed":538552,"internal_node_id":"0.0-6.0-0.18","subject_id":"6054bc49a73ad1f484b6ce32","study_id":"6197b3f67c2b5cd3b6d9596a","session_id":"619be326413e41e9cfd4c9c0","condition":"full-information","relevant_dimensions":["antennae","pattern"],"bee_group":{"antennae":"B","wings":"X","pattern":"D","legs":"X"},"bonus":0.22000000000000072},{"rt":1257.5,"stimulus":"bees-with-color/bee-A1DM.svg","response":0,"trial_type":"image-button-response","trial_index":155,"time_elapsed":539815,"internal_node_id":"0.0-6.0-0.19","subject_id":"6054bc49a73ad1f484b6ce32","study_id":"6197b3f67c2b5cd3b6d9596a","session_id":"619be326413e41e9cfd4c9c0","condition":"full-information","relevant_dimensions":["antennae","pattern"],"bee_group":{"antennae":"B","wings":"X","pattern":"D","legs":"X"},"bonus":0.22000000000000072},{"r