[{"success":true,"trial_type":"fullscreen","trial_index":0,"time_elapsed":8502,"internal_node_id":"0.0-0.0","subject_id":"612dd61bef19007cf7891e19","study_id":"6197b3f67c2b5cd3b6d9596a","session_id":"6197b88fe66e9b0083ae1ca1","condition":"contingent","relevant_dimensions":["wings","legs"],"bee_group":{"antennae":"X","wings":"2","pattern":"X","legs":"M"},"bonus":0.30000000000000127},{"success":true,"timeout":false,"failed_images":[],"failed_audio":[],"failed_video":[],"trial_type":"preload","trial_index":1,"time_elapsed":26956,"internal_node_id":"0.0-1.0","subject_id":"612dd61bef19007cf7891e19","study_id":"6197b3f67c2b5cd3b6d9596a","session_id":"6197b88fe66e9b0083ae1ca1","condition":"contingent","relevant_dimensions":["wings","legs"],"bee_group":{"antennae":"X","wings":"2","pattern":"X","legs":"M"},"bonus":0.30000000000000127},{"rt":2758,"stimulus":"Welcome! Press any key to begin.","response":" ","trial_type":"html-keyboard-response","trial_index":2,"time_elapsed":29718,"internal_node_id":"0.0-2.0","subject_id":"612dd61bef19007cf7891e19","study_id":"6197b3f67c2b5cd3b6d9596a","session_id":"6197b88fe66e9b0083ae1ca1","condition":"contingent","relevant_dimensions":["wings","legs"],"bee_group":{"antennae":"X","wings":"2","pattern":"X","legs":"M"},"bonus":0.30000000000000127},{"view_history":[{"page_index":0,"viewing_time":16528},{"page_index":1,"viewing_time":18831},{"page_index":2,"viewing_time":32420},{"page_index":3,"viewing_time":19371},{"page_index":4,"viewing_time":7691},{"page_index":5,"viewing_time":8342},{"page_index":6,"viewing_time":16388},{"page_index":7,"viewing_time":15859},{"page_index":8,"viewing_time":10006},{"page_index":9,"viewing_time":10947},{"page_index":10,"viewing_time":12557},{"page_index":11,"viewing_time":12339},{"page_index":12,"viewing_time":10392},{"page_index":13,"viewing_time":10795},{"page_index":12,"viewing_time":1881},{"page_index":11,"viewing_time":1767},{"page_index":10,"viewing_time":1741},{"page_index":9,"viewing_time":980},{"page_index":8,"viewing_time":1130},{"page_index":7,"viewing_time":887},{"page_index":6,"viewing_time":16780},{"page_index":7,"viewing_time":50551},{"page_index":8,"viewing_time":51186},{"page_index":7,"viewing_time":4005},{"page_index":8,"viewing_time":43006},{"page_index":9,"viewing_time":52797},{"page_index":10,"viewing_time":36644},{"page_index":11,"viewing_time":4890},{"page_index":12,"viewing_time":2516},{"page_index":13,"viewing_time":4473},{"page_index":14,"viewing_time":24629}],"rt":502330,"trial_type":"instructions","trial_index":3,"time_elapsed":532048,"internal_node_id":"0.0-3.0-0.0","subject_id":"612dd61bef19007cf7891e19","study_id":"6197b3f67c2b5cd3b6d9596a","session_id":"6197b88fe66e9b0083ae1ca1","condition":"contingent","relevant_dimensions":["wings","legs"],"bee_group":{"antennae":"X","wings":"2","pattern":"X","legs":"M"},"bonus":0.30000000000000127},{"rt":22505,"response":{"Q0":["Two or six legs","Stripes or spots on body","Single or double wings","Antennae or no antennae"]},"question_order":[0],"trial_type":"survey-multi-select","trial_index":4,"time_elapsed":554564,"internal_node_id":"0.0-3.0-1.0","subject_id":"612dd61bef19007cf7891e19","study_id":"6197b3f67c2b5cd3b6d9596a","session_id":"6197b88fe66e9b0083ae1ca1","condition":"contingent","relevant_dimensions":["wings","legs"],"bee_group":{"antennae":"X","wings":"2","pattern":"X","legs":"M"},"correct":true,"bonus":0.30000000000000127},{"rt":47033,"response":{"Q1":"No.","Q2":"Based on the four features of the bee.","Q3":"You do not learn if it was friendly or dangerous, and do not alter your bonus."},"question_order":[0,1,2],"trial_type":"survey-multi-choice","trial_index":5,"time_elapsed":601604,"internal_node_id":"0.0-3.0-2.0","subject_id":"612dd61bef19007cf7891e19","study_id":"6197b3f67c2b5cd3b6d9596a","session_id":"6197b88fe66e9b0083ae1ca1","condition":"contingent","relevant_dimensions":["wings","legs"],"bee_group":{"antennae":"X","wings":"2","pattern":"X","legs":"M"},"correct":true,"bonus":0.30000000000000127},{"rt":3985,"stimulus":"<p>Congrats, you got everything right<br>When you're ready, click the button below to continue to the experiment.</p>","response":0,"trial_type":"html-button-response","trial_index":6,"time_elapsed":605593,"internal_node_id":"0.0-3.0-3.0","subject_id":"612dd61bef19007cf7891e19","study_id":"6197b3f67c2b5cd3b6d9596a","session_id":"6197b88fe66e9b0083ae1ca1","condition":"contingent","relevant_dimensions":["wings","legs"],"bee_group":{"antennae":"X","wings":"2","pattern":"X","legs":"M"},"bonus":0.30000000000000127},{"rt":8512,"stimulus":"bees-with-color/bee-A2SM.svg","response":0,"trial_type":"image-button-response","trial_index":7,"time_elapsed":614111,"internal_node_id":"0.0-4.0-0.0","subject_id":"612dd61bef19007cf7891e19","study_id":"6197b3f67c2b5cd3b6d9596a","session_id":"6197b88fe66e9b0083ae1ca1","condition":"contingent","relevant_dimensions":["wings","legs"],"bee_group":{"antennae":"X","wings":"2","pattern":"X","legs":"M"},"action":"harvest","summary":"bad-harvest","bonus":0.30000000000000127},{"rt":5955,"stimulus":"\n                    <p><b>Action: <em>harvest</em></b></p>\n                    <p>This is the bee that you just saw.</p>\n                    <img src=\"bees-with-color/bee-A2SM.svg\" width=\"200\">\n                    <p><span class=\"redText\">Bad choice, the bee was angry.</span><br><b>You have been stung!</b><br>Your pay has been decreased by $0.10. Your bonus pay is now $0.44.</p>\n            ","response":0,"trial_type":"html-button-response","trial_index":8,"time_elapsed":620110,"internal_node_id":"0.0-4.0-1.0","subject_id":"612dd61bef19007cf7891e19","study_id":"6197b3f67c2b5cd3b6d9596a","session_id":"6197b88fe66e9b0083ae1ca1","condition":"contingent","relevant_dimensions":["wings","legs"],"bee_group":{"antennae":"X","wings":"2","pattern":"X","legs":"M"},"bonus":0.30000000000000127},{"rt":4457,"stimulus":"bees-with-color/bee-A2SF.svg","response":0,"trial_type":"image-button-response","trial_index":9,"time_elapsed":624570,"internal_node_id":"0.0-4.0-0.1","subject_id":"612dd61bef19007cf7891e19","study_id":"6197b3f67c2b5cd3b6d9596a","session_id":"6197b88fe66e9b0083ae1ca1","condition":"contingent","relevant_dimensions":["wings","legs"],"bee_group":{"antennae":"X","wings":"2","pattern":"X","legs":"M"},"action":"harvest","summary":"good-harvest","bonus":0.30000000000000127},{"rt":3895,"stimulus":"\n                    <p><b>Action: <em>harvest</em></b></p>\n                    <p>This is the bee that you just saw.</p>\n                    <img src=\"bees-with-color/bee-A2SF.svg\" width=\"200\">\n                    <p><span class=\"greenText\"><b>Successful harvest!</b></span><br>Your pay has increased by $0.02. Your bonus pay is now $0.46.</p>\n            ","response":0,"trial_type":"html-button-response","trial_index":10,"time_elapsed":628470,"internal_node_id":"0.0-4.0-1.1","subject_id":"612dd61bef19007cf7891e19","study_id":"6197b3f67c2b5cd3b6d9596a","session_id":"6197b88fe66e9b0083ae1ca1","condition":"contingent","relevant_dimensions":["wings","legs"],"bee_group":{"antennae":"X","wings":"2","pattern":"X","legs":"M"},"bonus":0.30000000000000127},{"rt":10908,"stimulus":"bees-with-color/bee-B1DF.svg","response":0,"trial_type":"image-button-response","trial_index":11,"time_elapsed":639382,"internal_node_id":"0.0-4.0-0.2","subject_id":"612dd61bef19007cf7891e19","study_id":"6197b3f67c2b5cd3b6d9596a","session_id":"6197b88fe66e9b0083ae1ca1","condition":"contingent","relevant_dimensions":["wings","legs"],"bee_group":{"antennae":"X","wings":"2","pattern":"X","legs":"M"},"action":"harvest","summary":"good-harvest","bonus":0.30000000000000127},{"rt":3378,"stimulus":"\n                    <p><b>Action: <em>harvest</em></b></p>\n                    <p>This is the bee that you just saw.</p>\n                    <img src=\"bees-with-color/bee-B1DF.svg\" width=\"200\">\n                    <p><span class=\"greenText\"><b>Successful harvest!</b></span><br>Your pay has increased by $0.02. Your bonus pay is now $0.48.</p>\n            ","response":0,"trial_type":"html-button-response","trial_index":12,"time_elapsed":642761,"internal_node_id":"0.0-4.0-1.2","subject_id":"612dd61bef19007cf7891e19","study_id":"6197b3f67c2b5cd3b6d9596a","session_id":"6197b88fe66e9b0083ae1ca1","condition":"contingent","relevant_dimensions":["wings","legs"],"bee_group":{"antennae":"X","wings":"2","pattern":"X","legs":"M"},"bonus":0.30000000000000127},{"rt":5155,"stimulus":"bees-with-color/bee-B1SM.svg","response":1,"trial_type":"image-button-response","trial_index":13,"time_elapsed":647919,"internal_node_id":"0.0-4.0-0.3","subject_id":"612dd61bef19007cf7891e19","study_id":"6197b3f67c2b5cd3b6d9596a","session_id":"6197b88fe66e9b0083ae1ca1","condition":"contingent","relevant_dimensions":["wings","legs"],"bee_group":{"antennae":"X","wings":"2","pattern":"X","legs":"M"},"action":"avoid","summary":"bad-avoid","bonus":0.30000000000000127},{"rt":2529,"stimulus":"\n                    <p><b>Action: <em>avoid</em></b></p>\n                    <p>This is the bee that you just saw.</p>\n                    <img src=\"bees-with-color/bee-B1SM.svg\" width=\"200\">\n                    <p><br>Your bonus pay is unchanged, and remains at $0.48.</p>\n            ","response":0,"trial_type":"html-button-response","trial_index":14,"time_elapsed":650451,"internal_node_id":"0.0-4.0-1.3","subject_id":"612dd61bef19007cf7891e19","study_id":"6197b3f67c2b5cd3b6d9596a","session_id":"6197b88fe66e9b0083ae1ca1","condition":"contingent","relevant_dimensions":["wings","legs"],"bee_group":{"antennae":"X","wings":"2","pattern":"X","legs":"M"},"bonus":0.30000000000000127},{"rt":5450,"stimulus":"bees-with-color/bee-A1DM.svg","response":0,"trial_type":"image-button-response","trial_index":15,"time_elapsed":655903,"internal_node_id":"0.0-4.0-0.4","subject_id":"612dd61bef19007cf7891e19","study_id":"6197b3f67c2b5cd3b6d9596a","session_id":"6197b88fe66e9b0083ae1ca1","condition":"contingent","relevant_dimensions":["wings","legs"],"bee_group":{"antennae":"X","wings":"2","pattern":"X","legs":"M"},"action":"harvest","summary":"good-harvest","bonus":0.30000000000000127},{"rt":10605,"stimulus":"\n                    <p><b>Action: <em>harvest</em></b></p>\n                    <p>This is the bee that you just saw.</p>\n                    <img src=\"bees-with-color/bee-A1DM.svg\" width=\"200\">\n                    <p><span class=\"greenText\"><b>Successful harvest!</b></span><br>Your pay has increased by $0.02. Your bonus pay is now $0.50.</p>\n            ","response":0,"trial_type":"html-button-response","trial_index":16,"time_elapsed":666511,"internal_node_id":"0.0-4.0-1.4","subject_id":"612dd61bef19007cf7891e19","study_id":"6197b3f67c2b5cd3b6d9596a","session_id":"6197b88fe66e9b0083ae1ca1","condition":"contingent","relevant_dimensions":["wings","legs"],"bee_group":{"antennae":"X","wings":"2","pattern":"X","legs":"M"},"bonus":0.30000000000000127},{"rt":4264,"stimulus":"bees-with-color/bee-B2DM.svg","response":0,"trial_type":"image-button-response","trial_index":17,"time_elapsed":670779,"internal_node_id":"0.0-4.0-0.5","subject_id":"612dd61bef19007cf7891e19","study_id":"6197b3f67c2b5cd3b6d9596a","session_id":"6197b88fe66e9b0083ae1ca1","condition":"contingent","relevant_dimensions":["wings","legs"],"bee_group":{"antennae":"X","wings":"2","pattern":"X","legs":"M"},"action":"harvest","summary":"bad-harvest","bonus":0.30000000000000127},{"rt":2743,"stimulus":"\n                    <p><b>Action: <em>harvest</em></b></p>\n                    <p>This is the bee that you just saw.</p>\n                    <img src=\"bees-with-color/bee-B2DM.svg\" width=\"200\">\n                    <p><span class=\"redText\">Bad choice, the bee was angry.</span><br><b>You have been stung!</b><br>Your pay has been decreased by $0.10. Your bonus pay is now $0.40.</p>\n            ","response":0,"trial_type":"html-button-response","trial_index":18,"time_elapsed":673525,"internal_node_id":"0.0-4.0-1.5","subject_id":"612dd61bef19007cf7891e19","study_id":"6197b3f67c2b5cd3b6d9596a","session_id":"6197b88fe66e9b0083ae1ca1","condition":"contingent","relevant_dimensions":["wings","legs"],"bee_group":{"antennae":"X","wings":"2","pattern":"X","legs":"M"},"bonus":0.30000000000000127},{"rt":4150,"stimulus":"bees-with-color/bee-A1DF.svg","response":0,"trial_type":"image-button-response","trial_index":19,"time_elapsed":677678,"internal_node_id":"0.0-4.0-0.6","subject_id":"612dd61bef19007cf7891e19","study_id":"6197b3f67c2b5cd3b6d9596a","session_id":"6197b88fe66e9b0083ae1ca1","condition":"contingent","relevant_dimensions":["wings","legs"],"bee_group":{"antennae":"X","wings":"2","pattern":"X","legs":"M"},"action":"harvest","summary":"good-harvest","bonus":0.30000000000000127},{"rt":2626,"stimulus":"\n                    <p><b>Action: <em>harvest</em></b></p>\n                    <p>This is the bee that you just saw.</p>\n                    <img src=\"bees-with-color/bee-A1DF.svg\" width=\"200\">\n                    <p><span class=\"greenText\"><b>Successful harvest!</b></span><br>Your pay has increased by $0.02. Your bonus pay is now $0.42.</p>\n            ","response":0,"trial_type":"html-button-response","trial_index":20,"time_elapsed":680308,"internal_node_id":"0.0-4.0-1.6","subject_id":"612dd61bef19007cf7891e19","study_id":"6197b3f67c2b5cd3b6d9596a","session_id":"6197b88fe66e9b0083ae1ca1","condition":"contingent","relevant_dimensions":["wings","legs"],"bee_group":{"antennae":"X","wings":"2","pattern":"X","legs":"M"},"bonus":0.30000000000000127},{"rt":2172,"stimulus":"bees-with-color/bee-B2DF.svg","response":1,"trial_type":"image-button-response","trial_index":21,"time_elapsed":682483,"internal_node_id":"0.0-4.0-0.7","subject_id":"612dd61bef19007cf7891e19","study_id":"6197b3f67c2b5cd3b6d9596a","session_id":"6197b88fe66e9b0083ae1ca1","condition":"contingent","relevant_dimensions":["wings","legs"],"bee_group":{"antennae":"X","wings":"2","pattern":"X","legs":"M"},"action":"avoid","summary":"bad-avoid","bonus":0.30000000000000127},{"rt":2184,"stimulus":"\n                    <p><b>Action: <em>avoid</em></b></p>\n                    <p>This is the bee that you just saw.</p>\n                    <img src=\"bees-with-color/bee-B2DF.svg\" width=\"200\">\n                    <p><br>Your bonus pay is unchanged, and remains at $0.42.</p>\n            ","response":0,"trial_type":"html-button-response","trial_index":22,"time_elapsed":684670,"internal_node_id":"0.0-4.0-1.7","subject_id":"612dd61bef19007cf7891e19","study_id":"6197b3f67c2b5cd3b6d9596a","session_id":"6197b88fe66e9b0083ae1ca1","condition":"contingent","relevant_dimensions":["wings","legs"],"bee_group":{"antennae":"X","wings":"2","pattern":"X","legs":"M"},"bonus":0.30000000000000127},{"rt":2800,"stimulus":"bees-with-color/bee-A2DF.svg","response":0,"trial_type":"image-button-response","trial_index":23,"time_elapsed":687473,"internal_node_id":"0.0-4.0-0.8","subject_id":"612dd61bef19007cf7891e19","study_id":"6197b3f67c2b5cd3b6d9596a","session_id":"6197b88fe66e9b0083ae1ca1","condition":"contingent","relevant_dimensions":["wings","legs"],"bee_group":{"antennae":"X","wings":"2","pattern":"X","legs":"M"},"action":"harvest","summary":"good-harvest","bonus":0.30000000000000127},{"rt":2357,"stimulus":"\n                    <p><b>Action: <em>harvest</em></b></p>\n                    <p>This is the bee that you just saw.</p>\n                    <img src=\"bees-with-color/bee-A2DF.svg\" width=\"200\">\n                    <p><span class=\"greenText\"><b>Successful harvest!</b></span><br>Your pay has increased by $0.02. Your bonus pay is now $0.44.</p>\n            ","response":0,"trial_type":"html-button-response","trial_index":24,"time_elapsed":689834,"internal_node_id":"0.0-4.0-1.8","subject_id":"612dd61bef19007cf7891e19","study_id":"6197b3f67c2b5cd3b6d9596a","session_id":"6197b88fe66e9b0083ae1ca1","condition":"contingent","relevant_dimensions":["wings","legs"],"bee_group":{"antennae":"X","wings":"2","pattern":"X","legs":"M"},"bonus":0.30000000000000127},{"rt":5380,"stimulus":"bees-with-color/bee-A2DM.svg","response":1,"trial_type":"image-button-response","trial_index":25,"time_elapsed":695217,"internal_node_id":"0.0-4.0-0.9","subject_id":"612dd61bef19007cf7891e19","study_id":"6197b3f67c2b5cd3b6d9596a","session_id":"6197b88fe66e9b0083ae1ca1","condition":"contingent","relevant_dimensions":["wings","legs"],"bee_group":{"antennae":"X","wings":"2","pattern":"X","legs":"M"},"action":"avoid","summary":"good-avoid","bonus":0.30000000000000127},{"rt":2275,"stimulus":"\n                    <p><b>Action: <em>avoid</em></b></p>\n                    <p>This is the bee that you just saw.</p>\n                    <img src=\"bees-with-color/bee-A2DM.svg\" width=\"200\">\n                    <p><br>Your bonus pay is unchanged, and remains at $0.44.</p>\n            ","response":0,"trial_type":"html-button-response","trial_index":26,"time_elapsed":697495,"internal_node_id":"0.0-4.0-1.9","subject_id":"612dd61bef19007cf7891e19","study_id":"6197b3f67c2b5cd3b6d9596a","session_id":"6197b88fe66e9b0083ae1ca1","condition":"contingent","relevant_dimensions":["wings","legs"],"bee_group":{"antennae":"X","wings":"2","pattern":"X","legs":"M"},"bonus":0.30000000000000127},{"rt":3330,"stimulus":"bees-with-color/bee-B2SF.svg","response":0,"trial_type":"image-button-response","trial_index":27,"time_elapsed":700829,"internal_node_id":"0.0-4.0-0.10","subject_id":"612dd61bef19007cf7891e19","study_id":"6197b3f67c2b5cd3b6d9596a","session_id":"6197b88fe66e9b0083ae1ca1","condition":"contingent","relevant_dimensions":["wings","legs"],"bee_group":{"antennae":"X","wings":"2","pattern":"X","legs":"M"},"action":"harvest","summary":"good-harvest","bonus":0.30000000000000127},{"rt":2425,"stimulus":"\n                    <p><b>Action: <em>harvest</em></b></p>\n                    <p>This is the bee that you just saw.</p>\n                    <img src=\"bees-with-color/bee-B2SF.svg\" width=\"200\">\n                    <p><span class=\"greenText\"><b>Successful harvest!</b></span><br>Your pay has increased by $0.02. Your bonus pay is now $0.46.</p>\n            ","response":0,"trial_type":"html-button-response","trial_index":28,"time_elapsed":703257,"internal_node_id":"0.0-4.0-1.10","subject_id":"612dd61bef19007cf7891e19","study_id":"6197b3f67c2b5cd3b6d9596a","session_id":"6197b88fe66e9b0083ae1ca1","condition":"contingent","relevant_dimensions":["wings","legs"],"bee_group":{"antennae":"X","wings":"2","pattern":"X","legs":"M"},"bonus":0.30000000000000127},{"rt":2500,"stimulus":"bees-with-color/bee-B1SF.svg","response":0,"trial_type":"image-button-response","trial_index":29,"time_elapsed":705759,"internal_node_id":"0.0-4.0-0.11","subject_id":"612dd61bef19007cf7891e19","study_id":"6197b3f67c2b5cd3b6d9596a","session_id":"6197b88fe66e9b0083ae1ca1","condition":"contingent","relevant_dimensions":["wings","legs"],"bee_group":{"antennae":"X","wings":"2","pattern":"X","legs":"M"},"action":"harvest","summary":"good-harvest","bonus":0.30000000000000127},{"rt":5537,"stimulus":"\n                    <p><b>Action: <em>harvest</em></b></p>\n                    <p>This is the bee that you just saw.</p>\n                    <img src=\"bees-with-color/bee-B1SF.svg\" width=\"200\">\n                    <p><span class=\"greenText\"><b>Successful harvest!</b></span><br>Your pay has increased by $0.02. Your bonus pay is now $0.48.</p>\n            ","response":0,"trial_type":"html-button-response","trial_index":30,"time_elapsed":711298,"internal_node_id":"0.0-4.0-1.11","subject_id":"612dd61bef19007cf7891e19","study_id":"6197b3f67c2b5cd3b6d9596a","session_id":"6197b88fe66e9b0083ae1ca1","condition":"contingent","relevant_dimensions":["wings","legs"],"bee_group":{"antennae":"X","wings":"2","pattern":"X","legs":"M"},"bonus":0.30000000000000127},{"rt":3935,"stimulus":"bees-with-color/bee-A1SM.svg","response":1,"trial_type":"image-button-response","trial_index":31,"time_elapsed":715235,"internal_node_id":"0.0-4.0-0.12","subject_id":"612dd61bef19007cf7891e19","study_id":"6197b3f67c2b5cd3b6d9596a","session_id":"6197b88fe66e9b0083ae1ca1","condition":"contingent","relevant_dimensions":["wings","legs"],"bee_group":{"antennae":"X","wings":"2","pattern":"X","legs":"M"},"action":"avoid","summary":"bad-avoid","bonus":0.30000000000000127},{"rt":2963,"stimulus":"\n                    <p><b>Action: <em>avoid</em></b></p>\n                    <p>This is the bee that you just saw.</p>\n                    <img src=\"bees-with-color/bee-A1SM.svg\" width=\"200\">\n                    <p><br>Your bonus pay is unchanged, and remains at $0.48.</p>\n            ","response":0,"trial_type":"html-button-response","trial_index":32,"time_elapsed":718201,"internal_node_id":"0.0-4.0-1.12","subject_id":"612dd61bef19007cf7891e19","study_id":"6197b3f67c2b5cd3b6d9596a","session_id":"6197b88fe66e9b0083ae1ca1","condition":"contingent","relevant_dimensions":["wings","legs"],"bee_group":{"antennae":"X","wings":"2","pattern":"X","legs":"M"},"bonus":0.30000000000000127},{"rt":2117,"stimulus":"bees-with-color/bee-A1SF.svg","response":0,"trial_type":"image-button-response","trial_index":33,"time_elapsed":720320,"internal_node_id":"0.0-4.0-0.13","subject_id":"612dd61bef19007cf7891e19","study_id":"6197b3f67c2b5cd3b6d9596a","session_id":"6197b88fe66e9b0083ae1ca1","condition":"contingent","relevant_dimensions":["wings","legs"],"bee_group":{"antennae":"X","wings":"2","pattern":"X","legs":"M"},"action":"harvest","summary":"good-harvest","bonus":0.30000000000000127},{"rt":1639,"stimulus":"\n                    <p><b>Action: <em>harvest</em></b></p>\n                    <p>This is the bee that you just saw.</p>\n                    <img src=\"bees-with-color/bee-A1SF.svg\" width=\"200\">\n                    <p><span class=\"greenText\"><b>Successful harvest!</b></span><br>Your pay has increased by $0.02. Your bonus pay is now $0.50.</p>\n            ","response":0,"trial_type":"html-button-response","trial_index":34,"time_elapsed":721962,"internal_node_id":"0.0-4.0-1.13","subject_id":"612dd61bef19007cf7891e19","study_id":"6197b3f67c2b5cd3b6d9596a","session_id":"6197b88fe66e9b0083ae1ca1","condition":"contingent","relevant_dimensions":["wings","legs"],"bee_group":{"antennae":"X","wings":"2","pattern":"X","legs":"M"},"bonus":0.30000000000000127},{"rt":4747,"stimulus":"bees-with-color/bee-B1DM.svg","response":0,"trial_type":"image-button-response","trial_index":35,"time_elapsed":726711,"internal_node_id":"0.0-4.0-0.14","subject_id":"612dd61bef19007cf7891e19","study_id":"6197b3f67c2b5cd3b6d9596a","session_id":"6197b88fe66e9b0083ae1ca1","condition":"contingent","relevant_dimensions":["wings","legs"],"bee_group":{"antennae":"X","wings":"2","pattern":"X","legs":"M"},"action":"harvest","summary":"good-harvest","bonus":0.30000000000000127},{"rt":3156,"stimulus":"\n                    <p><b>Action: <em>harvest</em></b></p>\n                    <p>This is the bee that you just saw.</p>\n                    <img src=\"bees-with-color/bee-B1DM.svg\" width=\"200\">\n                    <p><span class=\"greenText\"><b>Successful harvest!</b></span><br>Your pay has increased by $0.02. Your bonus pay is now $0.52.</p>\n            ","response":0,"trial_type":"html-button-response","trial_index":36,"time_elapsed":729871,"internal_node_id":"0.0-4.0-1.14","subject_id":"612dd61bef19007cf7891e19","study_id":"6197b3f67c2b5cd3b6d9596a","session_id":"6197b88fe66e9b0083ae1ca1","condition":"contingent","relevant_dimensions":["wings","legs"],"bee_group":{"antennae":"X","wings":"2","pattern":"X","legs":"M"},"bonus":0.30000000000000127},{"rt":5103,"stimulus":"bees-with-color/bee-B2SM.svg","response":1,"trial_type":"image-button-response","trial_index":37,"time_elapsed":734976,"internal_node_id":"0.0-4.0-0.15","subject_id":"612dd61bef19007cf7891e19","study_id":"6197b3f67c2b5cd3b6d9596a","session_id":"6197b88fe66e9b0083ae1ca1","condition":"contingent","relevant_dimensions":["wings","legs"],"bee_group":{"antennae":"X","wings":"2","pattern":"X","legs":"M"},"action":"avoid","summary":"good-avoid","bonus":0.30000000000000127},{"rt":1792,"stimulus":"\n                    <p><b>Action: <em>avoid</em></b></p>\n                    <p>This is the bee that you just saw.</p>\n                    <img src=\"bees-with-color/bee-B2SM.svg\" width=\"200\">\n                    <p><br>Your bonus pay is unchanged, and remains at $0.52.</p>\n            ","response":0,"trial_type":"html-button-response","trial_index":38,"time_elapsed":736770,"internal_node_id":"0.0-4.0-1.15","subject_id":"612dd61bef19007cf7891e19","study_id":"6197b3f67c2b5cd3b6d9596a","session_id":"6197b88fe66e9b0083ae1ca1","condition":"contingent","relevant_dimensions":["wings","legs"],"bee_group":{"antennae":"X","wings":"2","pattern":"X","legs":"M"},"bonus":0.30000000000000127},{"rt":1999,"stimulus":"bees-with-color/bee-B1SF.svg","response":0,"trial_type":"image-button-response","trial_index":39,"time_elapsed":738772,"internal_node_id":"0.0-4.0-0.16","subject_id":"612dd61bef19007cf7891e19","study_id":"6197b3f67c2b5cd3b6d9596a","session_id":"6197b88fe66e9b0083ae1ca1","condition":"contingent","relevant_dimensions":["wings","legs"],"bee_group":{"antennae":"X","wings":"2","pattern":"X","legs":"M"},"action":"harvest","summary":"good-harvest","bonus":0.30000000000000127},{"rt":1703,"stimulus":"\n                    <p><b>Action: <em>harvest</em></b></p>\n                    <p>This is the bee that you just saw.</p>\n                    <img src=\"bees-with-color/bee-B1SF.svg\" width=\"200\">\n                    <p><span class=\"greenText\"><b>Successful harvest!</b></span><br>Your pay has increased by $0.02. Your bonus pay is now $0.54.</p>\n            ","response":0,"trial_type":"html-button-response","trial_index":40,"time_elapsed":740476,"internal_node_id":"0.0-4.0-1.16","subject_id":"612dd61bef19007cf7891e19","study_id":"6197b3f67c2b5cd3b6d9596a","session_id":"6197b88fe66e9b0083ae1ca1","condition":"contingent","relevant_dimensions":["wings","legs"],"bee_group":{"antennae":"X","wings":"2","pattern":"X","legs":"M"},"bonus":0.30000000000000127},{"rt":1950,"stimulus":"bees-with-color/bee-B2DF.svg","response":0,"trial_type":"image-button-response","trial_index":41,"time_elapsed":742428,"internal_node_id":"0.0-4.0-0.17","subject_id":"612dd61bef19007cf7891e19","study_id":"6197b3f67c2b5cd3b6d9596a","session_id":"6197b88fe66e9b0083ae1ca1","condition":"contingent","relevant_dimensions":["wings","legs"],"bee_group":{"antennae":"X","wings":"2","pattern":"X","legs":"M"},"action":"harvest","summary":"good-harvest","bonus":0.30000000000000127},{"rt":1999,"stimulus":"\n                    <p><b>Action: <em>harvest</em></b></p>\n                    <p>This is the bee that you just saw.</p>\n                    <img src=\"bees-with-color/bee-B2DF.svg\" width=\"200\">\n                    <p><span class=\"greenText\"><b>Successful harvest!</b></span><br>Your pay has increased by $0.02. Your bonus pay is now $0.56.</p>\n            ","response":0,"trial_type":"html-button-response","trial_index":42,"time_elapsed":744429,"internal_node_id":"0.0-4.0-1.17","subject_id":"612dd61bef19007cf7891e19","study_id":"6197b3f67c2b5cd3b6d9596a","session_id":"6197b88fe66e9b0083ae1ca1","condition":"contingent","relevant_dimensions":["wings","legs"],"bee_group":{"antennae":"X","wings":"2","pattern":"X","legs":"M"},"bonus":0.30000000000000127},{"rt":2007,"stimulus":"bees-with-color/bee-A2DM.svg","response":0,"trial_type":"image-button-response","trial_index":43,"time_elapsed":746439,"internal_node_id":"0.0-4.0-0.18","subject_id":"612dd61bef19007cf7891e19","study_id":"6197b3f67c2b5cd3b6d9596a","session_id":"6197b88fe66e9b0083ae1ca1","condition":"contingent","relevant_dimensions":["wings","legs"],"bee_group":{"antennae":"X","wings":"2","pattern":"X","legs":"M"},"action":"harvest","summary":"bad-harvest","bonus":0.30000000000000127},{"rt":2834,"stimulus":"\n                    <p><b>Action: <em>harvest</em></b></p>\n                    <p>This is the bee that you just saw.</p>\n                    <img src=\"bees-with-color/bee-A2DM.svg\" width=\"200\">\n                    <p><span class=\"redText\">Bad choice, the bee was angry.</span><br><b>You have been stung!</b><br>Your pay has been decreased by $0.10. Your bonus pay is now $0.46.</p>\n            ","response":0,"trial_type":"html-button-response","trial_index":44,"time_elapsed":749275,"internal_node_id":"0.0-4.0-1.18","subject_id":"612dd61bef19007cf7891e19","study_id":"6197b3f67c2b5cd3b6d9596a","session_id":"6197b88fe66e9b0083ae1ca1","condition":"contingent","relevant_dimensions":["wings","legs"],"bee_group":{"antennae":"X","wings":"2","pattern":"X","legs":"M"},"bonus":0.30000000000000127},{"rt":1851,"stimulus":"bees-with-color/bee-A1DF.svg","response":0,"trial_type":"image-button-response","trial_index":45,"time_elapsed":751129,"internal_node_id":"0.0-4.0-0.19","subject_id":"612dd61bef19007cf7891e19","study_id":"6197b3f67c2b5cd3b6d9596a","session_id":"6197b88fe66e9b0083ae1ca1","condition":"contingent","relevant_dimensions":["wings","legs"],"bee_group":{"antennae":"X","wings":"2","pattern":"X","legs":"M"},"action":"harvest","summary":"good-harvest","bonus":0.30000000000000127},{"rt":1853,"stimulus":"\n                    <p><b>Action: <em>harvest</em></b></p>\n                    <p>This is the bee that you just saw.</p>\n                    <img src=\"bees-with-color/bee-A1DF.svg\" width=\"200\">\n                    <p><span class=\"greenText\"><b>Successful harvest!</b></span><br>Your pay has increased by $0.02. Your bonus pay is now $0.48.</p>\n            ","response":0,"trial_type":"html-button-response","trial_index":46,"time_elapsed":752985,"internal_node_id":"0.0-4.0-1.19","subject_id":"612dd61bef19007cf7891e19","study_id":"6197b3f67c2b5cd3b6d9596a","session_id":"6197b88fe66e9b0083ae1ca1","condition":"contingent","relevant_dimensions":["wings","legs"],"bee_group":{"antennae":"X","wings":"2","pattern":"X","legs":"M"},"bonus":0.30000000000000127},{"rt":1613,"stimulus":"bees-with-color/bee-A1SF.svg","response":0,"trial_type":"image-button-response","trial_index":47,"time_elapsed":754601,"internal_node_id":"0.0-4.0-0.20","subject_id":"612dd61bef19007cf7891e19","study_id":"6197b3f67c2b5cd3b6d9596a","session_id":"6197b88fe66e9b0083ae1ca1","condition":"contingent","relevant_dimensions":["wings","legs"],"bee_group":{"antennae":"X","wings":"2","pattern":"X","legs":"M"},"action":"harvest","summary":"good-harvest","bonus":0.30000000000000127},{"rt":1680,"stimulus":"\n                    <p><b>Action: <em>harvest</em></b></p>\n                    <p>This is the bee that you just saw.</p>\n                    <img src=\"bees-with-color/bee-A1SF.svg\" width=\"200\">\n                    <p><span class=\"greenText\"><b>Successful harvest!</b></span><br>Your pay has increased by $0.02. Your bonus pay is now $0.50.</p>\n            ","response":0,"trial_type":"html-button-response","trial_index":48,"time_elapsed":756283,"internal_node_id":"0.0-4.0-1.20","subject_id":"612dd61bef19007cf7891e19","study_id":"6197b3f67c2b5cd3b6d9596a","session_id":"6197b88fe66e9b0083ae1ca1","condition":"contingent","relevant_dimensions":["wings","legs"],"bee_group":{"antennae":"X","wings":"2","pattern":"X","legs":"M"},"bonus":0.30000000000000127},{"rt":2588,"stimulus":"bees-with-color/bee-A1DM.svg","response":0,"trial_type":"image-button-response","trial_index":49,"time_elapsed":758873,"internal_node_id":"0.0-4.0-0.21","subject_id":"612dd61bef19007cf7891e19","study_id":"6197b3f67c2b5cd3b6d9596a","session_id":"6197b88fe66e9b0083ae1ca1","condition":"contingent","relevant_dimensions":["wings","legs"],"bee_group":{"antennae":"X","wings":"2","pattern":"X","legs":"M"},"action":"harvest","summary":"good-harvest","bonus":0.30000000000000127},{"rt":1838,"stimulus":"\n                    <p><b>Action: <em>harvest</em></b></p>\n                    <p>This is the bee that you just saw.</p>\n                    <img src=\"bees-with-color/bee-A1DM.svg\" width=\"200\">\n                    <p><span class=\"greenText\"><b>Successful harvest!</b></span><br>Your pay has increased by $0.02. Your bonus pay is now $0.52.</p>\n            ","response":0,"trial_type":"html-button-response","trial_index":50,"time_elapsed":760713,"internal_node_id":"0.0-4.0-1.21","subject_id":"612dd61bef19007cf7891e19","study_id":"6197b3f67c2b5cd3b6d9596a","session_id":"6197b88fe66e9b0083ae1ca1","condition":"contingent","relevant_dimensions":["wings","legs"],"bee_group":{"antennae":"X","wings":"2","pattern":"X","legs":"M"},"bonus":0.30000000000000127},{"rt":2466,"stimulus":"bees-with-color/bee-A2SM.svg","response":1,"trial_type":"image-button-response","trial_index":51,"time_elapsed":763181,"internal_node_id":"0.0-4.0-0.22","subject_id":"612dd61bef19007cf7891e19","study_id":"6197b3f67c2b5cd3b6d9596a","session_id":"6197b88fe66e9b0083ae1ca1","condition":"contingent","relevant_dimensions":["wings","legs"],"bee_group":{"antennae":"X","wings":"2","pattern":"X","legs":"M"},"action":"avoid","summary":"good-avoid","bonus":0.30000000000000127},{"rt":2424,"stimulus":"\n                    <p><b>Action: <em>avoid</em></b></p>\n                    <p>This is the bee that you just saw.</p>\n                    <img src=\"bees-with-color/bee-A2SM.svg\" width=\"200\">\n                    <p><br>Your bonus pay is unchanged, and remains at $0.52.</p>\n            ","response":0,"trial_type":"html-button-response","trial_index":52,"time_elapsed":765608,"internal_node_id":"0.0-4.0-1.22","subject_id":"612dd61bef19007cf7891e19","study_id":"6197b3f67c2b5cd3b6d9596a","session_id":"6197b88fe66e9b0083ae1ca1","condition":"contingent","relevant_dimensions":["wings","legs"],"bee_group":{"antennae":"X","wings":"2","pattern":"X","legs":"M"},"bonus":0.30000000000000127},{"rt":3768,"stimulus":"bees-with-color/bee-B1SM.svg","response":0,"trial_type":"image-button-response","trial_index":53,"time_elapsed":769378,"internal_node_id":"0.0-4.0-0.23","subject_id":"612dd61bef19007cf7891e19","study_id":"6197b3f67c2b5cd3b6d9596a","session_id":"6197b88fe66e9b0083ae1ca1","condition":"contingent","relevant_dimensions":["wings","legs"],"bee_group":{"antennae":"X","wings":"2","pattern":"X","legs":"M"},"action":"harvest","summary":"good-harvest","bonus":0.30000000000000127},{"rt":2943,"stimulus":"\n                    <p><b>Action: <em>harvest</em></b></p>\n                    <p>This is the bee that you just saw.</p>\n                    <img src=\"bees-with-color/bee-B1SM.svg\" width=\"200\">\n                    <p><span class=\"greenText\"><b>Successful harvest!</b></span><br>Your pay has increased by $0.02. Your bonus pay is now $0.54.</p>\n            ","response":0,"trial_type":"html-button-response","trial_index":54,"time_elapsed":772323,"internal_node_id":"0.0-4.0-1.23","subject_id":"612dd61bef19007cf7891e19","study_id":"6197b3f67c2b5cd3b6d9596a","session_id":"6197b88fe66e9b0083ae1ca1","condition":"contingent","relevant_dimensions":["wings","legs"],"bee_group":{"antennae":"X","wings":"2","pattern":"X","legs":"M"},"bonus":0.30000000000000127},{"rt":2558,"stimulus":"bees-with-color/bee-B2SM.svg","response":1,"trial_type":"image-button-response","trial_index":55,"time_elapsed":774882,"internal_node_id":"0.0-4.0-0.24","subject_id":"612dd61bef19007cf7891e19","study_id":"6197b3f67c2b5cd3b6d9596a","session_id":"6197b88fe66e9b0083ae1ca1","condition":"contingent","relevant_dimensions":["wings","legs"],"bee_group":{"antennae":"X","wings":"2","pattern":"X","legs":"M"},"action":"avoid","summary":"good-avoid","bonus":0.30000000000000127},{"rt":2662,"stimulus":"\n                    <p><b>Action: <em>avoid</em></b></p>\n                    <p>This is the bee that you just saw.</p>\n                    <img src=\"bees-with-color/bee-B2SM.svg\" width=\"200\">\n                    <p><br>Your bonus pay is unchanged, and remains at $0.54.</p>\n            ","response":0,"trial_type":"html-button-response","trial_index":56,"time_elapsed":777546,"internal_node_id":"0.0-4.0-1.24","subject_id":"612dd61bef19007cf7891e19","study_id":"6197b3f67c2b5cd3b6d9596a","session_id":"6197b88fe66e9b0083ae1ca1","condition":"contingent","relevant_dimensions":["wings","legs"],"bee_group":{"antennae":"X","wings":"2","pattern":"X","legs":"M"},"bonus":0.30000000000000127},{"rt":2777,"stimulus":"bees-with-color/bee-A1SM.svg","response":1,"trial_type":"image-button-response","trial_index":57,"time_elapsed":780326,"internal_node_id":"0.0-4.0-0.25","subject_id":"612dd61bef19007cf7891e19","study_id":"6197b3f67c2b5cd3b6d9596a","session_id":"6197b88fe66e9b0083ae1ca1","condition":"contingent","relevant_dimensions":["wings","legs"],"bee_group":{"antennae":"X","wings":"2","pattern":"X","legs":"M"},"action":"avoid","summary":"bad-avoid","bonus":0.30000000000000127},{"rt":1946,"stimulus":"\n                    <p><b>Action: <em>avoid</em></b></p>\n                    <p>This is the bee that you just saw.</p>\n                    <img src=\"bees-with-color/bee-A1SM.svg\" width=\"200\">\n                    <p><br>Your bonus pay is unchanged, and remains at $0.54.</p>\n            ","response":0,"trial_type":"html-button-response","trial_index":58,"time_elapsed":782275,"internal_node_id":"0.0-4.0-1.25","subject_id":"612dd61bef19007cf7891e19","study_id":"6197b3f67c2b5cd3b6d9596a","session_id":"6197b88fe66e9b0083ae1ca1","condition":"contingent","relevant_dimensions":["wings","legs"],"bee_group":{"antennae":"X","wings":"2","pattern":"X","legs":"M"},"bonus":0.30000000000000127},{"rt":2103,"stimulus":"bees-with-color/bee-A2SF.svg","response":0,"trial_type":"image-button-response","trial_index":59,"time_elapsed":784381,"internal_node_id":"0.0-4.0-0.26","subject_id":"612dd61bef19007cf7891e19","study_id":"6197b3f67c2b5cd3b6d9596a","session_id":"6197b88fe66e9b0083ae1ca1","condition":"contingent","relevant_dimensions":["wings","legs"],"bee_group":{"antennae":"X","wings":"2","pattern":"X","legs":"M"},"action":"harvest","summary":"good-harvest","bonus":0.30000000000000127},{"rt":2005,"stimulus":"\n                    <p><b>Action: <em>harvest</em></b></p>\n                    <p>This is the bee that you just saw.</p>\n                    <img src=\"bees-with-color/bee-A2SF.svg\" width=\"200\">\n                    <p><span class=\"greenText\"><b>Successful harvest!</b></span><br>Your pay has increased by $0.02. Your bonus pay is now $0.56.</p>\n            ","response":0,"trial_type":"html-button-response","trial_index":60,"time_elapsed":786389,"internal_node_id":"0.0-4.0-1.26","subject_id":"612dd61bef19007cf7891e19","study_id":"6197b3f67c2b5cd3b6d9596a","session_id":"6197b88fe66e9b0083ae1ca1","condition":"contingent","relevant_dimensions":["wings","legs"],"bee_group":{"antennae":"X","wings":"2","pattern":"X","legs":"M"},"bonus":0.30000000000000127},{"rt":2497,"stimulus":"bees-with-color/bee-A2DF.svg","response":0,"trial_type":"image-button-response","trial_index":61,"time_elapsed":788889,"internal_node_id":"0.0-4.0-0.27","subject_id":"612dd61bef19007cf7891e19","study_id":"6197b3f67c2b5cd3b6d9596a","session_id":"6197b88fe66e9b0083ae1ca1","condition":"contingent","relevant_dimensions":["wings","legs"],"bee_group":{"antennae":"X","wings":"2","pattern":"X","legs":"M"},"action":"harvest","summary":"good-harvest","bonus":0.30000000000000127},{"rt":1615,"stimulus":"\n                    <p><b>Action: <em>harvest</em></b></p>\n                    <p>This is the bee that you just saw.</p>\n                    <img src=\"bees-with-color/bee-A2DF.svg\" width=\"200\">\n                    <p><span class=\"greenText\"><b>Successful harvest!</b></span><br>Your pay has increased by $0.02. Your bonus pay is now $0.58.</p>\n            ","response":0,"trial_type":"html-button-response","trial_index":62,"time_elapsed":790506,"internal_node_id":"0.0-4.0-1.27","subject_id":"612dd61bef19007cf7891e19","study_id":"6197b3f67c2b5cd3b6d9596a","session_id":"6197b88fe66e9b0083ae1ca1","condition":"contingent","relevant_dimensions":["wings","legs"],"bee_group":{"antennae":"X","wings":"2","pattern":"X","legs":"M"},"bonus":0.30000000000000127},{"rt":2005,"stimulus":"bees-with-color/bee-B2SF.svg","response":0,"trial_type":"image-button-response","trial_index":63,"time_elapsed":792514,"internal_node_id":"0.0-4.0-0.28","subject_id":"612dd61bef19007cf7891e19","study_id":"6197b3f67c2b5cd3b6d9596a","session_id":"6197b88fe66e9b0083ae1ca1","condition":"contingent","relevant_dimensions":["wings","legs"],"bee_group":{"antennae":"X","wings":"2","pattern":"X","legs":"M"},"action":"harvest","summary":"good-harvest","bonus":0.30000000000000127},{"rt":1739,"stimulus":"\n                    <p><b>Action: <em>harvest</em></b></p>\n                    <p>This is the bee that you just saw.</p>\n                    <img src=\"bees-with-color/bee-B2SF.svg\" width=\"200\">\n                    <p><span class=\"greenText\"><b>Successful harvest!</b></span><br>Your pay has increased by $0.02. Your bonus pay is now $0.60.</p>\n            ","response":0,"trial_type":"html-button-response","trial_index":64,"time_elapsed":794257,"internal_node_id":"0.0-4.0-1.28","subject_id":"612dd61bef19007cf7891e19","study_id":"6197b3f67c2b5cd3b6d9596a","session_id":"6197b88fe66e9b0083ae1ca1","condition":"contingent","relevant_dimensions":["wings","legs"],"bee_group":{"antennae":"X","wings":"2","pattern":"X","legs":"M"},"bonus":0.30000000000000127},{"rt":2517,"stimulus":"bees-with-color/bee-B1DF.svg","response":0,"trial_type":"image-button-response","trial_index":65,"time_elapsed":796777,"internal_node_id":"0.0-4.0-0.29","subject_id":"612dd61bef19007cf7891e19","study_id":"6197b3f67c2b5cd3b6d9596a","session_id":"6197b88fe66e9b0083ae1ca1","condition":"contingent","relevant_dimensions":["wings","legs"],"bee_group":{"antennae":"X","wings":"2","pattern":"X","legs":"M"},"action":"harvest","summary":"good-harvest","bonus":0.30000000000000127},{"rt":1911,"stimulus":"\n                    <p><b>Action: <em>harvest</em></b></p>\n                    <p>This is the bee that you just saw.</p>\n                    <img src=\"bees-with-color/bee-B1DF.svg\" width=\"200\">\n                    <p><span class=\"greenText\"><b>Successful harvest!</b></span><br>Your pay has increased by $0.02. Your bonus pay is now $0.62.</p>\n            ","response":0,"trial_type":"html-button-response","trial_index":66,"time_elapsed":798691,"internal_node_id":"0.0-4.0-1.29","subject_id":"612dd61bef19007cf7891e19","study_id":"6197b3f67c2b5cd3b6d9596a","session_id":"6197b88fe66e9b0083ae1ca1","condition":"contingent","relevant_dimensions":["wings","legs"],"bee_group":{"antennae":"X","wings":"2","pattern":"X","legs":"M"},"bonus":0.30000000000000127},{"rt":4195,"stimulus":"bees-with-color/bee-B1DM.svg","response":0,"trial_type":"image-button-response","trial_index":67,"time_elapsed":802889,"internal_node_id":"0.0-4.0-0.30","subject_id":"612dd61bef19007cf7891e19","study_id":"6197b3f67c2b5cd3b6d9596a","session_id":"6197b88fe66e9b0083ae1ca1","condition":"contingent","relevant_dimensions":["wings","legs"],"bee_group":{"antennae":"X","wings":"2","pattern":"X","legs":"M"},"action":"harvest","summary":"good-harvest","bonus":0.30000000000000127},{"rt":2728,"stimulus":"\n                    <p><b>Action: <em>harvest</em></b></p>\n                    <p>This is the bee that you just saw.</p>\n                    <img src=\"bees-with-color/bee-B1DM.svg\" width=\"200\">\n                    <p><span class=\"greenText\"><b>Successful harvest!</b></span><br>Your pay has increased by $0.02. Your bonus pay is now $0.64.</p>\n            ","response":0,"trial_type":"html-button-response","trial_index":68,"time_elapsed":805620,"internal_node_id":"0.0-4.0-1.30","subject_id":"612dd61bef19007cf7891e19","study_id":"6197b3f67c2b5cd3b6d9596a","session_id":"6197b88fe66e9b0083ae1ca1","condition":"contingent","relevant_dimensions":["wings","legs"],"bee_group":{"antennae":"X","wings":"2","pattern":"X","legs":"M"},"bonus":0.30000000000000127},{"rt":2595,"stimulus":"bees-with-color/bee-B2DM.svg","response":1,"trial_type":"image-button-response","trial_index":69,"time_elapsed":808218,"internal_node_id":"0.0-4.0-0.31","subject_id":"612dd61bef19007cf7891e19","study_id":"6197b3f67c2b5cd3b6d9596a","session_id":"6197b88fe66e9b0083ae1ca1","condition":"contingent","relevant_dimensions":["wings","legs"],"bee_group":{"antennae":"X","wings":"2","pattern":"X","legs":"M"},"action":"avoid","summary":"good-avoid","bonus":0.30000000000000127},{"rt":1851,"stimulus":"\n                    <p><b>Action: <em>avoid</em></b></p>\n                    <p>This is the bee that you just saw.</p>\n                    <img src=\"bees-with-color/bee-B2DM.svg\" width=\"200\">\n                    <p><br>Your bonus pay is unchanged, and remains at $0.64.</p>\n            ","response":0,"trial_type":"html-button-response","trial_index":70,"time_elapsed":810072,"internal_node_id":"0.0-4.0-1.31","subject_id":"612dd61bef19007cf7891e19","study_id":"6197b3f67c2b5cd3b6d9596a","session_id":"6197b88fe66e9b0083ae1ca1","condition":"contingent","relevant_dimensions":["wings","legs"],"bee_group":{"antennae":"X","wings":"2","pattern":"X","legs":"M"},"bonus":0.30000000000000127},{"rt":2645,"stimulus":"bees-with-color/bee-B1SM.svg","response":0,"trial_type":"image-button-response","trial_index":71,"time_elapsed":812720,"internal_node_id":"0.0-4.0-0.32","subject_id":"612dd61bef19007cf7891e19","study_id":"6197b3f67c2b5cd3b6d9596a","session_id":"6197b88fe66e9b0083ae1ca1","condition":"contingent","relevant_dimensions":["wings","legs"],"bee_group":{"antennae":"X","wings":"2","pattern":"X","legs":"M"},"action":"harvest","summary":"good-harvest","bonus":0.30000000000000127},{"rt":2565,"stimulus":"\n                    <p><b>Action: <em>harvest</em></b></p>\n                    <p>This is the bee that you just saw.</p>\n                    <img src=\"bees-with-color/bee-B1SM.svg\" width=\"200\">\n                    <p><span class=\"greenText\"><b>Successful harvest!</b></span><br>Your pay has increased by $0.02. Your bonus pay is now $0.66.</p>\n            ","response":0,"trial_type":"html-button-response","trial_index":72,"time_elapsed":815289,"internal_node_id":"0.0-4.0-1.32","subject_id":"612dd61bef19007cf7891e19","study_id":"6197b3f67c2b5cd3b6d9596a","session_id":"6197b88fe66e9b0083ae1ca1","condition":"contingent","relevant_dimensions":["wings","legs"],"bee_group":{"antennae":"X","wings":"2","pattern":"X","legs":"M"},"bonus":0.30000000000000127},{"rt":2605,"stimulus":"bees-with-color/bee-B2DM.svg","response":0,"trial_type":"image-button-response","trial_index":73,"time_elapsed":817896,"internal_node_id":"0.0-4.0-0.33","subject_id":"612dd61bef19007cf7891e19","study_id":"6197b3f67c2b5cd3b6d9596a","session_id":"6197b88fe66e9b0083ae1ca1","condition":"contingent","relevant_dimensions":["wings","legs"],"bee_group":{"antennae":"X","wings":"2","pattern":"X","legs":"M"},"action":"harvest","summary":"bad-harvest","bonus":0.30000000000000127},{"rt":1758,"stimulus":"\n                    <p><b>Action: <em>harvest</em></b></p>\n                    <p>This is the bee that you just saw.</p>\n                    <img src=\"bees-with-color/bee-B2DM.svg\" width=\"200\">\n                    <p><span class=\"redText\">Bad choice, the bee was angry.</span><br><b>You have been stung!</b><br>Your pay has been decreased by $0.10. Your bonus pay is now $0.56.</p>\n            ","response":0,"trial_type":"html-button-response","trial_index":74,"time_elapsed":819656,"internal_node_id":"0.0-4.0-1.33","subject_id":"612dd61bef19007cf7891e19","study_id":"6197b3f67c2b5cd3b6d9596a","session_id":"6197b88fe66e9b0083ae1ca1","condition":"contingent","relevant_dimensions":["wings","legs"],"bee_group":{"antennae":"X","wings":"2","pattern":"X","legs":"M"},"bonus":0.30000000000000127},{"rt":2111,"stimulus":"bees-with-color/bee-A1DF.svg","response":0,"trial_type":"image-button-response","trial_index":75,"time_elapsed":821770,"internal_node_id":"0.0-4.0-0.34","subject_id":"612dd61bef19007cf7891e19","study_id":"6197b3f67c2b5cd3b6d9596a","session_id":"6197b88fe66e9b0083ae1ca1","condition":"contingent","relevant_dimensions":["wings","legs"],"bee_group":{"antennae":"X","wings":"2","pattern":"X","legs":"M"},"action":"harvest","summary":"good-harvest","bonus":0.30000000000000127},{"rt":2222,"stimulus":"\n                    <p><b>Action: <em>harvest</em></b></p>\n                    <p>This is the bee that you just saw.</p>\n                    <img src=\"bees-with-color/bee-A1DF.svg\" width=\"200\">\n                    <p><span class=\"greenText\"><b>Successful harvest!</b></span><br>Your pay has increased by $0.02. Your bonus pay is now $0.58.</p>\n            ","response":0,"trial_type":"html-button-response","trial_index":76,"time_elapsed":823994,"internal_node_id":"0.0-4.0-1.34","subject_id":"612dd61bef19007cf7891e19","study_id":"6197b3f67c2b5cd3b6d9596a","session_id":"6197b88fe66e9b0083ae1ca1","condition":"contingent","relevant_dimensions":["wings","legs"],"bee_group":{"antennae":"X","wings":"2","pattern":"X","legs":"M"},"bonus":0.30000000000000127},{"rt":2015,"stimulus":"bees-with-color/bee-A1SF.svg","response":0,"trial_type":"image-button-response","trial_index":77,"time_elapsed":826012,"internal_node_id":"0.0-4.0-0.35","subject_id":"612dd61bef19007cf7891e19","study_id":"6197b3f67c2b5cd3b6d9596a","session_id":"6197b88fe66e9b0083ae1ca1","condition":"contingent","relevant_dimensions":["wings","legs"],"bee_group":{"antennae":"X","wings":"2","pattern":"X","legs":"M"},"action":"harvest","summary":"good-harvest","bonus":0.30000000000000127},{"rt":1859,"stimulus":"\n                    <p><b>Action: <em>harvest</em></b></p>\n                    <p>This is the bee that you just saw.</p>\n                    <img src=\"bees-with-color/bee-A1SF.svg\" width=\"200\">\n                    <p><span class=\"greenText\"><b>Successful harvest!</b></span><br>Your pay has increased by $0.02. Your bonus pay is now $0.60.</p>\n            ","response":0,"trial_type":"html-button-response","trial_index":78,"time_elapsed":827873,"internal_node_id":"0.0-4.0-1.35","subject_id":"612dd61bef19007cf7891e19","study_id":"6197b3f67c2b5cd3b6d9596a","session_id":"6197b88fe66e9b0083ae1ca1","condition":"contingent","relevant_dimensions":["wings","legs"],"bee_group":{"antennae":"X","wings":"2","pattern":"X","legs":"M"},"bonus":0.30000000000000127},{"rt":1912,"stimulus":"bees-with-color/bee-A2DF.svg","response":0,"trial_type":"image-button-response","trial_index":79,"time_elapsed":829787,"internal_node_id":"0.0-4.0-0.36","subject_id":"612dd61bef19007cf7891e19","study_id":"6197b3f67c2b5cd3b6d9596a","session_id":"6197b88fe66e9b0083ae1ca1","condition":"contingent","relevant_dimensions":["wings","legs"],"bee_group":{"antennae":"X","wings":"2","pattern":"X","legs":"M"},"action":"harvest","summary":"good-harvest","bonus":0.30000000000000127},{"rt":1942,"stimulus":"\n                    <p><b>Action: <em>harvest</em></b></p>\n                    <p>This is the bee that you just saw.</p>\n                    <img src=\"bees-with-color/bee-A2DF.svg\" width=\"200\">\n                    <p><span class=\"greenText\"><b>Successful harvest!</b></span><br>Your pay has increased by $0.02. Your bonus pay is now $0.62.</p>\n            ","response":0,"trial_type":"html-button-response","trial_index":80,"time_elapsed":831733,"internal_node_id":"0.0-4.0-1.36","subject_id":"612dd61bef19007cf7891e19","study_id":"6197b3f67c2b5cd3b6d9596a","session_id":"6197b88fe66e9b0083ae1ca1","condition":"contingent","relevant_dimensions":["wings","legs"],"bee_group":{"antennae":"X","wings":"2","pattern":"X","legs":"M"},"bonus":0.30000000000000127},{"rt":3598,"stimulus":"bees-with-color/bee-A1DM.svg","response":0,"trial_type":"image-button-response","trial_index":81,"time_elapsed":835334,"internal_node_id":"0.0-4.0-0.37","subject_id":"612dd61bef19007cf7891e19","study_id":"6197b3f67c2b5cd3b6d9596a","session_id":"6197b88fe66e9b0083ae1ca1","condition":"contingent","relevant_dimensions":["wings","legs"],"bee_group":{"antennae":"X","wings":"2","pattern":"X","legs":"M"},"action":"harvest","summary":"good-harvest","bonus":0.30000000000000127},{"rt":1622,"stimulus":"\n                    <p><b>Action: <em>harvest</em></b></p>\n                    <p>This is the bee that you just saw.</p>\n                    <img src=\"bees-with-color/bee-A1DM.svg\" width=\"200\">\n                    <p><span class=\"greenText\"><b>Successful harvest!</b></span><br>Your pay has increased by $0.02. Your bonus pay is now $0.64.</p>\n            ","response":0,"trial_type":"html-button-response","trial_index":82,"time_elapsed":836959,"internal_node_id":"0.0-4.0-1.37","subject_id":"612dd61bef19007cf7891e19","study_id":"6197b3f67c2b5cd3b6d9596a","session_id":"6197b88fe66e9b0083ae1ca1","condition":"contingent","relevant_dimensions":["wings","legs"],"bee_group":{"antennae":"X","wings":"2","pattern":"X","legs":"M"},"bonus":0.30000000000000127},{"rt":5701,"stimulus":"bees-with-color/bee-B2SM.svg","response":0,"trial_type":"image-button-response","trial_index":83,"time_elapsed":842663,"internal_node_id":"0.0-4.0-0.38","subject_id":"612dd61bef19007cf7891e19","study_id":"6197b3f67c2b5cd3b6d9596a","session_id":"6197b88fe66e9b0083ae1ca1","condition":"contingent","relevant_dimensions":["wings","legs"],"bee_group":{"antennae":"X","wings":"2","pattern":"X","legs":"M"},"action":"harvest","summary":"bad-harvest","bonus":0.30000000000000127},{"rt":1692,"stimulus":"\n                    <p><b>Action: <em>harvest</em></b></p>\n                    <p>This is the bee that you just saw.</p>\n                    <img src=\"bees-with-color/bee-B2SM.svg\" width=\"200\">\n                    <p><span class=\"redText\">Bad choice, the bee was angry.</span><br><b>You have been stung!</b><br>Your pay has been decreased by $0.10. Your bonus pay is now $0.54.</p>\n            ","response":0,"trial_type":"html-button-response","trial_index":84,"time_elapsed":844358,"internal_node_id":"0.0-4.0-1.38","subject_id":"612dd61bef19007cf7891e19","study_id":"6197b3f67c2b5cd3b6d9596a","session_id":"6197b88fe66e9b0083ae1ca1","condition":"contingent","relevant_dimensions":["wings","legs"],"bee_group":{"antennae":"X","wings":"2","pattern":"X","legs":"M"},"bonus":0.30000000000000127},{"rt":1819,"stimulus":"bees-with-color/bee-B1SF.svg","response":0,"trial_type":"image-button-response","trial_index":85,"time_elapsed":846180,"internal_node_id":"0.0-4.0-0.39","subject_id":"612dd61bef19007cf7891e19","study_id":"6197b3f67c2b5cd3b6d9596a","session_id":"6197b88fe66e9b0083ae1ca1","condition":"contingent","relevant_dimensions":["wings","legs"],"bee_group":{"antennae":"X","wings":"2","pattern":"X","legs":"M"},"action":"harvest","summary":"good-harvest","bonus":0.30000000000000127},{"rt":1672,"stimulus":"\n                    <p><b>Action: <em>harvest</em></b></p>\n                    <p>This is the bee that you just saw.</p>\n                    <img src=\"bees-with-color/bee-B1SF.svg\" width=\"200\">\n                    <p><span class=\"greenText\"><b>Successful harvest!</b></span><br>Your pay has increased by $0.02. Your bonus pay is now $0.56.</p>\n            ","response":0,"trial_type":"html-button-response","trial_index":86,"time_elapsed":847855,"internal_node_id":"0.0-4.0-1.39","subject_id":"612dd61bef19007cf7891e19","study_id":"6197b3f67c2b5cd3b6d9596a","session_id":"6197b88fe66e9b0083ae1ca1","condition":"contingent","relevant_dimensions":["wings","legs"],"bee_group":{"antennae":"X","wings":"2","pattern":"X","legs":"M"},"bonus":0.30000000000000127},{"rt":2134,"stimulus":"bees-with-color/bee-A1SM.svg","response":0,"trial_type":"image-button-response","trial_index":87,"time_elapsed":849990,"internal_node_id":"0.0-4.0-0.40","subject_id":"612dd61bef19007cf7891e19","study_id":"6197b3f67c2b5cd3b6d9596a","session_id":"6197b88fe66e9b0083ae1ca1","condition":"contingent","relevant_dimensions":["wings","legs"],"bee_group":{"antennae":"X","wings":"2","pattern":"X","legs":"M"},"action":"harvest","summary":"good-harvest","bonus":0.30000000000000127},{"rt":2349,"stimulus":"\n                    <p><b>Action: <em>harvest</em></b></p>\n                    <p>This is the bee that you just saw.</p>\n                    <img src=\"bees-with-color/bee-A1SM.svg\" width=\"200\">\n                    <p><span class=\"greenText\"><b>Successful harvest!</b></span><br>Your pay has increased by $0.02. Your bonus pay is now $0.58.</p>\n            ","response":0,"trial_type":"html-button-response","trial_index":88,"time_elapsed":852343,"internal_node_id":"0.0-4.0-1.40","subject_id":"612dd61bef19007cf7891e19","study_id":"6197b3f67c2b5cd3b6d9596a","session_id":"6197b88fe66e9b0083ae1ca1","condition":"contingent","relevant_dimensions":["wings","legs"],"bee_group":{"antennae":"X","wings":"2","pattern":"X","legs":"M"},"bonus":0.30000000000000127},{"rt":2168,"stimulus":"bees-with-color/bee-A2DM.svg","response":1,"trial_type":"image-button-response","trial_index":89,"time_elapsed":854512,"internal_node_id":"0.0-4.0-0.41","subject_id":"612dd61bef19007cf7891e19","study_id":"6197b3f67c2b5cd3b6d9596a","session_id":"6197b88fe66e9b0083ae1ca1","condition":"contingent","relevant_dimensions":["wings","legs"],"bee_group":{"antennae":"X","wings":"2","pattern":"X","legs":"M"},"action":"avoid","summary":"good-avoid","bonus":0.30000000000000127},{"rt":1600,"stimulus":"\n                    <p><b>Action: <em>avoid</em></b></p>\n                    <p>This is the bee that you just saw.</p>\n                    <img src=\"bees-with-color/bee-A2DM.svg\" width=\"200\">\n                    <p><br>Your bonus pay is unchanged, and remains at $0.58.</p>\n            ","response":0,"trial_type":"html-button-response","trial_index":90,"time_elapsed":856115,"internal_node_id":"0.0-4.0-1.41","subject_id":"612dd61bef19007cf7891e19","study_id":"6197b3f67c2b5cd3b6d9596a","session_id":"6197b88fe66e9b0083ae1ca1","condition":"contingent","relevant_dimensions":["wings","legs"],"bee_group":{"antennae":"X","wings":"2","pattern":"X","legs":"M"},"bonus":0.30000000000000127},{"rt":2322,"stimulus":"bees-with-color/bee-B2DF.svg","response":0,"trial_type":"image-button-response","trial_index":91,"time_elapsed":858440,"internal_node_id":"0.0-4.0-0.42","subject_id":"612dd61bef19007cf7891e19","study_id":"6197b3f67c2b5cd3b6d9596a","session_id":"6197b88fe66e9b0083ae1ca1","condition":"contingent","relevant_dimensions":["wings","legs"],"bee_group":{"antennae":"X","wings":"2","pattern":"X","legs":"M"},"action":"harvest","summary":"good-harvest","bonus":0.30000000000000127},{"rt":1461,"stimulus":"\n                    <p><b>Action: <em>harvest</em></b></p>\n                    <p>This is the bee that you just saw.</p>\n                    <img src=\"bees-with-color/bee-B2DF.svg\" width=\"200\">\n                    <p><span class=\"greenText\"><b>Successful harvest!</b></span><br>Your pay has increased by $0.02. Your bonus pay is now $0.60.</p>\n            ","response":0,"trial_type":"html-button-response","trial_index":92,"time_elapsed":859903,"internal_node_id":"0.0-4.0-1.42","subject_id":"612dd61bef19007cf7891e19","study_id":"6197b3f67c2b5cd3b6d9596a","session_id":"6197b88fe66e9b0083ae1ca1","condition":"contingent","relevant_dimensions":["wings","legs"],"bee_group":{"antennae":"X","wings":"2","pattern":"X","legs":"M"},"bonus":0.30000000000000127},{"rt":2059,"stimulus":"bees-with-color/bee-B2SF.svg","response":0,"trial_type":"image-button-response","trial_index":93,"time_elapsed":861964,"internal_node_id":"0.0-4.0-0.43","subject_id":"612dd61bef19007cf7891e19","study_id":"6197b3f67c2b5cd3b6d9596a","session_id":"6197b88fe66e9b0083ae1ca1","condition":"contingent","relevant_dimensions":["wings","legs"],"bee_group":{"antennae":"X","wings":"2","pattern":"X","legs":"M"},"action":"harvest","summary":"good-harvest","bonus":0.30000000000000127},{"rt":1594,"stimulus":"\n                    <p><b>Action: <em>harvest</em></b></p>\n                    <p>This is the bee that you just saw.</p>\n                    <img src=\"bees-with-color/bee-B2SF.svg\" width=\"200\">\n                    <p><span class=\"greenText\"><b>Successful harvest!</b></span><br>Your pay has increased by $0.02. Your bonus pay is now $0.62.</p>\n            ","response":0,"trial_type":"html-button-response","trial_index":94,"time_elapsed":863562,"internal_node_id":"0.0-4.0-1.43","subject_id":"612dd61bef19007cf7891e19","study_id":"6197b3f67c2b5cd3b6d9596a","session_id":"6197b88fe66e9b0083ae1ca1","condition":"contingent","relevant_dimensions":["wings","legs"],"bee_group":{"antennae":"X","wings":"2","pattern":"X","legs":"M"},"bonus":0.30000000000000127},{"rt":2290,"stimulus":"bees-with-color/bee-B1DM.svg","response":0,"trial_type":"image-button-response","trial_index":95,"time_elapsed":865854,"internal_node_id":"0.0-4.0-0.44","subject_id":"612dd61bef19007cf7891e19","study_id":"6197b3f67c2b5cd3b6d9596a","session_id":"6197b88fe66e9b0083ae1ca1","condition":"contingent","relevant_dimensions":["wings","legs"],"bee_group":{"antennae":"X","wings":"2","pattern":"X","legs":"M"},"action":"harvest","summary":"good-harvest","bonus":0.30000000000000127},{"rt":1846,"stimulus":"\n                    <p><b>Action: <em>harvest</em></b></p>\n                    <p>This is the bee that you just saw.</p>\n                    <img src=\"bees-with-color/bee-B1DM.svg\" width=\"200\">\n                    <p><span class=\"greenText\"><b>Successful harvest!</b></span><br>Your pay has increased by $0.02. Your bonus pay is now $0.64.</p>\n            ","response":0,"trial_type":"html-button-response","trial_index":96,"time_elapsed":867702,"internal_node_id":"0.0-4.0-1.44","subject_id":"612dd61bef19007cf7891e19","study_id":"6197b3f67c2b5cd3b6d9596a","session_id":"6197b88fe66e9b0083ae1ca1","condition":"contingent","relevant_dimensions":["wings","legs"],"bee_group":{"antennae":"X","wings":"2","pattern":"X","legs":"M"},"bonus":0.30000000000000127},{"rt":2694,"stimulus":"bees-with-color/bee-A2SF.svg","response":0,"trial_type":"image-button-response","trial_index":97,"time_elapsed":870398,"internal_node_id":"0.0-4.0-0.45","subject_id":"612dd61bef19007cf7891e19","study_id":"6197b3f67c2b5cd3b6d9596a","session_id":"6197b88fe66e9b0083ae1ca1","condition":"contingent","relevant_dimensions":["wings","legs"],"bee_group":{"antennae":"X","wings":"2","pattern":"X","legs":"M"},"action":"harvest","summary":"good-harvest","bonus":0.30000000000000127},{"rt":1305,"stimulus":"\n                    <p><b>Action: <em>harvest</em></b></p>\n                    <p>This is the bee that you just saw.</p>\n                    <img src=\"bees-with-color/bee-A2SF.svg\" width=\"200\">\n                    <p><span class=\"greenText\"><b>Successful harvest!</b></span><br>Your pay has increased by $0.02. Your bonus pay is now $0.66.</p>\n            ","response":0,"trial_type":"html-button-response","trial_index":98,"time_elapsed":871707,"internal_node_id":"0.0-4.0-1.45","subject_id":"612dd61bef19007cf7891e19","study_id":"6197b3f67c2b5cd3b6d9596a","session_id":"6197b88fe66e9b0083ae1ca1","condition":"contingent","relevant_dimensions":["wings","legs"],"bee_group":{"antennae":"X","wings":"2","pattern":"X","legs":"M"},"bonus":0.30000000000000127},{"rt":1713,"stimulus":"bees-with-color/bee-B1DF.svg","response":0,"trial_type":"image-button-response","trial_index":99,"time_elapsed":873423,"internal_node_id":"0.0-4.0-0.46","subject_id":"612dd61bef19007cf7891e19","study_id":"6197b3f67c2b5cd3b6d9596a","session_id":"6197b88fe66e9b0083ae1ca1","condition":"contingent","relevant_dimensions":["wings","legs"],"bee_group":{"antennae":"X","wings":"2","pattern":"X","legs":"M"},"action":"harvest","summary":"good-harvest","bonus":0.30000000000000127},{"rt":1448,"stimulus":"\n                    <p><b>Action: <em>harvest</em></b></p>\n                    <p>This is the bee that you just saw.</p>\n                    <img src=\"bees-with-color/bee-B1DF.svg\" width=\"200\">\n                    <p><span class=\"greenText\"><b>Successful harvest!</b></span><br>Your pay has increased by $0.02. Your bonus pay is now $0.68.</p>\n            ","response":0,"trial_type":"html-button-response","trial_index":100,"time_elapsed":874873,"internal_node_id":"0.0-4.0-1.46","subject_id":"612dd61bef19007cf7891e19","study_id":"6197b3f67c2b5cd3b6d9596a","session_id":"6197b88fe66e9b0083ae1ca1","condition":"contingent","relevant_dimensions":["wings","legs"],"bee_group":{"antennae":"X","wings":"2","pattern":"X","legs":"M"},"bonus":0.30000000000000127},{"rt":2620,"stimulus":"bees-with-color/bee-A2SM.svg","response":0,"trial_type":"image-button-response","trial_index":101,"time_elapsed":877495,"internal_node_id":"0.0-4.0-0.47","subject_id":"612dd61bef19007cf7891e19","study_id":"6197b3f67c2b5cd3b6d9596a","session_id":"6197b88fe66e9b0083ae1ca1","condition":"contingent","relevant_dimensions":["wings","legs"],"bee_group":{"antennae":"X","wings":"2","pattern":"X","legs":"M"},"action":"harvest","summary":"bad-harvest","bonus":0.30000000000000127},{"rt":2503,"stimulus":"\n                    <p><b>Action: <em>harvest</em></b></p>\n                    <p>This is the bee that you just saw.</p>\n                    <img src=\"bees-with-color/bee-A2SM.svg\" width=\"200\">\n                    <p><span class=\"redText\">Bad choice, the bee was angry.</span><br><b>You have been stung!</b><br>Your pay has been decreased by $0.10. Your bonus pay is now $0.58.</p>\n            ","response":0,"trial_type":"html-button-response","trial_index":102,"time_elapsed":880001,"internal_node_id":"0.0-4.0-1.47","subject_id":"612dd61bef19007cf7891e19","study_id":"6197b3f67c2b5cd3b6d9596a","session_id":"6197b88fe66e9b0083ae1ca1","condition":"contingent","relevant_dimensions":["wings","legs"],"bee_group":{"antennae":"X","wings":"2","pattern":"X","legs":"M"},"bonus":0.30000000000000127},{"rt":1787,"stimulus":"bees-with-color/bee-B2DF.svg","response":0,"trial_type":"image-button-response","trial_index":103,"time_elapsed":881788,"internal_node_id":"0.0-4.0-0.48","subject_id":"612dd61bef19007cf7891e19","study_id":"6197b3f67c2b5cd3b6d9596a","session_id":"6197b88fe66e9b0083ae1ca1","condition":"contingent","relevant_dimensions":["wings","legs"],"bee_group":{"antennae":"X","wings":"2","pattern":"X","legs":"M"},"action":"harvest","summary":"good-harvest","bonus":0.30000000000000127},{"rt":1269,"stimulus":"\n                    <p><b>Action: <em>harvest</em></b></p>\n                    <p>This is the bee that you just saw.</p>\n                    <img src=\"bees-with-color/bee-B2DF.svg\" width=\"200\">\n                    <p><span class=\"greenText\"><b>Successful harvest!</b></span><br>Your pay has increased by $0.02. Your bonus pay is now $0.60.</p>\n            ","response":0,"trial_type":"html-button-response","trial_index":104,"time_elapsed":883061,"internal_node_id":"0.0-4.0-1.48","subject_id":"612dd61bef19007cf7891e19","study_id":"6197b3f67c2b5cd3b6d9596a","session_id":"6197b88fe66e9b0083ae1ca1","condition":"contingent","relevant_dimensions":["wings","legs"],"bee_group":{"antennae":"X","wings":"2","pattern":"X","legs":"M"},"bonus":0.30000000000000127},{"rt":1489,"stimulus":"bees-with-color/bee-B1SF.svg","response":0,"trial_type":"image-button-response","trial_index":105,"time_elapsed":884552,"internal_node_id":"0.0-4.0-0.49","subject_id":"612dd61bef19007cf7891e19","study_id":"6197b3f67c2b5cd3b6d9596a","session_id":"6197b88fe66e9b0083ae1ca1","condition":"contingent","relevant_dimensions":["wings","legs"],"bee_group":{"antennae":"X","wings":"2","pattern":"X","legs":"M"},"action":"harvest","summary":"good-harvest","bonus":0.30000000000000127},{"rt":1441,"stimulus":"\n                    <p><b>Action: <em>harvest</em></b></p>\n                    <p>This is the bee that you just saw.</p>\n                    <img src=\"bees-with-color/bee-B1SF.svg\" width=\"200\">\n                    <p><span class=\"greenText\"><b>Successful harvest!</b></span><br>Your pay has increased by $0.02. Your bonus pay is now $0.62.</p>\n            ","response":0,"trial_type":"html-button-response","trial_index":106,"time_elapsed":885996,"internal_node_id":"0.0-4.0-1.49","subject_id":"612dd61bef19007cf7891e19","study_id":"6197b3f67c2b5cd3b6d9596a","session_id":"6197b88fe66e9b0083ae1ca1","condition":"contingent","relevant_dimensions":["wings","legs"],"bee_group":{"antennae":"X","wings":"2","pattern":"X","legs":"M"},"bonus":0.30000000000000127},{"rt":2380,"stimulus":"bees-with-color/bee-B1DM.svg","response":0,"trial_type":"image-button-response","trial_index":107,"time_elapsed":888379,"internal_node_id":"0.0-4.0-0.50","subject_id":"612dd61bef19007cf7891e19","study_id":"6197b3f67c2b5cd3b6d9596a","session_id":"6197b88fe66e9b0083ae1ca1","condition":"contingent","relevant_dimensions":["wings","legs"],"bee_group":{"antennae":"X","wings":"2","pattern":"X","legs":"M"},"action":"harvest","summary":"good-harvest","bonus":0.30000000000000127},{"rt":1467,"stimulus":"\n                    <p><b>Action: <em>harvest</em></b></p>\n                    <p>This is the bee that you just saw.</p>\n                    <img src=\"bees-with-color/bee-B1DM.svg\" width=\"200\">\n                    <p><span class=\"greenText\"><b>Successful harvest!</b></span><br>Your pay has increased by $0.02. Your bonus pay is now $0.64.</p>\n            ","response":0,"trial_type":"html-button-response","trial_index":108,"time_elapsed":889849,"internal_node_id":"0.0-4.0-1.50","subject_id":"612dd61bef19007cf7891e19","study_id":"6197b3f67c2b5cd3b6d9596a","session_id":"6197b88fe66e9b0083ae1ca1","condition":"contingent","relevant_dimensions":["wings","legs"],"bee_group":{"antennae":"X","wings":"2","pattern":"X","legs":"M"},"bonus":0.30000000000000127},{"rt":1736,"stimulus":"bees-with-color/bee-A2SM.svg","response":1,"trial_type":"image-button-response","trial_index":109,"time_elapsed":891588,"internal_node_id":"0.0-4.0-0.51","subject_id":"612dd61bef19007cf7891e19","study_id":"6197b3f67c2b5cd3b6d9596a","session_id":"6197b88fe66e9b0083ae1ca1","condition":"contingent","relevant_dimensions":["wings","legs"],"bee_group":{"antennae":"X","wings":"2","pattern":"X","legs":"M"},"action":"avoid","summary":"good-avoid","bonus":0.30000000000000127},{"rt":1445,"stimulus":"\n                    <p><b>Action: <em>avoid</em></b></p>\n                    <p>This is the bee that you just saw.</p>\n                    <img src=\"bees-with-color/bee-A2SM.svg\" width=\"200\">\n                    <p><br>Your bonus pay is unchanged, and remains at $0.64.</p>\n            ","response":0,"trial_type":"html-button-response","trial_index":110,"time_elapsed":893034,"internal_node_id":"0.0-4.0-1.51","subject_id":"612dd61bef19007cf7891e19","study_id":"6197b3f67c2b5cd3b6d9596a","session_id":"6197b88fe66e9b0083ae1ca1","condition":"contingent","relevant_dimensions":["wings","legs"],"bee_group":{"antennae":"X","wings":"2","pattern":"X","legs":"M"},"bonus":0.30000000000000127},{"rt":1525,"stimulus":"bees-with-color/bee-B1SM.svg","response":0,"trial_type":"image-button-response","trial_index":111,"time_elapsed":894561,"internal_node_id":"0.0-4.0-0.52","subject_id":"612dd61bef19007cf7891e19","study_id":"6197b3f67c2b5cd3b6d9596a","session_id":"6197b88fe66e9b0083ae1ca1","condition":"contingent","relevant_dimensions":["wings","legs"],"bee_group":{"antennae":"X","wings":"2","pattern":"X","legs":"M"},"action":"harvest","summary":"good-harvest","bonus":0.30000000000000127},{"rt":1664,"stimulus":"\n                    <p><b>Action: <em>harvest</em></b></p>\n                    <p>This is the bee that you just saw.</p>\n                    <img src=\"bees-with-color/bee-B1SM.svg\" width=\"200\">\n                    <p><span class=\"greenText\"><b>Successful harvest!</b></span><br>Your pay has increased by $0.02. Your bonus pay is now $0.66.</p>\n            ","response":0,"trial_type":"html-button-response","trial_index":112,"time_elapsed":896228,"internal_node_id":"0.0-4.0-1.52","subject_id":"612dd61bef19007cf7891e19","study_id":"6197b3f67c2b5cd3b6d9596a","session_id":"6197b88fe66e9b0083ae1ca1","condition":"contingent","relevant_dimensions":["wings","legs"],"bee_group":{"antennae":"X","wings":"2","pattern":"X","legs":"M"},"bonus":0.30000000000000127},{"rt":1748,"stimulus":"bees-with-color/bee-A1SM.svg","response":1,"trial_type":"image-button-response","trial_index":113,"time_elapsed":897979,"internal_node_id":"0.0-4.0-0.53","subject_id":"612dd61bef19007cf7891e19","study_id":"6197b3f67c2b5cd3b6d9596a","session_id":"6197b88fe66e9b0083ae1ca1","condition":"contingent","relevant_dimensions":["wings","legs"],"bee_group":{"antennae":"X","wings":"2","pattern":"X","legs":"M"},"action":"avoid","summary":"bad-avoid","bonus":0.30000000000000127},{"rt":1664,"stimulus":"\n                    <p><b>Action: <em>avoid</em></b></p>\n                    <p>This is the bee that you just saw.</p>\n                    <img src=\"bees-with-color/bee-A1SM.svg\" width=\"200\">\n                    <p><br>Your bonus pay is unchanged, and remains at $0.66.</p>\n            ","response":0,"trial_type":"html-button-response","trial_index":114,"time_elapsed":899645,"internal_node_id":"0.0-4.0-1.53","subject_id":"612dd61bef19007cf7891e19","study_id":"6197b3f67c2b5cd3b6d9596a","session_id":"6197b88fe66e9b0083ae1ca1","condition":"contingent","relevant_dimensions":["wings","legs"],"bee_group":{"antennae":"X","wings":"2","pattern":"X","legs":"M"},"bonus":0.30000000000000127},{"rt":2885,"stimulus":"bees-with-color/bee-A2DM.svg","response":1,"trial_type":"image-button-response","trial_index":115,"time_elapsed":902533,"internal_node_id":"0.0-4.0-0.54","subject_id":"612dd61bef19007cf7891e19","study_id":"6197b3f67c2b5cd3b6d9596a","session_id":"6197b88fe66e9b0083ae1ca1","condition":"contingent","relevant_dimensions":["wings","legs"],"bee_group":{"antennae":"X","wings":"2","pattern":"X","legs":"M"},"action":"avoid","summary":"good-avoid","bonus":0.30000000000000127},{"rt":1748,"stimulus":"\n                    <p><b>Action: <em>avoid</em></b></p>\n                    <p>This is the bee that you just saw.</p>\n                    <img src=\"bees-with-color/bee-A2DM.svg\" width=\"200\">\n                    <p><br>Your bonus pay is unchanged, and remains at $0.66.</p>\n            ","response":0,"trial_type":"html-button-response","trial_index":116,"time_elapsed":904284,"internal_node_id":"0.0-4.0-1.54","subject_id":"612dd61bef19007cf7891e19","study_id":"6197b3f67c2b5cd3b6d9596a","session_id":"6197b88fe66e9b0083ae1ca1","condition":"contingent","relevant_dimensions":["wings","legs"],"bee_group":{"antennae":"X","wings":"2","pattern":"X","legs":"M"},"bonus":0.30000000000000127},{"rt":1520,"stimulus":"bees-with-color/bee-A1DF.svg","response":0,"trial_type":"image-button-response","trial_index":117,"time_elapsed":905807,"internal_node_id":"0.0-4.0-0.55","subject_id":"612dd61bef19007cf7891e19","study_id":"6197b3f67c2b5cd3b6d9596a","session_id":"6197b88fe66e9b0083ae1ca1","condition":"contingent","relevant_dimensions":["wings","legs"],"bee_group":{"antennae":"X","wings":"2","pattern":"X","legs":"M"},"action":"harvest","summary":"good-harvest","bonus":0.30000000000000127},{"rt":1431,"stimulus":"\n                    <p><b>Action: <em>harvest</em></b></p>\n                    <p>This is the bee that you just saw.</p>\n                    <img src=\"bees-with-color/bee-A1DF.svg\" width=\"200\">\n                    <p><span class=\"greenText\"><b>Successful harvest!</b></span><br>Your pay has increased by $0.02. Your bonus pay is now $0.68.</p>\n            ","response":0,"trial_type":"html-button-response","trial_index":118,"time_elapsed":907240,"internal_node_id":"0.0-4.0-1.55","subject_id":"612dd61bef19007cf7891e19","study_id":"6197b3f67c2b5cd3b6d9596a","session_id":"6197b88fe66e9b0083ae1ca1","condition":"contingent","relevant_dimensions":["wings","legs"],"bee_group":{"antennae":"X","wings":"2","pattern":"X","legs":"M"},"bonus":0.30000000000000127},{"rt":2130,"stimulus":"bees-with-color/bee-B2SF.svg","response":0,"trial_type":"image-button-response","trial_index":119,"time_elapsed":909372,"internal_node_id":"0.0-4.0-0.56","subject_id":"612dd61bef19007cf7891e19","study_id":"6197b3f67c2b5cd3b6d9596a","session_id":"6197b88fe66e9b0083ae1ca1","condition":"contingent","relevant_dimensions":["wings","legs"],"bee_group":{"antennae":"X","wings":"2","pattern":"X","legs":"M"},"action":"harvest","summary":"good-harvest","bonus":0.30000000000000127},{"rt":1181,"stimulus":"\n                    <p><b>Action: <em>harvest</em></b></p>\n                    <p>This is the bee that you just saw.</p>\n                    <img src=\"bees-with-color/bee-B2SF.svg\" width=\"200\">\n                    <p><span class=\"greenText\"><b>Successful harvest!</b></span><br>Your pay has increased by $0.02. Your bonus pay is now $0.70.</p>\n            ","response":0,"trial_type":"html-button-response","trial_index":120,"time_elapsed":910556,"internal_node_id":"0.0-4.0-1.56","subject_id":"612dd61bef19007cf7891e19","study_id":"6197b3f67c2b5cd3b6d9596a","session_id":"6197b88fe66e9b0083ae1ca1","condition":"contingent","relevant_dimensions":["wings","legs"],"bee_group":{"antennae":"X","wings":"2","pattern":"X","legs":"M"},"bonus":0.30000000000000127},{"rt":2021,"stimulus":"bees-with-color/bee-A1DM.svg","response":1,"trial_type":"image-button-response","trial_index":121,"time_elapsed":912580,"internal_node_id":"0.0-4.0-0.57","subject_id":"612dd61bef19007cf7891e19","study_id":"6197b3f67c2b5cd3b6d9596a","session_id":"6197b88fe66e9b0083ae1ca1","condition":"contingent","relevant_dimensions":["wings","legs"],"bee_group":{"antennae":"X","wings":"2","pattern":"X","legs":"M"},"action":"avoid","summary":"bad-avoid","bonus":0.30000000000000127},{"rt":1522,"stimulus":"\n                    <p><b>Action: <em>avoid</em></b></p>\n                    <p>This is the bee that you just saw.</p>\n                    <img src=\"bees-with-color/bee-A1DM.svg\" width=\"200\">\n                    <p><br>Your bonus pay is unchanged, and remains at $0.70.</p>\n            ","response":0,"trial_type":"html-button-response","trial_index":122,"time_elapsed":914104,"internal_node_id":"0.0-4.0-1.57","subject_id":"612dd61bef19007cf7891e19","study_id":"6197b3f67c2b5cd3b6d9596a","session_id":"6197b88fe66e9b0083ae1ca1","condition":"contingent","relevant_dimensions":["wings","legs"],"bee_group":{"antennae":"X","wings":"2","pattern":"X","legs":"M"},"bonus":0.30000000000000127},{"rt":1375,"stimulus":"bees-with-color/bee-B1DF.svg","response":0,"trial_type":"image-button-response","trial_index":123,"time_elapsed":915481,"internal_node_id":"0.0-4.0-0.58","subject_id":"612dd61bef19007cf7891e19","study_id":"6197b3f67c2b5cd3b6d9596a","session_id":"6197b88fe66e9b0083ae1ca1","condition":"contingent","relevant_dimensions":["wings","legs"],"bee_group":{"antennae":"X","wings":"2","pattern":"X","legs":"M"},"action":"harvest","summary":"good-harvest","bonus":0.30000000000000127},{"rt":1481,"stimulus":"\n                    <p><b>Action: <em>harvest</em></b></p>\n                    <p>This is the bee that you just saw.</p>\n                    <img src=\"bees-with-color/bee-B1DF.svg\" width=\"200\">\n                    <p><span class=\"greenText\"><b>Successful harvest!</b></span><br>Your pay has increased by $0.02. Your bonus pay is now $0.72.</p>\n            ","response":0,"trial_type":"html-button-response","trial_index":124,"time_elapsed":916965,"internal_node_id":"0.0-4.0-1.58","subject_id":"612dd61bef19007cf7891e19","study_id":"6197b3f67c2b5cd3b6d9596a","session_id":"6197b88fe66e9b0083ae1ca1","condition":"contingent","relevant_dimensions":["wings","legs"],"bee_group":{"antennae":"X","wings":"2","pattern":"X","legs":"M"},"bonus":0.30000000000000127},{"rt":5431,"stimulus":"bees-with-color/bee-A2DF.svg","response":0,"trial_type":"image-button-response","trial_index":125,"time_elapsed":922399,"internal_node_id":"0.0-4.0-0.59","subject_id":"612dd61bef19007cf7891e19","study_id":"6197b3f67c2b5cd3b6d9596a","session_id":"6197b88fe66e9b0083ae1ca1","condition":"contingent","relevant_dimensions":["wings","legs"],"bee_group":{"antennae":"X","wings":"2","pattern":"X","legs":"M"},"action":"harvest","summary":"good-harvest","bonus":0.30000000000000127},{"rt":2193,"stimulus":"\n                    <p><b>Action: <em>harvest</em></b></p>\n                    <p>This is the bee that you just saw.</p>\n                    <img src=\"bees-with-color/bee-A2DF.svg\" width=\"200\">\n                    <p><span class=\"greenText\"><b>Successful harvest!</b></span><br>Your pay has increased by $0.02. Your bonus pay is now $0.74.</p>\n            ","response":0,"trial_type":"html-button-response","trial_index":126,"time_elapsed":924595,"internal_node_id":"0.0-4.0-1.59","subject_id":"612dd61bef19007cf7891e19","study_id":"6197b3f67c2b5cd3b6d9596a","session_id":"6197b88fe66e9b0083ae1ca1","condition":"contingent","relevant_dimensions":["wings","legs"],"bee_group":{"antennae":"X","wings":"2","pattern":"X","legs":"M"},"bonus":0.30000000000000127},{"rt":3898,"stimulus":"bees-with-color/bee-B2DM.svg","response":0,"trial_type":"image-button-response","trial_index":127,"time_elapsed":928494,"internal_node_id":"0.0-4.0-0.60","subject_id":"612dd61bef19007cf7891e19","study_id":"6197b3f67c2b5cd3b6d9596a","session_id":"6197b88fe66e9b0083ae1ca1","condition":"contingent","relevant_dimensions":["wings","legs"],"bee_group":{"antennae":"X","wings":"2","pattern":"X","legs":"M"},"action":"harvest","summary":"bad-harvest","bonus":0.30000000000000127},{"rt":2350,"stimulus":"\n                    <p><b>Action: <em>harvest</em></b></p>\n                    <p>This is the bee that you just saw.</p>\n                    <img src=\"bees-with-color/bee-B2DM.svg\" width=\"200\">\n                    <p><span class=\"redText\">Bad choice, the bee was angry.</span><br><b>You have been stung!</b><br>Your pay has been decreased by $0.10. Your bonus pay is now $0.64.</p>\n            ","response":0,"trial_type":"html-button-response","trial_index":128,"time_elapsed":930846,"internal_node_id":"0.0-4.0-1.60","subject_id":"612dd61bef19007cf7891e19","study_id":"6197b3f67c2b5cd3b6d9596a","session_id":"6197b88fe66e9b0083ae1ca1","condition":"contingent","relevant_dimensions":["wings","legs"],"bee_group":{"antennae":"X","wings":"2","pattern":"X","legs":"M"},"bonus":0.30000000000000127},{"rt":1552,"stimulus":"bees-with-color/bee-A1SF.svg","response":0,"trial_type":"image-button-response","trial_index":129,"time_elapsed":932402,"internal_node_id":"0.0-4.0-0.61","subject_id":"612dd61bef19007cf7891e19","study_id":"6197b3f67c2b5cd3b6d9596a","session_id":"6197b88fe66e9b0083ae1ca1","condition":"contingent","relevant_dimensions":["wings","legs"],"bee_group":{"antennae":"X","wings":"2","pattern":"X","legs":"M"},"action":"harvest","summary":"good-harvest","bonus":0.30000000000000127},{"rt":1614,"stimulus":"\n                    <p><b>Action: <em>harvest</em></b></p>\n                    <p>This is the bee that you just saw.</p>\n                    <img src=\"bees-with-color/bee-A1SF.svg\" width=\"200\">\n                    <p><span class=\"greenText\"><b>Successful harvest!</b></span><br>Your pay has increased by $0.02. Your bonus pay is now $0.66.</p>\n            ","response":0,"trial_type":"html-button-response","trial_index":130,"time_elapsed":934019,"internal_node_id":"0.0-4.0-1.61","subject_id":"612dd61bef19007cf7891e19","study_id":"6197b3f67c2b5cd3b6d9596a","session_id":"6197b88fe66e9b0083ae1ca1","condition":"contingent","relevant_dimensions":["wings","legs"],"bee_group":{"antennae":"X","wings":"2","pattern":"X","legs":"M"},"bonus":0.30000000000000127},{"rt":2029,"stimulus":"bees-with-color/bee-A2SF.svg","response":1,"trial_type":"image-button-response","trial_index":131,"time_elapsed":936051,"internal_node_id":"0.0-4.0-0.62","subject_id":"612dd61bef19007cf7891e19","study_id":"6197b3f67c2b5cd3b6d9596a","session_id":"6197b88fe66e9b0083ae1ca1","condition":"contingent","relevant_dimensions":["wings","legs"],"bee_group":{"antennae":"X","wings":"2","pattern":"X","legs":"M"},"action":"avoid","summary":"bad-avoid","bonus":0.30000000000000127},{"rt":1498,"stimulus":"\n                    <p><b>Action: <em>avoid</em></b></p>\n                    <p>This is the bee that you just saw.</p>\n                    <img src=\"bees-with-color/bee-A2SF.svg\" width=\"200\">\n                    <p><br>Your bonus pay is unchanged, and remains at $0.66.</p>\n            ","response":0,"trial_type":"html-button-response","trial_index":132,"time_elapsed":937553,"internal_node_id":"0.0-4.0-1.62","subject_id":"612dd61bef19007cf7891e19","study_id":"6197b3f67c2b5cd3b6d9596a","session_id":"6197b88fe66e9b0083ae1ca1","condition":"contingent","relevant_dimensions":["wings","legs"],"bee_group":{"antennae":"X","wings":"2","pattern":"X","legs":"M"},"bonus":0.30000000000000127},{"rt":1934,"stimulus":"bees-with-color/bee-B2SM.svg","response":0,"trial_type":"image-button-response","trial_index":133,"time_elapsed":939490,"internal_node_id":"0.0-4.0-0.63","subject_id":"612dd61bef19007cf7891e19","study_id":"6197b3f67c2b5cd3b6d9596a","session_id":"6197b88fe66e9b0083ae1ca1","condition":"contingent","relevant_dimensions":["wings","legs"],"bee_group":{"antennae":"X","wings":"2","pattern":"X","legs":"M"},"action":"harvest","summary":"bad-harvest","bonus":0.30000000000000127},{"rt":1687,"stimulus":"\n                    <p><b>Action: <em>harvest</em></b></p>\n                    <p>This is the bee that you just saw.</p>\n                    <img src=\"bees-with-color/bee-B2SM.svg\" width=\"200\">\n                    <p><span class=\"redText\">Bad choice, the bee was angry.</span><br><b>You have been stung!</b><br>Your pay has been decreased by $0.10. Your bonus pay is now $0.56.</p>\n            ","response":0,"trial_type":"html-button-response","trial_index":134,"time_elapsed":941179,"internal_node_id":"0.0-4.0-1.63","subject_id":"612dd61bef19007cf7891e19","study_id":"6197b3f67c2b5cd3b6d9596a","session_id":"6197b88fe66e9b0083ae1ca1","condition":"contingent","relevant_dimensions":["wings","legs"],"bee_group":{"antennae":"X","wings":"2","pattern":"X","legs":"M"},"bonus":0.30000000000000127},{"rt":4124,"stimulus":"You have completed the first part of this experiment.<br><br>You will now begin a shorter second part, in which you will receive no feedback.<br>The same rules regarding bonus pay apply.<br><br>Press any key to begin.","response":" ","trial_type":"html-keyboard-response","trial_index":135,"time_elapsed":945306,"internal_node_id":"0.0-5.0","subject_id":"612dd61bef19007cf7891e19","study_id":"6197b3f67c2b5cd3b6d9596a","session_id":"6197b88fe66e9b0083ae1ca1","condition":"contingent","relevant_dimensions":["wings","legs"],"bee_group":{"antennae":"X","wings":"2","pattern":"X","legs":"M"},"bonus":0.30000000000000127},{"rt":4814,"stimulus":"bees-with-color/bee-B1SF.svg","response":0,"trial_type":"image-button-response","trial_index":136,"time_elapsed":950122,"internal_node_id":"0.0-6.0-0.0","subject_id":"612dd61bef19007cf7891e19","study_id":"6197b3f67c2b5cd3b6d9596a","session_id":"6197b88fe66e9b0083ae1ca1","condition":"contingent","relevant_dimensions":["wings","legs"],"bee_group":{"antennae":"X","wings":"2","pattern":"X","legs":"M"},"bonus":0.30000000000000127},{"rt":2116,"stimulus":"bees-with-color/bee-B2DM.svg","response":0,"trial_type":"image-button-response","trial_index":137,"time_elapsed":952242,"internal_node_id":"0.0-6.0-0.1","subject_id":"612dd61bef19007cf7891e19","study_id":"6197b3f67c2b5cd3b6d9596a","session_id":"6197b88fe66e9b0083ae1ca1","condition":"contingent","relevant_dimensions":["wings","legs"],"bee_group":{"antennae":"X","wings":"2","pattern":"X","legs":"M"},"bonus":0.30000000000000127},{"rt":6720,"stimulus":"bees-with-color/bee-B1DF.svg","response":0,"trial_type":"image-button-response","trial_index":138,"time_elapsed":958965,"internal_node_id":"0.0-6.0-0.2","subject_id":"612dd61bef19007cf7891e19","study_id":"6197b3f67c2b5cd3b6d9596a","session_id":"6197b88fe66e9b0083ae1ca1","condition":"contingent","relevant_dimensions":["wings","legs"],"bee_group":{"antennae":"X","wings":"2","pattern":"X","legs":"M"},"bonus":0.30000000000000127},{"rt":3500,"stimulus":"bees-with-color/bee-A1DF.svg","response":0,"trial_type":"image-button-response","trial_index":139,"time_elapsed":962469,"internal_node_id":"0.0-6.0-0.3","subject_id":"612dd61bef19007cf7891e19","study_id":"6197b3f67c2b5cd3b6d9596a","session_id":"6197b88fe66e9b0083ae1ca1","condition":"contingent","relevant_dimensions":["wings","legs"],"bee_group":{"antennae":"X","wings":"2","pattern":"X","legs":"M"},"bonus":0.30000000000000127},{"rt":3259,"stimulus":"bees-with-color/bee-A2SF.svg","response":1,"trial_type":"image-button-response","trial_index":140,"time_elapsed":965731,"internal_node_id":"0.0-6.0-0.4","subject_id":"612dd61bef19007cf7891e19","study_id":"6197b3f67c2b5cd3b6d9596a","session_id":"6197b88fe66e9b0083ae1ca1","condition":"contingent","relevant_dimensions":["wings","legs"],"bee_group":{"antennae":"X","wings":"2","pattern":"X","legs":"M"},"bonus":0.30000000000000127},{"rt":2871,"stimulus":"bees-with-color/bee-B2DF.svg","response":1,"trial_type":"image-button-response","trial_index":141,"time_elapsed":968605,"internal_node_id":"0.0-6.0-0.5","subject_id":"612dd61bef19007cf7891e19","study_id":"6197b3f67c2b5cd3b6d9596a","session_id":"6197b88fe66e9b0083ae1ca1","condition":"contingent","relevant_dimensions":["wings","legs"],"bee_group":{"antennae":"X","wings":"2","pattern":"X","legs":"M"},"bonus":0.30000000000000127},{"rt":2009,"stimulus":"bees-with-color/bee-A2DM.svg","response":0,"trial_type":"image-button-response","trial_index":142,"time_elapsed":970618,"internal_node_id":"0.0-6.0-0.6","subject_id":"612dd61bef19007cf7891e19","study_id":"6197b3f67c2b5cd3b6d9596a","session_id":"6197b88fe66e9b0083ae1ca1","condition":"contingent","relevant_dimensions":["wings","legs"],"bee_group":{"antennae":"X","wings":"2","pattern":"X","legs":"M"},"bonus":0.30000000000000127},{"rt":1946,"stimulus":"bees-with-color/bee-A1SF.svg","response":1,"trial_type":"image-button-response","trial_index":143,"time_elapsed":972566,"internal_node_id":"0.0-6.0-0.7","subject_id":"612dd61bef19007cf7891e19","study_id":"6197b3f67c2b5cd3b6d9596a","session_id":"6197b88fe66e9b0083ae1ca1","condition":"contingent","relevant_dimensions":["wings","legs"],"bee_group":{"antennae":"X","wings":"2","pattern":"X","legs":"M"},"bonus":0.30000000000000127},{"rt":1494,"stimulus":"bees-with-color/bee-A2SM.svg","response":1,"trial_type":"image-button-response","trial_index":144,"time_elapsed":974064,"internal_node_id":"0.0-6.0-0.8","subject_id":"612dd61bef19007cf7891e19","study_id":"6197b3f67c2b5cd3b6d9596a","session_id":"6197b88fe66e9b0083ae1ca1","condition":"contingent","relevant_dimensions":["wings","legs"],"bee_group":{"antennae":"X","wings":"2","pattern":"X","legs":"M"},"bonus":0.30000000000000127},{"rt":183,"stimulus":"bees-with-color/bee-A2DF.svg","response":1,"trial_type":"image-button-response","trial_index":145,"time_elapsed":974250,"internal_node_id":"0.0-6.0-0.9","subject_id":"612dd61bef19007cf7891e19","study_id":"6197b3f67c2b5cd3b6d9596a","session_id":"6197b88fe66e9b0083ae1ca1","condition":"contingent","relevant_dimensions":["wings","legs"],"bee_group":{"antennae":"X","wings":"2","pattern":"X","legs":"M"},"bonus":0.30000000000000127},{"rt":1526,"stimulus":"bees-with-color/bee-A1DM.svg","response":0,"trial_type":"image-button-response","trial_index":146,"time_elapsed":975779,"internal_node_id":"0.0-6.0-0.10","subject_id":"612dd61bef19007cf7891e19","study_id":"6197b3f67c2b5cd3b6d9596a","session_id":"6197b88fe66e9b0083ae1ca1","condition":"contingent","relevant_dimensions":["wings","legs"],"bee_group":{"antennae":"X","wings":"2","pattern":"X","legs":"M"},"bonus":0.30000000000000127},{"rt":1289,"stimulus":"bees-with-color/bee-B2SF.svg","response":0,"trial_type":"image-button-response","trial_index":147,"time_elapsed":977072,"internal_node_id":"0.0-6.0-0.11","subject_id":"612dd61bef19007cf7891e19","study_id":"6197b3f67c2b5cd3b6d9596a","session_id":"6197b88fe66e9b0083ae1ca1","condition":"contingent","relevant_dimensions":["wings","legs"],"bee_group":{"antennae":"X","wings":"2","pattern":"X","legs":"M"},"bonus":0.30000000000000127},{"rt":1443,"stimulus":"bees-with-color/bee-B1DM.svg","response":1,"trial_type":"image-button-response","trial_index":148,"time_elapsed":978517,"internal_node_id":"0.0-6.0-0.12","subject_id":"612dd61bef19007cf7891e19","study_id":"6197b3f67c2b5cd3b6d9596a","session_id":"6197b88fe66e9b0083ae1ca1","condition":"contingent","relevant_dimensions":["wings","legs"],"bee_group":{"antennae":"X","wings":"2","pattern":"X","legs":"M"},"bonus":0.30000000000000127},{"rt":1993,"stimulus":"bees-with-color/bee-A1SM.svg","response":0,"trial_type":"image-button-response","trial_index":149,"time_elapsed":980514,"internal_node_id":"0.0-6.0-0.13","subject_id":"612dd61bef19007cf7891e19","study_id":"6197b3f67c2b5cd3b6d9596a","session_id":"6197b88fe66e9b0083ae1ca1","condition":"contingent","relevant_dimensions":["wings","legs"],"bee_group":{"antennae":"X","wings":"2","pattern":"X","legs":"M"},"bonus":0.30000000000000127},{"rt":932,"stimulus":"bees-with-color/bee-B1SM.svg","response":0,"trial_type":"image-button-response","trial_index":150,"time_elapsed":981449,"internal_node_id":"0.0-6.0-0.14","subject_id":"612dd61bef19007cf7891e19","study_id":"6197b3f67c2b5cd3b6d9596a","session_id":"6197b88fe66e9b0083ae1ca1","condition":"contingent","relevant_dimensions":["wings","legs"],"bee_group":{"antennae":"X","wings":"2","pattern":"X","legs":"M"},"bonus":0.30000000000000127},{"rt":971,"stimulus":"bees-with-color/bee-B2SM.svg","response":0,"trial_type":"image-button-response","trial_index":151,"time_elapsed":982422,"internal_node_id":"0.0-6.0-0.15","subject_id":"612dd61bef19007cf7891e19","study_id":"6197b3f67c2b5cd3b6d9596a","session_id":"6197b88fe66e9b0083ae1ca1","condition":"contingent","relevant_dimensions":["wings","legs"],"bee_group":{"antennae":"X","wings":"2","pattern":"X","legs":"M"},"bonus":0.30000000000000127},{"rt":1137,"stimulus":"bees-with-color/bee-B2DM.svg","response":1,"trial_type":"image-button-response","trial_index":152,"time_elapsed":983563,"internal_node_id":"0.0-6.0-0.16","subject_id":"612dd61bef19007cf7891e19","study_id":"6197b3f67c2b5cd3b6d9596a","session_id":"6197b88fe66e9b0083ae1ca1","condition":"contingent","relevant_dimensions":["wings","legs"],"bee_group":{"antennae":"X","wings":"2","pattern":"X","legs":"M"},"bonus":0.30000000000000127},{"rt":1401,"stimulus":"bees-with-color/bee-B1SF.svg","response":1,"trial_type":"image-button-response","trial_index":153,"time_elapsed":984967,"internal_node_id":"0.0-6.0-0.17","subject_id":"612dd61bef19007cf7891e19","study_id":"6197b3f67c2b5cd3b6d9596a","session_id":"6197b88fe66e9b0083ae1ca1","condition":"contingent","relevant_dimensions":["wings","legs"],"bee_group":{"antennae":"X","wings":"2","pattern":"X","legs":"M"},"bonus":0.30000000000000127},{"rt":1635,"stimulus":"bees-with-color/bee-B1SM.svg","response":1,"trial_type":"image-button-response","trial_index":154,"time_elapsed":986605,"internal_node_id":"0.0-6.0-0.18","subject_id":"612dd61bef19007cf7891e19","study_id":"6197b3f67c2b5cd3b6d9596a","session_id":"6197b88fe66e9b0083ae1ca1","condition":"contingent","relevant_dimensions":["wings","legs"],"bee_group":{"antennae":"X","wings":"2","pattern":"X","legs":"M"},"bonus":0.30000000000000127},{"rt":1399,"stimulus":"bees-with-color/bee-B2DF.svg","response":0,"trial_type":"image-button-response","trial_index":155,"time_elapsed":988007,"internal_node_id":"0.0-6.0-0.19","subject_id":"612dd61bef19007cf7891e19","study_id":"6197b3f67c2b5cd3b6d9596a","session_id":"6197b88fe66e9b0083ae1ca1","condition":"contingent","relevant_dimensions":["wings","legs"],"bee_group":{"antennae":"X","wings":"2","pattern":"X","legs":"M"},"bonus":0.30000000000000127},{"rt":1509,"stimulus":"bees-with-color/bee-A1DM.svg","response":1,"trial_type":"image-button-response","trial_index":156,"time_elapsed":989518,"internal_node_id":"0.0-6.0-0.20","subject_id":"612dd61bef19007cf7891e19","study_id":"6197b3f67c2b5cd3b6d9596a","session_id":"6197b88fe66e9b0083ae1ca1","condition":"contingent","relevant_dimensions":["wings","legs"],"bee_group":{"antennae":"X","wings":"2","pattern":"X","legs":"M"},"bonus":0.30000000000000127},{"rt":1564,"stimulus":"bees-with-color/bee-A2DM.svg","response":0,"trial_type":"image-button-response","trial_index":157,"time_elapsed":991085,"internal_node_id":"0.0-6.0-0.21","subject_id":"612dd61bef19007cf7891e19","study_id":"6197b3f67c2b5cd3b6d9596a","session_id":"6197b88fe66e9b0083ae1ca1","condition":"contingent","relevant_dimensions":["wings","legs"],"bee_group":{"antennae":"X","wings":"2","pattern":"X","legs":"M"},"bonus":0.30000000000000127},{"rt":874,"stimulus":"bees-with-color/bee-B1DF.svg","response":0,"trial_type":"image-button-response","trial_index":158,"time_elapsed":991962,"internal_node_id":"0.0-6.0-0.22","subject_id":"612dd61bef19007cf7891e19","study_id":"6197b3f67c2b5cd3b6d9596a","session_id":"6197b88fe66e9b0083ae1ca1","condition":"contingent","relevant_dimensions":["wings","legs"],"bee_group":{"antennae":"X","wings":"2","pattern":"X","legs":"M"},"bonus":0.30000000000000127},{"rt":1006,"stimulus":"bees-with-color/bee-A1DF.svg","response":0,"trial_type":"image-button-response","trial_index":159,"time_elapsed":992970,"internal_node_id":"0.0-6.0-0.23","subject_id":"612dd61bef19007cf7891e19","study_id":"6197b3f67c2b5cd3b6d9596a","session_id":"6197b88fe66e9b0083ae1ca1","condition":"contingent","relevant_dimensions":["wings","legs"],"bee_group":{"antennae":"X","wings":"2","pattern":"X","legs":"M"},"bonus":0.30000000000000127},{"rt":2594,"stimulus":"bees-with-color/bee-B2SF.svg","response":1,"trial_type":"image-button-response","trial_index":160,"time_elapsed":995567,"internal_node_id":"0.0-6.0-0.24","subject_id":"612dd61bef19007cf7891e19","study_id":"6197b3f67c2b5cd3b6d9596a","session_id":"6197b88fe66e9b0083ae1ca1","condition":"contingent","relevant_dimensions":["wings","legs"],"bee_group":{"antennae":"X","wings":"2","pattern":"X","legs":"M"},"bonus":0.30000000000000127},{"rt":1907,"stimulus":"bees-with-color/bee-A1SM.svg","response":1,"trial_type":"image-button-response","trial_index":161,"time_elapsed":997476,"internal_node_id":"0.0-6.0-0.25","subject_id":"612dd61bef19007cf7891e19","study_id":"6197b3f67c2b5cd3b6d9596a","session_id":"6197b88fe66e9b0083ae1ca1","condition":"contingent","relevant_dimensions":["wings","legs"],"bee_group":{"antennae":"X","wings":"2","pattern":"X","legs":"M"},"bonus":0.30000000000000127},{"rt":1324,"stimulus":"bees-with-color/bee-A2SF.svg","response":0,"trial_type":"image-button-response","trial_index":162,"time_elapsed":998803,"internal_node_id":"0.0-6.0-0.26","subject_id":"612dd61bef19007cf7891e19","study_id":"6197b3f67c2b5cd3b6d9596a","session_id":"6197b88fe66e9b0083ae1ca1","condition":"contingent","relevant_dimensions":["wings","legs"],"bee_group":{"antennae":"X","wings":"2","pattern":"X","legs":"M"},"bonus":0.30000000000000127},{"rt":1470,"stimulus":"bees-with-color/bee-A2SM.svg","response":0,"trial_type":"image-button-response","trial_index":163,"time_elapsed":1000277,"internal_node_id":"0.0-6.0-0.27","subject_id":"612dd61bef19007cf7891e19","study_id":"6197b3f67c2b5cd3b6d9596a","session_id":"6197b88fe66e9b0083ae1ca1","condition":"contingent","relevant_dimensions":["wings","legs"],"bee_group":{"antennae":"X","wings":"2","pattern":"X","legs":"M"},"bonus":0.30000000000000127},{"rt":1191,"stimulus":"bees-with-color/bee-A2DF.svg","response":1,"trial_type":"image-button-response","trial_index":164,"time_elapsed":1001471,"internal_node_id":"0.0-6.0-0.28","subject_id":"612dd61bef19007cf7891e19","study_id":"6197b3f67c2b5cd3b6d9596a","session_id":"6197b88fe66e9b0083ae1ca1","condition":"contingent","relevant_dimensions":["wings","legs"],"bee_group":{"antennae":"X","wings":"2","pattern":"X","legs":"M"},"bonus":0.300000000000001