[{"success":true,"trial_type":"fullscreen","trial_index":0,"time_elapsed":24753,"internal_node_id":"0.0-0.0","subject_id":"60412132066b2905a0e0ae65","study_id":"60edd13110225f80f9f3709b","session_id":"6196ba7f6ad6b4d6969eb2c7","condition":"full-information","relevant_dimensions":["antennae","legs"],"bee_group":{"antennae":"B","wings":"X","pattern":"X","legs":"F"},"bonus":1.4000000000000012},{"success":true,"timeout":false,"failed_images":[],"failed_audio":[],"failed_video":[],"trial_type":"preload","trial_index":1,"time_elapsed":27008,"internal_node_id":"0.0-1.0","subject_id":"60412132066b2905a0e0ae65","study_id":"60edd13110225f80f9f3709b","session_id":"6196ba7f6ad6b4d6969eb2c7","condition":"full-information","relevant_dimensions":["antennae","legs"],"bee_group":{"antennae":"B","wings":"X","pattern":"X","legs":"F"},"bonus":1.4000000000000012},{"rt":3671.7999999523163,"stimulus":"Welcome! Press any key to begin.","response":" ","trial_type":"html-keyboard-response","trial_index":2,"time_elapsed":30680,"internal_node_id":"0.0-2.0","subject_id":"60412132066b2905a0e0ae65","study_id":"60edd13110225f80f9f3709b","session_id":"6196ba7f6ad6b4d6969eb2c7","condition":"full-information","relevant_dimensions":["antennae","legs"],"bee_group":{"antennae":"B","wings":"X","pattern":"X","legs":"F"},"bonus":1.4000000000000012},{"view_history":[{"page_index":0,"viewing_time":4312.399999976158},{"page_index":1,"viewing_time":128032.40000009537},{"page_index":2,"viewing_time":34456.299999952316},{"page_index":3,"viewing_time":18607.100000023842},{"page_index":4,"viewing_time":5423.899999976158},{"page_index":5,"viewing_time":9107.5},{"page_index":6,"viewing_time":11153.299999952316},{"page_index":7,"viewing_time":19023},{"page_index":8,"viewing_time":2123.2000000476837},{"page_index":7,"viewing_time":731.7999999523163},{"page_index":8,"viewing_time":4441.100000023842},{"page_index":9,"viewing_time":3961.100000023842},{"page_index":10,"viewing_time":3279.600000023842},{"page_index":11,"viewing_time":9572.299999952316},{"page_index":12,"viewing_time":6598.899999976158},{"page_index":13,"viewing_time":1048},{"page_index":14,"viewing_time":1613.1000000238419}],"rt":263485.3000000715,"trial_type":"instructions","trial_index":3,"time_elapsed":294165,"internal_node_id":"0.0-3.0-0.0","subject_id":"60412132066b2905a0e0ae65","study_id":"60edd13110225f80f9f3709b","session_id":"6196ba7f6ad6b4d6969eb2c7","condition":"full-information","relevant_dimensions":["antennae","legs"],"bee_group":{"antennae":"B","wings":"X","pattern":"X","legs":"F"},"bonus":1.4000000000000012},{"rt":11624.5,"response":{"Q0":["Two or six legs","Stripes or spots on body","Single or double wings","Antennae or no antennae"]},"question_order":[0],"trial_type":"survey-multi-select","trial_index":4,"time_elapsed":305794,"internal_node_id":"0.0-3.0-1.0","subject_id":"60412132066b2905a0e0ae65","study_id":"60edd13110225f80f9f3709b","session_id":"6196ba7f6ad6b4d6969eb2c7","condition":"full-information","relevant_dimensions":["antennae","legs"],"bee_group":{"antennae":"B","wings":"X","pattern":"X","legs":"F"},"correct":true,"bonus":1.4000000000000012},{"rt":19556.200000047684,"response":{"Q1":"No.","Q2":"Based on the four features of the bee.","Q3":"You learn if it was friendly or dangerous, but do not alter your bonus."},"question_order":[0,1,2],"trial_type":"survey-multi-choice","trial_index":5,"time_elapsed":325353,"internal_node_id":"0.0-3.0-2.0","subject_id":"60412132066b2905a0e0ae65","study_id":"60edd13110225f80f9f3709b","session_id":"6196ba7f6ad6b4d6969eb2c7","condition":"full-information","relevant_dimensions":["antennae","legs"],"bee_group":{"antennae":"B","wings":"X","pattern":"X","legs":"F"},"correct":true,"bonus":1.4000000000000012},{"rt":2585.5,"stimulus":"<p>Congrats, you got everything right<br>When you're ready, click the button below to continue to the experiment.</p>","response":0,"trial_type":"html-button-response","trial_index":6,"time_elapsed":327942,"internal_node_id":"0.0-3.0-3.0","subject_id":"60412132066b2905a0e0ae65","study_id":"60edd13110225f80f9f3709b","session_id":"6196ba7f6ad6b4d6969eb2c7","condition":"full-information","relevant_dimensions":["antennae","legs"],"bee_group":{"antennae":"B","wings":"X","pattern":"X","legs":"F"},"bonus":1.4000000000000012},{"rt":6541.800000071526,"stimulus":"bees-with-color/bee-B2DF.svg","response":1,"trial_type":"image-button-response","trial_index":7,"time_elapsed":334485,"internal_node_id":"0.0-4.0-0.0","subject_id":"60412132066b2905a0e0ae65","study_id":"60edd13110225f80f9f3709b","session_id":"6196ba7f6ad6b4d6969eb2c7","condition":"full-information","relevant_dimensions":["antennae","legs"],"bee_group":{"antennae":"B","wings":"X","pattern":"X","legs":"F"},"action":"avoid","summary":"good-avoid","bonus":1.4000000000000012},{"rt":20316.5,"stimulus":"\n                    <p><b>Action: <em>avoid</em></b></p>\n                    <p>This is the bee that you just saw.</p>\n                    <img src=\"bees-with-color/bee-B2DF.svg\" width=\"200\">\n                    <p><span class=\"greenText\">Good choice!</span>  This bee would have stung you.<br>Your bonus pay is unchanged, and remains at $0.54.</p>\n            ","response":0,"trial_type":"html-button-response","trial_index":8,"time_elapsed":354804,"internal_node_id":"0.0-4.0-1.0","subject_id":"60412132066b2905a0e0ae65","study_id":"60edd13110225f80f9f3709b","session_id":"6196ba7f6ad6b4d6969eb2c7","condition":"full-information","relevant_dimensions":["antennae","legs"],"bee_group":{"antennae":"B","wings":"X","pattern":"X","legs":"F"},"bonus":1.4000000000000012},{"rt":4124.5,"stimulus":"bees-with-color/bee-B2DM.svg","response":1,"trial_type":"image-button-response","trial_index":9,"time_elapsed":358930,"internal_node_id":"0.0-4.0-0.1","subject_id":"60412132066b2905a0e0ae65","study_id":"60edd13110225f80f9f3709b","session_id":"6196ba7f6ad6b4d6969eb2c7","condition":"full-information","relevant_dimensions":["antennae","legs"],"bee_group":{"antennae":"B","wings":"X","pattern":"X","legs":"F"},"action":"avoid","summary":"bad-avoid","bonus":1.4000000000000012},{"rt":16929.199999928474,"stimulus":"\n                    <p><b>Action: <em>avoid</em></b></p>\n                    <p>This is the bee that you just saw.</p>\n                    <img src=\"bees-with-color/bee-B2DM.svg\" width=\"200\">\n                    <p><span class=\"redText\">Bad choice,</span> the bee was friendly.<br>Your bonus pay is unchanged, and remains at $0.54.</p>\n            ","response":0,"trial_type":"html-button-response","trial_index":10,"time_elapsed":375860,"internal_node_id":"0.0-4.0-1.1","subject_id":"60412132066b2905a0e0ae65","study_id":"60edd13110225f80f9f3709b","session_id":"6196ba7f6ad6b4d6969eb2c7","condition":"full-information","relevant_dimensions":["antennae","legs"],"bee_group":{"antennae":"B","wings":"X","pattern":"X","legs":"F"},"bonus":1.4000000000000012},{"rt":1547.1000000238419,"stimulus":"bees-with-color/bee-B1DF.svg","response":0,"trial_type":"image-button-response","trial_index":11,"time_elapsed":377408,"internal_node_id":"0.0-4.0-0.2","subject_id":"60412132066b2905a0e0ae65","study_id":"60edd13110225f80f9f3709b","session_id":"6196ba7f6ad6b4d6969eb2c7","condition":"full-information","relevant_dimensions":["antennae","legs"],"bee_group":{"antennae":"B","wings":"X","pattern":"X","legs":"F"},"action":"harvest","summary":"bad-harvest","bonus":1.4000000000000012},{"rt":9838.5,"stimulus":"\n                    <p><b>Action: <em>harvest</em></b></p>\n                    <p>This is the bee that you just saw.</p>\n                    <img src=\"bees-with-color/bee-B1DF.svg\" width=\"200\">\n                    <p><span class=\"redText\">Bad choice, the bee was angry.</span><br><b>You have been stung!</b><br>Your pay has been decreased by $0.10. Your bonus pay is now $0.44.</p>\n            ","response":0,"trial_type":"html-button-response","trial_index":12,"time_elapsed":387247,"internal_node_id":"0.0-4.0-1.2","subject_id":"60412132066b2905a0e0ae65","study_id":"60edd13110225f80f9f3709b","session_id":"6196ba7f6ad6b4d6969eb2c7","condition":"full-information","relevant_dimensions":["antennae","legs"],"bee_group":{"antennae":"B","wings":"X","pattern":"X","legs":"F"},"bonus":1.4000000000000012},{"rt":1482.3999999761581,"stimulus":"bees-with-color/bee-B1SM.svg","response":0,"trial_type":"image-button-response","trial_index":13,"time_elapsed":388731,"internal_node_id":"0.0-4.0-0.3","subject_id":"60412132066b2905a0e0ae65","study_id":"60edd13110225f80f9f3709b","session_id":"6196ba7f6ad6b4d6969eb2c7","condition":"full-information","relevant_dimensions":["antennae","legs"],"bee_group":{"antennae":"B","wings":"X","pattern":"X","legs":"F"},"action":"harvest","summary":"good-harvest","bonus":1.4000000000000012},{"rt":14122.700000047684,"stimulus":"\n                    <p><b>Action: <em>harvest</em></b></p>\n                    <p>This is the bee that you just saw.</p>\n                    <img src=\"bees-with-color/bee-B1SM.svg\" width=\"200\">\n                    <p><span class=\"greenText\"><b>Successful harvest!</b></span><br>Your pay has increased by $0.02. Your bonus pay is now $0.46.</p>\n            ","response":0,"trial_type":"html-button-response","trial_index":14,"time_elapsed":402855,"internal_node_id":"0.0-4.0-1.3","subject_id":"60412132066b2905a0e0ae65","study_id":"60edd13110225f80f9f3709b","session_id":"6196ba7f6ad6b4d6969eb2c7","condition":"full-information","relevant_dimensions":["antennae","legs"],"bee_group":{"antennae":"B","wings":"X","pattern":"X","legs":"F"},"bonus":1.4000000000000012},{"rt":2654.8000000715256,"stimulus":"bees-with-color/bee-A1SF.svg","response":1,"trial_type":"image-button-response","trial_index":15,"time_elapsed":405511,"internal_node_id":"0.0-4.0-0.4","subject_id":"60412132066b2905a0e0ae65","study_id":"60edd13110225f80f9f3709b","session_id":"6196ba7f6ad6b4d6969eb2c7","condition":"full-information","relevant_dimensions":["antennae","legs"],"bee_group":{"antennae":"B","wings":"X","pattern":"X","legs":"F"},"action":"avoid","summary":"bad-avoid","bonus":1.4000000000000012},{"rt":12549.800000071526,"stimulus":"\n                    <p><b>Action: <em>avoid</em></b></p>\n                    <p>This is the bee that you just saw.</p>\n                    <img src=\"bees-with-color/bee-A1SF.svg\" width=\"200\">\n                    <p><span class=\"redText\">Bad choice,</span> the bee was friendly.<br>Your bonus pay is unchanged, and remains at $0.46.</p>\n            ","response":0,"trial_type":"html-button-response","trial_index":16,"time_elapsed":418062,"internal_node_id":"0.0-4.0-1.4","subject_id":"60412132066b2905a0e0ae65","study_id":"60edd13110225f80f9f3709b","session_id":"6196ba7f6ad6b4d6969eb2c7","condition":"full-information","relevant_dimensions":["antennae","legs"],"bee_group":{"antennae":"B","wings":"X","pattern":"X","legs":"F"},"bonus":1.4000000000000012},{"rt":2786.4000000953674,"stimulus":"bees-with-color/bee-A1DM.svg","response":0,"trial_type":"image-button-response","trial_index":17,"time_elapsed":420850,"internal_node_id":"0.0-4.0-0.5","subject_id":"60412132066b2905a0e0ae65","study_id":"60edd13110225f80f9f3709b","session_id":"6196ba7f6ad6b4d6969eb2c7","condition":"full-information","relevant_dimensions":["antennae","legs"],"bee_group":{"antennae":"B","wings":"X","pattern":"X","legs":"F"},"action":"harvest","summary":"good-harvest","bonus":1.4000000000000012},{"rt":18129.600000023842,"stimulus":"\n                    <p><b>Action: <em>harvest</em></b></p>\n                    <p>This is the bee that you just saw.</p>\n                    <img src=\"bees-with-color/bee-A1DM.svg\" width=\"200\">\n                    <p><span class=\"greenText\"><b>Successful harvest!</b></span><br>Your pay has increased by $0.02. Your bonus pay is now $0.48.</p>\n            ","response":0,"trial_type":"html-button-response","trial_index":18,"time_elapsed":438981,"internal_node_id":"0.0-4.0-1.5","subject_id":"60412132066b2905a0e0ae65","study_id":"60edd13110225f80f9f3709b","session_id":"6196ba7f6ad6b4d6969eb2c7","condition":"full-information","relevant_dimensions":["antennae","legs"],"bee_group":{"antennae":"B","wings":"X","pattern":"X","legs":"F"},"bonus":1.4000000000000012},{"rt":5677.200000047684,"stimulus":"bees-with-color/bee-A2SM.svg","response":0,"trial_type":"image-button-response","trial_index":19,"time_elapsed":444659,"internal_node_id":"0.0-4.0-0.6","subject_id":"60412132066b2905a0e0ae65","study_id":"60edd13110225f80f9f3709b","session_id":"6196ba7f6ad6b4d6969eb2c7","condition":"full-information","relevant_dimensions":["antennae","legs"],"bee_group":{"antennae":"B","wings":"X","pattern":"X","legs":"F"},"action":"harvest","summary":"good-harvest","bonus":1.4000000000000012},{"rt":8808.800000071526,"stimulus":"\n                    <p><b>Action: <em>harvest</em></b></p>\n                    <p>This is the bee that you just saw.</p>\n                    <img src=\"bees-with-color/bee-A2SM.svg\" width=\"200\">\n                    <p><span class=\"greenText\"><b>Successful harvest!</b></span><br>Your pay has increased by $0.02. Your bonus pay is now $0.50.</p>\n            ","response":0,"trial_type":"html-button-response","trial_index":20,"time_elapsed":453469,"internal_node_id":"0.0-4.0-1.6","subject_id":"60412132066b2905a0e0ae65","study_id":"60edd13110225f80f9f3709b","session_id":"6196ba7f6ad6b4d6969eb2c7","condition":"full-information","relevant_dimensions":["antennae","legs"],"bee_group":{"antennae":"B","wings":"X","pattern":"X","legs":"F"},"bonus":1.4000000000000012},{"rt":1408.3000000715256,"stimulus":"bees-with-color/bee-B1DM.svg","response":1,"trial_type":"image-button-response","trial_index":21,"time_elapsed":454879,"internal_node_id":"0.0-4.0-0.7","subject_id":"60412132066b2905a0e0ae65","study_id":"60edd13110225f80f9f3709b","session_id":"6196ba7f6ad6b4d6969eb2c7","condition":"full-information","relevant_dimensions":["antennae","legs"],"bee_group":{"antennae":"B","wings":"X","pattern":"X","legs":"F"},"action":"avoid","summary":"bad-avoid","bonus":1.4000000000000012},{"rt":25153.199999928474,"stimulus":"\n                    <p><b>Action: <em>avoid</em></b></p>\n                    <p>This is the bee that you just saw.</p>\n                    <img src=\"bees-with-color/bee-B1DM.svg\" width=\"200\">\n                    <p><span class=\"redText\">Bad choice,</span> the bee was friendly.<br>Your bonus pay is unchanged, and remains at $0.50.</p>\n            ","response":0,"trial_type":"html-button-response","trial_index":22,"time_elapsed":480033,"internal_node_id":"0.0-4.0-1.7","subject_id":"60412132066b2905a0e0ae65","study_id":"60edd13110225f80f9f3709b","session_id":"6196ba7f6ad6b4d6969eb2c7","condition":"full-information","relevant_dimensions":["antennae","legs"],"bee_group":{"antennae":"B","wings":"X","pattern":"X","legs":"F"},"bonus":1.4000000000000012},{"rt":12325.799999952316,"stimulus":"bees-with-color/bee-A1SM.svg","response":0,"trial_type":"image-button-response","trial_index":23,"time_elapsed":492360,"internal_node_id":"0.0-4.0-0.8","subject_id":"60412132066b2905a0e0ae65","study_id":"60edd13110225f80f9f3709b","session_id":"6196ba7f6ad6b4d6969eb2c7","condition":"full-information","relevant_dimensions":["antennae","legs"],"bee_group":{"antennae":"B","wings":"X","pattern":"X","legs":"F"},"action":"harvest","summary":"good-harvest","bonus":1.4000000000000012},{"rt":3984.899999976158,"stimulus":"\n                    <p><b>Action: <em>harvest</em></b></p>\n                    <p>This is the bee that you just saw.</p>\n                    <img src=\"bees-with-color/bee-A1SM.svg\" width=\"200\">\n                    <p><span class=\"greenText\"><b>Successful harvest!</b></span><br>Your pay has increased by $0.02. Your bonus pay is now $0.52.</p>\n            ","response":0,"trial_type":"html-button-response","trial_index":24,"time_elapsed":496346,"internal_node_id":"0.0-4.0-1.8","subject_id":"60412132066b2905a0e0ae65","study_id":"60edd13110225f80f9f3709b","session_id":"6196ba7f6ad6b4d6969eb2c7","condition":"full-information","relevant_dimensions":["antennae","legs"],"bee_group":{"antennae":"B","wings":"X","pattern":"X","legs":"F"},"bonus":1.4000000000000012},{"rt":11890.300000071526,"stimulus":"bees-with-color/bee-A2DM.svg","response":1,"trial_type":"image-button-response","trial_index":25,"time_elapsed":508237,"internal_node_id":"0.0-4.0-0.9","subject_id":"60412132066b2905a0e0ae65","study_id":"60edd13110225f80f9f3709b","session_id":"6196ba7f6ad6b4d6969eb2c7","condition":"full-information","relevant_dimensions":["antennae","legs"],"bee_group":{"antennae":"B","wings":"X","pattern":"X","legs":"F"},"action":"avoid","summary":"bad-avoid","bonus":1.4000000000000012},{"rt":10862.799999952316,"stimulus":"\n                    <p><b>Action: <em>avoid</em></b></p>\n                    <p>This is the bee that you just saw.</p>\n                    <img src=\"bees-with-color/bee-A2DM.svg\" width=\"200\">\n                    <p><span class=\"redText\">Bad choice,</span> the bee was friendly.<br>Your bonus pay is unchanged, and remains at $0.52.</p>\n            ","response":0,"trial_type":"html-button-response","trial_index":26,"time_elapsed":519101,"internal_node_id":"0.0-4.0-1.9","subject_id":"60412132066b2905a0e0ae65","study_id":"60edd13110225f80f9f3709b","session_id":"6196ba7f6ad6b4d6969eb2c7","condition":"full-information","relevant_dimensions":["antennae","legs"],"bee_group":{"antennae":"B","wings":"X","pattern":"X","legs":"F"},"bonus":1.4000000000000012},{"rt":4878.099999904633,"stimulus":"bees-with-color/bee-B2SF.svg","response":0,"trial_type":"image-button-response","trial_index":27,"time_elapsed":523980,"internal_node_id":"0.0-4.0-0.10","subject_id":"60412132066b2905a0e0ae65","study_id":"60edd13110225f80f9f3709b","session_id":"6196ba7f6ad6b4d6969eb2c7","condition":"full-information","relevant_dimensions":["antennae","legs"],"bee_group":{"antennae":"B","wings":"X","pattern":"X","legs":"F"},"action":"harvest","summary":"bad-harvest","bonus":1.4000000000000012},{"rt":9860.300000071526,"stimulus":"\n                    <p><b>Action: <em>harvest</em></b></p>\n                    <p>This is the bee that you just saw.</p>\n                    <img src=\"bees-with-color/bee-B2SF.svg\" width=\"200\">\n                    <p><span class=\"redText\">Bad choice, the bee was angry.</span><br><b>You have been stung!</b><br>Your pay has been decreased by $0.10. Your bonus pay is now $0.42.</p>\n            ","response":0,"trial_type":"html-button-response","trial_index":28,"time_elapsed":533841,"internal_node_id":"0.0-4.0-1.10","subject_id":"60412132066b2905a0e0ae65","study_id":"60edd13110225f80f9f3709b","session_id":"6196ba7f6ad6b4d6969eb2c7","condition":"full-information","relevant_dimensions":["antennae","legs"],"bee_group":{"antennae":"B","wings":"X","pattern":"X","legs":"F"},"bonus":1.4000000000000012},{"rt":10220.5,"stimulus":"bees-with-color/bee-A2SF.svg","response":0,"trial_type":"image-button-response","trial_index":29,"time_elapsed":544063,"internal_node_id":"0.0-4.0-0.11","subject_id":"60412132066b2905a0e0ae65","study_id":"60edd13110225f80f9f3709b","session_id":"6196ba7f6ad6b4d6969eb2c7","condition":"full-information","relevant_dimensions":["antennae","legs"],"bee_group":{"antennae":"B","wings":"X","pattern":"X","legs":"F"},"action":"harvest","summary":"good-harvest","bonus":1.4000000000000012},{"rt":6637.100000023842,"stimulus":"\n                    <p><b>Action: <em>harvest</em></b></p>\n                    <p>This is the bee that you just saw.</p>\n                    <img src=\"bees-with-color/bee-A2SF.svg\" width=\"200\">\n                    <p><span class=\"greenText\"><b>Successful harvest!</b></span><br>Your pay has increased by $0.02. Your bonus pay is now $0.44.</p>\n            ","response":0,"trial_type":"html-button-response","trial_index":30,"time_elapsed":550701,"internal_node_id":"0.0-4.0-1.11","subject_id":"60412132066b2905a0e0ae65","study_id":"60edd13110225f80f9f3709b","session_id":"6196ba7f6ad6b4d6969eb2c7","condition":"full-information","relevant_dimensions":["antennae","legs"],"bee_group":{"antennae":"B","wings":"X","pattern":"X","legs":"F"},"bonus":1.4000000000000012},{"rt":5020.399999976158,"stimulus":"bees-with-color/bee-A2DF.svg","response":1,"trial_type":"image-button-response","trial_index":31,"time_elapsed":555722,"internal_node_id":"0.0-4.0-0.12","subject_id":"60412132066b2905a0e0ae65","study_id":"60edd13110225f80f9f3709b","session_id":"6196ba7f6ad6b4d6969eb2c7","condition":"full-information","relevant_dimensions":["antennae","legs"],"bee_group":{"antennae":"B","wings":"X","pattern":"X","legs":"F"},"action":"avoid","summary":"bad-avoid","bonus":1.4000000000000012},{"rt":14605.300000071526,"stimulus":"\n                    <p><b>Action: <em>avoid</em></b></p>\n                    <p>This is the bee that you just saw.</p>\n                    <img src=\"bees-with-color/bee-A2DF.svg\" width=\"200\">\n                    <p><span class=\"redText\">Bad choice,</span> the bee was friendly.<br>Your bonus pay is unchanged, and remains at $0.44.</p>\n            ","response":0,"trial_type":"html-button-response","trial_index":32,"time_elapsed":570328,"internal_node_id":"0.0-4.0-1.12","subject_id":"60412132066b2905a0e0ae65","study_id":"60edd13110225f80f9f3709b","session_id":"6196ba7f6ad6b4d6969eb2c7","condition":"full-information","relevant_dimensions":["antennae","legs"],"bee_group":{"antennae":"B","wings":"X","pattern":"X","legs":"F"},"bonus":1.4000000000000012},{"rt":9978.199999928474,"stimulus":"bees-with-color/bee-B1SF.svg","response":0,"trial_type":"image-button-response","trial_index":33,"time_elapsed":580307,"internal_node_id":"0.0-4.0-0.13","subject_id":"60412132066b2905a0e0ae65","study_id":"60edd13110225f80f9f3709b","session_id":"6196ba7f6ad6b4d6969eb2c7","condition":"full-information","relevant_dimensions":["antennae","legs"],"bee_group":{"antennae":"B","wings":"X","pattern":"X","legs":"F"},"action":"harvest","summary":"bad-harvest","bonus":1.4000000000000012},{"rt":7538,"stimulus":"\n                    <p><b>Action: <em>harvest</em></b></p>\n                    <p>This is the bee that you just saw.</p>\n                    <img src=\"bees-with-color/bee-B1SF.svg\" width=\"200\">\n                    <p><span class=\"redText\">Bad choice, the bee was angry.</span><br><b>You have been stung!</b><br>Your pay has been decreased by $0.10. Your bonus pay is now $0.34.</p>\n            ","response":0,"trial_type":"html-button-response","trial_index":34,"time_elapsed":587846,"internal_node_id":"0.0-4.0-1.13","subject_id":"60412132066b2905a0e0ae65","study_id":"60edd13110225f80f9f3709b","session_id":"6196ba7f6ad6b4d6969eb2c7","condition":"full-information","relevant_dimensions":["antennae","legs"],"bee_group":{"antennae":"B","wings":"X","pattern":"X","legs":"F"},"bonus":1.4000000000000012},{"rt":17430.200000047684,"stimulus":"bees-with-color/bee-A1DF.svg","response":0,"trial_type":"image-button-response","trial_index":35,"time_elapsed":605278,"internal_node_id":"0.0-4.0-0.14","subject_id":"60412132066b2905a0e0ae65","study_id":"60edd13110225f80f9f3709b","session_id":"6196ba7f6ad6b4d6969eb2c7","condition":"full-information","relevant_dimensions":["antennae","legs"],"bee_group":{"antennae":"B","wings":"X","pattern":"X","legs":"F"},"action":"harvest","summary":"good-harvest","bonus":1.4000000000000012},{"rt":6451.100000023842,"stimulus":"\n                    <p><b>Action: <em>harvest</em></b></p>\n                    <p>This is the bee that you just saw.</p>\n                    <img src=\"bees-with-color/bee-A1DF.svg\" width=\"200\">\n                    <p><span class=\"greenText\"><b>Successful harvest!</b></span><br>Your pay has increased by $0.02. Your bonus pay is now $0.36.</p>\n            ","response":0,"trial_type":"html-button-response","trial_index":36,"time_elapsed":611730,"internal_node_id":"0.0-4.0-1.14","subject_id":"60412132066b2905a0e0ae65","study_id":"60edd13110225f80f9f3709b","session_id":"6196ba7f6ad6b4d6969eb2c7","condition":"full-information","relevant_dimensions":["antennae","legs"],"bee_group":{"antennae":"B","wings":"X","pattern":"X","legs":"F"},"bonus":1.4000000000000012},{"rt":8665.799999952316,"stimulus":"bees-with-color/bee-B2SM.svg","response":0,"trial_type":"image-button-response","trial_index":37,"time_elapsed":620397,"internal_node_id":"0.0-4.0-0.15","subject_id":"60412132066b2905a0e0ae65","study_id":"60edd13110225f80f9f3709b","session_id":"6196ba7f6ad6b4d6969eb2c7","condition":"full-information","relevant_dimensions":["antennae","legs"],"bee_group":{"antennae":"B","wings":"X","pattern":"X","legs":"F"},"action":"harvest","summary":"good-harvest","bonus":1.4000000000000012},{"rt":1018.8000000715256,"stimulus":"\n                    <p><b>Action: <em>harvest</em></b></p>\n                    <p>This is the bee that you just saw.</p>\n                    <img src=\"bees-with-color/bee-B2SM.svg\" width=\"200\">\n                    <p><span class=\"greenText\"><b>Successful harvest!</b></span><br>Your pay has increased by $0.02. Your bonus pay is now $0.38.</p>\n            ","response":0,"trial_type":"html-button-response","trial_index":38,"time_elapsed":621417,"internal_node_id":"0.0-4.0-1.15","subject_id":"60412132066b2905a0e0ae65","study_id":"60edd13110225f80f9f3709b","session_id":"6196ba7f6ad6b4d6969eb2c7","condition":"full-information","relevant_dimensions":["antennae","legs"],"bee_group":{"antennae":"B","wings":"X","pattern":"X","legs":"F"},"bonus":1.4000000000000012},{"rt":12931.100000023842,"stimulus":"bees-with-color/bee-A1DM.svg","response":0,"trial_type":"image-button-response","trial_index":39,"time_elapsed":634349,"internal_node_id":"0.0-4.0-0.16","subject_id":"60412132066b2905a0e0ae65","study_id":"60edd13110225f80f9f3709b","session_id":"6196ba7f6ad6b4d6969eb2c7","condition":"full-information","relevant_dimensions":["antennae","legs"],"bee_group":{"antennae":"B","wings":"X","pattern":"X","legs":"F"},"action":"harvest","summary":"good-harvest","bonus":1.4000000000000012},{"rt":6922.800000071526,"stimulus":"\n                    <p><b>Action: <em>harvest</em></b></p>\n                    <p>This is the bee that you just saw.</p>\n                    <img src=\"bees-with-color/bee-A1DM.svg\" width=\"200\">\n                    <p><span class=\"greenText\"><b>Successful harvest!</b></span><br>Your pay has increased by $0.02. Your bonus pay is now $0.40.</p>\n            ","response":0,"trial_type":"html-button-response","trial_index":40,"time_elapsed":641272,"internal_node_id":"0.0-4.0-1.16","subject_id":"60412132066b2905a0e0ae65","study_id":"60edd13110225f80f9f3709b","session_id":"6196ba7f6ad6b4d6969eb2c7","condition":"full-information","relevant_dimensions":["antennae","legs"],"bee_group":{"antennae":"B","wings":"X","pattern":"X","legs":"F"},"bonus":1.4000000000000012},{"rt":4104.100000023842,"stimulus":"bees-with-color/bee-A1DF.svg","response":0,"trial_type":"image-button-response","trial_index":41,"time_elapsed":645378,"internal_node_id":"0.0-4.0-0.17","subject_id":"60412132066b2905a0e0ae65","study_id":"60edd13110225f80f9f3709b","session_id":"6196ba7f6ad6b4d6969eb2c7","condition":"full-information","relevant_dimensions":["antennae","legs"],"bee_group":{"antennae":"B","wings":"X","pattern":"X","legs":"F"},"action":"harvest","summary":"good-harvest","bonus":1.4000000000000012},{"rt":586.2999999523163,"stimulus":"\n                    <p><b>Action: <em>harvest</em></b></p>\n                    <p>This is the bee that you just saw.</p>\n                    <img src=\"bees-with-color/bee-A1DF.svg\" width=\"200\">\n                    <p><span class=\"greenText\"><b>Successful harvest!</b></span><br>Your pay has increased by $0.02. Your bonus pay is now $0.42.</p>\n            ","response":0,"trial_type":"html-button-response","trial_index":42,"time_elapsed":645965,"internal_node_id":"0.0-4.0-1.17","subject_id":"60412132066b2905a0e0ae65","study_id":"60edd13110225f80f9f3709b","session_id":"6196ba7f6ad6b4d6969eb2c7","condition":"full-information","relevant_dimensions":["antennae","legs"],"bee_group":{"antennae":"B","wings":"X","pattern":"X","legs":"F"},"bonus":1.4000000000000012},{"rt":11232.700000047684,"stimulus":"bees-with-color/bee-B1DF.svg","response":0,"trial_type":"image-button-response","trial_index":43,"time_elapsed":657199,"internal_node_id":"0.0-4.0-0.18","subject_id":"60412132066b2905a0e0ae65","study_id":"60edd13110225f80f9f3709b","session_id":"6196ba7f6ad6b4d6969eb2c7","condition":"full-information","relevant_dimensions":["antennae","legs"],"bee_group":{"antennae":"B","wings":"X","pattern":"X","legs":"F"},"action":"harvest","summary":"bad-harvest","bonus":1.4000000000000012},{"rt":9978.100000023842,"stimulus":"\n                    <p><b>Action: <em>harvest</em></b></p>\n                    <p>This is the bee that you just saw.</p>\n                    <img src=\"bees-with-color/bee-B1DF.svg\" width=\"200\">\n                    <p><span class=\"redText\">Bad choice, the bee was angry.</span><br><b>You have been stung!</b><br>Your pay has been decreased by $0.10. Your bonus pay is now $0.32.</p>\n            ","response":0,"trial_type":"html-button-response","trial_index":44,"time_elapsed":667178,"internal_node_id":"0.0-4.0-1.18","subject_id":"60412132066b2905a0e0ae65","study_id":"60edd13110225f80f9f3709b","session_id":"6196ba7f6ad6b4d6969eb2c7","condition":"full-information","relevant_dimensions":["antennae","legs"],"bee_group":{"antennae":"B","wings":"X","pattern":"X","legs":"F"},"bonus":1.4000000000000012},{"rt":3875.399999976158,"stimulus":"bees-with-color/bee-B2DF.svg","response":1,"trial_type":"image-button-response","trial_index":45,"time_elapsed":671054,"internal_node_id":"0.0-4.0-0.19","subject_id":"60412132066b2905a0e0ae65","study_id":"60edd13110225f80f9f3709b","session_id":"6196ba7f6ad6b4d6969eb2c7","condition":"full-information","relevant_dimensions":["antennae","legs"],"bee_group":{"antennae":"B","wings":"X","pattern":"X","legs":"F"},"action":"avoid","summary":"good-avoid","bonus":1.4000000000000012},{"rt":1143.3999999761581,"stimulus":"\n                    <p><b>Action: <em>avoid</em></b></p>\n                    <p>This is the bee that you just saw.</p>\n                    <img src=\"bees-with-color/bee-B2DF.svg\" width=\"200\">\n                    <p><span class=\"greenText\">Good choice!</span>  This bee would have stung you.<br>Your bonus pay is unchanged, and remains at $0.32.</p>\n            ","response":0,"trial_type":"html-button-response","trial_index":46,"time_elapsed":672199,"internal_node_id":"0.0-4.0-1.19","subject_id":"60412132066b2905a0e0ae65","study_id":"60edd13110225f80f9f3709b","session_id":"6196ba7f6ad6b4d6969eb2c7","condition":"full-information","relevant_dimensions":["antennae","legs"],"bee_group":{"antennae":"B","wings":"X","pattern":"X","legs":"F"},"bonus":1.4000000000000012},{"rt":21702,"stimulus":"bees-with-color/bee-A2SF.svg","response":1,"trial_type":"image-button-response","trial_index":47,"time_elapsed":693902,"internal_node_id":"0.0-4.0-0.20","subject_id":"60412132066b2905a0e0ae65","study_id":"60edd13110225f80f9f3709b","session_id":"6196ba7f6ad6b4d6969eb2c7","condition":"full-information","relevant_dimensions":["antennae","legs"],"bee_group":{"antennae":"B","wings":"X","pattern":"X","legs":"F"},"action":"avoid","summary":"bad-avoid","bonus":1.4000000000000012},{"rt":6315.699999928474,"stimulus":"\n                    <p><b>Action: <em>avoid</em></b></p>\n                    <p>This is the bee that you just saw.</p>\n                    <img src=\"bees-with-color/bee-A2SF.svg\" width=\"200\">\n                    <p><span class=\"redText\">Bad choice,</span> the bee was friendly.<br>Your bonus pay is unchanged, and remains at $0.32.</p>\n            ","response":0,"trial_type":"html-button-response","trial_index":48,"time_elapsed":700218,"internal_node_id":"0.0-4.0-1.20","subject_id":"60412132066b2905a0e0ae65","study_id":"60edd13110225f80f9f3709b","session_id":"6196ba7f6ad6b4d6969eb2c7","condition":"full-information","relevant_dimensions":["antennae","legs"],"bee_group":{"antennae":"B","wings":"X","pattern":"X","legs":"F"},"bonus":1.4000000000000012},{"rt":13256.100000023842,"stimulus":"bees-with-color/bee-A2SM.svg","response":0,"trial_type":"image-button-response","trial_index":49,"time_elapsed":713476,"internal_node_id":"0.0-4.0-0.21","subject_id":"60412132066b2905a0e0ae65","study_id":"60edd13110225f80f9f3709b","session_id":"6196ba7f6ad6b4d6969eb2c7","condition":"full-information","relevant_dimensions":["antennae","legs"],"bee_group":{"antennae":"B","wings":"X","pattern":"X","legs":"F"},"action":"harvest","summary":"good-harvest","bonus":1.4000000000000012},{"rt":768.8999999761581,"stimulus":"\n                    <p><b>Action: <em>harvest</em></b></p>\n                    <p>This is the bee that you just saw.</p>\n                    <img src=\"bees-with-color/bee-A2SM.svg\" width=\"200\">\n                    <p><span class=\"greenText\"><b>Successful harvest!</b></span><br>Your pay has increased by $0.02. Your bonus pay is now $0.34.</p>\n            ","response":0,"trial_type":"html-button-response","trial_index":50,"time_elapsed":714245,"internal_node_id":"0.0-4.0-1.21","subject_id":"60412132066b2905a0e0ae65","study_id":"60edd13110225f80f9f3709b","session_id":"6196ba7f6ad6b4d6969eb2c7","condition":"full-information","relevant_dimensions":["antennae","legs"],"bee_group":{"antennae":"B","wings":"X","pattern":"X","legs":"F"},"bonus":1.4000000000000012},{"rt":7549.200000047684,"stimulus":"bees-with-color/bee-A2DM.svg","response":0,"trial_type":"image-button-response","trial_index":51,"time_elapsed":721795,"internal_node_id":"0.0-4.0-0.22","subject_id":"60412132066b2905a0e0ae65","study_id":"60edd13110225f80f9f3709b","session_id":"6196ba7f6ad6b4d6969eb2c7","condition":"full-information","relevant_dimensions":["antennae","legs"],"bee_group":{"antennae":"B","wings":"X","pattern":"X","legs":"F"},"action":"harvest","summary":"good-harvest","bonus":1.4000000000000012},{"rt":684.7000000476837,"stimulus":"\n                    <p><b>Action: <em>harvest</em></b></p>\n                    <p>This is the bee that you just saw.</p>\n                    <img src=\"bees-with-color/bee-A2DM.svg\" width=\"200\">\n                    <p><span class=\"greenText\"><b>Successful harvest!</b></span><br>Your pay has increased by $0.02. Your bonus pay is now $0.36.</p>\n            ","response":0,"trial_type":"html-button-response","trial_index":52,"time_elapsed":722481,"internal_node_id":"0.0-4.0-1.22","subject_id":"60412132066b2905a0e0ae65","study_id":"60edd13110225f80f9f3709b","session_id":"6196ba7f6ad6b4d6969eb2c7","condition":"full-information","relevant_dimensions":["antennae","legs"],"bee_group":{"antennae":"B","wings":"X","pattern":"X","legs":"F"},"bonus":1.4000000000000012},{"rt":13685.199999928474,"stimulus":"bees-with-color/bee-A1SF.svg","response":0,"trial_type":"image-button-response","trial_index":53,"time_elapsed":736167,"internal_node_id":"0.0-4.0-0.23","subject_id":"60412132066b2905a0e0ae65","study_id":"60edd13110225f80f9f3709b","session_id":"6196ba7f6ad6b4d6969eb2c7","condition":"full-information","relevant_dimensions":["antennae","legs"],"bee_group":{"antennae":"B","wings":"X","pattern":"X","legs":"F"},"action":"harvest","summary":"good-harvest","bonus":1.4000000000000012},{"rt":659.5999999046326,"stimulus":"\n                    <p><b>Action: <em>harvest</em></b></p>\n                    <p>This is the bee that you just saw.</p>\n                    <img src=\"bees-with-color/bee-A1SF.svg\" width=\"200\">\n                    <p><span class=\"greenText\"><b>Successful harvest!</b></span><br>Your pay has increased by $0.02. Your bonus pay is now $0.38.</p>\n            ","response":0,"trial_type":"html-button-response","trial_index":54,"time_elapsed":736828,"internal_node_id":"0.0-4.0-1.23","subject_id":"60412132066b2905a0e0ae65","study_id":"60edd13110225f80f9f3709b","session_id":"6196ba7f6ad6b4d6969eb2c7","condition":"full-information","relevant_dimensions":["antennae","legs"],"bee_group":{"antennae":"B","wings":"X","pattern":"X","legs":"F"},"bonus":1.4000000000000012},{"rt":7130.200000047684,"stimulus":"bees-with-color/bee-A1SM.svg","response":0,"trial_type":"image-button-response","trial_index":55,"time_elapsed":743959,"internal_node_id":"0.0-4.0-0.24","subject_id":"60412132066b2905a0e0ae65","study_id":"60edd13110225f80f9f3709b","session_id":"6196ba7f6ad6b4d6969eb2c7","condition":"full-information","relevant_dimensions":["antennae","legs"],"bee_group":{"antennae":"B","wings":"X","pattern":"X","legs":"F"},"action":"harvest","summary":"good-harvest","bonus":1.4000000000000012},{"rt":1448.0999999046326,"stimulus":"\n                    <p><b>Action: <em>harvest</em></b></p>\n                    <p>This is the bee that you just saw.</p>\n                    <img src=\"bees-with-color/bee-A1SM.svg\" width=\"200\">\n                    <p><span class=\"greenText\"><b>Successful harvest!</b></span><br>Your pay has increased by $0.02. Your bonus pay is now $0.40.</p>\n            ","response":0,"trial_type":"html-button-response","trial_index":56,"time_elapsed":745408,"internal_node_id":"0.0-4.0-1.24","subject_id":"60412132066b2905a0e0ae65","study_id":"60edd13110225f80f9f3709b","session_id":"6196ba7f6ad6b4d6969eb2c7","condition":"full-information","relevant_dimensions":["antennae","legs"],"bee_group":{"antennae":"B","wings":"X","pattern":"X","legs":"F"},"bonus":1.4000000000000012},{"rt":14027.699999928474,"stimulus":"bees-with-color/bee-B1SM.svg","response":1,"trial_type":"image-button-response","trial_index":57,"time_elapsed":759437,"internal_node_id":"0.0-4.0-0.25","subject_id":"60412132066b2905a0e0ae65","study_id":"60edd13110225f80f9f3709b","session_id":"6196ba7f6ad6b4d6969eb2c7","condition":"full-information","relevant_dimensions":["antennae","legs"],"bee_group":{"antennae":"B","wings":"X","pattern":"X","legs":"F"},"action":"avoid","summary":"bad-avoid","bonus":1.4000000000000012},{"rt":6418.299999952316,"stimulus":"\n                    <p><b>Action: <em>avoid</em></b></p>\n                    <p>This is the bee that you just saw.</p>\n                    <img src=\"bees-with-color/bee-B1SM.svg\" width=\"200\">\n                    <p><span class=\"redText\">Bad choice,</span> the bee was friendly.<br>Your bonus pay is unchanged, and remains at $0.40.</p>\n            ","response":0,"trial_type":"html-button-response","trial_index":58,"time_elapsed":765857,"internal_node_id":"0.0-4.0-1.25","subject_id":"60412132066b2905a0e0ae65","study_id":"60edd13110225f80f9f3709b","session_id":"6196ba7f6ad6b4d6969eb2c7","condition":"full-information","relevant_dimensions":["antennae","legs"],"bee_group":{"antennae":"B","wings":"X","pattern":"X","legs":"F"},"bonus":1.4000000000000012},{"rt":14978.299999952316,"stimulus":"bees-with-color/bee-A2DF.svg","response":0,"trial_type":"image-button-response","trial_index":59,"time_elapsed":780836,"internal_node_id":"0.0-4.0-0.26","subject_id":"60412132066b2905a0e0ae65","study_id":"60edd13110225f80f9f3709b","session_id":"6196ba7f6ad6b4d6969eb2c7","condition":"full-information","relevant_dimensions":["antennae","legs"],"bee_group":{"antennae":"B","wings":"X","pattern":"X","legs":"F"},"action":"harvest","summary":"good-harvest","bonus":1.4000000000000012},{"rt":754.8000000715256,"stimulus":"\n                    <p><b>Action: <em>harvest</em></b></p>\n                    <p>This is the bee that you just saw.</p>\n                    <img src=\"bees-with-color/bee-A2DF.svg\" width=\"200\">\n                    <p><span class=\"greenText\"><b>Successful harvest!</b></span><br>Your pay has increased by $0.02. Your bonus pay is now $0.42.</p>\n            ","response":0,"trial_type":"html-button-response","trial_index":60,"time_elapsed":781592,"internal_node_id":"0.0-4.0-1.26","subject_id":"60412132066b2905a0e0ae65","study_id":"60edd13110225f80f9f3709b","session_id":"6196ba7f6ad6b4d6969eb2c7","condition":"full-information","relevant_dimensions":["antennae","legs"],"bee_group":{"antennae":"B","wings":"X","pattern":"X","legs":"F"},"bonus":1.4000000000000012},{"rt":20903.600000023842,"stimulus":"bees-with-color/bee-B1DM.svg","response":0,"trial_type":"image-button-response","trial_index":61,"time_elapsed":802497,"internal_node_id":"0.0-4.0-0.27","subject_id":"60412132066b2905a0e0ae65","study_id":"60edd13110225f80f9f3709b","session_id":"6196ba7f6ad6b4d6969eb2c7","condition":"full-information","relevant_dimensions":["antennae","legs"],"bee_group":{"antennae":"B","wings":"X","pattern":"X","legs":"F"},"action":"harvest","summary":"good-harvest","bonus":1.4000000000000012},{"rt":1322.4000000953674,"stimulus":"\n                    <p><b>Action: <em>harvest</em></b></p>\n                    <p>This is the bee that you just saw.</p>\n                    <img src=\"bees-with-color/bee-B1DM.svg\" width=\"200\">\n                    <p><span class=\"greenText\"><b>Successful harvest!</b></span><br>Your pay has increased by $0.02. Your bonus pay is now $0.44.</p>\n            ","response":0,"trial_type":"html-button-response","trial_index":62,"time_elapsed":803820,"internal_node_id":"0.0-4.0-1.27","subject_id":"60412132066b2905a0e0ae65","study_id":"60edd13110225f80f9f3709b","session_id":"6196ba7f6ad6b4d6969eb2c7","condition":"full-information","relevant_dimensions":["antennae","legs"],"bee_group":{"antennae":"B","wings":"X","pattern":"X","legs":"F"},"bonus":1.4000000000000012},{"rt":14451.700000047684,"stimulus":"bees-with-color/bee-B2SM.svg","response":0,"trial_type":"image-button-response","trial_index":63,"time_elapsed":818273,"internal_node_id":"0.0-4.0-0.28","subject_id":"60412132066b2905a0e0ae65","study_id":"60edd13110225f80f9f3709b","session_id":"6196ba7f6ad6b4d6969eb2c7","condition":"full-information","relevant_dimensions":["antennae","legs"],"bee_group":{"antennae":"B","wings":"X","pattern":"X","legs":"F"},"action":"harvest","summary":"good-harvest","bonus":1.4000000000000012},{"rt":7464.200000047684,"stimulus":"\n                    <p><b>Action: <em>harvest</em></b></p>\n                    <p>This is the bee that you just saw.</p>\n                    <img src=\"bees-with-color/bee-B2SM.svg\" width=\"200\">\n                    <p><span class=\"greenText\"><b>Successful harvest!</b></span><br>Your pay has increased by $0.02. Your bonus pay is now $0.46.</p>\n            ","response":0,"trial_type":"html-button-response","trial_index":64,"time_elapsed":825738,"internal_node_id":"0.0-4.0-1.28","subject_id":"60412132066b2905a0e0ae65","study_id":"60edd13110225f80f9f3709b","session_id":"6196ba7f6ad6b4d6969eb2c7","condition":"full-information","relevant_dimensions":["antennae","legs"],"bee_group":{"antennae":"B","wings":"X","pattern":"X","legs":"F"},"bonus":1.4000000000000012},{"rt":5842.899999976158,"stimulus":"bees-with-color/bee-B2SF.svg","response":1,"trial_type":"image-button-response","trial_index":65,"time_elapsed":831582,"internal_node_id":"0.0-4.0-0.29","subject_id":"60412132066b2905a0e0ae65","study_id":"60edd13110225f80f9f3709b","session_id":"6196ba7f6ad6b4d6969eb2c7","condition":"full-information","relevant_dimensions":["antennae","legs"],"bee_group":{"antennae":"B","wings":"X","pattern":"X","legs":"F"},"action":"avoid","summary":"good-avoid","bonus":1.4000000000000012},{"rt":851.7999999523163,"stimulus":"\n                    <p><b>Action: <em>avoid</em></b></p>\n                    <p>This is the bee that you just saw.</p>\n                    <img src=\"bees-with-color/bee-B2SF.svg\" width=\"200\">\n                    <p><span class=\"greenText\">Good choice!</span>  This bee would have stung you.<br>Your bonus pay is unchanged, and remains at $0.46.</p>\n            ","response":0,"trial_type":"html-button-response","trial_index":66,"time_elapsed":832435,"internal_node_id":"0.0-4.0-1.29","subject_id":"60412132066b2905a0e0ae65","study_id":"60edd13110225f80f9f3709b","session_id":"6196ba7f6ad6b4d6969eb2c7","condition":"full-information","relevant_dimensions":["antennae","legs"],"bee_group":{"antennae":"B","wings":"X","pattern":"X","legs":"F"},"bonus":1.4000000000000012},{"rt":20546.199999928474,"stimulus":"bees-with-color/bee-B2DM.svg","response":1,"trial_type":"image-button-response","trial_index":67,"time_elapsed":852982,"internal_node_id":"0.0-4.0-0.30","subject_id":"60412132066b2905a0e0ae65","study_id":"60edd13110225f80f9f3709b","session_id":"6196ba7f6ad6b4d6969eb2c7","condition":"full-information","relevant_dimensions":["antennae","legs"],"bee_group":{"antennae":"B","wings":"X","pattern":"X","legs":"F"},"action":"avoid","summary":"bad-avoid","bonus":1.4000000000000012},{"rt":8292,"stimulus":"\n                    <p><b>Action: <em>avoid</em></b></p>\n                    <p>This is the bee that you just saw.</p>\n                    <img src=\"bees-with-color/bee-B2DM.svg\" width=\"200\">\n                    <p><span class=\"redText\">Bad choice,</span> the bee was friendly.<br>Your bonus pay is unchanged, and remains at $0.46.</p>\n            ","response":0,"trial_type":"html-button-response","trial_index":68,"time_elapsed":861275,"internal_node_id":"0.0-4.0-1.30","subject_id":"60412132066b2905a0e0ae65","study_id":"60edd13110225f80f9f3709b","session_id":"6196ba7f6ad6b4d6969eb2c7","condition":"full-information","relevant_dimensions":["antennae","legs"],"bee_group":{"antennae":"B","wings":"X","pattern":"X","legs":"F"},"bonus":1.4000000000000012},{"rt":4523.600000023842,"stimulus":"bees-with-color/bee-B1SF.svg","response":1,"trial_type":"image-button-response","trial_index":69,"time_elapsed":865800,"internal_node_id":"0.0-4.0-0.31","subject_id":"60412132066b2905a0e0ae65","study_id":"60edd13110225f80f9f3709b","session_id":"6196ba7f6ad6b4d6969eb2c7","condition":"full-information","relevant_dimensions":["antennae","legs"],"bee_group":{"antennae":"B","wings":"X","pattern":"X","legs":"F"},"action":"avoid","summary":"good-avoid","bonus":1.4000000000000012},{"rt":1428,"stimulus":"\n                    <p><b>Action: <em>avoid</em></b></p>\n                    <p>This is the bee that you just saw.</p>\n                    <img src=\"bees-with-color/bee-B1SF.svg\" width=\"200\">\n                    <p><span class=\"greenText\">Good choice!</span>  This bee would have stung you.<br>Your bonus pay is unchanged, and remains at $0.46.</p>\n            ","response":0,"trial_type":"html-button-response","trial_index":70,"time_elapsed":867229,"internal_node_id":"0.0-4.0-1.31","subject_id":"60412132066b2905a0e0ae65","study_id":"60edd13110225f80f9f3709b","session_id":"6196ba7f6ad6b4d6969eb2c7","condition":"full-information","relevant_dimensions":["antennae","legs"],"bee_group":{"antennae":"B","wings":"X","pattern":"X","legs":"F"},"bonus":1.4000000000000012},{"rt":4572.799999952316,"stimulus":"bees-with-color/bee-B2DM.svg","response":0,"trial_type":"image-button-response","trial_index":71,"time_elapsed":871803,"internal_node_id":"0.0-4.0-0.32","subject_id":"60412132066b2905a0e0ae65","study_id":"60edd13110225f80f9f3709b","session_id":"6196ba7f6ad6b4d6969eb2c7","condition":"full-information","relevant_dimensions":["antennae","legs"],"bee_group":{"antennae":"B","wings":"X","pattern":"X","legs":"F"},"action":"harvest","summary":"good-harvest","bonus":1.4000000000000012},{"rt":629.5,"stimulus":"\n                    <p><b>Action: <em>harvest</em></b></p>\n                    <p>This is the bee that you just saw.</p>\n                    <img src=\"bees-with-color/bee-B2DM.svg\" width=\"200\">\n                    <p><span class=\"greenText\"><b>Successful harvest!</b></span><br>Your pay has increased by $0.02. Your bonus pay is now $0.48.</p>\n            ","response":0,"trial_type":"html-button-response","trial_index":72,"time_elapsed":872433,"internal_node_id":"0.0-4.0-1.32","subject_id":"60412132066b2905a0e0ae65","study_id":"60edd13110225f80f9f3709b","session_id":"6196ba7f6ad6b4d6969eb2c7","condition":"full-information","relevant_dimensions":["antennae","legs"],"bee_group":{"antennae":"B","wings":"X","pattern":"X","legs":"F"},"bonus":1.4000000000000012},{"rt":8311.100000023842,"stimulus":"bees-with-color/bee-A2SF.svg","response":1,"trial_type":"image-button-response","trial_index":73,"time_elapsed":880745,"internal_node_id":"0.0-4.0-0.33","subject_id":"60412132066b2905a0e0ae65","study_id":"60edd13110225f80f9f3709b","session_id":"6196ba7f6ad6b4d6969eb2c7","condition":"full-information","relevant_dimensions":["antennae","legs"],"bee_group":{"antennae":"B","wings":"X","pattern":"X","legs":"F"},"action":"avoid","summary":"bad-avoid","bonus":1.4000000000000012},{"rt":11000.600000023842,"stimulus":"\n                    <p><b>Action: <em>avoid</em></b></p>\n                    <p>This is the bee that you just saw.</p>\n                    <img src=\"bees-with-color/bee-A2SF.svg\" width=\"200\">\n                    <p><span class=\"redText\">Bad choice,</span> the bee was friendly.<br>Your bonus pay is unchanged, and remains at $0.48.</p>\n            ","response":0,"trial_type":"html-button-response","trial_index":74,"time_elapsed":891747,"internal_node_id":"0.0-4.0-1.33","subject_id":"60412132066b2905a0e0ae65","study_id":"60edd13110225f80f9f3709b","session_id":"6196ba7f6ad6b4d6969eb2c7","condition":"full-information","relevant_dimensions":["antennae","legs"],"bee_group":{"antennae":"B","wings":"X","pattern":"X","legs":"F"},"bonus":1.4000000000000012},{"rt":11561.899999976158,"stimulus":"bees-with-color/bee-B1SF.svg","response":1,"trial_type":"image-button-response","trial_index":75,"time_elapsed":903310,"internal_node_id":"0.0-4.0-0.34","subject_id":"60412132066b2905a0e0ae65","study_id":"60edd13110225f80f9f3709b","session_id":"6196ba7f6ad6b4d6969eb2c7","condition":"full-information","relevant_dimensions":["antennae","legs"],"bee_group":{"antennae":"B","wings":"X","pattern":"X","legs":"F"},"action":"avoid","summary":"good-avoid","bonus":1.4000000000000012},{"rt":1398.1000000238419,"stimulus":"\n                    <p><b>Action: <em>avoid</em></b></p>\n                    <p>This is the bee that you just saw.</p>\n                    <img src=\"bees-with-color/bee-B1SF.svg\" width=\"200\">\n                    <p><span class=\"greenText\">Good choice!</span>  This bee would have stung you.<br>Your bonus pay is unchanged, and remains at $0.48.</p>\n            ","response":0,"trial_type":"html-button-response","trial_index":76,"time_elapsed":904709,"internal_node_id":"0.0-4.0-1.34","subject_id":"60412132066b2905a0e0ae65","study_id":"60edd13110225f80f9f3709b","session_id":"6196ba7f6ad6b4d6969eb2c7","condition":"full-information","relevant_dimensions":["antennae","legs"],"bee_group":{"antennae":"B","wings":"X","pattern":"X","legs":"F"},"bonus":1.4000000000000012},{"rt":42214.09999990463,"stimulus":"bees-with-color/bee-B1DM.svg","response":0,"trial_type":"image-button-response","trial_index":77,"time_elapsed":946925,"internal_node_id":"0.0-4.0-0.35","subject_id":"60412132066b2905a0e0ae65","study_id":"60edd13110225f80f9f3709b","session_id":"6196ba7f6ad6b4d6969eb2c7","condition":"full-information","relevant_dimensions":["antennae","legs"],"bee_group":{"antennae":"B","wings":"X","pattern":"X","legs":"F"},"action":"harvest","summary":"good-harvest","bonus":1.4000000000000012},{"rt":868.4000000953674,"stimulus":"\n                    <p><b>Action: <em>harvest</em></b></p>\n                    <p>This is the bee that you just saw.</p>\n                    <img src=\"bees-with-color/bee-B1DM.svg\" width=\"200\">\n                    <p><span class=\"greenText\"><b>Successful harvest!</b></span><br>Your pay has increased by $0.02. Your bonus pay is now $0.50.</p>\n            ","response":0,"trial_type":"html-button-response","trial_index":78,"time_elapsed":947794,"internal_node_id":"0.0-4.0-1.35","subject_id":"60412132066b2905a0e0ae65","study_id":"60edd13110225f80f9f3709b","session_id":"6196ba7f6ad6b4d6969eb2c7","condition":"full-information","relevant_dimensions":["antennae","legs"],"bee_group":{"antennae":"B","wings":"X","pattern":"X","legs":"F"},"bonus":1.4000000000000012},{"rt":5540.600000023842,"stimulus":"bees-with-color/bee-B1DF.svg","response":1,"trial_type":"image-button-response","trial_index":79,"time_elapsed":953336,"internal_node_id":"0.0-4.0-0.36","subject_id":"60412132066b2905a0e0ae65","study_id":"60edd13110225f80f9f3709b","session_id":"6196ba7f6ad6b4d6969eb2c7","condition":"full-information","relevant_dimensions":["antennae","legs"],"bee_group":{"antennae":"B","wings":"X","pattern":"X","legs":"F"},"action":"avoid","summary":"good-avoid","bonus":1.4000000000000012},{"rt":1064.8999999761581,"stimulus":"\n                    <p><b>Action: <em>avoid</em></b></p>\n                    <p>This is the bee that you just saw.</p>\n                    <img src=\"bees-with-color/bee-B1DF.svg\" width=\"200\">\n                    <p><span class=\"greenText\">Good choice!</span>  This bee would have stung you.<br>Your bonus pay is unchanged, and remains at $0.50.</p>\n            ","response":0,"trial_type":"html-button-response","trial_index":80,"time_elapsed":954402,"internal_node_id":"0.0-4.0-1.36","subject_id":"60412132066b2905a0e0ae65","study_id":"60edd13110225f80f9f3709b","session_id":"6196ba7f6ad6b4d6969eb2c7","condition":"full-information","relevant_dimensions":["antennae","legs"],"bee_group":{"antennae":"B","wings":"X","pattern":"X","legs":"F"},"bonus":1.4000000000000012},{"rt":8301,"stimulus":"bees-with-color/bee-B2SM.svg","response":0,"trial_type":"image-button-response","trial_index":81,"time_elapsed":962704,"internal_node_id":"0.0-4.0-0.37","subject_id":"60412132066b2905a0e0ae65","study_id":"60edd13110225f80f9f3709b","session_id":"6196ba7f6ad6b4d6969eb2c7","condition":"full-information","relevant_dimensions":["antennae","legs"],"bee_group":{"antennae":"B","wings":"X","pattern":"X","legs":"F"},"action":"harvest","summary":"good-harvest","bonus":1.4000000000000012},{"rt":827.8999999761581,"stimulus":"\n                    <p><b>Action: <em>harvest</em></b></p>\n                    <p>This is the bee that you just saw.</p>\n                    <img src=\"bees-with-color/bee-B2SM.svg\" width=\"200\">\n                    <p><span class=\"greenText\"><b>Successful harvest!</b></span><br>Your pay has increased by $0.02. Your bonus pay is now $0.52.</p>\n            ","response":0,"trial_type":"html-button-response","trial_index":82,"time_elapsed":963533,"internal_node_id":"0.0-4.0-1.37","subject_id":"60412132066b2905a0e0ae65","study_id":"60edd13110225f80f9f3709b","session_id":"6196ba7f6ad6b4d6969eb2c7","condition":"full-information","relevant_dimensions":["antennae","legs"],"bee_group":{"antennae":"B","wings":"X","pattern":"X","legs":"F"},"bonus":1.4000000000000012},{"rt":4998.899999976158,"stimulus":"bees-with-color/bee-B1SM.svg","response":0,"trial_type":"image-button-response","trial_index":83,"time_elapsed":968533,"internal_node_id":"0.0-4.0-0.38","subject_id":"60412132066b2905a0e0ae65","study_id":"60edd13110225f80f9f3709b","session_id":"6196ba7f6ad6b4d6969eb2c7","condition":"full-information","relevant_dimensions":["antennae","legs"],"bee_group":{"antennae":"B","wings":"X","pattern":"X","legs":"F"},"action":"harvest","summary":"good-harvest","bonus":1.4000000000000012},{"rt":676,"stimulus":"\n                    <p><b>Action: <em>harvest</em></b></p>\n                    <p>This is the bee that you just saw.</p>\n                    <img src=\"bees-with-color/bee-B1SM.svg\" width=\"200\">\n                    <p><span class=\"greenText\"><b>Successful harvest!</b></span><br>Your pay has increased by $0.02. Your bonus pay is now $0.54.</p>\n            ","response":0,"trial_type":"html-button-response","trial_index":84,"time_elapsed":969210,"internal_node_id":"0.0-4.0-1.38","subject_id":"60412132066b2905a0e0ae65","study_id":"60edd13110225f80f9f3709b","session_id":"6196ba7f6ad6b4d6969eb2c7","condition":"full-information","relevant_dimensions":["antennae","legs"],"bee_group":{"antennae":"B","wings":"X","pattern":"X","legs":"F"},"bonus":1.4000000000000012},{"rt":18142.800000071526,"stimulus":"bees-with-color/bee-A2DF.svg","response":0,"trial_type":"image-button-response","trial_index":85,"time_elapsed":987353,"internal_node_id":"0.0-4.0-0.39","subject_id":"60412132066b2905a0e0ae65","study_id":"60edd13110225f80f9f3709b","session_id":"6196ba7f6ad6b4d6969eb2c7","condition":"full-information","relevant_dimensions":["antennae","legs"],"bee_group":{"antennae":"B","wings":"X","pattern":"X","legs":"F"},"action":"harvest","summary":"good-harvest","bonus":1.4000000000000012},{"rt":811.5,"stimulus":"\n                    <p><b>Action: <em>harvest</em></b></p>\n                    <p>This is the bee that you just saw.</p>\n                    <img src=\"bees-with-color/bee-A2DF.svg\" width=\"200\">\n                    <p><span class=\"greenText\"><b>Successful harvest!</b></span><br>Your pay has increased by $0.02. Your bonus pay is now $0.56.</p>\n            ","response":0,"trial_type":"html-button-response","trial_index":86,"time_elapsed":988166,"internal_node_id":"0.0-4.0-1.39","subject_id":"60412132066b2905a0e0ae65","study_id":"60edd13110225f80f9f3709b","session_id":"6196ba7f6ad6b4d6969eb2c7","condition":"full-information","relevant_dimensions":["antennae","legs"],"bee_group":{"antennae":"B","wings":"X","pattern":"X","legs":"F"},"bonus":1.4000000000000012},{"rt":6593.899999976158,"stimulus":"bees-with-color/bee-B2SF.svg","response":1,"trial_type":"image-button-response","trial_index":87,"time_elapsed":994761,"internal_node_id":"0.0-4.0-0.40","subject_id":"60412132066b2905a0e0ae65","study_id":"60edd13110225f80f9f3709b","session_id":"6196ba7f6ad6b4d6969eb2c7","condition":"full-information","relevant_dimensions":["antennae","legs"],"bee_group":{"antennae":"B","wings":"X","pattern":"X","legs":"F"},"action":"avoid","summary":"good-avoid","bonus":1.4000000000000012},{"rt":2312.7999999523163,"stimulus":"\n                    <p><b>Action: <em>avoid</em></b></p>\n                    <p>This is the bee that you just saw.</p>\n                    <img src=\"bees-with-color/bee-B2SF.svg\" width=\"200\">\n                    <p><span class=\"greenText\">Good choice!</span>  This bee would have stung you.<br>Your bonus pay is unchanged, and remains at $0.56.</p>\n            ","response":0,"trial_type":"html-button-response","trial_index":88,"time_elapsed":997074,"internal_node_id":"0.0-4.0-1.40","subject_id":"60412132066b2905a0e0ae65","study_id":"60edd13110225f80f9f3709b","session_id":"6196ba7f6ad6b4d6969eb2c7","condition":"full-information","relevant_dimensions":["antennae","legs"],"bee_group":{"antennae":"B","wings":"X","pattern":"X","legs":"F"},"bonus":1.4000000000000012},{"rt":16258,"stimulus":"bees-with-color/bee-A2DM.svg","response":0,"trial_type":"image-button-response","trial_index":89,"time_elapsed":1013334,"internal_node_id":"0.0-4.0-0.41","subject_id":"60412132066b2905a0e0ae65","study_id":"60edd13110225f80f9f3709b","session_id":"6196ba7f6ad6b4d6969eb2c7","condition":"full-information","relevant_dimensions":["antennae","legs"],"bee_group":{"antennae":"B","wings":"X","pattern":"X","legs":"F"},"action":"harvest","summary":"good-harvest","bonus":1.4000000000000012},{"rt":1009.4000000953674,"stimulus":"\n                    <p><b>Action: <em>harvest</em></b></p>\n                    <p>This is the bee that you just saw.</p>\n                    <img src=\"bees-with-color/bee-A2DM.svg\" width=\"200\">\n                    <p><span class=\"greenText\"><b>Successful harvest!</b></span><br>Your pay has increased by $0.02. Your bonus pay is now $0.58.</p>\n            ","response":0,"trial_type":"html-button-response","trial_index":90,"time_elapsed":1014344,"internal_node_id":"0.0-4.0-1.41","subject_id":"60412132066b2905a0e0ae65","study_id":"60edd13110225f80f9f3709b","session_id":"6196ba7f6ad6b4d6969eb2c7","condition":"full-information","relevant_dimensions":["antennae","legs"],"bee_group":{"antennae":"B","wings":"X","pattern":"X","legs":"F"},"bonus":1.4000000000000012},{"rt":10217,"stimulus":"bees-with-color/bee-A1SF.svg","response":0,"trial_type":"image-button-response","trial_index":91,"time_elapsed":1024562,"internal_node_id":"0.0-4.0-0.42","subject_id":"60412132066b2905a0e0ae65","study_id":"60edd13110225f80f9f3709b","session_id":"6196ba7f6ad6b4d6969eb2c7","condition":"full-information","relevant_dimensions":["antennae","legs"],"bee_group":{"antennae":"B","wings":"X","pattern":"X","legs":"F"},"action":"harvest","summary":"good-harvest","bonus":1.4000000000000012},{"rt":678.5,"stimulus":"\n                    <p><b>Action: <em>harvest</em></b></p>\n                    <p>This is the bee that you just saw.</p>\n                    <img src=\"bees-with-color/bee-A1SF.svg\" width=\"200\">\n                    <p><span class=\"greenText\"><b>Successful harvest!</b></span><br>Your pay has increased by $0.02. Your bonus pay is now $0.60.</p>\n            ","response":0,"trial_type":"html-button-response","trial_index":92,"time_elapsed":1025242,"internal_node_id":"0.0-4.0-1.42","subject_id":"60412132066b2905a0e0ae65","study_id":"60edd13110225f80f9f3709b","session_id":"6196ba7f6ad6b4d6969eb2c7","condition":"full-information","relevant_dimensions":["antennae","legs"],"bee_group":{"antennae":"B","wings":"X","pattern":"X","legs":"F"},"bonus":1.4000000000000012},{"rt":35551.799999952316,"stimulus":"bees-with-color/bee-A1SM.svg","response":0,"trial_type":"image-button-response","trial_index":93,"time_elapsed":1060795,"internal_node_id":"0.0-4.0-0.43","subject_id":"60412132066b2905a0e0ae65","study_id":"60edd13110225f80f9f3709b","session_id":"6196ba7f6ad6b4d6969eb2c7","condition":"full-information","relevant_dimensions":["antennae","legs"],"bee_group":{"antennae":"B","wings":"X","pattern":"X","legs":"F"},"action":"harvest","summary":"good-harvest","bonus":1.4000000000000012},{"rt":783.0999999046326,"stimulus":"\n                    <p><b>Action: <em>harvest</em></b></p>\n                    <p>This is the bee that you just saw.</p>\n                    <img src=\"bees-with-color/bee-A1SM.svg\" width=\"200\">\n                    <p><span class=\"greenText\"><b>Successful harvest!</b></span><br>Your pay has increased by $0.02. Your bonus pay is now $0.62.</p>\n            ","response":0,"trial_type":"html-button-response","trial_index":94,"time_elapsed":1061579,"internal_node_id":"0.0-4.0-1.43","subject_id":"60412132066b2905a0e0ae65","study_id":"60edd13110225f80f9f3709b","session_id":"6196ba7f6ad6b4d6969eb2c7","condition":"full-information","relevant_dimensions":["antennae","legs"],"bee_group":{"antennae":"B","wings":"X","pattern":"X","legs":"F"},"bonus":1.4000000000000012},{"rt":6407,"stimulus":"bees-with-color/bee-A1DF.svg","response":0,"trial_type":"image-button-response","trial_index":95,"time_elapsed":1067987,"internal_node_id":"0.0-4.0-0.44","subject_id":"60412132066b2905a0e0ae65","study_id":"60edd13110225f80f9f3709b","session_id":"6196ba7f6ad6b4d6969eb2c7","condition":"full-information","relevant_dimensions":["antennae","legs"],"bee_group":{"antennae":"B","wings":"X","pattern":"X","legs":"F"},"action":"harvest","summary":"good-harvest","bonus":1.4000000000000012},{"rt":1727.3000000715256,"stimulus":"\n                    <p><b>Action: <em>harvest</em></b></p>\n                    <p>This is the bee that you just saw.</p>\n                    <img src=\"bees-with-color/bee-A1DF.svg\" width=\"200\">\n                    <p><span class=\"greenText\"><b>Successful harvest!</b></span><br>Your pay has increased by $0.02. Your bonus pay is now $0.64.</p>\n            ","response":0,"trial_type":"html-button-response","trial_index":96,"time_elapsed":1069715,"internal_node_id":"0.0-4.0-1.44","subject_id":"60412132066b2905a0e0ae65","study_id":"60edd13110225f80f9f3709b","session_id":"6196ba7f6ad6b4d6969eb2c7","condition":"full-information","relevant_dimensions":["antennae","legs"],"bee_group":{"antennae":"B","wings":"X","pattern":"X","legs":"F"},"bonus":1.4000000000000012},{"rt":5384.5,"stimulus":"bees-with-color/bee-A1DM.svg","response":0,"trial_type":"image-button-response","trial_index":97,"time_elapsed":1075101,"internal_node_id":"0.0-4.0-0.45","subject_id":"60412132066b2905a0e0ae65","study_id":"60edd13110225f80f9f3709b","session_id":"6196ba7f6ad6b4d6969eb2c7","condition":"full-information","relevant_dimensions":["antennae","legs"],"bee_group":{"antennae":"B","wings":"X","pattern":"X","legs":"F"},"action":"harvest","summary":"good-harvest","bonus":1.4000000000000012},{"rt":684.5,"stimulus":"\n                    <p><b>Action: <em>harvest</em></b></p>\n                    <p>This is the bee that you just saw.</p>\n                    <img src=\"bees-with-color/bee-A1DM.svg\" width=\"200\">\n                    <p><span class=\"greenText\"><b>Successful harvest!</b></span><br>Your pay has increased by $0.02. Your bonus pay is now $0.66.</p>\n            ","response":0,"trial_type":"html-button-response","trial_index":98,"time_elapsed":1075787,"internal_node_id":"0.0-4.0-1.45","subject_id":"60412132066b2905a0e0ae65","study_id":"60edd13110225f80f9f3709b","session_id":"6196ba7f6ad6b4d6969eb2c7","condition":"full-information","relevant_dimensions":["antennae","legs"],"bee_group":{"antennae":"B","wings":"X","pattern":"X","legs":"F"},"bonus":1.4000000000000012},{"rt":2954.100000023842,"stimulus":"bees-with-color/bee-A2SM.svg","response":0,"trial_type":"image-button-response","trial_index":99,"time_elapsed":1078742,"internal_node_id":"0.0-4.0-0.46","subject_id":"60412132066b2905a0e0ae65","study_id":"60edd13110225f80f9f3709b","session_id":"6196ba7f6ad6b4d6969eb2c7","condition":"full-information","relevant_dimensions":["antennae","legs"],"bee_group":{"antennae":"B","wings":"X","pattern":"X","legs":"F"},"action":"harvest","summary":"good-harvest","bonus":1.4000000000000012},{"rt":659.2000000476837,"stimulus":"\n                    <p><b>Action: <em>harvest</em></b></p>\n                    <p>This is the bee that you just saw.</p>\n                    <img src=\"bees-with-color/bee-A2SM.svg\" width=\"200\">\n                    <p><span class=\"greenText\"><b>Successful harvest!</b></span><br>Your pay has increased by $0.02. Your bonus pay is now $0.68.</p>\n            ","response":0,"trial_type":"html-button-response","trial_index":100,"time_elapsed":1079403,"internal_node_id":"0.0-4.0-1.46","subject_id":"60412132066b2905a0e0ae65","study_id":"60edd13110225f80f9f3709b","session_id":"6196ba7f6ad6b4d6969eb2c7","condition":"full-information","relevant_dimensions":["antennae","legs"],"bee_group":{"antennae":"B","wings":"X","pattern":"X","legs":"F"},"bonus":1.4000000000000012},{"rt":5277.199999928474,"stimulus":"bees-with-color/bee-B2DF.svg","response":1,"trial_type":"image-button-response","trial_index":101,"time_elapsed":1084681,"internal_node_id":"0.0-4.0-0.47","subject_id":"60412132066b2905a0e0ae65","study_id":"60edd13110225f80f9f3709b","session_id":"6196ba7f6ad6b4d6969eb2c7","condition":"full-information","relevant_dimensions":["antennae","legs"],"bee_group":{"antennae":"B","wings":"X","pattern":"X","legs":"F"},"action":"avoid","summary":"good-avoid","bonus":1.4000000000000012},{"rt":578.8999999761581,"stimulus":"\n                    <p><b>Action: <em>avoid</em></b></p>\n                    <p>This is the bee that you just saw.</p>\n                    <img src=\"bees-with-color/bee-B2DF.svg\" width=\"200\">\n                    <p><span class=\"greenText\">Good choice!</span>  This bee would have stung you.<br>Your bonus pay is unchanged, and remains at $0.68.</p>\n            ","response":0,"trial_type":"html-button-response","trial_index":102,"time_elapsed":1085260,"internal_node_id":"0.0-4.0-1.47","subject_id":"60412132066b2905a0e0ae65","study_id":"60edd13110225f80f9f3709b","session_id":"6196ba7f6ad6b4d6969eb2c7","condition":"full-information","relevant_dimensions":["antennae","legs"],"bee_group":{"antennae":"B","wings":"X","pattern":"X","legs":"F"},"bonus":1.4000000000000012},{"rt":5026.700000047684,"stimulus":"bees-with-color/bee-A2DF.svg","response":0,"trial_type":"image-button-response","trial_index":103,"time_elapsed":1090288,"internal_node_id":"0.0-4.0-0.48","subject_id":"60412132066b2905a0e0ae65","study_id":"60edd13110225f80f9f3709b","session_id":"6196ba7f6ad6b4d6969eb2c7","condition":"full-information","relevant_dimensions":["antennae","legs"],"bee_group":{"antennae":"B","wings":"X","pattern":"X","legs":"F"},"action":"harvest","summary":"good-harvest","bonus":1.4000000000000012},{"rt":551.6000000238419,"stimulus":"\n                    <p><b>Action: <em>harvest</em></b></p>\n                    <p>This is the bee that you just saw.</p>\n                    <img src=\"bees-with-color/bee-A2DF.svg\" width=\"200\">\n                    <p><span class=\"greenText\"><b>Successful harvest!</b></span><br>Your pay has increased by $0.02. Your bonus pay is now $0.70.</p>\n            ","response":0,"trial_type":"html-button-response","trial_index":104,"time_elapsed":1090841,"internal_node_id":"0.0-4.0-1.48","subject_id":"60412132066b2905a0e0ae65","study_id":"60edd13110225f80f9f3709b","session_id":"6196ba7f6ad6b4d6969eb2c7","condition":"full-information","relevant_dimensions":["antennae","legs"],"bee_group":{"antennae":"B","wings":"X","pattern":"X","legs":"F"},"bonus":1.4000000000000012},{"rt":4085.399999976158,"stimulus":"bees-with-color/bee-B2SF.svg","response":1,"trial_type":"image-button-response","trial_index":105,"time_elapsed":1094927,"internal_node_id":"0.0-4.0-0.49","subject_id":"60412132066b2905a0e0ae65","study_id":"60edd13110225f80f9f3709b","session_id":"6196ba7f6ad6b4d6969eb2c7","condition":"full-information","relevant_dimensions":["antennae","legs"],"bee_group":{"antennae":"B","wings":"X","pattern":"X","legs":"F"},"action":"avoid","summary":"good-avoid","bonus":1.4000000000000012},{"rt":619.6000000238419,"stimulus":"\n                    <p><b>Action: <em>avoid</em></b></p>\n                    <p>This is the bee that you just saw.</p>\n                    <img src=\"bees-with-color/bee-B2SF.svg\" width=\"200\">\n                    <p><span class=\"greenText\">Good choice!</span>  This bee would have stung you.<br>Your bonus pay is unchanged, and remains at $0.70.</p>\n            ","response":0,"trial_type":"html-button-response","trial_index":106,"time_elapsed":1095548,"internal_node_id":"0.0-4.0-1.49","subject_id":"60412132066b2905a0e0ae65","study_id":"60edd13110225f80f9f3709b","session_id":"6196ba7f6ad6b4d6969eb2c7","condition":"full-information","relevant_dimensions":["antennae","legs"],"bee_group":{"antennae":"B","wings":"X","pattern":"X","legs":"F"},"bonus":1.4000000000000012},{"rt":3301.9000000953674,"stimulus":"bees-with-color/bee-B2DM.svg","response":0,"trial_type":"image-button-response","trial_index":107,"time_elapsed":1098851,"internal_node_id":"0.0-4.0-0.50","subject_id":"60412132066b2905a0e0ae65","study_id":"60edd13110225f80f9f3709b","session_id":"6196ba7f6ad6b4d6969eb2c7","condition":"full-information","relevant_dimensions":["antennae","legs"],"bee_group":{"antennae":"B","wings":"X","pattern":"X","legs":"F"},"action":"harvest","summary":"good-harvest","bonus":1.4000000000000012},{"rt":694.1000000238419,"stimulus":"\n                    <p><b>Action: <em>harvest</em></b></p>\n                    <p>This is the bee that you just saw.</p>\n                    <img src=\"bees-with-color/bee-B2DM.svg\" width=\"200\">\n                    <p><span class=\"greenText\"><b>Successful harvest!</b></span><br>Your pay has increased by $0.02. Your bonus pay is now $0.72.</p>\n            ","response":0,"trial_type":"html-button-response","trial_index":108,"time_elapsed":1099546,"internal_node_id":"0.0-4.0-1.50","subject_id":"60412132066b2905a0e0ae65","study_id":"60edd13110225f80f9f3709b","session_id":"6196ba7f6ad6b4d6969eb2c7","condition":"full-information","relevant_dimensions":["antennae","legs"],"bee_group":{"antennae":"B","wings":"X","pattern":"X","legs":"F"},"bonus":1.4000000000000012},{"rt":836.1999999284744,"stimulus":"bees-with-color/bee-A1SM.svg","response":0,"trial_type":"image-button-response","trial_index":109,"time_elapsed":1100383,"internal_node_id":"0.0-4.0-0.51","subject_id":"60412132066b2905a0e0ae65","study_id":"60edd13110225f80f9f3709b","session_id":"6196ba7f6ad6b4d6969eb2c7","condition":"full-information","relevant_dimensions":["antennae","legs"],"bee_group":{"antennae":"B","wings":"X","pattern":"X","legs":"F"},"action":"harvest","summary":"good-harvest","bonus":1.4000000000000012},{"rt":403.8000000715256,"stimulus":"\n                    <p><b>Action: <em>harvest</em></b></p>\n                    <p>This is the bee that you just saw.</p>\n                    <img src=\"bees-with-color/bee-A1SM.svg\" width=\"200\">\n                    <p><span class=\"greenText\"><b>Successful harvest!</b></span><br>Your pay has increased by $0.02. Your bonus pay is now $0.74.</p>\n            ","response":0,"trial_type":"html-button-response","trial_index":110,"time_elapsed":1100788,"internal_node_id":"0.0-4.0-1.51","subject_id":"60412132066b2905a0e0ae65","study_id":"60edd13110225f80f9f3709b","session_id":"6196ba7f6ad6b4d6969eb2c7","condition":"full-information","relevant_dimensions":["antennae","legs"],"bee_group":{"antennae":"B","wings":"X","pattern":"X","legs":"F"},"bonus":1.4000000000000012},{"rt":523.8000000715256,"stimulus":"bees-with-color/bee-A1DM.svg","response":0,"trial_type":"image-button-response","trial_index":111,"time_elapsed":1101312,"internal_node_id":"0.0-4.0-0.52","subject_id":"60412132066b2905a0e0ae65","study_id":"60edd13110225f80f9f3709b","session_id":"6196ba7f6ad6b4d6969eb2c7","condition":"full-information","relevant_dimensions":["antennae","legs"],"bee_group":{"antennae":"B","wings":"X","pattern":"X","legs":"F"},"action":"harvest","summary":"good-harvest","bonus":1.4000000000000012},{"rt":446.5,"stimulus":"\n                    <p><b>Action: <em>harvest</em></b></p>\n                    <p>This is the bee that you just saw.</p>\n                    <img src=\"bees-with-color/bee-A1DM.svg\" width=\"200\">\n                    <p><span class=\"greenText\"><b>Successful harvest!</b></span><br>Your pay has increased by $0.02. Your bonus pay is now $0.76.</p>\n            ","response":0,"trial_type":"html-button-response","trial_index":112,"time_elapsed":1101760,"internal_node_id":"0.0-4.0-1.52","subject_id":"60412132066b2905a0e0ae65","study_id":"60edd13110225f80f9f3709b","session_id":"6196ba7f6ad6b4d6969eb2c7","condition":"full-information","relevant_dimensions":["antennae","legs"],"bee_group":{"antennae":"B","wings":"X","pattern":"X","legs":"F"},"bonus":1.4000000000000012},{"rt":618.2000000476837,"stimulus":"bees-with-color/bee-B2SM.svg","response":0,"trial_type":"image-button-response","trial_index":113,"time_elapsed":1102379,"internal_node_id":"0.0-4.0-0.53","subject_id":"60412132066b2905a0e0ae65","study_id":"60edd13110225f80f9f3709b","session_id":"6196ba7f6ad6b4d6969eb2c7","condition":"full-information","relevant_dimensions":["antennae","legs"],"bee_group":{"antennae":"B","wings":"X","pattern":"X","legs":"F"},"action":"harvest","summary":"good-harvest","bonus":1.4000000000000012},{"rt":409.2999999523163,"stimulus":"\n                    <p><b>Action: <em>harvest</em></b></p>\n                    <p>This is the bee that you just saw.</p>\n                    <img src=\"bees-with-color/bee-B2SM.svg\" width=\"200\">\n                    <p><span class=\"greenText\"><b>Successful harvest!</b></span><br>Your pay has increased by $0.02. Your bonus pay is now $0.78.</p>\n            ","response":0,"trial_type":"html-button-response","trial_index":114,"time_elapsed":1102789,"internal_node_id":"0.0-4.0-1.53","subject_id":"60412132066b2905a0e0ae65","study_id":"60edd13110225f80f9f3709b","session_id":"6196ba7f6ad6b4d6969eb2c7","condition":"full-information","relevant_dimensions":["antennae","legs"],"bee_group":{"antennae":"B","wings":"X","pattern":"X","legs":"F"},"bonus":1.4000000000000012},{"rt":7345,"stimulus":"bees-with-color/bee-B1DF.svg","response":1,"trial_type":"image-button-response","trial_index":115,"time_elapsed":1110135,"internal_node_id":"0.0-4.0-0.54","subject_id":"60412132066b2905a0e0ae65","study_id":"60edd13110225f80f9f3709b","session_id":"6196ba7f6ad6b4d6969eb2c7","condition":"full-information","relevant_dimensions":["antennae","legs"],"bee_group":{"antennae":"B","wings":"X","pattern":"X","legs":"F"},"action":"avoid","summary":"good-avoid","bonus":1.4000000000000012},{"rt":553.6000000238419,"stimulus":"\n                    <p><b>Action: <em>avoid</em></b></p>\n                    <p>This is the bee that you just saw.</p>\n                    <img src=\"bees-with-color/bee-B1DF.svg\" width=\"200\">\n                    <p><span class=\"greenText\">Good choice!</span>  This bee would have stung you.<br>Your bonus pay is unchanged, and remains at $0.78.</p>\n            ","response":0,"trial_type":"html-button-response","trial_index":116,"time_elapsed":1110689,"internal_node_id":"0.0-4.0-1.54","subject_id":"60412132066b2905a0e0ae65","study_id":"60edd13110225f80f9f3709b","session_id":"6196ba7f6ad6b4d6969eb2c7","condition":"full-information","relevant_dimensions":["antennae","legs"],"bee_group":{"antennae":"B","wings":"X","pattern":"X","legs":"F"},"bonus":1.4000000000000012},{"rt":6406.600000023842,"stimulus":"bees-with-color/bee-A2DM.svg","response":0,"trial_type":"image-button-response","trial_index":117,"time_elapsed":1117097,"internal_node_id":"0.0-4.0-0.55","subject_id":"60412132066b2905a0e0ae65","study_id":"60edd13110225f80f9f3709b","session_id":"6196ba7f6ad6b4d6969eb2c7","condition":"full-information","relevant_dimensions":["antennae","legs"],"bee_group":{"antennae":"B","wings":"X","pattern":"X","legs":"F"},"action":"harvest","summary":"good-harvest","bonus":1.4000000000000012},{"rt":464.8000000715256,"stimulus":"\n                    <p><b>Action: <em>harvest</em></b></p>\n                    <p>This is the bee that you just saw.</p>\n                    <img src=\"bees-with-color/bee-A2DM.svg\" width=\"200\">\n                    <p><span class=\"greenText\"><b>Successful harvest!</b></span><br>Your pay has increased by $0.02. Your bonus pay is now $0.80.</p>\n            ","response":0,"trial_type":"html-button-response","trial_index":118,"time_elapsed":1117563,"internal_node_id":"0.0-4.0-1.55","subject_id":"60412132066b2905a0e0ae65","study_id":"60edd13110225f80f9f3709b","session_id":"6196ba7f6ad6b4d6969eb2c7","condition":"full-information","relevant_dimensions":["antennae","legs"],"bee_group":{"antennae":"B","wings":"X","pattern":"X","legs":"F"},"bonus":1.4000000000000012},{"rt":3432.100000023842,"stimulus":"bees-with-color/bee-A1DF.svg","response":0,"trial_type":"image-button-response","trial_index":119,"time_elapsed":1120996,"internal_node_id":"0.0-4.0-0.56","subject_id":"60412132066b2905a0e0ae65","study_id":"60edd13110225f80f9f3709b","session_id":"6196ba7f6ad6b4d6969eb2c7","condition":"full-information","relevant_dimensions":["antennae","legs"],"bee_group":{"antennae":"B","wings":"X","pattern":"X","legs":"F"},"action":"harvest","summary":"good-harvest","bonus":1.4000000000000012},{"rt":544.6000000238419,"stimulus":"\n                    <p><b>Action: <em>harvest</em></b></p>\n                    <p>This is the bee that you just saw.</p>\n                    <img src=\"bees-with-color/bee-A1DF.svg\" width=\"200\">\n                    <p><span class=\"greenText\"><b>Successful harvest!</b></span><br>Your pay has increased by $0.02. Your bonus pay is now $0.82.</p>\n            ","response":0,"trial_type":"html-button-response","trial_index":120,"time_elapsed":1121542,"internal_node_id":"0.0-4.0-1.56","subject_id":"60412132066b2905a0e0ae65","study_id":"60edd13110225f80f9f3709b","session_id":"6196ba7f6ad6b4d6969eb2c7","condition":"full-information","relevant_dimensions":["antennae","legs"],"bee_group":{"antennae":"B","wings":"X","pattern":"X","legs":"F"},"bonus":1.4000000000000012},{"rt":3437.899999976158,"stimulus":"bees-with-color/bee-A2SF.svg","response":0,"trial_type":"image-button-response","trial_index":121,"time_elapsed":1124982,"internal_node_id":"0.0-4.0-0.57","subject_id":"60412132066b2905a0e0ae65","study_id":"60edd13110225f80f9f3709b","session_id":"6196ba7f6ad6b4d6969eb2c7","condition":"full-information","relevant_dimensions":["antennae","legs"],"bee_group":{"antennae":"B","wings":"X","pattern":"X","legs":"F"},"action":"harvest","summary":"good-harvest","bonus":1.4000000000000012},{"rt":400.5,"stimulus":"\n                    <p><b>Action: <em>harvest</em></b></p>\n                    <p>This is the bee that you just saw.</p>\n                    <img src=\"bees-with-color/bee-A2SF.svg\" width=\"200\">\n                    <p><span class=\"greenText\"><b>Successful harvest!</b></span><br>Your pay has increased by $0.02. Your bonus pay is now $0.84.</p>\n            ","response":0,"trial_type":"html-button-response","trial_index":122,"time_elapsed":1125383,"internal_node_id":"0.0-4.0-1.57","subject_id":"60412132066b2905a0e0ae65","study_id":"60edd13110225f80f9f3709b","session_id":"6196ba7f6ad6b4d6969eb2c7","condition":"full-information","relevant_dimensions":["antennae","legs"],"bee_group":{"antennae":"B","wings":"X","pattern":"X","legs":"F"},"bonus":1.4000000000000012},{"rt":5052.400000095367,"stimulus":"bees-with-color/bee-B1DM.svg","response":0,"trial_type":"image-button-response","trial_index":123,"time_elapsed":1130437,"internal_node_id":"0.0-4.0-0.58","subject_id":"60412132066b2905a0e0ae65","study_id":"60edd13110225f80f9f3709b","session_id":"6196ba7f6ad6b4d6969eb2c7","condition":"full-information","relevant_dimensions":["antennae","legs"],"bee_group":{"antennae":"B","wings":"X","pattern":"X","legs":"F"},"action":"harvest","summary":"good-harvest","bonus":1.4000000000000012},{"rt":405.6999999284744,"stimulus":"\n                    <p><b>Action: <em>harvest</em></b></p>\n                    <p>This is the bee that you just saw.</p>\n                    <img src=\"bees-with-color/bee-B1DM.svg\" width=\"200\">\n                    <p><span class=\"greenText\"><b>Successful harvest!</b></span><br>Your pay has increased by $0.02. Your bonus pay is now $0.86.</p>\n            ","response":0,"trial_type":"html-button-response","trial_index":124,"time_elapsed":1130843,"internal_node_id":"0.0-4.0-1.58","subject_id":"60412132066b2905a0e0ae65","study_id":"60edd13110225f80f9f3709b","session_id":"6196ba7f6ad6b4d6969eb2c7","condition":"full-information","relevant_dimensions":["antennae","legs"],"bee_group":{"antennae":"B","wings":"X","pattern":"X","legs":"F"},"bonus":1.4000000000000012},{"rt":541.1000000238419,"stimulus":"bees-with-color/bee-B1SM.svg","response":0,"trial_type":"image-button-response","trial_index":125,"time_elapsed":1131386,"internal_node_id":"0.0-4.0-0.59","subject_id":"60412132066b2905a0e0ae65","study_id":"60edd13110225f80f9f3709b","session_id":"6196ba7f6ad6b4d6969eb2c7","condition":"full-information","relevant_dimensions":["antennae","legs"],"bee_group":{"antennae":"B","wings":"X","pattern":"X","legs":"F"},"action":"harvest","summary":"good-harvest","bonus":1.4000000000000012},{"rt":317.8000000715256,"stimulus":"\n                    <p><b>Action: <em>harvest</em></b></p>\n                    <p>This is the bee that you just saw.</p>\n                    <img src=\"bees-with-color/bee-B1SM.svg\" width=\"200\">\n                    <p><span class=\"greenText\"><b>Successful harvest!</b></span><br>Your pay has increased by $0.02. Your bonus pay is now $0.88.</p>\n            ","response":0,"trial_type":"html-button-response","trial_index":126,"time_elapsed":1131705,"internal_node_id":"0.0-4.0-1.59","subject_id":"60412132066b2905a0e0ae65","study_id":"60edd13110225f80f9f3709b","session_id":"6196ba7f6ad6b4d6969eb2c7","condition":"full-information","relevant_dimensions":["antennae","legs"],"bee_group":{"antennae":"B","wings":"X","pattern":"X","legs":"F"},"bonus":1.4000000000000012},{"rt":4766.5,"stimulus":"bees-with-color/bee-B2DF.svg","response":1,"trial_type":"image-button-response","trial_index":127,"time_elapsed":1136472,"internal_node_id":"0.0-4.0-0.60","subject_id":"60412132066b2905a0e0ae65","study_id":"60edd13110225f80f9f3709b","session_id":"6196ba7f6ad6b4d6969eb2c7","condition":"full-information","relevant_dimensions":["antennae","legs"],"bee_group":{"antennae":"B","wings":"X","pattern":"X","legs":"F"},"action":"avoid","summary":"good-avoid","bonus":1.4000000000000012},{"rt":495.7999999523163,"stimulus":"\n                    <p><b>Action: <em>avoid</em></b></p>\n                    <p>This is the bee that you just saw.</p>\n                    <img src=\"bees-with-color/bee-B2DF.svg\" width=\"200\">\n                    <p><span class=\"greenText\">Good choice!</span>  This bee would have stung you.<br>Your bonus pay is unchanged, and remains at $0.88.</p>\n            ","response":0,"trial_type":"html-button-response","trial_index":128,"time_elapsed":1136969,"internal_node_id":"0.0-4.0-1.60","subject_id":"60412132066b2905a0e0ae65","study_id":"60edd13110225f80f9f3709b","session_id":"6196ba7f6ad6b4d6969eb2c7","condition":"full-information","relevant_dimensions":["antennae","legs"],"bee_group":{"antennae":"B","wings":"X","pattern":"X","legs":"F"},"bonus":1.4000000000000012},{"rt":1511.8999999761581,"stimulus":"bees-with-color/bee-A1SF.svg","response":0,"trial_type":"image-button-response","trial_index":129,"time_elapsed":1138482,"internal_node_id":"0.0-4.0-0.61","subject_id":"60412132066b2905a0e0ae65","study_id":"60edd13110225f80f9f3709b","session_id":"6196ba7f6ad6b4d6969eb2c7","condition":"full-information","relevant_dimensions":["antennae","legs"],"bee_group":{"antennae":"B","wings":"X","pattern":"X","legs":"F"},"action":"harvest","summary":"good-harvest","bonus":1.4000000000000012},{"rt":403.7000000476837,"stimulus":"\n                    <p><b>Action: <em>harvest</em></b></p>\n                    <p>This is the bee that you just saw.</p>\n                    <img src=\"bees-with-color/bee-A1SF.svg\" width=\"200\">\n                    <p><span class=\"greenText\"><b>Successful harvest!</b></span><br>Your pay has increased by $0.02. Your bonus pay is now $0.90.</p>\n            ","response":0,"trial_type":"html-button-response","trial_index":130,"time_elapsed":1138887,"internal_node_id":"0.0-4.0-1.61","subject_id":"60412132066b2905a0e0ae65","study_id":"60edd13110225f80f9f3709b","session_id":"6196ba7f6ad6b4d6969eb2c7","condition":"full-information","relevant_dimensions":["antennae","legs"],"bee_group":{"antennae":"B","wings":"X","pattern":"X","legs":"F"},"bonus":1.4000000000000012},{"rt":6450.300000071526,"stimulus":"bees-with-color/bee-B1SF.svg","response":1,"trial_type":"image-button-response","trial_index":131,"time_elapsed":1145338,"internal_node_id":"0.0-4.0-0.62","subject_id":"60412132066b2905a0e0ae65","study_id":"60edd13110225f80f9f3709b","session_id":"6196ba7f6ad6b4d6969eb2c7","condition":"full-information","relevant_dimensions":["antennae","legs"],"bee_group":{"antennae":"B","wings":"X","pattern":"X","legs":"F"},"action":"avoid","summary":"good-avoid","bonus":1.4000000000000012},{"rt":488.10000002384186,"stimulus":"\n                    <p><b>Action: <em>avoid</em></b></p>\n                    <p>This is the bee that you just saw.</p>\n                    <img src=\"bees-with-color/bee-B1SF.svg\" width=\"200\">\n                    <p><span class=\"greenText\">Good choice!</span>  This bee would have stung you.<br>Your bonus pay is unchanged, and remains at $0.90.</p>\n            ","response":0,"trial_type":"html-button-response","trial_index":132,"time_elapsed":1145827,"internal_node_id":"0.0-4.0-1.62","subject_id":"60412132066b2905a0e0ae65","study_id":"60edd13110225f80f9f3709b","session_id":"6196ba7f6ad6b4d6969eb2c7","condition":"full-information","relevant_dimensions":["antennae","legs"],"bee_group":{"antennae":"B","wings":"X","pattern":"X","legs":"F"},"bonus":1.4000000000000012},{"rt":1493.3000000715256,"stimulus":"bees-with-color/bee-A2SM.svg","response":0,"trial_type":"image-button-response","trial_index":133,"time_elapsed":1147321,"internal_node_id":"0.0-4.0-0.63","subject_id":"60412132066b2905a0e0ae65","study_id":"60edd13110225f80f9f3709b","session_id":"6196ba7f6ad6b4d6969eb2c7","condition":"full-information","relevant_dimensions":["antennae","legs"],"bee_group":{"antennae":"B","wings":"X","pattern":"X","legs":"F"},"action":"harvest","summary":"good-harvest","bonus":1.4000000000000012},{"rt":403.10000002384186,"stimulus":"\n                    <p><b>Action: <em>harvest</em></b></p>\n                    <p>This is the bee that you just saw.</p>\n                    <img src=\"bees-with-color/bee-A2SM.svg\" width=\"200\">\n                    <p><span class=\"greenText\"><b>Successful harvest!</b></span><br>Your pay has increased by $0.02. Your bonus pay is now $0.92.</p>\n            ","response":0,"trial_type":"html-button-response","trial_index":134,"time_elapsed":1147725,"internal_node_id":"0.0-4.0-1.63","subject_id":"60412132066b2905a0e0ae65","study_id":"60edd13110225f80f9f3709b","session_id":"6196ba7f6ad6b4d6969eb2c7","condition":"full-information","relevant_dimensions":["antennae","legs"],"bee_group":{"antennae":"B","wings":"X","pattern":"X","legs":"F"},"bonus":1.4000000000000012},{"rt":8671.700000047684,"stimulus":"You have completed the first part of this experiment.<br><br>You will now begin a shorter second part, in which you will receive no feedback.<br>The same rules regarding bonus pay apply.<br><br>Press any key to begin.","response":" ","trial_type":"html-keyboard-response","trial_index":135,"time_elapsed":1156397,"internal_node_id":"0.0-5.0","subject_id":"60412132066b2905a0e0ae65","study_id":"60edd13110225f80f9f3709b","session_id":"6196ba7f6ad6b4d6969eb2c7","condition":"full-information","relevant_dimensions":["antennae","legs"],"bee_group":{"antennae":"B","wings":"X","pattern":"X","legs":"F"},"bonus":1.4000000000000012},{"rt":4457.399999976158,"stimulus":"bees-with-color/bee-B1SF.svg","response":1,"trial_type":"image-button-response","trial_index":136,"time_elapsed":1160859,"internal_node_id":"0.0-6.0-0.0","subject_id":"60412132066b2905a0e0ae65","study_id":"60edd13110225f80f9f3709b","session_id":"6196ba7f6ad6b4d6969eb2c7","condition":"full-information","relevant_dimensions":["antennae","legs"],"bee_group":{"antennae":"B","wings":"X","pattern":"X","legs":"F"},"bonus":1.4000000000000012},{"rt":4177.5,"stimulus":"bees-with-color/bee-A2DF.svg","response":0,"trial_type":"image-button-response","trial_index":137,"time_elapsed":1165038,"internal_node_id":"0.0-6.0-0.1","subject_id":"60412132066b2905a0e0ae65","study_id":"60edd13110225f80f9f3709b","session_id":"6196ba7f6ad6b4d6969eb2c7","condition":"full-information","relevant_dimensions":["antennae","legs"],"bee_group":{"antennae":"B","wings":"X","pattern":"X","legs":"F"},"bonus":1.4000000000000012},{"rt":991.7000000476837,"stimulus":"bees-with-color/bee-B2DM.svg","response":0,"trial_type":"image-button-response","trial_index":138,"time_elapsed":1166031,"internal_node_id":"0.0-6.0-0.2","subject_id":"60412132066b2905a0e0ae65","study_id":"60edd13110225f80f9f3709b","session_id":"6196ba7f6ad6b4d6969eb2c7","condition":"full-information","relevant_dimensions":["antennae","legs"],"bee_group":{"antennae":"B","wings":"X","pattern":"X","legs":"F"},"bonus":1.4000000000000012},{"rt":2680.600000023842,"stimulus":"bees-with-color/bee-B1DF.svg","response":1,"trial_type":"image-button-response","trial_index":139,"time_elapsed":1168713,"internal_node_id":"0.0-6.0-0.3","subject_id":"60412132066b2905a0e0ae65","study_id":"60edd13110225f80f9f3709b","session_id":"6196ba7f6ad6b4d6969eb2c7","condition":"full-information","relevant_dimensions":["antennae","legs"],"bee_group":{"antennae":"B","wings":"X","pattern":"X","legs":"F"},"bonus":1.4000000000000012},{"rt":1132.6000000238419,"stimulus":"bees-with-color/bee-A2SM.svg","response":0,"trial_type":"image-button-response","trial_index":140,"time_elapsed":1169847,"internal_node_id":"0.0-6.0-0.4","subject_id":"60412132066b2905a0e0ae65","study_id":"60edd13110225f80f9f3709b","session_id":"6196ba7f6ad6b4d6969eb2c7","condition":"full-information","relevant_dimensions":["antennae","legs"],"bee_group":{"antennae":"B","wings":"X","pattern":"X","legs":"F"},"bonus":1.4000000000000012},{"rt":1269.8999999761581,"stimulus":"bees-with-color/bee-A2SF.svg","response":0,"trial_type":"image-button-response","trial_index":141,"time_elapsed":1171118,"internal_node_id":"0.0-6.0-0.5","subject_id":"60412132066b2905a0e0ae65","study_id":"60edd13110225f80f9f3709b","session_id":"6196ba7f6ad6b4d6969eb2c7","condition":"full-information","relevant_dimensions":["antennae","legs"],"bee_group":{"antennae":"B","wings":"X","pattern":"X","legs":"F"},"bonus":1.4000000000000012},{"rt":944.2000000476837,"stimulus":"bees-with-color/bee-A1SF.svg","response":0,"trial_type":"image-button-response","trial_index":142,"time_elapsed":1172064,"internal_node_id":"0.0-6.0-0.6","subject_id":"60412132066b2905a0e0ae65","study_id":"60edd13110225f80f9f3709b","session_id":"6196ba7f6ad6b4d6969eb2c7","condition":"full-information","relevant_dimensions":["antennae","legs"],"bee_group":{"antennae":"B","wings":"X","pattern":"X","legs":"F"},"bonus":1.4000000000000012},{"rt":1444.3999999761581,"stimulus":"bees-with-color/bee-B1DM.svg","response":0,"trial_type":"image-button-response","trial_index":143,"time_elapsed":1173509,"internal_node_id":"0.0-6.0-0.7","subject_id":"60412132066b2905a0e0ae65","study_id":"60edd13110225f80f9f3709b","session_id":"6196ba7f6ad6b4d6969eb2c7","condition":"full-information","relevant_dimensions":["antennae","legs"],"bee_group":{"antennae":"B","wings":"X","pattern":"X","legs":"F"},"bonus":1.4000000000000012},{"rt":1059.8000000715256,"stimulus":"bees-with-color/bee-A2DM.svg","response":0,"trial_type":"image-button-response","trial_index":144,"time_elapsed":1174571,"internal_node_id":"0.0-6.0-0.8","subject_id":"60412132066b2905a0e0ae65","study_id":"60edd13110225f80f9f3709b","session_id":"6196ba7f6ad6b4d6969eb2c7","condition":"full-information","relevant_dimensions":["antennae","legs"],"bee_group":{"antennae":"B","wings":"X","pattern":"X","legs":"F"},"bonus":1.4000000000000012},{"rt":1711.2999999523163,"stimulus":"bees-with-color/bee-A1DF.svg","response":0,"trial_type":"image-button-response","trial_index":145,"time_elapsed":1176283,"internal_node_id":"0.0-6.0-0.9","subject_id":"60412132066b2905a0e0ae65","study_id":"60edd13110225f80f9f3709b","session_id":"6196ba7f6ad6b4d6969eb2c7","condition":"full-information","relevant_dimensions":["antennae","legs"],"bee_group":{"antennae":"B","wings":"X","pattern":"X","legs":"F"},"bonus":1.4000000000000012},{"rt":1022.9000000953674,"stimulus":"bees-with-color/bee-A1SM.svg","response":0,"trial_type":"image-button-response","trial_index":146,"time_elapsed":1177308,"internal_node_id":"0.0-6.0-0.10","subject_id":"60412132066b2905a0e0ae65","study_id":"60edd13110225f80f9f3709b","session_id":"6196ba7f6ad6b4d6969eb2c7","condition":"full-information","relevant_dimensions":["antennae","legs"],"bee_group":{"antennae":"B","wings":"X","pattern":"X","legs":"F"},"bonus":1.4000000000000012},{"rt":3665.5999999046326,"stimulus":"bees-with-color/bee-B2DF.svg","response":1,"trial_type":"image-button-response","trial_index":147,"time_elapsed":1180975,"internal_node_id":"0.0-6.0-0.11","subject_id":"60412132066b2905a0e0ae65","study_id":"60edd13110225f80f9f3709b","session_id":"6196ba7f6ad6b4d6969eb2c7","condition":"full-information","relevant_dimensions":["antennae","legs"],"bee_group":{"antennae":"B","wings":"X","pattern":"X","legs":"F"},"bonus":1.4000000000000012},{"rt":3076.2999999523163,"stimulus":"bees-with-color/bee-B2SF.svg","response":1,"trial_type":"image-button-response","trial_index":148,"time_elapsed":1184053,"internal_node_id":"0.0-6.0-0.12","subject_id":"60412132066b2905a0e0ae65","study_id":"60edd13110225f80f9f3709b","session_id":"6196ba7f6ad6b4d6969eb2c7","condition":"full-information","relevant_dimensions":["antennae","legs"],"bee_group":{"antennae":"B","wings":"X","pattern":"X","legs":"F"},"bonus":1.4000000000000012},{"rt":1260.2000000476837,"stimulus":"bees-with-color/bee-B1SM.svg","response":0,"trial_type":"image-button-response","trial_index":149,"time_elapsed":1185315,"internal_node_id":"0.0-6.0-0.13","subject_id":"60412132066b2905a0e0ae65","study_id":"60edd13110225f80f9f3709b","session_id":"6196ba7f6ad6b4d6969eb2c7","condition":"full-information","relevant_dimensions":["antennae","legs"],"bee_group":{"antennae":"B","wings":"X","pattern":"X","legs":"F"},"bonus":1.4000000000000012},{"rt":1055.3999999761581,"stimulus":"bees-with-color/bee-B2SM.svg","response":0,"trial_type":"image-button-response","trial_index":150,"time_elapsed":1186372,"internal_node_id":"0.0-6.0-0.14","subject_id":"60412132066b2905a0e0ae65","study_id":"60edd13110225f80f9f3709b","session_id":"6196ba7f6ad6b4d6969eb2c7","condition":"full-information","relevant_dimensions":["antennae","legs"],"bee_group":{"antennae":"B","wings":"X","pattern":"X","legs":"F"},"bonus":1.4000000000000012},{"rt":1056.8999999761581,"stimulus":"bees-with-color/bee-A1DM.svg","response":0,"trial_type":"image-button-response","trial_index":151,"time_elapsed":1187430,"internal_node_id":"0.0-6.0-0.15","subject_id":"60412132066b2905a0e0ae65","study_id":"60edd13110225f80f9f3709b","session_id":"6196ba7f6ad6b4d6969eb2c7","condition":"full-information","relevant_dimensions":["antennae","legs"],"bee_group":{"antennae":"B","wings":"X","pattern":"X","legs":"F"},"bonus":1.4000000000000012},{"rt":1230.7999999523163,"stimulus":"bees-with-color/bee-B2DM.svg","response":0,"trial_type":"image-button-response","trial_index":152,"time_elapsed":1188662,"internal_node_id":"0.0-6.0-0.16","subject_id":"60412132066b2905a0e0ae65","study_id":"60edd13110225f80f9f3709b","session_id":"6196ba7f6ad6b4d6969eb2c7","condition":"full-information","relevant_dimensions":["antennae","legs"],"bee_group":{"antennae":"B","wings":"X","pattern":"X","legs":"F"},"bonus":1.4000000000000012},{"rt":1682.7000000476837,"stimulus":"bees-with-color/bee-B2DF.svg","response":1,"trial_type":"image-button-response","trial_index":153,"time_elapsed":1190346,"internal_node_id":"0.0-6.0-0.17","subject_id":"60412132066b2905a0e0ae65","study_id":"60edd13110225f80f9f3709b","session_id":"6196ba7f6ad6b4d6969eb2c7","condition":"full-information","relevant_dimensions":["antennae","legs"],"bee_group":{"antennae":"B","wings":"X","pattern":"X","legs":"F"},"bonus":1.4000000000000012},{"rt":3122.399999976158,"stimulus":"bees-with-color/bee-B2SM.svg","response":0,"trial_type":"image-button-response","trial_index":154,"time_elapsed":1193469,"internal_node_id":"0.0-6.0-0.18","subject_id":"60412132066b2905a0e0ae65","study_id":"60edd13110225f80f9f3709b","session_id":"6196ba7f6ad6b4d6969eb2c7","condition":"full-information","relevant_dimensions":["antennae","legs"],"bee_group":{"antennae":"B","wings":"X","pattern":"X","legs":"F"},"bonus":1.4000000000000012},{"rt":1404.1999999284744,"stimulus":"bees-with-color/bee-A2DF.svg","response":0,"trial_type":"image-button-response","trial_index":155,"time_elapsed":1194874,"internal_node_id":"0.0-6.0-0.19","subject_id":"60412132066b2905a0e0ae65","study_id":"60edd13110225f80f9f3709b","session_id":"6196ba7f6ad6b4d6969eb2c7","condition":"full-information","relevant_dimensions":["antennae","legs"],"bee_group":{"antennae":"B","wings":"X","pattern":"X","legs":"F"},"bonus":1.4000000000000012},{"rt":911.3000000715256,"stimulus":"bees-with-color/bee-B1DM.svg","response":0,"trial_type":"image-button-response","trial_index":156,"time_elapsed":1195787,"internal_node_id":"0.0-6.0-0.20","subject_id":"60412132066b2905a0e0ae65","study_id":"60edd13110225f80f9f3709b","session_id":"6196ba7f6ad6b4d6969eb2c7","condition":"full-information","relevant_dimensions":["antennae","legs"],"bee_group":{"antennae":"B","wings":"X","pattern":"X","legs":"F"},"bonus":1.400000000000