[{"success":true,"trial_type":"fullscreen","trial_index":0,"time_elapsed":3588,"internal_node_id":"0.0-0.0","subject_id":"6122af5e398815fcb95b6c0f","study_id":"6197b3f67c2b5cd3b6d9596a","session_id":"619be31adafecc7d8e6fca5b","condition":"contingent","relevant_dimensions":["wings","pattern"],"bee_group":{"antennae":"X","wings":"1","pattern":"D","legs":"X"},"bonus":1.4000000000000008},{"success":true,"timeout":false,"failed_images":[],"failed_audio":[],"failed_video":[],"trial_type":"preload","trial_index":1,"time_elapsed":4980,"internal_node_id":"0.0-1.0","subject_id":"6122af5e398815fcb95b6c0f","study_id":"6197b3f67c2b5cd3b6d9596a","session_id":"619be31adafecc7d8e6fca5b","condition":"contingent","relevant_dimensions":["wings","pattern"],"bee_group":{"antennae":"X","wings":"1","pattern":"D","legs":"X"},"bonus":1.4000000000000008},{"rt":2951.4000000953674,"stimulus":"Welcome! Press any key to begin.","response":",","trial_type":"html-keyboard-response","trial_index":2,"time_elapsed":7932,"internal_node_id":"0.0-2.0","subject_id":"6122af5e398815fcb95b6c0f","study_id":"6197b3f67c2b5cd3b6d9596a","session_id":"619be31adafecc7d8e6fca5b","condition":"contingent","relevant_dimensions":["wings","pattern"],"bee_group":{"antennae":"X","wings":"1","pattern":"D","legs":"X"},"bonus":1.4000000000000008},{"view_history":[{"page_index":0,"viewing_time":28710.300000190735},{"page_index":1,"viewing_time":20600.099999904633},{"page_index":2,"viewing_time":16331.200000047684},{"page_index":3,"viewing_time":25930.5},{"page_index":4,"viewing_time":23890.799999952316},{"page_index":5,"viewing_time":13552.299999952316},{"page_index":6,"viewing_time":14403.700000047684},{"page_index":7,"viewing_time":13854.900000095367},{"page_index":8,"viewing_time":25261.5},{"page_index":9,"viewing_time":11984.899999856949},{"page_index":10,"viewing_time":13884.400000095367},{"page_index":11,"viewing_time":17482.099999904633},{"page_index":12,"viewing_time":9484.5},{"page_index":13,"viewing_time":1777.1000001430511},{"page_index":14,"viewing_time":1972.2999999523163}],"rt":239121.10000014305,"trial_type":"instructions","trial_index":3,"time_elapsed":247060,"internal_node_id":"0.0-3.0-0.0","subject_id":"6122af5e398815fcb95b6c0f","study_id":"6197b3f67c2b5cd3b6d9596a","session_id":"619be31adafecc7d8e6fca5b","condition":"contingent","relevant_dimensions":["wings","pattern"],"bee_group":{"antennae":"X","wings":"1","pattern":"D","legs":"X"},"bonus":1.4000000000000008},{"rt":15772.099999904633,"response":{"Q0":["Two or six legs","Stripes or spots on body","Single or double wings","Antennae or no antennae"]},"question_order":[0],"trial_type":"survey-multi-select","trial_index":4,"time_elapsed":262841,"internal_node_id":"0.0-3.0-1.0","subject_id":"6122af5e398815fcb95b6c0f","study_id":"6197b3f67c2b5cd3b6d9596a","session_id":"619be31adafecc7d8e6fca5b","condition":"contingent","relevant_dimensions":["wings","pattern"],"bee_group":{"antennae":"X","wings":"1","pattern":"D","legs":"X"},"correct":true,"bonus":1.4000000000000008},{"rt":29952.200000047684,"response":{"Q1":"No.","Q2":"Based on the four features of the bee.","Q3":"You do not learn if it was friendly or dangerous, and do not alter your bonus."},"question_order":[0,1,2],"trial_type":"survey-multi-choice","trial_index":5,"time_elapsed":292797,"internal_node_id":"0.0-3.0-2.0","subject_id":"6122af5e398815fcb95b6c0f","study_id":"6197b3f67c2b5cd3b6d9596a","session_id":"619be31adafecc7d8e6fca5b","condition":"contingent","relevant_dimensions":["wings","pattern"],"bee_group":{"antennae":"X","wings":"1","pattern":"D","legs":"X"},"correct":true,"bonus":1.4000000000000008},{"rt":1975.8999998569489,"stimulus":"<p>Congrats, you got everything right<br>When you're ready, click the button below to continue to the experiment.</p>","response":0,"trial_type":"html-button-response","trial_index":6,"time_elapsed":294775,"internal_node_id":"0.0-3.0-3.0","subject_id":"6122af5e398815fcb95b6c0f","study_id":"6197b3f67c2b5cd3b6d9596a","session_id":"619be31adafecc7d8e6fca5b","condition":"contingent","relevant_dimensions":["wings","pattern"],"bee_group":{"antennae":"X","wings":"1","pattern":"D","legs":"X"},"bonus":1.4000000000000008},{"rt":29346.299999952316,"stimulus":"bees-with-color/bee-B1SM.svg","response":0,"trial_type":"image-button-response","trial_index":7,"time_elapsed":324126,"internal_node_id":"0.0-4.0-0.0","subject_id":"6122af5e398815fcb95b6c0f","study_id":"6197b3f67c2b5cd3b6d9596a","session_id":"619be31adafecc7d8e6fca5b","condition":"contingent","relevant_dimensions":["wings","pattern"],"bee_group":{"antennae":"X","wings":"1","pattern":"D","legs":"X"},"action":"harvest","summary":"good-harvest","bonus":1.4000000000000008},{"rt":6761.199999809265,"stimulus":"\n                    <p><b>Action: <em>harvest</em></b></p>\n                    <p>This is the bee that you just saw.</p>\n                    <img src=\"bees-with-color/bee-B1SM.svg\" width=\"200\">\n                    <p><span class=\"greenText\"><b>Successful harvest!</b></span><br>Your pay has increased by $0.02. Your bonus pay is now $0.56.</p>\n            ","response":0,"trial_type":"html-button-response","trial_index":8,"time_elapsed":330892,"internal_node_id":"0.0-4.0-1.0","subject_id":"6122af5e398815fcb95b6c0f","study_id":"6197b3f67c2b5cd3b6d9596a","session_id":"619be31adafecc7d8e6fca5b","condition":"contingent","relevant_dimensions":["wings","pattern"],"bee_group":{"antennae":"X","wings":"1","pattern":"D","legs":"X"},"bonus":1.4000000000000008},{"rt":19863.199999809265,"stimulus":"bees-with-color/bee-B1SF.svg","response":0,"trial_type":"image-button-response","trial_index":9,"time_elapsed":350758,"internal_node_id":"0.0-4.0-0.1","subject_id":"6122af5e398815fcb95b6c0f","study_id":"6197b3f67c2b5cd3b6d9596a","session_id":"619be31adafecc7d8e6fca5b","condition":"contingent","relevant_dimensions":["wings","pattern"],"bee_group":{"antennae":"X","wings":"1","pattern":"D","legs":"X"},"action":"harvest","summary":"good-harvest","bonus":1.4000000000000008},{"rt":8808.300000190735,"stimulus":"\n                    <p><b>Action: <em>harvest</em></b></p>\n                    <p>This is the bee that you just saw.</p>\n                    <img src=\"bees-with-color/bee-B1SF.svg\" width=\"200\">\n                    <p><span class=\"greenText\"><b>Successful harvest!</b></span><br>Your pay has increased by $0.02. Your bonus pay is now $0.58.</p>\n            ","response":0,"trial_type":"html-button-response","trial_index":10,"time_elapsed":359570,"internal_node_id":"0.0-4.0-1.1","subject_id":"6122af5e398815fcb95b6c0f","study_id":"6197b3f67c2b5cd3b6d9596a","session_id":"619be31adafecc7d8e6fca5b","condition":"contingent","relevant_dimensions":["wings","pattern"],"bee_group":{"antennae":"X","wings":"1","pattern":"D","legs":"X"},"bonus":1.4000000000000008},{"rt":23288.89999985695,"stimulus":"bees-with-color/bee-A1SF.svg","response":0,"trial_type":"image-button-response","trial_index":11,"time_elapsed":382862,"internal_node_id":"0.0-4.0-0.2","subject_id":"6122af5e398815fcb95b6c0f","study_id":"6197b3f67c2b5cd3b6d9596a","session_id":"619be31adafecc7d8e6fca5b","condition":"contingent","relevant_dimensions":["wings","pattern"],"bee_group":{"antennae":"X","wings":"1","pattern":"D","legs":"X"},"action":"harvest","summary":"good-harvest","bonus":1.4000000000000008},{"rt":2936.7999999523163,"stimulus":"\n                    <p><b>Action: <em>harvest</em></b></p>\n                    <p>This is the bee that you just saw.</p>\n                    <img src=\"bees-with-color/bee-A1SF.svg\" width=\"200\">\n                    <p><span class=\"greenText\"><b>Successful harvest!</b></span><br>Your pay has increased by $0.02. Your bonus pay is now $0.60.</p>\n            ","response":0,"trial_type":"html-button-response","trial_index":12,"time_elapsed":385801,"internal_node_id":"0.0-4.0-1.2","subject_id":"6122af5e398815fcb95b6c0f","study_id":"6197b3f67c2b5cd3b6d9596a","session_id":"619be31adafecc7d8e6fca5b","condition":"contingent","relevant_dimensions":["wings","pattern"],"bee_group":{"antennae":"X","wings":"1","pattern":"D","legs":"X"},"bonus":1.4000000000000008},{"rt":4893.600000143051,"stimulus":"bees-with-color/bee-A1DF.svg","response":0,"trial_type":"image-button-response","trial_index":13,"time_elapsed":390697,"internal_node_id":"0.0-4.0-0.3","subject_id":"6122af5e398815fcb95b6c0f","study_id":"6197b3f67c2b5cd3b6d9596a","session_id":"619be31adafecc7d8e6fca5b","condition":"contingent","relevant_dimensions":["wings","pattern"],"bee_group":{"antennae":"X","wings":"1","pattern":"D","legs":"X"},"action":"harvest","summary":"bad-harvest","bonus":1.4000000000000008},{"rt":10563.099999904633,"stimulus":"\n                    <p><b>Action: <em>harvest</em></b></p>\n                    <p>This is the bee that you just saw.</p>\n                    <img src=\"bees-with-color/bee-A1DF.svg\" width=\"200\">\n                    <p><span class=\"redText\">Bad choice, the bee was angry.</span><br><b>You have been stung!</b><br>Your pay has been decreased by $0.10. Your bonus pay is now $0.50.</p>\n            ","response":0,"trial_type":"html-button-response","trial_index":14,"time_elapsed":401263,"internal_node_id":"0.0-4.0-1.3","subject_id":"6122af5e398815fcb95b6c0f","study_id":"6197b3f67c2b5cd3b6d9596a","session_id":"619be31adafecc7d8e6fca5b","condition":"contingent","relevant_dimensions":["wings","pattern"],"bee_group":{"antennae":"X","wings":"1","pattern":"D","legs":"X"},"bonus":1.4000000000000008},{"rt":9156.300000190735,"stimulus":"bees-with-color/bee-A1DM.svg","response":1,"trial_type":"image-button-response","trial_index":15,"time_elapsed":410422,"internal_node_id":"0.0-4.0-0.4","subject_id":"6122af5e398815fcb95b6c0f","study_id":"6197b3f67c2b5cd3b6d9596a","session_id":"619be31adafecc7d8e6fca5b","condition":"contingent","relevant_dimensions":["wings","pattern"],"bee_group":{"antennae":"X","wings":"1","pattern":"D","legs":"X"},"action":"avoid","summary":"good-avoid","bonus":1.4000000000000008},{"rt":2602.600000143051,"stimulus":"\n                    <p><b>Action: <em>avoid</em></b></p>\n                    <p>This is the bee that you just saw.</p>\n                    <img src=\"bees-with-color/bee-A1DM.svg\" width=\"200\">\n                    <p><br>Your bonus pay is unchanged, and remains at $0.50.</p>\n            ","response":0,"trial_type":"html-button-response","trial_index":16,"time_elapsed":413027,"internal_node_id":"0.0-4.0-1.4","subject_id":"6122af5e398815fcb95b6c0f","study_id":"6197b3f67c2b5cd3b6d9596a","session_id":"619be31adafecc7d8e6fca5b","condition":"contingent","relevant_dimensions":["wings","pattern"],"bee_group":{"antennae":"X","wings":"1","pattern":"D","legs":"X"},"bonus":1.4000000000000008},{"rt":1577.6000001430511,"stimulus":"bees-with-color/bee-A2DM.svg","response":1,"trial_type":"image-button-response","trial_index":17,"time_elapsed":414607,"internal_node_id":"0.0-4.0-0.5","subject_id":"6122af5e398815fcb95b6c0f","study_id":"6197b3f67c2b5cd3b6d9596a","session_id":"619be31adafecc7d8e6fca5b","condition":"contingent","relevant_dimensions":["wings","pattern"],"bee_group":{"antennae":"X","wings":"1","pattern":"D","legs":"X"},"action":"avoid","summary":"bad-avoid","bonus":1.4000000000000008},{"rt":1681.9000000953674,"stimulus":"\n                    <p><b>Action: <em>avoid</em></b></p>\n                    <p>This is the bee that you just saw.</p>\n                    <img src=\"bees-with-color/bee-A2DM.svg\" width=\"200\">\n                    <p><br>Your bonus pay is unchanged, and remains at $0.50.</p>\n            ","response":0,"trial_type":"html-button-response","trial_index":18,"time_elapsed":416290,"internal_node_id":"0.0-4.0-1.5","subject_id":"6122af5e398815fcb95b6c0f","study_id":"6197b3f67c2b5cd3b6d9596a","session_id":"619be31adafecc7d8e6fca5b","condition":"contingent","relevant_dimensions":["wings","pattern"],"bee_group":{"antennae":"X","wings":"1","pattern":"D","legs":"X"},"bonus":1.4000000000000008},{"rt":1875.2999999523163,"stimulus":"bees-with-color/bee-A2SM.svg","response":0,"trial_type":"image-button-response","trial_index":19,"time_elapsed":418168,"internal_node_id":"0.0-4.0-0.6","subject_id":"6122af5e398815fcb95b6c0f","study_id":"6197b3f67c2b5cd3b6d9596a","session_id":"619be31adafecc7d8e6fca5b","condition":"contingent","relevant_dimensions":["wings","pattern"],"bee_group":{"antennae":"X","wings":"1","pattern":"D","legs":"X"},"action":"harvest","summary":"good-harvest","bonus":1.4000000000000008},{"rt":13948.900000095367,"stimulus":"\n                    <p><b>Action: <em>harvest</em></b></p>\n                    <p>This is the bee that you just saw.</p>\n                    <img src=\"bees-with-color/bee-A2SM.svg\" width=\"200\">\n                    <p><span class=\"greenText\"><b>Successful harvest!</b></span><br>Your pay has increased by $0.02. Your bonus pay is now $0.52.</p>\n            ","response":0,"trial_type":"html-button-response","trial_index":20,"time_elapsed":432120,"internal_node_id":"0.0-4.0-1.6","subject_id":"6122af5e398815fcb95b6c0f","study_id":"6197b3f67c2b5cd3b6d9596a","session_id":"619be31adafecc7d8e6fca5b","condition":"contingent","relevant_dimensions":["wings","pattern"],"bee_group":{"antennae":"X","wings":"1","pattern":"D","legs":"X"},"bonus":1.4000000000000008},{"rt":1852.5,"stimulus":"bees-with-color/bee-A1SM.svg","response":0,"trial_type":"image-button-response","trial_index":21,"time_elapsed":433975,"internal_node_id":"0.0-4.0-0.7","subject_id":"6122af5e398815fcb95b6c0f","study_id":"6197b3f67c2b5cd3b6d9596a","session_id":"619be31adafecc7d8e6fca5b","condition":"contingent","relevant_dimensions":["wings","pattern"],"bee_group":{"antennae":"X","wings":"1","pattern":"D","legs":"X"},"action":"harvest","summary":"good-harvest","bonus":1.4000000000000008},{"rt":1760.7999999523163,"stimulus":"\n                    <p><b>Action: <em>harvest</em></b></p>\n                    <p>This is the bee that you just saw.</p>\n                    <img src=\"bees-with-color/bee-A1SM.svg\" width=\"200\">\n                    <p><span class=\"greenText\"><b>Successful harvest!</b></span><br>Your pay has increased by $0.02. Your bonus pay is now $0.54.</p>\n            ","response":0,"trial_type":"html-button-response","trial_index":22,"time_elapsed":435737,"internal_node_id":"0.0-4.0-1.7","subject_id":"6122af5e398815fcb95b6c0f","study_id":"6197b3f67c2b5cd3b6d9596a","session_id":"619be31adafecc7d8e6fca5b","condition":"contingent","relevant_dimensions":["wings","pattern"],"bee_group":{"antennae":"X","wings":"1","pattern":"D","legs":"X"},"bonus":1.4000000000000008},{"rt":1731.2000000476837,"stimulus":"bees-with-color/bee-B2DM.svg","response":1,"trial_type":"image-button-response","trial_index":23,"time_elapsed":437471,"internal_node_id":"0.0-4.0-0.8","subject_id":"6122af5e398815fcb95b6c0f","study_id":"6197b3f67c2b5cd3b6d9596a","session_id":"619be31adafecc7d8e6fca5b","condition":"contingent","relevant_dimensions":["wings","pattern"],"bee_group":{"antennae":"X","wings":"1","pattern":"D","legs":"X"},"action":"avoid","summary":"bad-avoid","bonus":1.4000000000000008},{"rt":1151.7999999523163,"stimulus":"\n                    <p><b>Action: <em>avoid</em></b></p>\n                    <p>This is the bee that you just saw.</p>\n                    <img src=\"bees-with-color/bee-B2DM.svg\" width=\"200\">\n                    <p><br>Your bonus pay is unchanged, and remains at $0.54.</p>\n            ","response":0,"trial_type":"html-button-response","trial_index":24,"time_elapsed":438626,"internal_node_id":"0.0-4.0-1.8","subject_id":"6122af5e398815fcb95b6c0f","study_id":"6197b3f67c2b5cd3b6d9596a","session_id":"619be31adafecc7d8e6fca5b","condition":"contingent","relevant_dimensions":["wings","pattern"],"bee_group":{"antennae":"X","wings":"1","pattern":"D","legs":"X"},"bonus":1.4000000000000008},{"rt":1477.6000001430511,"stimulus":"bees-with-color/bee-B1DF.svg","response":1,"trial_type":"image-button-response","trial_index":25,"time_elapsed":440106,"internal_node_id":"0.0-4.0-0.9","subject_id":"6122af5e398815fcb95b6c0f","study_id":"6197b3f67c2b5cd3b6d9596a","session_id":"619be31adafecc7d8e6fca5b","condition":"contingent","relevant_dimensions":["wings","pattern"],"bee_group":{"antennae":"X","wings":"1","pattern":"D","legs":"X"},"action":"avoid","summary":"good-avoid","bonus":1.4000000000000008},{"rt":965.1999998092651,"stimulus":"\n                    <p><b>Action: <em>avoid</em></b></p>\n                    <p>This is the bee that you just saw.</p>\n                    <img src=\"bees-with-color/bee-B1DF.svg\" width=\"200\">\n                    <p><br>Your bonus pay is unchanged, and remains at $0.54.</p>\n            ","response":0,"trial_type":"html-button-response","trial_index":26,"time_elapsed":441073,"internal_node_id":"0.0-4.0-1.9","subject_id":"6122af5e398815fcb95b6c0f","study_id":"6197b3f67c2b5cd3b6d9596a","session_id":"619be31adafecc7d8e6fca5b","condition":"contingent","relevant_dimensions":["wings","pattern"],"bee_group":{"antennae":"X","wings":"1","pattern":"D","legs":"X"},"bonus":1.4000000000000008},{"rt":916.0999999046326,"stimulus":"bees-with-color/bee-B1DM.svg","response":1,"trial_type":"image-button-response","trial_index":27,"time_elapsed":441990,"internal_node_id":"0.0-4.0-0.10","subject_id":"6122af5e398815fcb95b6c0f","study_id":"6197b3f67c2b5cd3b6d9596a","session_id":"619be31adafecc7d8e6fca5b","condition":"contingent","relevant_dimensions":["wings","pattern"],"bee_group":{"antennae":"X","wings":"1","pattern":"D","legs":"X"},"action":"avoid","summary":"good-avoid","bonus":1.4000000000000008},{"rt":828.5,"stimulus":"\n                    <p><b>Action: <em>avoid</em></b></p>\n                    <p>This is the bee that you just saw.</p>\n                    <img src=\"bees-with-color/bee-B1DM.svg\" width=\"200\">\n                    <p><br>Your bonus pay is unchanged, and remains at $0.54.</p>\n            ","response":0,"trial_type":"html-button-response","trial_index":28,"time_elapsed":442821,"internal_node_id":"0.0-4.0-1.10","subject_id":"6122af5e398815fcb95b6c0f","study_id":"6197b3f67c2b5cd3b6d9596a","session_id":"619be31adafecc7d8e6fca5b","condition":"contingent","relevant_dimensions":["wings","pattern"],"bee_group":{"antennae":"X","wings":"1","pattern":"D","legs":"X"},"bonus":1.4000000000000008},{"rt":987,"stimulus":"bees-with-color/bee-A2SF.svg","response":0,"trial_type":"image-button-response","trial_index":29,"time_elapsed":443810,"internal_node_id":"0.0-4.0-0.11","subject_id":"6122af5e398815fcb95b6c0f","study_id":"6197b3f67c2b5cd3b6d9596a","session_id":"619be31adafecc7d8e6fca5b","condition":"contingent","relevant_dimensions":["wings","pattern"],"bee_group":{"antennae":"X","wings":"1","pattern":"D","legs":"X"},"action":"harvest","summary":"good-harvest","bonus":1.4000000000000008},{"rt":1089.7000000476837,"stimulus":"\n                    <p><b>Action: <em>harvest</em></b></p>\n                    <p>This is the bee that you just saw.</p>\n                    <img src=\"bees-with-color/bee-A2SF.svg\" width=\"200\">\n                    <p><span class=\"greenText\"><b>Successful harvest!</b></span><br>Your pay has increased by $0.02. Your bonus pay is now $0.56.</p>\n            ","response":0,"trial_type":"html-button-response","trial_index":30,"time_elapsed":444901,"internal_node_id":"0.0-4.0-1.11","subject_id":"6122af5e398815fcb95b6c0f","study_id":"6197b3f67c2b5cd3b6d9596a","session_id":"619be31adafecc7d8e6fca5b","condition":"contingent","relevant_dimensions":["wings","pattern"],"bee_group":{"antennae":"X","wings":"1","pattern":"D","legs":"X"},"bonus":1.4000000000000008},{"rt":942.7999999523163,"stimulus":"bees-with-color/bee-B2SM.svg","response":0,"trial_type":"image-button-response","trial_index":31,"time_elapsed":445846,"internal_node_id":"0.0-4.0-0.12","subject_id":"6122af5e398815fcb95b6c0f","study_id":"6197b3f67c2b5cd3b6d9596a","session_id":"619be31adafecc7d8e6fca5b","condition":"contingent","relevant_dimensions":["wings","pattern"],"bee_group":{"antennae":"X","wings":"1","pattern":"D","legs":"X"},"action":"harvest","summary":"good-harvest","bonus":1.4000000000000008},{"rt":988.1000001430511,"stimulus":"\n                    <p><b>Action: <em>harvest</em></b></p>\n                    <p>This is the bee that you just saw.</p>\n                    <img src=\"bees-with-color/bee-B2SM.svg\" width=\"200\">\n                    <p><span class=\"greenText\"><b>Successful harvest!</b></span><br>Your pay has increased by $0.02. Your bonus pay is now $0.58.</p>\n            ","response":0,"trial_type":"html-button-response","trial_index":32,"time_elapsed":446836,"internal_node_id":"0.0-4.0-1.12","subject_id":"6122af5e398815fcb95b6c0f","study_id":"6197b3f67c2b5cd3b6d9596a","session_id":"619be31adafecc7d8e6fca5b","condition":"contingent","relevant_dimensions":["wings","pattern"],"bee_group":{"antennae":"X","wings":"1","pattern":"D","legs":"X"},"bonus":1.4000000000000008},{"rt":820.5999999046326,"stimulus":"bees-with-color/bee-B2SF.svg","response":0,"trial_type":"image-button-response","trial_index":33,"time_elapsed":447658,"internal_node_id":"0.0-4.0-0.13","subject_id":"6122af5e398815fcb95b6c0f","study_id":"6197b3f67c2b5cd3b6d9596a","session_id":"619be31adafecc7d8e6fca5b","condition":"contingent","relevant_dimensions":["wings","pattern"],"bee_group":{"antennae":"X","wings":"1","pattern":"D","legs":"X"},"action":"harvest","summary":"good-harvest","bonus":1.4000000000000008},{"rt":1132.2999999523163,"stimulus":"\n                    <p><b>Action: <em>harvest</em></b></p>\n                    <p>This is the bee that you just saw.</p>\n                    <img src=\"bees-with-color/bee-B2SF.svg\" width=\"200\">\n                    <p><span class=\"greenText\"><b>Successful harvest!</b></span><br>Your pay has increased by $0.02. Your bonus pay is now $0.60.</p>\n            ","response":0,"trial_type":"html-button-response","trial_index":34,"time_elapsed":448793,"internal_node_id":"0.0-4.0-1.13","subject_id":"6122af5e398815fcb95b6c0f","study_id":"6197b3f67c2b5cd3b6d9596a","session_id":"619be31adafecc7d8e6fca5b","condition":"contingent","relevant_dimensions":["wings","pattern"],"bee_group":{"antennae":"X","wings":"1","pattern":"D","legs":"X"},"bonus":1.4000000000000008},{"rt":1202.8000001907349,"stimulus":"bees-with-color/bee-A2DF.svg","response":1,"trial_type":"image-button-response","trial_index":35,"time_elapsed":449998,"internal_node_id":"0.0-4.0-0.14","subject_id":"6122af5e398815fcb95b6c0f","study_id":"6197b3f67c2b5cd3b6d9596a","session_id":"619be31adafecc7d8e6fca5b","condition":"contingent","relevant_dimensions":["wings","pattern"],"bee_group":{"antennae":"X","wings":"1","pattern":"D","legs":"X"},"action":"avoid","summary":"bad-avoid","bonus":1.4000000000000008},{"rt":994.2000000476837,"stimulus":"\n                    <p><b>Action: <em>avoid</em></b></p>\n                    <p>This is the bee that you just saw.</p>\n                    <img src=\"bees-with-color/bee-A2DF.svg\" width=\"200\">\n                    <p><br>Your bonus pay is unchanged, and remains at $0.60.</p>\n            ","response":0,"trial_type":"html-button-response","trial_index":36,"time_elapsed":450994,"internal_node_id":"0.0-4.0-1.14","subject_id":"6122af5e398815fcb95b6c0f","study_id":"6197b3f67c2b5cd3b6d9596a","session_id":"619be31adafecc7d8e6fca5b","condition":"contingent","relevant_dimensions":["wings","pattern"],"bee_group":{"antennae":"X","wings":"1","pattern":"D","legs":"X"},"bonus":1.4000000000000008},{"rt":1045.1000001430511,"stimulus":"bees-with-color/bee-B2DF.svg","response":1,"trial_type":"image-button-response","trial_index":37,"time_elapsed":452040,"internal_node_id":"0.0-4.0-0.15","subject_id":"6122af5e398815fcb95b6c0f","study_id":"6197b3f67c2b5cd3b6d9596a","session_id":"619be31adafecc7d8e6fca5b","condition":"contingent","relevant_dimensions":["wings","pattern"],"bee_group":{"antennae":"X","wings":"1","pattern":"D","legs":"X"},"action":"avoid","summary":"bad-avoid","bonus":1.4000000000000008},{"rt":849.7999999523163,"stimulus":"\n                    <p><b>Action: <em>avoid</em></b></p>\n                    <p>This is the bee that you just saw.</p>\n                    <img src=\"bees-with-color/bee-B2DF.svg\" width=\"200\">\n                    <p><br>Your bonus pay is unchanged, and remains at $0.60.</p>\n            ","response":0,"trial_type":"html-button-response","trial_index":38,"time_elapsed":452892,"internal_node_id":"0.0-4.0-1.15","subject_id":"6122af5e398815fcb95b6c0f","study_id":"6197b3f67c2b5cd3b6d9596a","session_id":"619be31adafecc7d8e6fca5b","condition":"contingent","relevant_dimensions":["wings","pattern"],"bee_group":{"antennae":"X","wings":"1","pattern":"D","legs":"X"},"bonus":1.4000000000000008},{"rt":886.5999999046326,"stimulus":"bees-with-color/bee-A1DM.svg","response":1,"trial_type":"image-button-response","trial_index":39,"time_elapsed":453781,"internal_node_id":"0.0-4.0-0.16","subject_id":"6122af5e398815fcb95b6c0f","study_id":"6197b3f67c2b5cd3b6d9596a","session_id":"619be31adafecc7d8e6fca5b","condition":"contingent","relevant_dimensions":["wings","pattern"],"bee_group":{"antennae":"X","wings":"1","pattern":"D","legs":"X"},"action":"avoid","summary":"good-avoid","bonus":1.4000000000000008},{"rt":856.6000001430511,"stimulus":"\n                    <p><b>Action: <em>avoid</em></b></p>\n                    <p>This is the bee that you just saw.</p>\n                    <img src=\"bees-with-color/bee-A1DM.svg\" width=\"200\">\n                    <p><br>Your bonus pay is unchanged, and remains at $0.60.</p>\n            ","response":0,"trial_type":"html-button-response","trial_index":40,"time_elapsed":454639,"internal_node_id":"0.0-4.0-1.16","subject_id":"6122af5e398815fcb95b6c0f","study_id":"6197b3f67c2b5cd3b6d9596a","session_id":"619be31adafecc7d8e6fca5b","condition":"contingent","relevant_dimensions":["wings","pattern"],"bee_group":{"antennae":"X","wings":"1","pattern":"D","legs":"X"},"bonus":1.4000000000000008},{"rt":1081,"stimulus":"bees-with-color/bee-B1SM.svg","response":0,"trial_type":"image-button-response","trial_index":41,"time_elapsed":455722,"internal_node_id":"0.0-4.0-0.17","subject_id":"6122af5e398815fcb95b6c0f","study_id":"6197b3f67c2b5cd3b6d9596a","session_id":"619be31adafecc7d8e6fca5b","condition":"contingent","relevant_dimensions":["wings","pattern"],"bee_group":{"antennae":"X","wings":"1","pattern":"D","legs":"X"},"action":"harvest","summary":"good-harvest","bonus":1.4000000000000008},{"rt":842.6000001430511,"stimulus":"\n                    <p><b>Action: <em>harvest</em></b></p>\n                    <p>This is the bee that you just saw.</p>\n                    <img src=\"bees-with-color/bee-B1SM.svg\" width=\"200\">\n                    <p><span class=\"greenText\"><b>Successful harvest!</b></span><br>Your pay has increased by $0.02. Your bonus pay is now $0.62.</p>\n            ","response":0,"trial_type":"html-button-response","trial_index":42,"time_elapsed":456567,"internal_node_id":"0.0-4.0-1.17","subject_id":"6122af5e398815fcb95b6c0f","study_id":"6197b3f67c2b5cd3b6d9596a","session_id":"619be31adafecc7d8e6fca5b","condition":"contingent","relevant_dimensions":["wings","pattern"],"bee_group":{"antennae":"X","wings":"1","pattern":"D","legs":"X"},"bonus":1.4000000000000008},{"rt":1275.9000000953674,"stimulus":"bees-with-color/bee-A2DM.svg","response":1,"trial_type":"image-button-response","trial_index":43,"time_elapsed":457845,"internal_node_id":"0.0-4.0-0.18","subject_id":"6122af5e398815fcb95b6c0f","study_id":"6197b3f67c2b5cd3b6d9596a","session_id":"619be31adafecc7d8e6fca5b","condition":"contingent","relevant_dimensions":["wings","pattern"],"bee_group":{"antennae":"X","wings":"1","pattern":"D","legs":"X"},"action":"avoid","summary":"bad-avoid","bonus":1.4000000000000008},{"rt":871.7999999523163,"stimulus":"\n                    <p><b>Action: <em>avoid</em></b></p>\n                    <p>This is the bee that you just saw.</p>\n                    <img src=\"bees-with-color/bee-A2DM.svg\" width=\"200\">\n                    <p><br>Your bonus pay is unchanged, and remains at $0.62.</p>\n            ","response":0,"trial_type":"html-button-response","trial_index":44,"time_elapsed":458718,"internal_node_id":"0.0-4.0-1.18","subject_id":"6122af5e398815fcb95b6c0f","study_id":"6197b3f67c2b5cd3b6d9596a","session_id":"619be31adafecc7d8e6fca5b","condition":"contingent","relevant_dimensions":["wings","pattern"],"bee_group":{"antennae":"X","wings":"1","pattern":"D","legs":"X"},"bonus":1.4000000000000008},{"rt":1015.5999999046326,"stimulus":"bees-with-color/bee-B1SF.svg","response":0,"trial_type":"image-button-response","trial_index":45,"time_elapsed":459736,"internal_node_id":"0.0-4.0-0.19","subject_id":"6122af5e398815fcb95b6c0f","study_id":"6197b3f67c2b5cd3b6d9596a","session_id":"619be31adafecc7d8e6fca5b","condition":"contingent","relevant_dimensions":["wings","pattern"],"bee_group":{"antennae":"X","wings":"1","pattern":"D","legs":"X"},"action":"harvest","summary":"good-harvest","bonus":1.4000000000000008},{"rt":820.7999999523163,"stimulus":"\n                    <p><b>Action: <em>harvest</em></b></p>\n                    <p>This is the bee that you just saw.</p>\n                    <img src=\"bees-with-color/bee-B1SF.svg\" width=\"200\">\n                    <p><span class=\"greenText\"><b>Successful harvest!</b></span><br>Your pay has increased by $0.02. Your bonus pay is now $0.64.</p>\n            ","response":0,"trial_type":"html-button-response","trial_index":46,"time_elapsed":460558,"internal_node_id":"0.0-4.0-1.19","subject_id":"6122af5e398815fcb95b6c0f","study_id":"6197b3f67c2b5cd3b6d9596a","session_id":"619be31adafecc7d8e6fca5b","condition":"contingent","relevant_dimensions":["wings","pattern"],"bee_group":{"antennae":"X","wings":"1","pattern":"D","legs":"X"},"bonus":1.4000000000000008},{"rt":1232.5999999046326,"stimulus":"bees-with-color/bee-B1DM.svg","response":1,"trial_type":"image-button-response","trial_index":47,"time_elapsed":461793,"internal_node_id":"0.0-4.0-0.20","subject_id":"6122af5e398815fcb95b6c0f","study_id":"6197b3f67c2b5cd3b6d9596a","session_id":"619be31adafecc7d8e6fca5b","condition":"contingent","relevant_dimensions":["wings","pattern"],"bee_group":{"antennae":"X","wings":"1","pattern":"D","legs":"X"},"action":"avoid","summary":"good-avoid","bonus":1.4000000000000008},{"rt":784.7999999523163,"stimulus":"\n                    <p><b>Action: <em>avoid</em></b></p>\n                    <p>This is the bee that you just saw.</p>\n                    <img src=\"bees-with-color/bee-B1DM.svg\" width=\"200\">\n                    <p><br>Your bonus pay is unchanged, and remains at $0.64.</p>\n            ","response":0,"trial_type":"html-button-response","trial_index":48,"time_elapsed":462580,"internal_node_id":"0.0-4.0-1.20","subject_id":"6122af5e398815fcb95b6c0f","study_id":"6197b3f67c2b5cd3b6d9596a","session_id":"619be31adafecc7d8e6fca5b","condition":"contingent","relevant_dimensions":["wings","pattern"],"bee_group":{"antennae":"X","wings":"1","pattern":"D","legs":"X"},"bonus":1.4000000000000008},{"rt":835.4000000953674,"stimulus":"bees-with-color/bee-A2SF.svg","response":0,"trial_type":"image-button-response","trial_index":49,"time_elapsed":463417,"internal_node_id":"0.0-4.0-0.21","subject_id":"6122af5e398815fcb95b6c0f","study_id":"6197b3f67c2b5cd3b6d9596a","session_id":"619be31adafecc7d8e6fca5b","condition":"contingent","relevant_dimensions":["wings","pattern"],"bee_group":{"antennae":"X","wings":"1","pattern":"D","legs":"X"},"action":"harvest","summary":"good-harvest","bonus":1.4000000000000008},{"rt":1232.8999998569489,"stimulus":"\n                    <p><b>Action: <em>harvest</em></b></p>\n                    <p>This is the bee that you just saw.</p>\n                    <img src=\"bees-with-color/bee-A2SF.svg\" width=\"200\">\n                    <p><span class=\"greenText\"><b>Successful harvest!</b></span><br>Your pay has increased by $0.02. Your bonus pay is now $0.66.</p>\n            ","response":0,"trial_type":"html-button-response","trial_index":50,"time_elapsed":464652,"internal_node_id":"0.0-4.0-1.21","subject_id":"6122af5e398815fcb95b6c0f","study_id":"6197b3f67c2b5cd3b6d9596a","session_id":"619be31adafecc7d8e6fca5b","condition":"contingent","relevant_dimensions":["wings","pattern"],"bee_group":{"antennae":"X","wings":"1","pattern":"D","legs":"X"},"bonus":1.4000000000000008},{"rt":1087.6000001430511,"stimulus":"bees-with-color/bee-B2DF.svg","response":1,"trial_type":"image-button-response","trial_index":51,"time_elapsed":465741,"internal_node_id":"0.0-4.0-0.22","subject_id":"6122af5e398815fcb95b6c0f","study_id":"6197b3f67c2b5cd3b6d9596a","session_id":"619be31adafecc7d8e6fca5b","condition":"contingent","relevant_dimensions":["wings","pattern"],"bee_group":{"antennae":"X","wings":"1","pattern":"D","legs":"X"},"action":"avoid","summary":"bad-avoid","bonus":1.4000000000000008},{"rt":986.7999999523163,"stimulus":"\n                    <p><b>Action: <em>avoid</em></b></p>\n                    <p>This is the bee that you just saw.</p>\n                    <img src=\"bees-with-color/bee-B2DF.svg\" width=\"200\">\n                    <p><br>Your bonus pay is unchanged, and remains at $0.66.</p>\n            ","response":0,"trial_type":"html-button-response","trial_index":52,"time_elapsed":466730,"internal_node_id":"0.0-4.0-1.22","subject_id":"6122af5e398815fcb95b6c0f","study_id":"6197b3f67c2b5cd3b6d9596a","session_id":"619be31adafecc7d8e6fca5b","condition":"contingent","relevant_dimensions":["wings","pattern"],"bee_group":{"antennae":"X","wings":"1","pattern":"D","legs":"X"},"bonus":1.4000000000000008},{"rt":828,"stimulus":"bees-with-color/bee-B2SM.svg","response":0,"trial_type":"image-button-response","trial_index":53,"time_elapsed":467560,"internal_node_id":"0.0-4.0-0.23","subject_id":"6122af5e398815fcb95b6c0f","study_id":"6197b3f67c2b5cd3b6d9596a","session_id":"619be31adafecc7d8e6fca5b","condition":"contingent","relevant_dimensions":["wings","pattern"],"bee_group":{"antennae":"X","wings":"1","pattern":"D","legs":"X"},"action":"harvest","summary":"good-harvest","bonus":1.4000000000000008},{"rt":1037.6000001430511,"stimulus":"\n                    <p><b>Action: <em>harvest</em></b></p>\n                    <p>This is the bee that you just saw.</p>\n                    <img src=\"bees-with-color/bee-B2SM.svg\" width=\"200\">\n                    <p><span class=\"greenText\"><b>Successful harvest!</b></span><br>Your pay has increased by $0.02. Your bonus pay is now $0.68.</p>\n            ","response":0,"trial_type":"html-button-response","trial_index":54,"time_elapsed":468599,"internal_node_id":"0.0-4.0-1.23","subject_id":"6122af5e398815fcb95b6c0f","study_id":"6197b3f67c2b5cd3b6d9596a","session_id":"619be31adafecc7d8e6fca5b","condition":"contingent","relevant_dimensions":["wings","pattern"],"bee_group":{"antennae":"X","wings":"1","pattern":"D","legs":"X"},"bonus":1.4000000000000008},{"rt":1131.2999999523163,"stimulus":"bees-with-color/bee-A1SM.svg","response":0,"trial_type":"image-button-response","trial_index":55,"time_elapsed":469733,"internal_node_id":"0.0-4.0-0.24","subject_id":"6122af5e398815fcb95b6c0f","study_id":"6197b3f67c2b5cd3b6d9596a","session_id":"619be31adafecc7d8e6fca5b","condition":"contingent","relevant_dimensions":["wings","pattern"],"bee_group":{"antennae":"X","wings":"1","pattern":"D","legs":"X"},"action":"harvest","summary":"good-harvest","bonus":1.4000000000000008},{"rt":863.5,"stimulus":"\n                    <p><b>Action: <em>harvest</em></b></p>\n                    <p>This is the bee that you just saw.</p>\n                    <img src=\"bees-with-color/bee-A1SM.svg\" width=\"200\">\n                    <p><span class=\"greenText\"><b>Successful harvest!</b></span><br>Your pay has increased by $0.02. Your bonus pay is now $0.70.</p>\n            ","response":0,"trial_type":"html-button-response","trial_index":56,"time_elapsed":470599,"internal_node_id":"0.0-4.0-1.24","subject_id":"6122af5e398815fcb95b6c0f","study_id":"6197b3f67c2b5cd3b6d9596a","session_id":"619be31adafecc7d8e6fca5b","condition":"contingent","relevant_dimensions":["wings","pattern"],"bee_group":{"antennae":"X","wings":"1","pattern":"D","legs":"X"},"bonus":1.4000000000000008},{"rt":871.2999999523163,"stimulus":"bees-with-color/bee-A1SF.svg","response":0,"trial_type":"image-button-response","trial_index":57,"time_elapsed":471472,"internal_node_id":"0.0-4.0-0.25","subject_id":"6122af5e398815fcb95b6c0f","study_id":"6197b3f67c2b5cd3b6d9596a","session_id":"619be31adafecc7d8e6fca5b","condition":"contingent","relevant_dimensions":["wings","pattern"],"bee_group":{"antennae":"X","wings":"1","pattern":"D","legs":"X"},"action":"harvest","summary":"good-harvest","bonus":1.4000000000000008},{"rt":799.3000001907349,"stimulus":"\n                    <p><b>Action: <em>harvest</em></b></p>\n                    <p>This is the bee that you just saw.</p>\n                    <img src=\"bees-with-color/bee-A1SF.svg\" width=\"200\">\n                    <p><span class=\"greenText\"><b>Successful harvest!</b></span><br>Your pay has increased by $0.02. Your bonus pay is now $0.72.</p>\n            ","response":0,"trial_type":"html-button-response","trial_index":58,"time_elapsed":472273,"internal_node_id":"0.0-4.0-1.25","subject_id":"6122af5e398815fcb95b6c0f","study_id":"6197b3f67c2b5cd3b6d9596a","session_id":"619be31adafecc7d8e6fca5b","condition":"contingent","relevant_dimensions":["wings","pattern"],"bee_group":{"antennae":"X","wings":"1","pattern":"D","legs":"X"},"bonus":1.4000000000000008},{"rt":843.5999999046326,"stimulus":"bees-with-color/bee-A2DF.svg","response":1,"trial_type":"image-button-response","trial_index":59,"time_elapsed":473119,"internal_node_id":"0.0-4.0-0.26","subject_id":"6122af5e398815fcb95b6c0f","study_id":"6197b3f67c2b5cd3b6d9596a","session_id":"619be31adafecc7d8e6fca5b","condition":"contingent","relevant_dimensions":["wings","pattern"],"bee_group":{"antennae":"X","wings":"1","pattern":"D","legs":"X"},"action":"avoid","summary":"bad-avoid","bonus":1.4000000000000008},{"rt":762.5999999046326,"stimulus":"\n                    <p><b>Action: <em>avoid</em></b></p>\n                    <p>This is the bee that you just saw.</p>\n                    <img src=\"bees-with-color/bee-A2DF.svg\" width=\"200\">\n                    <p><br>Your bonus pay is unchanged, and remains at $0.72.</p>\n            ","response":0,"trial_type":"html-button-response","trial_index":60,"time_elapsed":473883,"internal_node_id":"0.0-4.0-1.26","subject_id":"6122af5e398815fcb95b6c0f","study_id":"6197b3f67c2b5cd3b6d9596a","session_id":"619be31adafecc7d8e6fca5b","condition":"contingent","relevant_dimensions":["wings","pattern"],"bee_group":{"antennae":"X","wings":"1","pattern":"D","legs":"X"},"bonus":1.4000000000000008},{"rt":993.2999999523163,"stimulus":"bees-with-color/bee-B2DM.svg","response":1,"trial_type":"image-button-response","trial_index":61,"time_elapsed":474879,"internal_node_id":"0.0-4.0-0.27","subject_id":"6122af5e398815fcb95b6c0f","study_id":"6197b3f67c2b5cd3b6d9596a","session_id":"619be31adafecc7d8e6fca5b","condition":"contingent","relevant_dimensions":["wings","pattern"],"bee_group":{"antennae":"X","wings":"1","pattern":"D","legs":"X"},"action":"avoid","summary":"bad-avoid","bonus":1.4000000000000008},{"rt":755.8999998569489,"stimulus":"\n                    <p><b>Action: <em>avoid</em></b></p>\n                    <p>This is the bee that you just saw.</p>\n                    <img src=\"bees-with-color/bee-B2DM.svg\" width=\"200\">\n                    <p><br>Your bonus pay is unchanged, and remains at $0.72.</p>\n            ","response":0,"trial_type":"html-button-response","trial_index":62,"time_elapsed":475637,"internal_node_id":"0.0-4.0-1.27","subject_id":"6122af5e398815fcb95b6c0f","study_id":"6197b3f67c2b5cd3b6d9596a","session_id":"619be31adafecc7d8e6fca5b","condition":"contingent","relevant_dimensions":["wings","pattern"],"bee_group":{"antennae":"X","wings":"1","pattern":"D","legs":"X"},"bonus":1.4000000000000008},{"rt":943.5,"stimulus":"bees-with-color/bee-A2SM.svg","response":0,"trial_type":"image-button-response","trial_index":63,"time_elapsed":476582,"internal_node_id":"0.0-4.0-0.28","subject_id":"6122af5e398815fcb95b6c0f","study_id":"6197b3f67c2b5cd3b6d9596a","session_id":"619be31adafecc7d8e6fca5b","condition":"contingent","relevant_dimensions":["wings","pattern"],"bee_group":{"antennae":"X","wings":"1","pattern":"D","legs":"X"},"action":"harvest","summary":"good-harvest","bonus":1.4000000000000008},{"rt":769.7000000476837,"stimulus":"\n                    <p><b>Action: <em>harvest</em></b></p>\n                    <p>This is the bee that you just saw.</p>\n                    <img src=\"bees-with-color/bee-A2SM.svg\" width=\"200\">\n                    <p><span class=\"greenText\"><b>Successful harvest!</b></span><br>Your pay has increased by $0.02. Your bonus pay is now $0.74.</p>\n            ","response":0,"trial_type":"html-button-response","trial_index":64,"time_elapsed":477354,"internal_node_id":"0.0-4.0-1.28","subject_id":"6122af5e398815fcb95b6c0f","study_id":"6197b3f67c2b5cd3b6d9596a","session_id":"619be31adafecc7d8e6fca5b","condition":"contingent","relevant_dimensions":["wings","pattern"],"bee_group":{"antennae":"X","wings":"1","pattern":"D","legs":"X"},"bonus":1.4000000000000008},{"rt":1225.1999998092651,"stimulus":"bees-with-color/bee-B2SF.svg","response":0,"trial_type":"image-button-response","trial_index":65,"time_elapsed":478581,"internal_node_id":"0.0-4.0-0.29","subject_id":"6122af5e398815fcb95b6c0f","study_id":"6197b3f67c2b5cd3b6d9596a","session_id":"619be31adafecc7d8e6fca5b","condition":"contingent","relevant_dimensions":["wings","pattern"],"bee_group":{"antennae":"X","wings":"1","pattern":"D","legs":"X"},"action":"harvest","summary":"good-harvest","bonus":1.4000000000000008},{"rt":769.9000000953674,"stimulus":"\n                    <p><b>Action: <em>harvest</em></b></p>\n                    <p>This is the bee that you just saw.</p>\n                    <img src=\"bees-with-color/bee-B2SF.svg\" width=\"200\">\n                    <p><span class=\"greenText\"><b>Successful harvest!</b></span><br>Your pay has increased by $0.02. Your bonus pay is now $0.76.</p>\n            ","response":0,"trial_type":"html-button-response","trial_index":66,"time_elapsed":479352,"internal_node_id":"0.0-4.0-1.29","subject_id":"6122af5e398815fcb95b6c0f","study_id":"6197b3f67c2b5cd3b6d9596a","session_id":"619be31adafecc7d8e6fca5b","condition":"contingent","relevant_dimensions":["wings","pattern"],"bee_group":{"antennae":"X","wings":"1","pattern":"D","legs":"X"},"bonus":1.4000000000000008},{"rt":1103.4000000953674,"stimulus":"bees-with-color/bee-A1DF.svg","response":1,"trial_type":"image-button-response","trial_index":67,"time_elapsed":480457,"internal_node_id":"0.0-4.0-0.30","subject_id":"6122af5e398815fcb95b6c0f","study_id":"6197b3f67c2b5cd3b6d9596a","session_id":"619be31adafecc7d8e6fca5b","condition":"contingent","relevant_dimensions":["wings","pattern"],"bee_group":{"antennae":"X","wings":"1","pattern":"D","legs":"X"},"action":"avoid","summary":"good-avoid","bonus":1.4000000000000008},{"rt":1261.5,"stimulus":"\n                    <p><b>Action: <em>avoid</em></b></p>\n                    <p>This is the bee that you just saw.</p>\n                    <img src=\"bees-with-color/bee-A1DF.svg\" width=\"200\">\n                    <p><br>Your bonus pay is unchanged, and remains at $0.76.</p>\n            ","response":0,"trial_type":"html-button-response","trial_index":68,"time_elapsed":481720,"internal_node_id":"0.0-4.0-1.30","subject_id":"6122af5e398815fcb95b6c0f","study_id":"6197b3f67c2b5cd3b6d9596a","session_id":"619be31adafecc7d8e6fca5b","condition":"contingent","relevant_dimensions":["wings","pattern"],"bee_group":{"antennae":"X","wings":"1","pattern":"D","legs":"X"},"bonus":1.4000000000000008},{"rt":1247.5999999046326,"stimulus":"bees-with-color/bee-B1DF.svg","response":1,"trial_type":"image-button-response","trial_index":69,"time_elapsed":482970,"internal_node_id":"0.0-4.0-0.31","subject_id":"6122af5e398815fcb95b6c0f","study_id":"6197b3f67c2b5cd3b6d9596a","session_id":"619be31adafecc7d8e6fca5b","condition":"contingent","relevant_dimensions":["wings","pattern"],"bee_group":{"antennae":"X","wings":"1","pattern":"D","legs":"X"},"action":"avoid","summary":"good-avoid","bonus":1.4000000000000008},{"rt":877.7999999523163,"stimulus":"\n                    <p><b>Action: <em>avoid</em></b></p>\n                    <p>This is the bee that you just saw.</p>\n                    <img src=\"bees-with-color/bee-B1DF.svg\" width=\"200\">\n                    <p><br>Your bonus pay is unchanged, and remains at $0.76.</p>\n            ","response":0,"trial_type":"html-button-response","trial_index":70,"time_elapsed":483849,"internal_node_id":"0.0-4.0-1.31","subject_id":"6122af5e398815fcb95b6c0f","study_id":"6197b3f67c2b5cd3b6d9596a","session_id":"619be31adafecc7d8e6fca5b","condition":"contingent","relevant_dimensions":["wings","pattern"],"bee_group":{"antennae":"X","wings":"1","pattern":"D","legs":"X"},"bonus":1.4000000000000008},{"rt":1246.5,"stimulus":"bees-with-color/bee-A2DF.svg","response":1,"trial_type":"image-button-response","trial_index":71,"time_elapsed":485098,"internal_node_id":"0.0-4.0-0.32","subject_id":"6122af5e398815fcb95b6c0f","study_id":"6197b3f67c2b5cd3b6d9596a","session_id":"619be31adafecc7d8e6fca5b","condition":"contingent","relevant_dimensions":["wings","pattern"],"bee_group":{"antennae":"X","wings":"1","pattern":"D","legs":"X"},"action":"avoid","summary":"bad-avoid","bonus":1.4000000000000008},{"rt":849.5999999046326,"stimulus":"\n                    <p><b>Action: <em>avoid</em></b></p>\n                    <p>This is the bee that you just saw.</p>\n                    <img src=\"bees-with-color/bee-A2DF.svg\" width=\"200\">\n                    <p><br>Your bonus pay is unchanged, and remains at $0.76.</p>\n            ","response":0,"trial_type":"html-button-response","trial_index":72,"time_elapsed":485950,"internal_node_id":"0.0-4.0-1.32","subject_id":"6122af5e398815fcb95b6c0f","study_id":"6197b3f67c2b5cd3b6d9596a","session_id":"619be31adafecc7d8e6fca5b","condition":"contingent","relevant_dimensions":["wings","pattern"],"bee_group":{"antennae":"X","wings":"1","pattern":"D","legs":"X"},"bonus":1.4000000000000008},{"rt":921.3000001907349,"stimulus":"bees-with-color/bee-B1DF.svg","response":1,"trial_type":"image-button-response","trial_index":73,"time_elapsed":486874,"internal_node_id":"0.0-4.0-0.33","subject_id":"6122af5e398815fcb95b6c0f","study_id":"6197b3f67c2b5cd3b6d9596a","session_id":"619be31adafecc7d8e6fca5b","condition":"contingent","relevant_dimensions":["wings","pattern"],"bee_group":{"antennae":"X","wings":"1","pattern":"D","legs":"X"},"action":"avoid","summary":"good-avoid","bonus":1.4000000000000008},{"rt":728.1999998092651,"stimulus":"\n                    <p><b>Action: <em>avoid</em></b></p>\n                    <p>This is the bee that you just saw.</p>\n                    <img src=\"bees-with-color/bee-B1DF.svg\" width=\"200\">\n                    <p><br>Your bonus pay is unchanged, and remains at $0.76.</p>\n            ","response":0,"trial_type":"html-button-response","trial_index":74,"time_elapsed":487604,"internal_node_id":"0.0-4.0-1.33","subject_id":"6122af5e398815fcb95b6c0f","study_id":"6197b3f67c2b5cd3b6d9596a","session_id":"619be31adafecc7d8e6fca5b","condition":"contingent","relevant_dimensions":["wings","pattern"],"bee_group":{"antennae":"X","wings":"1","pattern":"D","legs":"X"},"bonus":1.4000000000000008},{"rt":762.8999998569489,"stimulus":"bees-with-color/bee-B2DF.svg","response":1,"trial_type":"image-button-response","trial_index":75,"time_elapsed":488369,"internal_node_id":"0.0-4.0-0.34","subject_id":"6122af5e398815fcb95b6c0f","study_id":"6197b3f67c2b5cd3b6d9596a","session_id":"619be31adafecc7d8e6fca5b","condition":"contingent","relevant_dimensions":["wings","pattern"],"bee_group":{"antennae":"X","wings":"1","pattern":"D","legs":"X"},"action":"avoid","summary":"bad-avoid","bonus":1.4000000000000008},{"rt":704.7999999523163,"stimulus":"\n                    <p><b>Action: <em>avoid</em></b></p>\n                    <p>This is the bee that you just saw.</p>\n                    <img src=\"bees-with-color/bee-B2DF.svg\" width=\"200\">\n                    <p><br>Your bonus pay is unchanged, and remains at $0.76.</p>\n            ","response":0,"trial_type":"html-button-response","trial_index":76,"time_elapsed":489075,"internal_node_id":"0.0-4.0-1.34","subject_id":"6122af5e398815fcb95b6c0f","study_id":"6197b3f67c2b5cd3b6d9596a","session_id":"619be31adafecc7d8e6fca5b","condition":"contingent","relevant_dimensions":["wings","pattern"],"bee_group":{"antennae":"X","wings":"1","pattern":"D","legs":"X"},"bonus":1.4000000000000008},{"rt":929.4000000953674,"stimulus":"bees-with-color/bee-B2SF.svg","response":0,"trial_type":"image-button-response","trial_index":77,"time_elapsed":490006,"internal_node_id":"0.0-4.0-0.35","subject_id":"6122af5e398815fcb95b6c0f","study_id":"6197b3f67c2b5cd3b6d9596a","session_id":"619be31adafecc7d8e6fca5b","condition":"contingent","relevant_dimensions":["wings","pattern"],"bee_group":{"antennae":"X","wings":"1","pattern":"D","legs":"X"},"action":"harvest","summary":"good-harvest","bonus":1.4000000000000008},{"rt":885.9000000953674,"stimulus":"\n                    <p><b>Action: <em>harvest</em></b></p>\n                    <p>This is the bee that you just saw.</p>\n                    <img src=\"bees-with-color/bee-B2SF.svg\" width=\"200\">\n                    <p><span class=\"greenText\"><b>Successful harvest!</b></span><br>Your pay has increased by $0.02. Your bonus pay is now $0.78.</p>\n            ","response":0,"trial_type":"html-button-response","trial_index":78,"time_elapsed":490894,"internal_node_id":"0.0-4.0-1.35","subject_id":"6122af5e398815fcb95b6c0f","study_id":"6197b3f67c2b5cd3b6d9596a","session_id":"619be31adafecc7d8e6fca5b","condition":"contingent","relevant_dimensions":["wings","pattern"],"bee_group":{"antennae":"X","wings":"1","pattern":"D","legs":"X"},"bonus":1.4000000000000008},{"rt":1268.5,"stimulus":"bees-with-color/bee-B2SM.svg","response":0,"trial_type":"image-button-response","trial_index":79,"time_elapsed":492164,"internal_node_id":"0.0-4.0-0.36","subject_id":"6122af5e398815fcb95b6c0f","study_id":"6197b3f67c2b5cd3b6d9596a","session_id":"619be31adafecc7d8e6fca5b","condition":"contingent","relevant_dimensions":["wings","pattern"],"bee_group":{"antennae":"X","wings":"1","pattern":"D","legs":"X"},"action":"harvest","summary":"good-harvest","bonus":1.4000000000000008},{"rt":784.9000000953674,"stimulus":"\n                    <p><b>Action: <em>harvest</em></b></p>\n                    <p>This is the bee that you just saw.</p>\n                    <img src=\"bees-with-color/bee-B2SM.svg\" width=\"200\">\n                    <p><span class=\"greenText\"><b>Successful harvest!</b></span><br>Your pay has increased by $0.02. Your bonus pay is now $0.80.</p>\n            ","response":0,"trial_type":"html-button-response","trial_index":80,"time_elapsed":492951,"internal_node_id":"0.0-4.0-1.36","subject_id":"6122af5e398815fcb95b6c0f","study_id":"6197b3f67c2b5cd3b6d9596a","session_id":"619be31adafecc7d8e6fca5b","condition":"contingent","relevant_dimensions":["wings","pattern"],"bee_group":{"antennae":"X","wings":"1","pattern":"D","legs":"X"},"bonus":1.4000000000000008},{"rt":704.2999999523163,"stimulus":"bees-with-color/bee-A1SM.svg","response":0,"trial_type":"image-button-response","trial_index":81,"time_elapsed":493658,"internal_node_id":"0.0-4.0-0.37","subject_id":"6122af5e398815fcb95b6c0f","study_id":"6197b3f67c2b5cd3b6d9596a","session_id":"619be31adafecc7d8e6fca5b","condition":"contingent","relevant_dimensions":["wings","pattern"],"bee_group":{"antennae":"X","wings":"1","pattern":"D","legs":"X"},"action":"harvest","summary":"good-harvest","bonus":1.4000000000000008},{"rt":807.6000001430511,"stimulus":"\n                    <p><b>Action: <em>harvest</em></b></p>\n                    <p>This is the bee that you just saw.</p>\n                    <img src=\"bees-with-color/bee-A1SM.svg\" width=\"200\">\n                    <p><span class=\"greenText\"><b>Successful harvest!</b></span><br>Your pay has increased by $0.02. Your bonus pay is now $0.82.</p>\n            ","response":0,"trial_type":"html-button-response","trial_index":82,"time_elapsed":494467,"internal_node_id":"0.0-4.0-1.37","subject_id":"6122af5e398815fcb95b6c0f","study_id":"6197b3f67c2b5cd3b6d9596a","session_id":"619be31adafecc7d8e6fca5b","condition":"contingent","relevant_dimensions":["wings","pattern"],"bee_group":{"antennae":"X","wings":"1","pattern":"D","legs":"X"},"bonus":1.4000000000000008},{"rt":1101.3999998569489,"stimulus":"bees-with-color/bee-B1DM.svg","response":1,"trial_type":"image-button-response","trial_index":83,"time_elapsed":495571,"internal_node_id":"0.0-4.0-0.38","subject_id":"6122af5e398815fcb95b6c0f","study_id":"6197b3f67c2b5cd3b6d9596a","session_id":"619be31adafecc7d8e6fca5b","condition":"contingent","relevant_dimensions":["wings","pattern"],"bee_group":{"antennae":"X","wings":"1","pattern":"D","legs":"X"},"action":"avoid","summary":"good-avoid","bonus":1.4000000000000008},{"rt":806.2000000476837,"stimulus":"\n                    <p><b>Action: <em>avoid</em></b></p>\n                    <p>This is the bee that you just saw.</p>\n                    <img src=\"bees-with-color/bee-B1DM.svg\" width=\"200\">\n                    <p><br>Your bonus pay is unchanged, and remains at $0.82.</p>\n            ","response":0,"trial_type":"html-button-response","trial_index":84,"time_elapsed":496379,"internal_node_id":"0.0-4.0-1.38","subject_id":"6122af5e398815fcb95b6c0f","study_id":"6197b3f67c2b5cd3b6d9596a","session_id":"619be31adafecc7d8e6fca5b","condition":"contingent","relevant_dimensions":["wings","pattern"],"bee_group":{"antennae":"X","wings":"1","pattern":"D","legs":"X"},"bonus":1.4000000000000008},{"rt":756.0999999046326,"stimulus":"bees-with-color/bee-B1SM.svg","response":0,"trial_type":"image-button-response","trial_index":85,"time_elapsed":497137,"internal_node_id":"0.0-4.0-0.39","subject_id":"6122af5e398815fcb95b6c0f","study_id":"6197b3f67c2b5cd3b6d9596a","session_id":"619be31adafecc7d8e6fca5b","condition":"contingent","relevant_dimensions":["wings","pattern"],"bee_group":{"antennae":"X","wings":"1","pattern":"D","legs":"X"},"action":"harvest","summary":"good-harvest","bonus":1.4000000000000008},{"rt":1087.8999998569489,"stimulus":"\n                    <p><b>Action: <em>harvest</em></b></p>\n                    <p>This is the bee that you just saw.</p>\n                    <img src=\"bees-with-color/bee-B1SM.svg\" width=\"200\">\n                    <p><span class=\"greenText\"><b>Successful harvest!</b></span><br>Your pay has increased by $0.02. Your bonus pay is now $0.84.</p>\n            ","response":0,"trial_type":"html-button-response","trial_index":86,"time_elapsed":498227,"internal_node_id":"0.0-4.0-1.39","subject_id":"6122af5e398815fcb95b6c0f","study_id":"6197b3f67c2b5cd3b6d9596a","session_id":"619be31adafecc7d8e6fca5b","condition":"contingent","relevant_dimensions":["wings","pattern"],"bee_group":{"antennae":"X","wings":"1","pattern":"D","legs":"X"},"bonus":1.4000000000000008},{"rt":1290.5999999046326,"stimulus":"bees-with-color/bee-B2DM.svg","response":1,"trial_type":"image-button-response","trial_index":87,"time_elapsed":499519,"internal_node_id":"0.0-4.0-0.40","subject_id":"6122af5e398815fcb95b6c0f","study_id":"6197b3f67c2b5cd3b6d9596a","session_id":"619be31adafecc7d8e6fca5b","condition":"contingent","relevant_dimensions":["wings","pattern"],"bee_group":{"antennae":"X","wings":"1","pattern":"D","legs":"X"},"action":"avoid","summary":"bad-avoid","bonus":1.4000000000000008},{"rt":784.5,"stimulus":"\n                    <p><b>Action: <em>avoid</em></b></p>\n                    <p>This is the bee that you just saw.</p>\n                    <img src=\"bees-with-color/bee-B2DM.svg\" width=\"200\">\n                    <p><br>Your bonus pay is unchanged, and remains at $0.84.</p>\n            ","response":0,"trial_type":"html-button-response","trial_index":88,"time_elapsed":500305,"internal_node_id":"0.0-4.0-1.40","subject_id":"6122af5e398815fcb95b6c0f","study_id":"6197b3f67c2b5cd3b6d9596a","session_id":"619be31adafecc7d8e6fca5b","condition":"contingent","relevant_dimensions":["wings","pattern"],"bee_group":{"antennae":"X","wings":"1","pattern":"D","legs":"X"},"bonus":1.4000000000000008},{"rt":835.7000000476837,"stimulus":"bees-with-color/bee-A2SF.svg","response":0,"trial_type":"image-button-response","trial_index":89,"time_elapsed":501143,"internal_node_id":"0.0-4.0-0.41","subject_id":"6122af5e398815fcb95b6c0f","study_id":"6197b3f67c2b5cd3b6d9596a","session_id":"619be31adafecc7d8e6fca5b","condition":"contingent","relevant_dimensions":["wings","pattern"],"bee_group":{"antennae":"X","wings":"1","pattern":"D","legs":"X"},"action":"harvest","summary":"good-harvest","bonus":1.4000000000000008},{"rt":1008.6000001430511,"stimulus":"\n                    <p><b>Action: <em>harvest</em></b></p>\n                    <p>This is the bee that you just saw.</p>\n                    <img src=\"bees-with-color/bee-A2SF.svg\" width=\"200\">\n                    <p><span class=\"greenText\"><b>Successful harvest!</b></span><br>Your pay has increased by $0.02. Your bonus pay is now $0.86.</p>\n            ","response":0,"trial_type":"html-button-response","trial_index":90,"time_elapsed":502153,"internal_node_id":"0.0-4.0-1.41","subject_id":"6122af5e398815fcb95b6c0f","study_id":"6197b3f67c2b5cd3b6d9596a","session_id":"619be31adafecc7d8e6fca5b","condition":"contingent","relevant_dimensions":["wings","pattern"],"bee_group":{"antennae":"X","wings":"1","pattern":"D","legs":"X"},"bonus":1.4000000000000008},{"rt":1015.6000001430511,"stimulus":"bees-with-color/bee-A1SF.svg","response":0,"trial_type":"image-button-response","trial_index":91,"time_elapsed":503170,"internal_node_id":"0.0-4.0-0.42","subject_id":"6122af5e398815fcb95b6c0f","study_id":"6197b3f67c2b5cd3b6d9596a","session_id":"619be31adafecc7d8e6fca5b","condition":"contingent","relevant_dimensions":["wings","pattern"],"bee_group":{"antennae":"X","wings":"1","pattern":"D","legs":"X"},"action":"harvest","summary":"good-harvest","bonus":1.4000000000000008},{"rt":958.1000001430511,"stimulus":"\n                    <p><b>Action: <em>harvest</em></b></p>\n                    <p>This is the bee that you just saw.</p>\n                    <img src=\"bees-with-color/bee-A1SF.svg\" width=\"200\">\n                    <p><span class=\"greenText\"><b>Successful harvest!</b></span><br>Your pay has increased by $0.02. Your bonus pay is now $0.88.</p>\n            ","response":0,"trial_type":"html-button-response","trial_index":92,"time_elapsed":504130,"internal_node_id":"0.0-4.0-1.42","subject_id":"6122af5e398815fcb95b6c0f","study_id":"6197b3f67c2b5cd3b6d9596a","session_id":"619be31adafecc7d8e6fca5b","condition":"contingent","relevant_dimensions":["wings","pattern"],"bee_group":{"antennae":"X","wings":"1","pattern":"D","legs":"X"},"bonus":1.4000000000000008},{"rt":836.5,"stimulus":"bees-with-color/bee-A2SM.svg","response":0,"trial_type":"image-button-response","trial_index":93,"time_elapsed":504969,"internal_node_id":"0.0-4.0-0.43","subject_id":"6122af5e398815fcb95b6c0f","study_id":"6197b3f67c2b5cd3b6d9596a","session_id":"619be31adafecc7d8e6fca5b","condition":"contingent","relevant_dimensions":["wings","pattern"],"bee_group":{"antennae":"X","wings":"1","pattern":"D","legs":"X"},"action":"harvest","summary":"good-harvest","bonus":1.4000000000000008},{"rt":806.0999999046326,"stimulus":"\n                    <p><b>Action: <em>harvest</em></b></p>\n                    <p>This is the bee that you just saw.</p>\n                    <img src=\"bees-with-color/bee-A2SM.svg\" width=\"200\">\n                    <p><span class=\"greenText\"><b>Successful harvest!</b></span><br>Your pay has increased by $0.02. Your bonus pay is now $0.90.</p>\n            ","response":0,"trial_type":"html-button-response","trial_index":94,"time_elapsed":505777,"internal_node_id":"0.0-4.0-1.43","subject_id":"6122af5e398815fcb95b6c0f","study_id":"6197b3f67c2b5cd3b6d9596a","session_id":"619be31adafecc7d8e6fca5b","condition":"contingent","relevant_dimensions":["wings","pattern"],"bee_group":{"antennae":"X","wings":"1","pattern":"D","legs":"X"},"bonus":1.4000000000000008},{"rt":1167.2999999523163,"stimulus":"bees-with-color/bee-A1DF.svg","response":1,"trial_type":"image-button-response","trial_index":95,"time_elapsed":506946,"internal_node_id":"0.0-4.0-0.44","subject_id":"6122af5e398815fcb95b6c0f","study_id":"6197b3f67c2b5cd3b6d9596a","session_id":"619be31adafecc7d8e6fca5b","condition":"contingent","relevant_dimensions":["wings","pattern"],"bee_group":{"antennae":"X","wings":"1","pattern":"D","legs":"X"},"action":"avoid","summary":"good-avoid","bonus":1.4000000000000008},{"rt":922.4000000953674,"stimulus":"\n                    <p><b>Action: <em>avoid</em></b></p>\n                    <p>This is the bee that you just saw.</p>\n                    <img src=\"bees-with-color/bee-A1DF.svg\" width=\"200\">\n                    <p><br>Your bonus pay is unchanged, and remains at $0.90.</p>\n            ","response":0,"trial_type":"html-button-response","trial_index":96,"time_elapsed":507870,"internal_node_id":"0.0-4.0-1.44","subject_id":"6122af5e398815fcb95b6c0f","study_id":"6197b3f67c2b5cd3b6d9596a","session_id":"619be31adafecc7d8e6fca5b","condition":"contingent","relevant_dimensions":["wings","pattern"],"bee_group":{"antennae":"X","wings":"1","pattern":"D","legs":"X"},"bonus":1.4000000000000008},{"rt":1195.3999998569489,"stimulus":"bees-with-color/bee-A2DM.svg","response":1,"trial_type":"image-button-response","trial_index":97,"time_elapsed":509067,"internal_node_id":"0.0-4.0-0.45","subject_id":"6122af5e398815fcb95b6c0f","study_id":"6197b3f67c2b5cd3b6d9596a","session_id":"619be31adafecc7d8e6fca5b","condition":"contingent","relevant_dimensions":["wings","pattern"],"bee_group":{"antennae":"X","wings":"1","pattern":"D","legs":"X"},"action":"avoid","summary":"bad-avoid","bonus":1.4000000000000008},{"rt":898.8000001907349,"stimulus":"\n                    <p><b>Action: <em>avoid</em></b></p>\n                    <p>This is the bee that you just saw.</p>\n                    <img src=\"bees-with-color/bee-A2DM.svg\" width=\"200\">\n                    <p><br>Your bonus pay is unchanged, and remains at $0.90.</p>\n            ","response":0,"trial_type":"html-button-response","trial_index":98,"time_elapsed":509969,"internal_node_id":"0.0-4.0-1.45","subject_id":"6122af5e398815fcb95b6c0f","study_id":"6197b3f67c2b5cd3b6d9596a","session_id":"619be31adafecc7d8e6fca5b","condition":"contingent","relevant_dimensions":["wings","pattern"],"bee_group":{"antennae":"X","wings":"1","pattern":"D","legs":"X"},"bonus":1.4000000000000008},{"rt":1110.2999999523163,"stimulus":"bees-with-color/bee-B1SF.svg","response":0,"trial_type":"image-button-response","trial_index":99,"time_elapsed":511081,"internal_node_id":"0.0-4.0-0.46","subject_id":"6122af5e398815fcb95b6c0f","study_id":"6197b3f67c2b5cd3b6d9596a","session_id":"619be31adafecc7d8e6fca5b","condition":"contingent","relevant_dimensions":["wings","pattern"],"bee_group":{"antennae":"X","wings":"1","pattern":"D","legs":"X"},"action":"harvest","summary":"good-harvest","bonus":1.4000000000000008},{"rt":993.5999999046326,"stimulus":"\n                    <p><b>Action: <em>harvest</em></b></p>\n                    <p>This is the bee that you just saw.</p>\n                    <img src=\"bees-with-color/bee-B1SF.svg\" width=\"200\">\n                    <p><span class=\"greenText\"><b>Successful harvest!</b></span><br>Your pay has increased by $0.02. Your bonus pay is now $0.92.</p>\n            ","response":0,"trial_type":"html-button-response","trial_index":100,"time_elapsed":512077,"internal_node_id":"0.0-4.0-1.46","subject_id":"6122af5e398815fcb95b6c0f","study_id":"6197b3f67c2b5cd3b6d9596a","session_id":"619be31adafecc7d8e6fca5b","condition":"contingent","relevant_dimensions":["wings","pattern"],"bee_group":{"antennae":"X","wings":"1","pattern":"D","legs":"X"},"bonus":1.4000000000000008},{"rt":1203.5999999046326,"stimulus":"bees-with-color/bee-A1DM.svg","response":1,"trial_type":"image-button-response","trial_index":101,"time_elapsed":513282,"internal_node_id":"0.0-4.0-0.47","subject_id":"6122af5e398815fcb95b6c0f","study_id":"6197b3f67c2b5cd3b6d9596a","session_id":"619be31adafecc7d8e6fca5b","condition":"contingent","relevant_dimensions":["wings","pattern"],"bee_group":{"antennae":"X","wings":"1","pattern":"D","legs":"X"},"action":"avoid","summary":"good-avoid","bonus":1.4000000000000008},{"rt":848.2000000476837,"stimulus":"\n                    <p><b>Action: <em>avoid</em></b></p>\n                    <p>This is the bee that you just saw.</p>\n                    <img src=\"bees-with-color/bee-A1DM.svg\" width=\"200\">\n                    <p><br>Your bonus pay is unchanged, and remains at $0.92.</p>\n            ","response":0,"trial_type":"html-button-response","trial_index":102,"time_elapsed":514133,"internal_node_id":"0.0-4.0-1.47","subject_id":"6122af5e398815fcb95b6c0f","study_id":"6197b3f67c2b5cd3b6d9596a","session_id":"619be31adafecc7d8e6fca5b","condition":"contingent","relevant_dimensions":["wings","pattern"],"bee_group":{"antennae":"X","wings":"1","pattern":"D","legs":"X"},"bonus":1.4000000000000008},{"rt":1225.7999999523163,"stimulus":"bees-with-color/bee-B1DF.svg","response":1,"trial_type":"image-button-response","trial_index":103,"time_elapsed":515361,"internal_node_id":"0.0-4.0-0.48","subject_id":"6122af5e398815fcb95b6c0f","study_id":"6197b3f67c2b5cd3b6d9596a","session_id":"619be31adafecc7d8e6fca5b","condition":"contingent","relevant_dimensions":["wings","pattern"],"bee_group":{"antennae":"X","wings":"1","pattern":"D","legs":"X"},"action":"avoid","summary":"good-avoid","bonus":1.4000000000000008},{"rt":748.7000000476837,"stimulus":"\n                    <p><b>Action: <em>avoid</em></b></p>\n                    <p>This is the bee that you just saw.</p>\n                    <img src=\"bees-with-color/bee-B1DF.svg\" width=\"200\">\n                    <p><br>Your bonus pay is unchanged, and remains at $0.92.</p>\n            ","response":0,"trial_type":"html-button-response","trial_index":104,"time_elapsed":516111,"internal_node_id":"0.0-4.0-1.48","subject_id":"6122af5e398815fcb95b6c0f","study_id":"6197b3f67c2b5cd3b6d9596a","session_id":"619be31adafecc7d8e6fca5b","condition":"contingent","relevant_dimensions":["wings","pattern"],"bee_group":{"antennae":"X","wings":"1","pattern":"D","legs":"X"},"bonus":1.4000000000000008},{"rt":893.4000000953674,"stimulus":"bees-with-color/bee-B2DF.svg","response":1,"trial_type":"image-button-response","trial_index":105,"time_elapsed":517006,"internal_node_id":"0.0-4.0-0.49","subject_id":"6122af5e398815fcb95b6c0f","study_id":"6197b3f67c2b5cd3b6d9596a","session_id":"619be31adafecc7d8e6fca5b","condition":"contingent","relevant_dimensions":["wings","pattern"],"bee_group":{"antennae":"X","wings":"1","pattern":"D","legs":"X"},"action":"avoid","summary":"bad-avoid","bonus":1.4000000000000008},{"rt":1116.9000000953674,"stimulus":"\n                    <p><b>Action: <em>avoid</em></b></p>\n                    <p>This is the bee that you just saw.</p>\n                    <img src=\"bees-with-color/bee-B2DF.svg\" width=\"200\">\n                    <p><br>Your bonus pay is unchanged, and remains at $0.92.</p>\n            ","response":0,"trial_type":"html-button-response","trial_index":106,"time_elapsed":518125,"internal_node_id":"0.0-4.0-1.49","subject_id":"6122af5e398815fcb95b6c0f","study_id":"6197b3f67c2b5cd3b6d9596a","session_id":"619be31adafecc7d8e6fca5b","condition":"contingent","relevant_dimensions":["wings","pattern"],"bee_group":{"antennae":"X","wings":"1","pattern":"D","legs":"X"},"bonus":1.4000000000000008},{"rt":1181.8000001907349,"stimulus":"bees-with-color/bee-B2SM.svg","response":0,"trial_type":"image-button-response","trial_index":107,"time_elapsed":519308,"internal_node_id":"0.0-4.0-0.50","subject_id":"6122af5e398815fcb95b6c0f","study_id":"6197b3f67c2b5cd3b6d9596a","session_id":"619be31adafecc7d8e6fca5b","condition":"contingent","relevant_dimensions":["wings","pattern"],"bee_group":{"antennae":"X","wings":"1","pattern":"D","legs":"X"},"action":"harvest","summary":"good-harvest","bonus":1.4000000000000008},{"rt":1080.7000000476837,"stimulus":"\n                    <p><b>Action: <em>harvest</em></b></p>\n                    <p>This is the bee that you just saw.</p>\n                    <img src=\"bees-with-color/bee-B2SM.svg\" width=\"200\">\n                    <p><span class=\"greenText\"><b>Successful harvest!</b></span><br>Your pay has increased by $0.02. Your bonus pay is now $0.94.</p>\n            ","response":0,"trial_type":"html-button-response","trial_index":108,"time_elapsed":520391,"internal_node_id":"0.0-4.0-1.50","subject_id":"6122af5e398815fcb95b6c0f","study_id":"6197b3f67c2b5cd3b6d9596a","session_id":"619be31adafecc7d8e6fca5b","condition":"contingent","relevant_dimensions":["wings","pattern"],"bee_group":{"antennae":"X","wings":"1","pattern":"D","legs":"X"},"bonus":1.4000000000000008},{"rt":1954.5,"stimulus":"bees-with-color/bee-B1SF.svg","response":0,"trial_type":"image-button-response","trial_index":109,"time_elapsed":522348,"internal_node_id":"0.0-4.0-0.51","subject_id":"6122af5e398815fcb95b6c0f","study_id":"6197b3f67c2b5cd3b6d9596a","session_id":"619be31adafecc7d8e6fca5b","condition":"contingent","relevant_dimensions":["wings","pattern"],"bee_group":{"antennae":"X","wings":"1","pattern":"D","legs":"X"},"action":"harvest","summary":"good-harvest","bonus":1.4000000000000008},{"rt":849.4000000953674,"stimulus":"\n                    <p><b>Action: <em>harvest</em></b></p>\n                    <p>This is the bee that you just saw.</p>\n                    <img src=\"bees-with-color/bee-B1SF.svg\" width=\"200\">\n                    <p><span class=\"greenText\"><b>Successful harvest!</b></span><br>Your pay has increased by $0.02. Your bonus pay is now $0.96.</p>\n            ","response":0,"trial_type":"html-button-response","trial_index":110,"time_elapsed":523199,"internal_node_id":"0.0-4.0-1.51","subject_id":"6122af5e398815fcb95b6c0f","study_id":"6197b3f67c2b5cd3b6d9596a","session_id":"619be31adafecc7d8e6fca5b","condition":"contingent","relevant_dimensions":["wings","pattern"],"bee_group":{"antennae":"X","wings":"1","pattern":"D","legs":"X"},"bonus":1.4000000000000008},{"rt":987.7000000476837,"stimulus":"bees-with-color/bee-A2SF.svg","response":0,"trial_type":"image-button-response","trial_index":111,"time_elapsed":524189,"internal_node_id":"0.0-4.0-0.52","subject_id":"6122af5e398815fcb95b6c0f","study_id":"6197b3f67c2b5cd3b6d9596a","session_id":"619be31adafecc7d8e6fca5b","condition":"contingent","relevant_dimensions":["wings","pattern"],"bee_group":{"antennae":"X","wings":"1","pattern":"D","legs":"X"},"action":"harvest","summary":"good-harvest","bonus":1.4000000000000008},{"rt":943.0999999046326,"stimulus":"\n                    <p><b>Action: <em>harvest</em></b></p>\n                    <p>This is the bee that you just saw.</p>\n                    <img src=\"bees-with-color/bee-A2SF.svg\" width=\"200\">\n                    <p><span class=\"greenText\"><b>Successful harvest!</b></span><br>Your pay has increased by $0.02. Your bonus pay is now $0.98.</p>\n            ","response":0,"trial_type":"html-button-response","trial_index":112,"time_elapsed":525134,"internal_node_id":"0.0-4.0-1.52","subject_id":"6122af5e398815fcb95b6c0f","study_id":"6197b3f67c2b5cd3b6d9596a","session_id":"619be31adafecc7d8e6fca5b","condition":"contingent","relevant_dimensions":["wings","pattern"],"bee_group":{"antennae":"X","wings":"1","pattern":"D","legs":"X"},"bonus":1.4000000000000008},{"rt":877.2000000476837,"stimulus":"bees-with-color/bee-B1DM.svg","response":1,"trial_type":"image-button-response","trial_index":113,"time_elapsed":526013,"internal_node_id":"0.0-4.0-0.53","subject_id":"6122af5e398815fcb95b6c0f","study_id":"6197b3f67c2b5cd3b6d9596a","session_id":"619be31adafecc7d8e6fca5b","condition":"contingent","relevant_dimensions":["wings","pattern"],"bee_group":{"antennae":"X","wings":"1","pattern":"D","legs":"X"},"action":"avoid","summary":"good-avoid","bonus":1.4000000000000008},{"rt":972.3999998569489,"stimulus":"\n                    <p><b>Action: <em>avoid</em></b></p>\n                    <p>This is the bee that you just saw.</p>\n                    <img src=\"bees-with-color/bee-B1DM.svg\" width=\"200\">\n                    <p><br>Your bonus pay is unchanged, and remains at $0.98.</p>\n            ","response":0,"trial_type":"html-button-response","trial_index":114,"time_elapsed":526988,"internal_node_id":"0.0-4.0-1.53","subject_id":"6122af5e398815fcb95b6c0f","study_id":"6197b3f67c2b5cd3b6d9596a","session_id":"619be31adafecc7d8e6fca5b","condition":"contingent","relevant_dimensions":["wings","pattern"],"bee_group":{"antennae":"X","wings":"1","pattern":"D","legs":"X"},"bonus":1.4000000000000008},{"rt":799.7000000476837,"stimulus":"bees-with-color/bee-A2SM.svg","response":0,"trial_type":"image-button-response","trial_index":115,"time_elapsed":527790,"internal_node_id":"0.0-4.0-0.54","subject_id":"6122af5e398815fcb95b6c0f","study_id":"6197b3f67c2b5cd3b6d9596a","session_id":"619be31adafecc7d8e6fca5b","condition":"contingent","relevant_dimensions":["wings","pattern"],"bee_group":{"antennae":"X","wings":"1","pattern":"D","legs":"X"},"action":"harvest","summary":"good-harvest","bonus":1.4000000000000008},{"rt":921.1000001430511,"stimulus":"\n                    <p><b>Action: <em>harvest</em></b></p>\n                    <p>This is the bee that you just saw.</p>\n                    <img src=\"bees-with-color/bee-A2SM.svg\" width=\"200\">\n                    <p><span class=\"greenText\"><b>Successful harvest!</b></span><br>Your pay has increased by $0.02. Your bonus pay is now $1.00.</p>\n            ","response":0,"trial_type":"html-button-response","trial_index":116,"time_elapsed":528713,"internal_node_id":"0.0-4.0-1.54","subject_id":"6122af5e398815fcb95b6c0f","study_id":"6197b3f67c2b5cd3b6d9596a","session_id":"619be31adafecc7d8e6fca5b","condition":"contingent","relevant_dimensions":["wings","pattern"],"bee_group":{"antennae":"X","wings":"1","pattern":"D","legs":"X"},"bonus":1.4000000000000008},{"rt":1088,"stimulus":"bees-with-color/bee-B2DM.svg","response":1,"trial_type":"image-button-response","trial_index":117,"time_elapsed":529803,"internal_node_id":"0.0-4.0-0.55","subject_id":"6122af5e398815fcb95b6c0f","study_id":"6197b3f67c2b5cd3b6d9596a","session_id":"619be31adafecc7d8e6fca5b","condition":"contingent","relevant_dimensions":["wings","pattern"],"bee_group":{"antennae":"X","wings":"1","pattern":"D","legs":"X"},"action":"avoid","summary":"bad-avoid","bonus":1.4000000000000008},{"rt":777.9000000953674,"stimulus":"\n                    <p><b>Action: <em>avoid</em></b></p>\n                    <p>This is the bee that you just saw.</p>\n                    <img src=\"bees-with-color/bee-B2DM.svg\" width=\"200\">\n                    <p><br>Your bonus pay is unchanged, and remains at $1.00.</p>\n            ","response":0,"trial_type":"html-button-response","trial_index":118,"time_elapsed":530583,"internal_node_id":"0.0-4.0-1.55","subject_id":"6122af5e398815fcb95b6c0f","study_id":"6197b3f67c2b5cd3b6d9596a","session_id":"619be31adafecc7d8e6fca5b","condition":"contingent","relevant_dimensions":["wings","pattern"],"bee_group":{"antennae":"X","wings":"1","pattern":"D","legs":"X"},"bonus":1.4000000000000008},{"rt":1606.6000001430511,"stimulus":"bees-with-color/bee-A2DF.svg","response":1,"trial_type":"image-button-response","trial_index":119,"time_elapsed":532193,"internal_node_id":"0.0-4.0-0.56","subject_id":"6122af5e398815fcb95b6c0f","study_id":"6197b3f67c2b5cd3b6d9596a","session_id":"619be31adafecc7d8e6fca5b","condition":"contingent","relevant_dimensions":["wings","pattern"],"bee_group":{"antennae":"X","wings":"1","pattern":"D","legs":"X"},"action":"avoid","summary":"bad-avoid","bonus":1.4000000000000008},{"rt":725.6000001430511,"stimulus":"\n                    <p><b>Action: <em>avoid</em></b></p>\n                    <p>This is the bee that you just saw.</p>\n                    <img src=\"bees-with-color/bee-A2DF.svg\" width=\"200\">\n                    <p><br>Your bonus pay is unchanged, and remains at $1.00.</p>\n            ","response":0,"trial_type":"html-button-response","trial_index":120,"time_elapsed":532921,"internal_node_id":"0.0-4.0-1.56","subject_id":"6122af5e398815fcb95b6c0f","study_id":"6197b3f67c2b5cd3b6d9596a","session_id":"619be31adafecc7d8e6fca5b","condition":"contingent","relevant_dimensions":["wings","pattern"],"bee_group":{"antennae":"X","wings":"1","pattern":"D","legs":"X"},"bonus":1.4000000000000008},{"rt":1008.6999998092651,"stimulus":"bees-with-color/bee-A2DM.svg","response":1,"trial_type":"image-button-response","trial_index":121,"time_elapsed":533931,"internal_node_id":"0.0-4.0-0.57","subject_id":"6122af5e398815fcb95b6c0f","study_id":"6197b3f67c2b5cd3b6d9596a","session_id":"619be31adafecc7d8e6fca5b","condition":"contingent","relevant_dimensions":["wings","pattern"],"bee_group":{"antennae":"X","wings":"1","pattern":"D","legs":"X"},"action":"avoid","summary":"bad-avoid","bonus":1.4000000000000008},{"rt":769.8999998569489,"stimulus":"\n                    <p><b>Action: <em>avoid</em></b></p>\n                    <p>This is the bee that you just saw.</p>\n                    <img src=\"bees-with-color/bee-A2DM.svg\" width=\"200\">\n                    <p><br>Your bonus pay is unchanged, and remains at $1.00.</p>\n            ","response":0,"trial_type":"html-button-response","trial_index":122,"time_elapsed":534704,"internal_node_id":"0.0-4.0-1.57","subject_id":"6122af5e398815fcb95b6c0f","study_id":"6197b3f67c2b5cd3b6d9596a","session_id":"619be31adafecc7d8e6fca5b","condition":"contingent","relevant_dimensions":["wings","pattern"],"bee_group":{"antennae":"X","wings":"1","pattern":"D","legs":"X"},"bonus":1.4000000000000008},{"rt":776.9000000953674,"stimulus":"bees-with-color/bee-A1SM.svg","response":0,"trial_type":"image-button-response","trial_index":123,"time_elapsed":535483,"internal_node_id":"0.0-4.0-0.58","subject_id":"6122af5e398815fcb95b6c0f","study_id":"6197b3f67c2b5cd3b6d9596a","session_id":"619be31adafecc7d8e6fca5b","condition":"contingent","relevant_dimensions":["wings","pattern"],"bee_group":{"antennae":"X","wings":"1","pattern":"D","legs":"X"},"action":"harvest","summary":"good-harvest","bonus":1.4000000000000008},{"rt":1302.7999999523163,"stimulus":"\n                    <p><b>Action: <em>harvest</em></b></p>\n                    <p>This is the bee that you just saw.</p>\n                    <img src=\"bees-with-color/bee-A1SM.svg\" width=\"200\">\n                    <p><span class=\"greenText\"><b>Successful harvest!</b></span><br>Your pay has increased by $0.02. Your bonus pay is now $1.02.</p>\n            ","response":0,"trial_type":"html-button-response","trial_index":124,"time_elapsed":536789,"internal_node_id":"0.0-4.0-1.58","subject_id":"6122af5e398815fcb95b6c0f","study_id":"6197b3f67c2b5cd3b6d9596a","session_id":"619be31adafecc7d8e6fca5b","condition":"contingent","relevant_dimensions":["wings","pattern"],"bee_group":{"antennae":"X","wings":"1","pattern":"D","legs":"X"},"bonus":1.4000000000000008},{"rt":1990.5,"stimulus":"bees-with-color/bee-A1SF.svg","response":0,"trial_type":"image-button-response","trial_index":125,"time_elapsed":538782,"internal_node_id":"0.0-4.0-0.59","subject_id":"6122af5e398815fcb95b6c0f","study_id":"6197b3f67c2b5cd3b6d9596a","session_id":"619be31adafecc7d8e6fca5b","condition":"contingent","relevant_dimensions":["wings","pattern"],"bee_group":{"antennae":"X","wings":"1","pattern":"D","legs":"X"},"action":"harvest","summary":"good-harvest","bonus":1.4000000000000008},{"rt":848.7000000476837,"stimulus":"\n                    <p><b>Action: <em>harvest</em></b></p>\n                    <p>This is the bee that you just saw.</p>\n                    <img src=\"bees-with-color/bee-A1SF.svg\" width=\"200\">\n                    <p><span class=\"greenText\"><b>Successful harvest!</b></span><br>Your pay has increased by $0.02. Your bonus pay is now $1.04.</p>\n            ","response":0,"trial_type":"html-button-response","trial_index":126,"time_elapsed":539633,"internal_node_id":"0.0-4.0-1.59","subject_id":"6122af5e398815fcb95b6c0f","study_id":"6197b3f67c2b5cd3b6d9596a","session_id":"619be31adafecc7d8e6fca5b","condition":"contingent","relevant_dimensions":["wings","pattern"],"bee_group":{"antennae":"X","wings":"1","pattern":"D","legs":"X"},"bonus":1.4000000000000008},{"rt":929.5,"stimulus":"bees-with-color/bee-B2SF.svg","response":0,"trial_type":"image-button-response","trial_index":127,"time_elapsed":540564,"internal_node_id":"0.0-4.0-0.60","subject_id":"6122af5e398815fcb95b6c0f","study_id":"6197b3f67c2b5cd3b6d9596a","session_id":"619be31adafecc7d8e6fca5b","condition":"contingent","relevant_dimensions":["wings","pattern"],"bee_group":{"antennae":"X","wings":"1","pattern":"D","legs":"X"},"action":"harvest","summary":"good-harvest","bonus":1.4000000000000008},{"rt":986.5,"stimulus":"\n                    <p><b>Action: <em>harvest</em></b></p>\n                    <p>This is the bee that you just saw.</p>\n                    <img src=\"bees-with-color/bee-B2SF.svg\" width=\"200\">\n                    <p><span class=\"greenText\"><b>Successful harvest!</b></span><br>Your pay has increased by $0.02. Your bonus pay is now $1.06.</p>\n            ","response":0,"trial_type":"html-button-response","trial_index":128,"time_elapsed":541553,"internal_node_id":"0.0-4.0-1.60","subject_id":"6122af5e398815fcb95b6c0f","study_id":"6197b3f67c2b5cd3b6d9596a","session_id":"619be31adafecc7d8e6fca5b","condition":"contingent","relevant_dimensions":["wings","pattern"],"bee_group":{"antennae":"X","wings":"1","pattern":"D","legs":"X"},"bonus":1.4000000000000008},{"rt":1081,"stimulus":"bees-with-color/bee-B1SM.svg","response":0,"trial_type":"image-button-response","trial_index":129,"time_elapsed":542636,"internal_node_id":"0.0-4.0-0.61","subject_id":"6122af5e398815fcb95b6c0f","study_id":"6197b3f67c2b5cd3b6d9596a","session_id":"619be31adafecc7d8e6fca5b","condition":"contingent","relevant_dimensions":["wings","pattern"],"bee_group":{"antennae":"X","wings":"1","pattern":"D","legs":"X"},"action":"harvest","summary":"good-harvest","bonus":1.4000000000000008},{"rt":748.2000000476837,"stimulus":"\n                    <p><b>Action: <em>harvest</em></b></p>\n                    <p>This is the bee that you just saw.</p>\n                    <img src=\"bees-with-color/bee-B1SM.svg\" width=\"200\">\n                    <p><span class=\"greenText\"><b>Successful harvest!</b></span><br>Your pay has increased by $0.02. Your bonus pay is now $1.08.</p>\n            ","response":0,"trial_type":"html-button-response","trial_index":130,"time_elapsed":543387,"internal_node_id":"0.0-4.0-1.61","subject_id":"6122af5e398815fcb95b6c0f","study_id":"6197b3f67c2b5cd3b6d9596a","session_id":"619be31adafecc7d8e6fca5b","condition":"contingent","relevant_dimensions":["wings","pattern"],"bee_group":{"antennae":"X","wings":"1","pattern":"D","legs":"X"},"bonus":1.4000000000000008},{"rt":1209.8999998569489,"stimulus":"bees-with-color/bee-A1DM.svg","response":1,"trial_type":"image-button-response","trial_index":131,"time_elapsed":544599,"internal_node_id":"0.0-4.0-0.62","subject_id":"6122af5e398815fcb95b6c0f","study_id":"6197b3f67c2b5cd3b6d9596a","session_id":"619be31adafecc7d8e6fca5b","condition":"contingent","relevant_dimensions":["wings","pattern"],"bee_group":{"antennae":"X","wings":"1","pattern":"D","legs":"X"},"action":"avoid","summary":"good-avoid","bonus":1.4000000000000008},{"rt":877.0999999046326,"stimulus":"\n                    <p><b>Action: <em>avoid</em></b></p>\n                    <p>This is the bee that you just saw.</p>\n                    <img src=\"bees-with-color/bee-A1DM.svg\" width=\"200\">\n                    <p><br>Your bonus pay is unchanged, and remains at $1.08.</p>\n            ","response":0,"trial_type":"html-button-response","trial_index":132,"time_elapsed":545479,"internal_node_id":"0.0-4.0-1.62","subject_id":"6122af5e398815fcb95b6c0f","study_id":"6197b3f67c2b5cd3b6d9596a","session_id":"619be31adafecc7d8e6fca5b","condition":"contingent","relevant_dimensions":["wings","pattern"],"bee_group":{"antennae":"X","wings":"1","pattern":"D","legs":"X"},"bonus":1.4000000000000008},{"rt":1469.5999999046326,"stimulus":"bees-with-color/bee-A1DF.svg","response":1,"trial_type":"image-button-response","trial_index":133,"time_elapsed":546952,"internal_node_id":"0.0-4.0-0.63","subject_id":"6122af5e398815fcb95b6c0f","study_id":"6197b3f67c2b5cd3b6d9596a","session_id":"619be31adafecc7d8e6fca5b","condition":"contingent","relevant_dimensions":["wings","pattern"],"bee_group":{"antennae":"X","wings":"1","pattern":"D","legs":"X"},"action":"avoid","summary":"good-avoid","bonus":1.4000000000000008},{"rt":761.2999999523163,"stimulus":"\n                    <p><b>Action: <em>avoid</em></b></p>\n                    <p>This is the bee that you just saw.</p>\n                    <img src=\"bees-with-color/bee-A1DF.svg\" width=\"200\">\n                    <p><br>Your bonus pay is unchanged, and remains at $1.08.</p>\n            ","response":0,"trial_type":"html-button-response","trial_index":134,"time_elapsed":547717,"internal_node_id":"0.0-4.0-1.63","subject_id":"6122af5e398815fcb95b6c0f","study_id":"6197b3f67c2b5cd3b6d9596a","session_id":"619be31adafecc7d8e6fca5b","condition":"contingent","relevant_dimensions":["wings","pattern"],"bee_group":{"antennae":"X","wings":"1","pattern":"D","legs":"X"},"bonus":1.4000000000000008},{"rt":5299.200000047684,"stimulus":"You have completed the first part of this experiment.<br><br>You will now begin a shorter second part, in which you will receive no feedback.<br>The same rules regarding bonus pay apply.<br><br>Press any key to begin.","response":"control","trial_type":"html-keyboard-response","trial_index":135,"time_elapsed":553019,"internal_node_id":"0.0-5.0","subject_id":"6122af5e398815fcb95b6c0f","study_id":"6197b3f67c2b5cd3b6d9596a","session_id":"619be31adafecc7d8e6fca5b","condition":"contingent","relevant_dimensions":["wings","pattern"],"bee_group":{"antennae":"X","wings":"1","pattern":"D","legs":"X"},"bonus":1.4000000000000008},{"rt":2858.2999999523163,"stimulus":"bees-with-color/bee-A1DM.svg","response":1,"trial_type":"image-button-response","trial_index":136,"time_elapsed":555896,"internal_node_id":"0.0-6.0-0.0","subject_id":"6122af5e398815fcb95b6c0f","study_id":"6197b3f67c2b5cd3b6d9596a","session_id":"619be31adafecc7d8e6fca5b","condition":"contingent","relevant_dimensions":["wings","pattern"],"bee_group":{"antennae":"X","wings":"1","pattern":"D","legs":"X"},"bonus":1.4000000000000008},{"rt":2812.2000000476837,"stimulus":"bees-with-color/bee-A2DM.svg","response":1,"trial_type":"image-button-response","trial_index":137,"time_elapsed":558711,"internal_node_id":"0.0-6.0-0.1","subject_id":"6122af5e398815fcb95b6c0f","study_id":"6197b3f67c2b5cd3b6d9596a","session_id":"619be31adafecc7d8e6fca5b","condition":"contingent","relevant_dimensions":["wings","pattern"],"bee_group":{"antennae":"X","wings":"1","pattern":"D","legs":"X"},"bonus":1.4000000000000008},{"rt":1251.2999999523163,"stimulus":"bees-with-color/bee-B2DF.svg","response":1,"trial_type":"image-button-response","trial_index":138,"time_elapsed":559966,"internal_node_id":"0.0-6.0-0.2","subject_id":"6122af5e398815fcb95b6c0f","study_id":"6197b3f67c2b5cd3b6d9596a","session_id":"619be31adafecc7d8e6fca5b","condition":"contingent","relevant_dimensions":["wings","pattern"],"bee_group":{"antennae":"X","wings":"1","pattern":"D","legs":"X"},"bonus":1.4000000000000008},{"rt":1547.7000000476837,"stimulus":"bees-with-color/bee-A1SM.svg","response":0,"trial_type":"image-button-response","trial_index":139,"time_elapsed":561517,"internal_node_id":"0.0-6.0-0.3","subject_id":"6122af5e398815fcb95b6c0f","study_id":"6197b3f67c2b5cd3b6d9596a","session_id":"619be31adafecc7d8e6fca5b","condition":"contingent","relevant_dimensions":["wings","pattern"],"bee_group":{"antennae":"X","wings":"1","pattern":"D","legs":"X"},"bonus":1.4000000000000008},{"rt":1058.2000000476837,"stimulus":"bees-with-color/bee-A2DF.svg","response":1,"trial_type":"image-button-response","trial_index":140,"time_elapsed":562577,"internal_node_id":"0.0-6.0-0.4","subject_id":"6122af5e398815fcb95b6c0f","study_id":"6197b3f67c2b5cd3b6d9596a","session_id":"619be31adafecc7d8e6fca5b","condition":"contingent","relevant_dimensions":["wings","pattern"],"bee_group":{"antennae":"X","wings":"1","pattern":"D","legs":"X"},"bonus":1.4000000000000008},{"rt":807,"stimulus":"bees-with-color/bee-B1SF.svg","response":0,"trial_type":"image-button-response","trial_index":141,"time_elapsed":563387,"internal_node_id":"0.0-6.0-0.5","subject_id":"6122af5e398815fcb95b6c0f","study_id":"6197b3f67c2b5cd3b6d9596a","session_id":"619be31adafecc7d8e6fca5b","condition":"contingent","relevant_dimensions":["wings","pattern"],"bee_group":{"antennae":"X","wings":"1","pattern":"D","legs":"X"},"bonus":1.4000000000000008},{"rt":834.4000000953674,"stimulus":"bees-with-color/bee-B1DF.svg","response":1,"trial_type":"image-button-response","trial_index":142,"time_elapsed":564224,"internal_node_id":"0.0-6.0-0.6","subject_id":"6122af5e398815fcb95b6c0f","study_id":"6197b3f67c2b5cd3b6d9596a","session_id":"619be31adafecc7d8e6fca5b","condition":"contingent","relevant_dimensions":["wings","pattern"],"bee_group":{"antennae":"X","wings":"1","pattern":"D","legs":"X"},"bonus":1.4000000000000008},{"rt":999.8999998569489,"stimulus":"bees-with-color/bee-B2DM.svg","response":1,"trial_type":"image-button-response","trial_index":143,"time_elapsed":565227,"internal_node_id":"0.0-6.0-0.7","subject_id":"6122af5e398815fcb95b6c0f","study_id":"6197b3f67c2b5cd3b6d9596a","session_id":"619be31adafecc7d8e6fca5b","condition":"contingent","relevant_dimensions":["wings","pattern"],"bee_group":{"antennae":"X","wings":"1","pattern":"D","legs":"X"},"bonus":1.4000000000000008},{"rt":827.1000001430511,"stimulus":"bees-with-color/bee-B2SM.svg","response":0,"trial_type":"image-button-response","trial_index":144,"time_elapsed":566057,"internal_node_id":"0.0-6.0-0.8","subject_id":"6122af5e398815fcb95b6c0f","study_id":"6197b3f67c2b5cd3b6d9596a","session_id":"619be31adafecc7d8e6fca5b","condition":"contingent","relevant_dimensions":["wings","pattern"],"bee_group":{"antennae":"X","wings":"1","pattern":"D","legs":"X"},"bonus":1.4000000000000008},{"rt":652.7999999523163,"stimulus":"bees-with-color/bee-A1SF.svg","response":0,"trial_type":"image-button-response","trial_index":145,"time_elapsed":566713,"internal_node_id":"0.0-6.0-0.9","subject_id":"6122af5e398815fcb95b6c0f","study_id":"6197b3f67c2b5cd3b6d9596a","session_id":"619be31adafecc7d8e6fca5b","condition":"contingent","relevant_dimensions":["wings","pattern"],"bee_group":{"antennae":"X","wings":"1","pattern":"D","legs":"X"},"bonus":1.4000000000000008},{"rt":546.2000000476837,"stimulus":"bees-with-color/bee-B2SF.svg","response":0,"trial_type":"image-button-response","trial_index":146,"time_elapsed":567261,"internal_node_id":"0.0-6.0-0.10","subject_id":"6122af5e398815fcb95b6c0f","study_id":"6197b3f67c2b5cd3b6d9596a","session_id":"619be31adafecc7d8e6fca5b","condition":"contingent","relevant_dimensions":["wings","pattern"],"bee_group":{"antennae":"X","wings":"1","pattern":"D","legs":"X"},"bonus":1.4000000000000008},{"rt":505.09999990463257,"stimulus":"bees-with-color/bee-B1SM.svg","response":0,"trial_type":"image-button-response","trial_index":147,"time_elapsed":567768,"internal_node_id":"0.0-6.0-0.11","subject_id":"6122af5e398815fcb95b6c0f","study_id":"6197b3f67c2b5cd3b6d9596a","session_id":"619be31adafecc7d8e6fca5b","condition":"contingent","relevant_dimensions":["wings","pattern"],"bee_group":{"antennae":"X","wings":"1","pattern":"D","legs":"X"},"bonus":1.4000000000000008},{"rt":566.6000001430511,"stimulus":"bees-with-color/bee-A2SM.svg","response":0,"trial_type":"image-button-response","trial_index":148,"time_elapsed":568338,"internal_node_id":"0.0-6.0-0.12","subject_id":"6122af5e398815fcb95b6c0f","study_id":"6197b3f67c2b5cd3b6d9596a","session_id":"619be31adafecc7d8e6fca5b","condition":"contingent","relevant_dimensions":["wings","pattern"],"bee_group":{"antennae":"X","wings":"1","pattern":"D","legs":"X"},"bonus":1.4000000000000008},{"rt":573.4000000953674,"stimulus":"bees-with-color/bee-A2SF.svg","response":0,"trial_type":"image-button-response","trial_index":149,"time_elapsed":568914,"internal_node_id":"0.0-6.0-0.13","subject_id":"6122af5e398815fcb95b6c0f","study_id":"6197b3f67c2b5cd3b6d9596a","session_id":"619be31adafecc7d8e6fca5b","condition":"contingent","relevant_dimensions":["wings","pattern"],"bee_group":{"antennae":"X","wings":"1","pattern":"D","legs":"X"},"bonus":1.4000000000000008},{"rt":893.7999999523163,"stimulus":"bees-with-color/bee-A1DF.svg","response":1,"trial_type":"image-button-response","trial_index":150,"time_elapsed":569810,"internal_node_id":"0.0-6.0-0.14","subject_id":"6122af5e398815fcb95b6c0f","study_id":"6197b3f67c2b5cd3b6d9596a","session_id":"619be31adafecc7d8e6fca5b","condition":"contingent","relevant_dimensions":["wings","pattern"],"bee_group":{"antennae":"X","wings":"1","pattern":"D","legs":"X"},"bonus":1.4000000000000008},{"rt":589.4000000953674,"stimulus":"bees-with-color/bee-B1DM.svg","response":1,"trial_type":"image-button-response","trial_index":151,"time_elapsed":570402,"internal_node_id":"0.0-6.0-0.15","subject_id":"6122af5e398815fcb95b6c0f","study_id":"6197b3f67c2b5cd3b6d9596a","session_id":"619be31adafecc7d8e6fca5b","condition":"contingent","relevant_dimensions":["wings","pattern"],"bee_group":{"antennae":"X","wings":"1","pattern":"D","legs":"X"},"bonus":1.4000000000000008},{"rt":993,"stimulus":"bees-with-color/bee-B1SF.svg","response":0,"trial_type":"image-button-response","trial_index":152,"time_elapsed":571398,"internal_node_id":"0.0-6.0-0.16","subject_id":"6122af5e398815fcb95b6c0f","study_id":"6197b3f67c2b5cd3b6d9596a","session_id":"619be31adafecc7d8e6fca5b","condition":"contingent","relevant_dimensions":["wings","pattern"],"bee_group":{"antennae":"X","wings":"1","pattern":"D","legs":"X"},"bonus":1.4000000000000008},{"rt":935.3999998569489,"stimulus":"bees-with-color/bee-B2DF.svg","response":1,"trial_type":"image-button-response","trial_index":153,"time_elapsed":572336,"internal_node_id":"0.0-6.0-0.17","subject_id":"6122af5e398815fcb95b6c0f","study_id":"6197b3f67c2b5cd3b6d9596a","session_id":"619be31adafecc7d8e6fca5b","condition":"contingent","relevant_dimensions":["wings","pattern"],"bee_group":{"antennae":"X","wings":"1","pattern":"D","legs":"X"},"bonus":1.4000000000000008},{"rt":1029.2000000476837,"stimulus":"bees-with-color/bee-A1DM.svg","response":1,"trial_type":"image-button-response","trial_index":154,"time_elapsed":573368,"internal_node_id":"0.0-6.0-0.18","subject_id":"6122af5e398815fcb95b6c0f","study_id":"6197b3f67c2b5cd3b6d9596a","session_id":"619be31adafecc7d8e6fca5b","condition":"contingent","relevant_dimensions":["wings","pattern"],"bee_group":{"antennae":"X","wings":"1","pattern":"D","legs":"X"},"bonus":1.4000000000000008},{"rt":653.5,"stimulus":"bees-with-color/bee-A1DF.svg","response":1,"trial_type":"image-button-response","trial_index":155,"time_elapsed":574025,"internal_node_id":"0.0-6.0-0.19","subject_id":"6122af5e398815fcb95b6c0f","study_id":"6197b3f67c2b5cd3b6d9596a","session_id":"619be31adafecc7d8e6fca5b","condition":"contingent","relevant_dimensions":["wings","pattern"],"bee_group":{"antennae":"X","wings":"1","pattern":"D","legs":"X"},"bonus":1.4000000000000008},{"rt":553,"stimulus":"bees-with-color/bee-A2DM.svg","response":1,"trial_type":"image-button-response","trial_index":156,"time_elapsed":574580,"internal_node_id":"0.0-6.0-0.20","subject_id":"6122af5e398815fcb95b6c0f","study_id":"6197b3f67c2b5cd3b6d9596a","session_id":"619be31adafecc7d8e6fca5b","condition":"contingent","relevant_dimensions":["wings","pattern"],"bee_group":{"antennae":"X","wings":"1","pattern":"D","legs":"X"},"bonus":1.4000000000000008},{"rt":1513.3999998569489,"stimulus":"bees-with-color/bee-A1SM.svg","response":0,"trial_type":"image-button-response","trial_index":157,"time_elapsed":576096,"internal_node_id":"0.0-6.0-0.21","subject_id":"6122af5e398815fcb95b6c0f","study_id":"6197b3f67c2b5cd3b6d9596a","session_id":"619be31adafecc7d8e6fca5b","condition":"contingent","relevant_dimensions":["wings","pattern"],"bee_group":{"antennae":"X","wings":"1","pattern":"D","legs":"X"},"bonus":1.4000000000000008},{"rt":524.3999998569489,"stimulus":"bees-with-color/bee-A2SM.svg","response":0,"trial_type":"image-button-response","trial_index":158,"time_elapsed":576623,"internal_node_id":"0.0-6.0-0.22","subject_id":"6122af5e398815fcb95b6c0f","study_id":"6197b3f67c2b5cd3b6d9596a","session_id":"619be31adafecc7d8e6fca5b","condition":"contingent","relevant_dimensions":["wings","pattern"],"bee_group":{"antennae":"X","wings":"1","pattern":"D","legs":"X"},"bonus":1.4000000000000008},{"rt":502.19999980926514,"stimulus":"bees-with-color/bee-A1SF.svg","response":0,"trial_type":"image-button-response","trial_index":159,"time_elapsed":577128,"internal_node_id":"0.0-6.0-0.23","subject_id":"6122af5e398815fcb95b6c0f","study_id":"6197b3f67c2b5cd3b6d9596a","session_id":"619be31adafecc7d8e6fca5b","condition":"contingent","relevant_dimensions":["wings","pattern"],"bee_group":{"antennae":"X","wings":"1","pattern":"D","legs":"X"},"bonus":1.4000000000000008},{"rt":855.7000000476837,"stimulus":"bees-with-color/bee-B1DF.svg","response":1,"trial_type":"image-button-response","trial_index":160,"time_elapsed":577986,"internal_node_id":"0.0-6.0-0.24","subject_id":"6122af5e398815fcb95b6c0f","study_id":"6197b3f67c2b5cd3b6d9596a","session_id":"619be31adafecc7d8e6fca5b","condition":"contingent","relevant_dimensions":["wings","pattern"],"bee_group":{"antennae":"X","wings":"1","pattern":"D","legs":"X"},"bonus":1.4000000000000008},{"rt":786.3999998569489,"stimulus":"bees-with-color/bee-B1SM.svg","response":0,"trial_type":"image-button-response","trial_index":161,"time_elapsed":578774,"internal_node_id":"0.0-6.0-0.25","subject_id":"6122af5e398815fcb95b6c0f","study_id":"6197b3f67c2b5cd3b6d9596a","session_id":"619be31adafecc7d8e6fca5b","condition":"contingent","relevant_dimensions":["wings","pattern"],"bee_group":{"antennae":"X","wings":"1","pattern":"D","legs":"X"},"bonus":1.4000000000000008},{"rt":495.2999999523163,"stimulus":"bees-with-color/bee-B2SM.svg","response":0,"trial_type":"image-button-response","trial_index":162,"time_elapsed":579272,"internal_node_id":"0.0-6.0-0.26","subject_id":"6122af5e398815fcb95b6c0f","study_id":"6197b3f67c2b5cd3b6d9596a","session_id":"619be31adafecc7d8e6fca5b","condition":"contingent","relevant_dimensions":["wings","pattern"],"bee_group":{"antennae":"X","wings":"1","pattern":"D","legs":"X"},"bonus":1.4000000000000008},{"rt":783.7000000476837,"stimulus":"bees-with-color/bee-B2DM.svg","response":1,"trial_type":"image-button-response","trial_index":163,"time_elapsed":580058,"internal_node_id":"0.0-6.0-0.27","subject_id":"6122af5e398815fcb95b6c0f","study_id":"6197b3f67c2b5cd3b6d9596a","session_id":"619be31adafecc7d8e6fca5b","condition":"contingent","relevant_dimensions":["wings","pattern"],"bee_group":{"antennae":"X","wings":"1","pattern":"D","legs":"X"},"bonus":1.4000000000000008},{"rt":842.1000001430511,"stimulus":"bees-with-color/bee-B2SF.svg","response":0,"trial_type":"image-button-response","trial_index":164,"time_elapsed":5809