[{"success":true,"trial_type":"fullscreen","trial_index":0,"time_elapsed":3325,"internal_node_id":"0.0-0.0","subject_id":"5cdeaeb3557fbd00018a2c59","study_id":"6197b3f67c2b5cd3b6d9596a","session_id":"619bfbdc15aee3e8a3a0d3ed","condition":"full-information","relevant_dimensions":["antennae","legs"],"bee_group":{"antennae":"A","wings":"X","pattern":"X","legs":"F"},"bonus":1.1200000000000006},{"success":true,"timeout":false,"failed_images":[],"failed_audio":[],"failed_video":[],"trial_type":"preload","trial_index":1,"time_elapsed":5120,"internal_node_id":"0.0-1.0","subject_id":"5cdeaeb3557fbd00018a2c59","study_id":"6197b3f67c2b5cd3b6d9596a","session_id":"619bfbdc15aee3e8a3a0d3ed","condition":"full-information","relevant_dimensions":["antennae","legs"],"bee_group":{"antennae":"A","wings":"X","pattern":"X","legs":"F"},"bonus":1.1200000000000006},{"rt":1396,"stimulus":"Welcome! Press any key to begin.","response":" ","trial_type":"html-keyboard-response","trial_index":2,"time_elapsed":6520,"internal_node_id":"0.0-2.0","subject_id":"5cdeaeb3557fbd00018a2c59","study_id":"6197b3f67c2b5cd3b6d9596a","session_id":"619bfbdc15aee3e8a3a0d3ed","condition":"full-information","relevant_dimensions":["antennae","legs"],"bee_group":{"antennae":"A","wings":"X","pattern":"X","legs":"F"},"bonus":1.1200000000000006},{"view_history":[{"page_index":0,"viewing_time":3147.600000143051},{"page_index":1,"viewing_time":8768},{"page_index":2,"viewing_time":6595.899999856949},{"page_index":3,"viewing_time":8823.800000190735},{"page_index":4,"viewing_time":4288.199999809265},{"page_index":5,"viewing_time":5732.100000143051},{"page_index":6,"viewing_time":6727.599999904633},{"page_index":7,"viewing_time":6526.200000047684},{"page_index":8,"viewing_time":3027.7999999523163},{"page_index":9,"viewing_time":3098.2999999523163},{"page_index":10,"viewing_time":2728.100000143051},{"page_index":11,"viewing_time":7677.899999856949},{"page_index":12,"viewing_time":9130},{"page_index":13,"viewing_time":1567.8000001907349},{"page_index":14,"viewing_time":2216.199999809265}],"rt":80055.70000004768,"trial_type":"instructions","trial_index":3,"time_elapsed":86579,"internal_node_id":"0.0-3.0-0.0","subject_id":"5cdeaeb3557fbd00018a2c59","study_id":"6197b3f67c2b5cd3b6d9596a","session_id":"619bfbdc15aee3e8a3a0d3ed","condition":"full-information","relevant_dimensions":["antennae","legs"],"bee_group":{"antennae":"A","wings":"X","pattern":"X","legs":"F"},"bonus":1.1200000000000006},{"rt":14658.900000095367,"response":{"Q0":["Two or six legs","Stripes or spots on body","Single or double wings","Antennae or no antennae"]},"question_order":[0],"trial_type":"survey-multi-select","trial_index":4,"time_elapsed":101241,"internal_node_id":"0.0-3.0-1.0","subject_id":"5cdeaeb3557fbd00018a2c59","study_id":"6197b3f67c2b5cd3b6d9596a","session_id":"619bfbdc15aee3e8a3a0d3ed","condition":"full-information","relevant_dimensions":["antennae","legs"],"bee_group":{"antennae":"A","wings":"X","pattern":"X","legs":"F"},"correct":true,"bonus":1.1200000000000006},{"rt":16781.099999904633,"response":{"Q1":"No.","Q2":"Based on the four features of the bee.","Q3":"You learn if it was friendly or dangerous, but do not alter your bonus."},"question_order":[0,1,2],"trial_type":"survey-multi-choice","trial_index":5,"time_elapsed":118025,"internal_node_id":"0.0-3.0-2.0","subject_id":"5cdeaeb3557fbd00018a2c59","study_id":"6197b3f67c2b5cd3b6d9596a","session_id":"619bfbdc15aee3e8a3a0d3ed","condition":"full-information","relevant_dimensions":["antennae","legs"],"bee_group":{"antennae":"A","wings":"X","pattern":"X","legs":"F"},"correct":true,"bonus":1.1200000000000006},{"rt":2422.7000000476837,"stimulus":"<p>Congrats, you got everything right<br>When you're ready, click the button below to continue to the experiment.</p>","response":0,"trial_type":"html-button-response","trial_index":6,"time_elapsed":120449,"internal_node_id":"0.0-3.0-3.0","subject_id":"5cdeaeb3557fbd00018a2c59","study_id":"6197b3f67c2b5cd3b6d9596a","session_id":"619bfbdc15aee3e8a3a0d3ed","condition":"full-information","relevant_dimensions":["antennae","legs"],"bee_group":{"antennae":"A","wings":"X","pattern":"X","legs":"F"},"bonus":1.1200000000000006},{"rt":5799.399999856949,"stimulus":"bees-with-color/bee-B2DM.svg","response":1,"trial_type":"image-button-response","trial_index":7,"time_elapsed":126251,"internal_node_id":"0.0-4.0-0.0","subject_id":"5cdeaeb3557fbd00018a2c59","study_id":"6197b3f67c2b5cd3b6d9596a","session_id":"619bfbdc15aee3e8a3a0d3ed","condition":"full-information","relevant_dimensions":["antennae","legs"],"bee_group":{"antennae":"A","wings":"X","pattern":"X","legs":"F"},"action":"avoid","summary":"bad-avoid","bonus":1.1200000000000006},{"rt":14563.799999952316,"stimulus":"\n                    <p><b>Action: <em>avoid</em></b></p>\n                    <p>This is the bee that you just saw.</p>\n                    <img src=\"bees-with-color/bee-B2DM.svg\" width=\"200\">\n                    <p><span class=\"redText\">Bad choice,</span> the bee was friendly.<br>Your bonus pay is unchanged, and remains at $0.54.</p>\n            ","response":0,"trial_type":"html-button-response","trial_index":8,"time_elapsed":140817,"internal_node_id":"0.0-4.0-1.0","subject_id":"5cdeaeb3557fbd00018a2c59","study_id":"6197b3f67c2b5cd3b6d9596a","session_id":"619bfbdc15aee3e8a3a0d3ed","condition":"full-information","relevant_dimensions":["antennae","legs"],"bee_group":{"antennae":"A","wings":"X","pattern":"X","legs":"F"},"bonus":1.1200000000000006},{"rt":2507.7999999523163,"stimulus":"bees-with-color/bee-A1SF.svg","response":1,"trial_type":"image-button-response","trial_index":9,"time_elapsed":143327,"internal_node_id":"0.0-4.0-0.1","subject_id":"5cdeaeb3557fbd00018a2c59","study_id":"6197b3f67c2b5cd3b6d9596a","session_id":"619bfbdc15aee3e8a3a0d3ed","condition":"full-information","relevant_dimensions":["antennae","legs"],"bee_group":{"antennae":"A","wings":"X","pattern":"X","legs":"F"},"action":"avoid","summary":"good-avoid","bonus":1.1200000000000006},{"rt":5344.299999952316,"stimulus":"\n                    <p><b>Action: <em>avoid</em></b></p>\n                    <p>This is the bee that you just saw.</p>\n                    <img src=\"bees-with-color/bee-A1SF.svg\" width=\"200\">\n                    <p><span class=\"greenText\">Good choice!</span>  This bee would have stung you.<br>Your bonus pay is unchanged, and remains at $0.54.</p>\n            ","response":0,"trial_type":"html-button-response","trial_index":10,"time_elapsed":148672,"internal_node_id":"0.0-4.0-1.1","subject_id":"5cdeaeb3557fbd00018a2c59","study_id":"6197b3f67c2b5cd3b6d9596a","session_id":"619bfbdc15aee3e8a3a0d3ed","condition":"full-information","relevant_dimensions":["antennae","legs"],"bee_group":{"antennae":"A","wings":"X","pattern":"X","legs":"F"},"bonus":1.1200000000000006},{"rt":3086.100000143051,"stimulus":"bees-with-color/bee-B2DF.svg","response":1,"trial_type":"image-button-response","trial_index":11,"time_elapsed":151760,"internal_node_id":"0.0-4.0-0.2","subject_id":"5cdeaeb3557fbd00018a2c59","study_id":"6197b3f67c2b5cd3b6d9596a","session_id":"619bfbdc15aee3e8a3a0d3ed","condition":"full-information","relevant_dimensions":["antennae","legs"],"bee_group":{"antennae":"A","wings":"X","pattern":"X","legs":"F"},"action":"avoid","summary":"bad-avoid","bonus":1.1200000000000006},{"rt":9167.099999904633,"stimulus":"\n                    <p><b>Action: <em>avoid</em></b></p>\n                    <p>This is the bee that you just saw.</p>\n                    <img src=\"bees-with-color/bee-B2DF.svg\" width=\"200\">\n                    <p><span class=\"redText\">Bad choice,</span> the bee was friendly.<br>Your bonus pay is unchanged, and remains at $0.54.</p>\n            ","response":0,"trial_type":"html-button-response","trial_index":12,"time_elapsed":160929,"internal_node_id":"0.0-4.0-1.2","subject_id":"5cdeaeb3557fbd00018a2c59","study_id":"6197b3f67c2b5cd3b6d9596a","session_id":"619bfbdc15aee3e8a3a0d3ed","condition":"full-information","relevant_dimensions":["antennae","legs"],"bee_group":{"antennae":"A","wings":"X","pattern":"X","legs":"F"},"bonus":1.1200000000000006},{"rt":3196.699999809265,"stimulus":"bees-with-color/bee-A2SM.svg","response":1,"trial_type":"image-button-response","trial_index":13,"time_elapsed":164127,"internal_node_id":"0.0-4.0-0.3","subject_id":"5cdeaeb3557fbd00018a2c59","study_id":"6197b3f67c2b5cd3b6d9596a","session_id":"619bfbdc15aee3e8a3a0d3ed","condition":"full-information","relevant_dimensions":["antennae","legs"],"bee_group":{"antennae":"A","wings":"X","pattern":"X","legs":"F"},"action":"avoid","summary":"bad-avoid","bonus":1.1200000000000006},{"rt":8170.700000047684,"stimulus":"\n                    <p><b>Action: <em>avoid</em></b></p>\n                    <p>This is the bee that you just saw.</p>\n                    <img src=\"bees-with-color/bee-A2SM.svg\" width=\"200\">\n                    <p><span class=\"redText\">Bad choice,</span> the bee was friendly.<br>Your bonus pay is unchanged, and remains at $0.54.</p>\n            ","response":0,"trial_type":"html-button-response","trial_index":14,"time_elapsed":172298,"internal_node_id":"0.0-4.0-1.3","subject_id":"5cdeaeb3557fbd00018a2c59","study_id":"6197b3f67c2b5cd3b6d9596a","session_id":"619bfbdc15aee3e8a3a0d3ed","condition":"full-information","relevant_dimensions":["antennae","legs"],"bee_group":{"antennae":"A","wings":"X","pattern":"X","legs":"F"},"bonus":1.1200000000000006},{"rt":3836.7999999523163,"stimulus":"bees-with-color/bee-A2DF.svg","response":1,"trial_type":"image-button-response","trial_index":15,"time_elapsed":176136,"internal_node_id":"0.0-4.0-0.4","subject_id":"5cdeaeb3557fbd00018a2c59","study_id":"6197b3f67c2b5cd3b6d9596a","session_id":"619bfbdc15aee3e8a3a0d3ed","condition":"full-information","relevant_dimensions":["antennae","legs"],"bee_group":{"antennae":"A","wings":"X","pattern":"X","legs":"F"},"action":"avoid","summary":"good-avoid","bonus":1.1200000000000006},{"rt":4640.799999952316,"stimulus":"\n                    <p><b>Action: <em>avoid</em></b></p>\n                    <p>This is the bee that you just saw.</p>\n                    <img src=\"bees-with-color/bee-A2DF.svg\" width=\"200\">\n                    <p><span class=\"greenText\">Good choice!</span>  This bee would have stung you.<br>Your bonus pay is unchanged, and remains at $0.54.</p>\n            ","response":0,"trial_type":"html-button-response","trial_index":16,"time_elapsed":180778,"internal_node_id":"0.0-4.0-1.4","subject_id":"5cdeaeb3557fbd00018a2c59","study_id":"6197b3f67c2b5cd3b6d9596a","session_id":"619bfbdc15aee3e8a3a0d3ed","condition":"full-information","relevant_dimensions":["antennae","legs"],"bee_group":{"antennae":"A","wings":"X","pattern":"X","legs":"F"},"bonus":1.1200000000000006},{"rt":2494.5999999046326,"stimulus":"bees-with-color/bee-B1SF.svg","response":1,"trial_type":"image-button-response","trial_index":17,"time_elapsed":183274,"internal_node_id":"0.0-4.0-0.5","subject_id":"5cdeaeb3557fbd00018a2c59","study_id":"6197b3f67c2b5cd3b6d9596a","session_id":"619bfbdc15aee3e8a3a0d3ed","condition":"full-information","relevant_dimensions":["antennae","legs"],"bee_group":{"antennae":"A","wings":"X","pattern":"X","legs":"F"},"action":"avoid","summary":"bad-avoid","bonus":1.1200000000000006},{"rt":17304.799999952316,"stimulus":"\n                    <p><b>Action: <em>avoid</em></b></p>\n                    <p>This is the bee that you just saw.</p>\n                    <img src=\"bees-with-color/bee-B1SF.svg\" width=\"200\">\n                    <p><span class=\"redText\">Bad choice,</span> the bee was friendly.<br>Your bonus pay is unchanged, and remains at $0.54.</p>\n            ","response":0,"trial_type":"html-button-response","trial_index":18,"time_elapsed":200580,"internal_node_id":"0.0-4.0-1.5","subject_id":"5cdeaeb3557fbd00018a2c59","study_id":"6197b3f67c2b5cd3b6d9596a","session_id":"619bfbdc15aee3e8a3a0d3ed","condition":"full-information","relevant_dimensions":["antennae","legs"],"bee_group":{"antennae":"A","wings":"X","pattern":"X","legs":"F"},"bonus":1.1200000000000006},{"rt":13640,"stimulus":"bees-with-color/bee-B1DF.svg","response":1,"trial_type":"image-button-response","trial_index":19,"time_elapsed":214222,"internal_node_id":"0.0-4.0-0.6","subject_id":"5cdeaeb3557fbd00018a2c59","study_id":"6197b3f67c2b5cd3b6d9596a","session_id":"619bfbdc15aee3e8a3a0d3ed","condition":"full-information","relevant_dimensions":["antennae","legs"],"bee_group":{"antennae":"A","wings":"X","pattern":"X","legs":"F"},"action":"avoid","summary":"bad-avoid","bonus":1.1200000000000006},{"rt":7150.800000190735,"stimulus":"\n                    <p><b>Action: <em>avoid</em></b></p>\n                    <p>This is the bee that you just saw.</p>\n                    <img src=\"bees-with-color/bee-B1DF.svg\" width=\"200\">\n                    <p><span class=\"redText\">Bad choice,</span> the bee was friendly.<br>Your bonus pay is unchanged, and remains at $0.54.</p>\n            ","response":0,"trial_type":"html-button-response","trial_index":20,"time_elapsed":221374,"internal_node_id":"0.0-4.0-1.6","subject_id":"5cdeaeb3557fbd00018a2c59","study_id":"6197b3f67c2b5cd3b6d9596a","session_id":"619bfbdc15aee3e8a3a0d3ed","condition":"full-information","relevant_dimensions":["antennae","legs"],"bee_group":{"antennae":"A","wings":"X","pattern":"X","legs":"F"},"bonus":1.1200000000000006},{"rt":13120,"stimulus":"bees-with-color/bee-A1DM.svg","response":1,"trial_type":"image-button-response","trial_index":21,"time_elapsed":234496,"internal_node_id":"0.0-4.0-0.7","subject_id":"5cdeaeb3557fbd00018a2c59","study_id":"6197b3f67c2b5cd3b6d9596a","session_id":"619bfbdc15aee3e8a3a0d3ed","condition":"full-information","relevant_dimensions":["antennae","legs"],"bee_group":{"antennae":"A","wings":"X","pattern":"X","legs":"F"},"action":"avoid","summary":"bad-avoid","bonus":1.1200000000000006},{"rt":6136.900000095367,"stimulus":"\n                    <p><b>Action: <em>avoid</em></b></p>\n                    <p>This is the bee that you just saw.</p>\n                    <img src=\"bees-with-color/bee-A1DM.svg\" width=\"200\">\n                    <p><span class=\"redText\">Bad choice,</span> the bee was friendly.<br>Your bonus pay is unchanged, and remains at $0.54.</p>\n            ","response":0,"trial_type":"html-button-response","trial_index":22,"time_elapsed":240634,"internal_node_id":"0.0-4.0-1.7","subject_id":"5cdeaeb3557fbd00018a2c59","study_id":"6197b3f67c2b5cd3b6d9596a","session_id":"619bfbdc15aee3e8a3a0d3ed","condition":"full-information","relevant_dimensions":["antennae","legs"],"bee_group":{"antennae":"A","wings":"X","pattern":"X","legs":"F"},"bonus":1.1200000000000006},{"rt":2067.5,"stimulus":"bees-with-color/bee-A2DM.svg","response":1,"trial_type":"image-button-response","trial_index":23,"time_elapsed":242704,"internal_node_id":"0.0-4.0-0.8","subject_id":"5cdeaeb3557fbd00018a2c59","study_id":"6197b3f67c2b5cd3b6d9596a","session_id":"619bfbdc15aee3e8a3a0d3ed","condition":"full-information","relevant_dimensions":["antennae","legs"],"bee_group":{"antennae":"A","wings":"X","pattern":"X","legs":"F"},"action":"avoid","summary":"bad-avoid","bonus":1.1200000000000006},{"rt":5381.400000095367,"stimulus":"\n                    <p><b>Action: <em>avoid</em></b></p>\n                    <p>This is the bee that you just saw.</p>\n                    <img src=\"bees-with-color/bee-A2DM.svg\" width=\"200\">\n                    <p><span class=\"redText\">Bad choice,</span> the bee was friendly.<br>Your bonus pay is unchanged, and remains at $0.54.</p>\n            ","response":0,"trial_type":"html-button-response","trial_index":24,"time_elapsed":248086,"internal_node_id":"0.0-4.0-1.8","subject_id":"5cdeaeb3557fbd00018a2c59","study_id":"6197b3f67c2b5cd3b6d9596a","session_id":"619bfbdc15aee3e8a3a0d3ed","condition":"full-information","relevant_dimensions":["antennae","legs"],"bee_group":{"antennae":"A","wings":"X","pattern":"X","legs":"F"},"bonus":1.1200000000000006},{"rt":1782.5,"stimulus":"bees-with-color/bee-A2SF.svg","response":1,"trial_type":"image-button-response","trial_index":25,"time_elapsed":249870,"internal_node_id":"0.0-4.0-0.9","subject_id":"5cdeaeb3557fbd00018a2c59","study_id":"6197b3f67c2b5cd3b6d9596a","session_id":"619bfbdc15aee3e8a3a0d3ed","condition":"full-information","relevant_dimensions":["antennae","legs"],"bee_group":{"antennae":"A","wings":"X","pattern":"X","legs":"F"},"action":"avoid","summary":"good-avoid","bonus":1.1200000000000006},{"rt":3984.7000000476837,"stimulus":"\n                    <p><b>Action: <em>avoid</em></b></p>\n                    <p>This is the bee that you just saw.</p>\n                    <img src=\"bees-with-color/bee-A2SF.svg\" width=\"200\">\n                    <p><span class=\"greenText\">Good choice!</span>  This bee would have stung you.<br>Your bonus pay is unchanged, and remains at $0.54.</p>\n            ","response":0,"trial_type":"html-button-response","trial_index":26,"time_elapsed":253856,"internal_node_id":"0.0-4.0-1.9","subject_id":"5cdeaeb3557fbd00018a2c59","study_id":"6197b3f67c2b5cd3b6d9596a","session_id":"619bfbdc15aee3e8a3a0d3ed","condition":"full-information","relevant_dimensions":["antennae","legs"],"bee_group":{"antennae":"A","wings":"X","pattern":"X","legs":"F"},"bonus":1.1200000000000006},{"rt":2918.5999999046326,"stimulus":"bees-with-color/bee-B2SM.svg","response":1,"trial_type":"image-button-response","trial_index":27,"time_elapsed":256776,"internal_node_id":"0.0-4.0-0.10","subject_id":"5cdeaeb3557fbd00018a2c59","study_id":"6197b3f67c2b5cd3b6d9596a","session_id":"619bfbdc15aee3e8a3a0d3ed","condition":"full-information","relevant_dimensions":["antennae","legs"],"bee_group":{"antennae":"A","wings":"X","pattern":"X","legs":"F"},"action":"avoid","summary":"bad-avoid","bonus":1.1200000000000006},{"rt":2762.5,"stimulus":"\n                    <p><b>Action: <em>avoid</em></b></p>\n                    <p>This is the bee that you just saw.</p>\n                    <img src=\"bees-with-color/bee-B2SM.svg\" width=\"200\">\n                    <p><span class=\"redText\">Bad choice,</span> the bee was friendly.<br>Your bonus pay is unchanged, and remains at $0.54.</p>\n            ","response":0,"trial_type":"html-button-response","trial_index":28,"time_elapsed":259540,"internal_node_id":"0.0-4.0-1.10","subject_id":"5cdeaeb3557fbd00018a2c59","study_id":"6197b3f67c2b5cd3b6d9596a","session_id":"619bfbdc15aee3e8a3a0d3ed","condition":"full-information","relevant_dimensions":["antennae","legs"],"bee_group":{"antennae":"A","wings":"X","pattern":"X","legs":"F"},"bonus":1.1200000000000006},{"rt":2214.5999999046326,"stimulus":"bees-with-color/bee-A1DF.svg","response":1,"trial_type":"image-button-response","trial_index":29,"time_elapsed":261756,"internal_node_id":"0.0-4.0-0.11","subject_id":"5cdeaeb3557fbd00018a2c59","study_id":"6197b3f67c2b5cd3b6d9596a","session_id":"619bfbdc15aee3e8a3a0d3ed","condition":"full-information","relevant_dimensions":["antennae","legs"],"bee_group":{"antennae":"A","wings":"X","pattern":"X","legs":"F"},"action":"avoid","summary":"good-avoid","bonus":1.1200000000000006},{"rt":1675.2000000476837,"stimulus":"\n                    <p><b>Action: <em>avoid</em></b></p>\n                    <p>This is the bee that you just saw.</p>\n                    <img src=\"bees-with-color/bee-A1DF.svg\" width=\"200\">\n                    <p><span class=\"greenText\">Good choice!</span>  This bee would have stung you.<br>Your bonus pay is unchanged, and remains at $0.54.</p>\n            ","response":0,"trial_type":"html-button-response","trial_index":30,"time_elapsed":263433,"internal_node_id":"0.0-4.0-1.11","subject_id":"5cdeaeb3557fbd00018a2c59","study_id":"6197b3f67c2b5cd3b6d9596a","session_id":"619bfbdc15aee3e8a3a0d3ed","condition":"full-information","relevant_dimensions":["antennae","legs"],"bee_group":{"antennae":"A","wings":"X","pattern":"X","legs":"F"},"bonus":1.1200000000000006},{"rt":3758.0999999046326,"stimulus":"bees-with-color/bee-A1SM.svg","response":0,"trial_type":"image-button-response","trial_index":31,"time_elapsed":267192,"internal_node_id":"0.0-4.0-0.12","subject_id":"5cdeaeb3557fbd00018a2c59","study_id":"6197b3f67c2b5cd3b6d9596a","session_id":"619bfbdc15aee3e8a3a0d3ed","condition":"full-information","relevant_dimensions":["antennae","legs"],"bee_group":{"antennae":"A","wings":"X","pattern":"X","legs":"F"},"action":"harvest","summary":"good-harvest","bonus":1.1200000000000006},{"rt":3372.5999999046326,"stimulus":"\n                    <p><b>Action: <em>harvest</em></b></p>\n                    <p>This is the bee that you just saw.</p>\n                    <img src=\"bees-with-color/bee-A1SM.svg\" width=\"200\">\n                    <p><span class=\"greenText\"><b>Successful harvest!</b></span><br>Your pay has increased by $0.02. Your bonus pay is now $0.56.</p>\n            ","response":0,"trial_type":"html-button-response","trial_index":32,"time_elapsed":270566,"internal_node_id":"0.0-4.0-1.12","subject_id":"5cdeaeb3557fbd00018a2c59","study_id":"6197b3f67c2b5cd3b6d9596a","session_id":"619bfbdc15aee3e8a3a0d3ed","condition":"full-information","relevant_dimensions":["antennae","legs"],"bee_group":{"antennae":"A","wings":"X","pattern":"X","legs":"F"},"bonus":1.1200000000000006},{"rt":2880.5,"stimulus":"bees-with-color/bee-B1SM.svg","response":1,"trial_type":"image-button-response","trial_index":33,"time_elapsed":273448,"internal_node_id":"0.0-4.0-0.13","subject_id":"5cdeaeb3557fbd00018a2c59","study_id":"6197b3f67c2b5cd3b6d9596a","session_id":"619bfbdc15aee3e8a3a0d3ed","condition":"full-information","relevant_dimensions":["antennae","legs"],"bee_group":{"antennae":"A","wings":"X","pattern":"X","legs":"F"},"action":"avoid","summary":"bad-avoid","bonus":1.1200000000000006},{"rt":1712.5,"stimulus":"\n                    <p><b>Action: <em>avoid</em></b></p>\n                    <p>This is the bee that you just saw.</p>\n                    <img src=\"bees-with-color/bee-B1SM.svg\" width=\"200\">\n                    <p><span class=\"redText\">Bad choice,</span> the bee was friendly.<br>Your bonus pay is unchanged, and remains at $0.56.</p>\n            ","response":0,"trial_type":"html-button-response","trial_index":34,"time_elapsed":275162,"internal_node_id":"0.0-4.0-1.13","subject_id":"5cdeaeb3557fbd00018a2c59","study_id":"6197b3f67c2b5cd3b6d9596a","session_id":"619bfbdc15aee3e8a3a0d3ed","condition":"full-information","relevant_dimensions":["antennae","legs"],"bee_group":{"antennae":"A","wings":"X","pattern":"X","legs":"F"},"bonus":1.1200000000000006},{"rt":2068,"stimulus":"bees-with-color/bee-B2SF.svg","response":1,"trial_type":"image-button-response","trial_index":35,"time_elapsed":277232,"internal_node_id":"0.0-4.0-0.14","subject_id":"5cdeaeb3557fbd00018a2c59","study_id":"6197b3f67c2b5cd3b6d9596a","session_id":"619bfbdc15aee3e8a3a0d3ed","condition":"full-information","relevant_dimensions":["antennae","legs"],"bee_group":{"antennae":"A","wings":"X","pattern":"X","legs":"F"},"action":"avoid","summary":"bad-avoid","bonus":1.1200000000000006},{"rt":3542.2999999523163,"stimulus":"\n                    <p><b>Action: <em>avoid</em></b></p>\n                    <p>This is the bee that you just saw.</p>\n                    <img src=\"bees-with-color/bee-B2SF.svg\" width=\"200\">\n                    <p><span class=\"redText\">Bad choice,</span> the bee was friendly.<br>Your bonus pay is unchanged, and remains at $0.56.</p>\n            ","response":0,"trial_type":"html-button-response","trial_index":36,"time_elapsed":280776,"internal_node_id":"0.0-4.0-1.14","subject_id":"5cdeaeb3557fbd00018a2c59","study_id":"6197b3f67c2b5cd3b6d9596a","session_id":"619bfbdc15aee3e8a3a0d3ed","condition":"full-information","relevant_dimensions":["antennae","legs"],"bee_group":{"antennae":"A","wings":"X","pattern":"X","legs":"F"},"bonus":1.1200000000000006},{"rt":2152.5,"stimulus":"bees-with-color/bee-B1DM.svg","response":0,"trial_type":"image-button-response","trial_index":37,"time_elapsed":282930,"internal_node_id":"0.0-4.0-0.15","subject_id":"5cdeaeb3557fbd00018a2c59","study_id":"6197b3f67c2b5cd3b6d9596a","session_id":"619bfbdc15aee3e8a3a0d3ed","condition":"full-information","relevant_dimensions":["antennae","legs"],"bee_group":{"antennae":"A","wings":"X","pattern":"X","legs":"F"},"action":"harvest","summary":"good-harvest","bonus":1.1200000000000006},{"rt":1604.7000000476837,"stimulus":"\n                    <p><b>Action: <em>harvest</em></b></p>\n                    <p>This is the bee that you just saw.</p>\n                    <img src=\"bees-with-color/bee-B1DM.svg\" width=\"200\">\n                    <p><span class=\"greenText\"><b>Successful harvest!</b></span><br>Your pay has increased by $0.02. Your bonus pay is now $0.58.</p>\n            ","response":0,"trial_type":"html-button-response","trial_index":38,"time_elapsed":284536,"internal_node_id":"0.0-4.0-1.15","subject_id":"5cdeaeb3557fbd00018a2c59","study_id":"6197b3f67c2b5cd3b6d9596a","session_id":"619bfbdc15aee3e8a3a0d3ed","condition":"full-information","relevant_dimensions":["antennae","legs"],"bee_group":{"antennae":"A","wings":"X","pattern":"X","legs":"F"},"bonus":1.1200000000000006},{"rt":3072.7000000476837,"stimulus":"bees-with-color/bee-B2DM.svg","response":1,"trial_type":"image-button-response","trial_index":39,"time_elapsed":287610,"internal_node_id":"0.0-4.0-0.16","subject_id":"5cdeaeb3557fbd00018a2c59","study_id":"6197b3f67c2b5cd3b6d9596a","session_id":"619bfbdc15aee3e8a3a0d3ed","condition":"full-information","relevant_dimensions":["antennae","legs"],"bee_group":{"antennae":"A","wings":"X","pattern":"X","legs":"F"},"action":"avoid","summary":"bad-avoid","bonus":1.1200000000000006},{"rt":1419.0999999046326,"stimulus":"\n                    <p><b>Action: <em>avoid</em></b></p>\n                    <p>This is the bee that you just saw.</p>\n                    <img src=\"bees-with-color/bee-B2DM.svg\" width=\"200\">\n                    <p><span class=\"redText\">Bad choice,</span> the bee was friendly.<br>Your bonus pay is unchanged, and remains at $0.58.</p>\n            ","response":0,"trial_type":"html-button-response","trial_index":40,"time_elapsed":289030,"internal_node_id":"0.0-4.0-1.16","subject_id":"5cdeaeb3557fbd00018a2c59","study_id":"6197b3f67c2b5cd3b6d9596a","session_id":"619bfbdc15aee3e8a3a0d3ed","condition":"full-information","relevant_dimensions":["antennae","legs"],"bee_group":{"antennae":"A","wings":"X","pattern":"X","legs":"F"},"bonus":1.1200000000000006},{"rt":2886.100000143051,"stimulus":"bees-with-color/bee-A2DM.svg","response":1,"trial_type":"image-button-response","trial_index":41,"time_elapsed":291918,"internal_node_id":"0.0-4.0-0.17","subject_id":"5cdeaeb3557fbd00018a2c59","study_id":"6197b3f67c2b5cd3b6d9596a","session_id":"619bfbdc15aee3e8a3a0d3ed","condition":"full-information","relevant_dimensions":["antennae","legs"],"bee_group":{"antennae":"A","wings":"X","pattern":"X","legs":"F"},"action":"avoid","summary":"bad-avoid","bonus":1.1200000000000006},{"rt":1505.2000000476837,"stimulus":"\n                    <p><b>Action: <em>avoid</em></b></p>\n                    <p>This is the bee that you just saw.</p>\n                    <img src=\"bees-with-color/bee-A2DM.svg\" width=\"200\">\n                    <p><span class=\"redText\">Bad choice,</span> the bee was friendly.<br>Your bonus pay is unchanged, and remains at $0.58.</p>\n            ","response":0,"trial_type":"html-button-response","trial_index":42,"time_elapsed":293424,"internal_node_id":"0.0-4.0-1.17","subject_id":"5cdeaeb3557fbd00018a2c59","study_id":"6197b3f67c2b5cd3b6d9596a","session_id":"619bfbdc15aee3e8a3a0d3ed","condition":"full-information","relevant_dimensions":["antennae","legs"],"bee_group":{"antennae":"A","wings":"X","pattern":"X","legs":"F"},"bonus":1.1200000000000006},{"rt":3366.800000190735,"stimulus":"bees-with-color/bee-B1SF.svg","response":1,"trial_type":"image-button-response","trial_index":43,"time_elapsed":296792,"internal_node_id":"0.0-4.0-0.18","subject_id":"5cdeaeb3557fbd00018a2c59","study_id":"6197b3f67c2b5cd3b6d9596a","session_id":"619bfbdc15aee3e8a3a0d3ed","condition":"full-information","relevant_dimensions":["antennae","legs"],"bee_group":{"antennae":"A","wings":"X","pattern":"X","legs":"F"},"action":"avoid","summary":"bad-avoid","bonus":1.1200000000000006},{"rt":1843,"stimulus":"\n                    <p><b>Action: <em>avoid</em></b></p>\n                    <p>This is the bee that you just saw.</p>\n                    <img src=\"bees-with-color/bee-B1SF.svg\" width=\"200\">\n                    <p><span class=\"redText\">Bad choice,</span> the bee was friendly.<br>Your bonus pay is unchanged, and remains at $0.58.</p>\n            ","response":0,"trial_type":"html-button-response","trial_index":44,"time_elapsed":298636,"internal_node_id":"0.0-4.0-1.18","subject_id":"5cdeaeb3557fbd00018a2c59","study_id":"6197b3f67c2b5cd3b6d9596a","session_id":"619bfbdc15aee3e8a3a0d3ed","condition":"full-information","relevant_dimensions":["antennae","legs"],"bee_group":{"antennae":"A","wings":"X","pattern":"X","legs":"F"},"bonus":1.1200000000000006},{"rt":3048.2999999523163,"stimulus":"bees-with-color/bee-B1DM.svg","response":1,"trial_type":"image-button-response","trial_index":45,"time_elapsed":301686,"internal_node_id":"0.0-4.0-0.19","subject_id":"5cdeaeb3557fbd00018a2c59","study_id":"6197b3f67c2b5cd3b6d9596a","session_id":"619bfbdc15aee3e8a3a0d3ed","condition":"full-information","relevant_dimensions":["antennae","legs"],"bee_group":{"antennae":"A","wings":"X","pattern":"X","legs":"F"},"action":"avoid","summary":"bad-avoid","bonus":1.1200000000000006},{"rt":1613.0999999046326,"stimulus":"\n                    <p><b>Action: <em>avoid</em></b></p>\n                    <p>This is the bee that you just saw.</p>\n                    <img src=\"bees-with-color/bee-B1DM.svg\" width=\"200\">\n                    <p><span class=\"redText\">Bad choice,</span> the bee was friendly.<br>Your bonus pay is unchanged, and remains at $0.58.</p>\n            ","response":0,"trial_type":"html-button-response","trial_index":46,"time_elapsed":303300,"internal_node_id":"0.0-4.0-1.19","subject_id":"5cdeaeb3557fbd00018a2c59","study_id":"6197b3f67c2b5cd3b6d9596a","session_id":"619bfbdc15aee3e8a3a0d3ed","condition":"full-information","relevant_dimensions":["antennae","legs"],"bee_group":{"antennae":"A","wings":"X","pattern":"X","legs":"F"},"bonus":1.1200000000000006},{"rt":2702.600000143051,"stimulus":"bees-with-color/bee-A1SF.svg","response":1,"trial_type":"image-button-response","trial_index":47,"time_elapsed":306004,"internal_node_id":"0.0-4.0-0.20","subject_id":"5cdeaeb3557fbd00018a2c59","study_id":"6197b3f67c2b5cd3b6d9596a","session_id":"619bfbdc15aee3e8a3a0d3ed","condition":"full-information","relevant_dimensions":["antennae","legs"],"bee_group":{"antennae":"A","wings":"X","pattern":"X","legs":"F"},"action":"avoid","summary":"good-avoid","bonus":1.1200000000000006},{"rt":4554.900000095367,"stimulus":"\n                    <p><b>Action: <em>avoid</em></b></p>\n                    <p>This is the bee that you just saw.</p>\n                    <img src=\"bees-with-color/bee-A1SF.svg\" width=\"200\">\n                    <p><span class=\"greenText\">Good choice!</span>  This bee would have stung you.<br>Your bonus pay is unchanged, and remains at $0.58.</p>\n            ","response":0,"trial_type":"html-button-response","trial_index":48,"time_elapsed":310560,"internal_node_id":"0.0-4.0-1.20","subject_id":"5cdeaeb3557fbd00018a2c59","study_id":"6197b3f67c2b5cd3b6d9596a","session_id":"619bfbdc15aee3e8a3a0d3ed","condition":"full-information","relevant_dimensions":["antennae","legs"],"bee_group":{"antennae":"A","wings":"X","pattern":"X","legs":"F"},"bonus":1.1200000000000006},{"rt":2638.5,"stimulus":"bees-with-color/bee-B1DF.svg","response":1,"trial_type":"image-button-response","trial_index":49,"time_elapsed":313200,"internal_node_id":"0.0-4.0-0.21","subject_id":"5cdeaeb3557fbd00018a2c59","study_id":"6197b3f67c2b5cd3b6d9596a","session_id":"619bfbdc15aee3e8a3a0d3ed","condition":"full-information","relevant_dimensions":["antennae","legs"],"bee_group":{"antennae":"A","wings":"X","pattern":"X","legs":"F"},"action":"avoid","summary":"bad-avoid","bonus":1.1200000000000006},{"rt":3312.699999809265,"stimulus":"\n                    <p><b>Action: <em>avoid</em></b></p>\n                    <p>This is the bee that you just saw.</p>\n                    <img src=\"bees-with-color/bee-B1DF.svg\" width=\"200\">\n                    <p><span class=\"redText\">Bad choice,</span> the bee was friendly.<br>Your bonus pay is unchanged, and remains at $0.58.</p>\n            ","response":0,"trial_type":"html-button-response","trial_index":50,"time_elapsed":316514,"internal_node_id":"0.0-4.0-1.21","subject_id":"5cdeaeb3557fbd00018a2c59","study_id":"6197b3f67c2b5cd3b6d9596a","session_id":"619bfbdc15aee3e8a3a0d3ed","condition":"full-information","relevant_dimensions":["antennae","legs"],"bee_group":{"antennae":"A","wings":"X","pattern":"X","legs":"F"},"bonus":1.1200000000000006},{"rt":1680.9000000953674,"stimulus":"bees-with-color/bee-A2DF.svg","response":1,"trial_type":"image-button-response","trial_index":51,"time_elapsed":318196,"internal_node_id":"0.0-4.0-0.22","subject_id":"5cdeaeb3557fbd00018a2c59","study_id":"6197b3f67c2b5cd3b6d9596a","session_id":"619bfbdc15aee3e8a3a0d3ed","condition":"full-information","relevant_dimensions":["antennae","legs"],"bee_group":{"antennae":"A","wings":"X","pattern":"X","legs":"F"},"action":"avoid","summary":"good-avoid","bonus":1.1200000000000006},{"rt":1566.4000000953674,"stimulus":"\n                    <p><b>Action: <em>avoid</em></b></p>\n                    <p>This is the bee that you just saw.</p>\n                    <img src=\"bees-with-color/bee-A2DF.svg\" width=\"200\">\n                    <p><span class=\"greenText\">Good choice!</span>  This bee would have stung you.<br>Your bonus pay is unchanged, and remains at $0.58.</p>\n            ","response":0,"trial_type":"html-button-response","trial_index":52,"time_elapsed":319764,"internal_node_id":"0.0-4.0-1.22","subject_id":"5cdeaeb3557fbd00018a2c59","study_id":"6197b3f67c2b5cd3b6d9596a","session_id":"619bfbdc15aee3e8a3a0d3ed","condition":"full-information","relevant_dimensions":["antennae","legs"],"bee_group":{"antennae":"A","wings":"X","pattern":"X","legs":"F"},"bonus":1.1200000000000006},{"rt":2695.300000190735,"stimulus":"bees-with-color/bee-B2SM.svg","response":0,"trial_type":"image-button-response","trial_index":53,"time_elapsed":322460,"internal_node_id":"0.0-4.0-0.23","subject_id":"5cdeaeb3557fbd00018a2c59","study_id":"6197b3f67c2b5cd3b6d9596a","session_id":"619bfbdc15aee3e8a3a0d3ed","condition":"full-information","relevant_dimensions":["antennae","legs"],"bee_group":{"antennae":"A","wings":"X","pattern":"X","legs":"F"},"action":"harvest","summary":"good-harvest","bonus":1.1200000000000006},{"rt":1688.6000001430511,"stimulus":"\n                    <p><b>Action: <em>harvest</em></b></p>\n                    <p>This is the bee that you just saw.</p>\n                    <img src=\"bees-with-color/bee-B2SM.svg\" width=\"200\">\n                    <p><span class=\"greenText\"><b>Successful harvest!</b></span><br>Your pay has increased by $0.02. Your bonus pay is now $0.60.</p>\n            ","response":0,"trial_type":"html-button-response","trial_index":54,"time_elapsed":324150,"internal_node_id":"0.0-4.0-1.23","subject_id":"5cdeaeb3557fbd00018a2c59","study_id":"6197b3f67c2b5cd3b6d9596a","session_id":"619bfbdc15aee3e8a3a0d3ed","condition":"full-information","relevant_dimensions":["antennae","legs"],"bee_group":{"antennae":"A","wings":"X","pattern":"X","legs":"F"},"bonus":1.1200000000000006},{"rt":1512.5999999046326,"stimulus":"bees-with-color/bee-A2SM.svg","response":1,"trial_type":"image-button-response","trial_index":55,"time_elapsed":325664,"internal_node_id":"0.0-4.0-0.24","subject_id":"5cdeaeb3557fbd00018a2c59","study_id":"6197b3f67c2b5cd3b6d9596a","session_id":"619bfbdc15aee3e8a3a0d3ed","condition":"full-information","relevant_dimensions":["antennae","legs"],"bee_group":{"antennae":"A","wings":"X","pattern":"X","legs":"F"},"action":"avoid","summary":"bad-avoid","bonus":1.1200000000000006},{"rt":3790.5,"stimulus":"\n                    <p><b>Action: <em>avoid</em></b></p>\n                    <p>This is the bee that you just saw.</p>\n                    <img src=\"bees-with-color/bee-A2SM.svg\" width=\"200\">\n                    <p><span class=\"redText\">Bad choice,</span> the bee was friendly.<br>Your bonus pay is unchanged, and remains at $0.60.</p>\n            ","response":0,"trial_type":"html-button-response","trial_index":56,"time_elapsed":329456,"internal_node_id":"0.0-4.0-1.24","subject_id":"5cdeaeb3557fbd00018a2c59","study_id":"6197b3f67c2b5cd3b6d9596a","session_id":"619bfbdc15aee3e8a3a0d3ed","condition":"full-information","relevant_dimensions":["antennae","legs"],"bee_group":{"antennae":"A","wings":"X","pattern":"X","legs":"F"},"bonus":1.1200000000000006},{"rt":2029,"stimulus":"bees-with-color/bee-A1SM.svg","response":1,"trial_type":"image-button-response","trial_index":57,"time_elapsed":331486,"internal_node_id":"0.0-4.0-0.25","subject_id":"5cdeaeb3557fbd00018a2c59","study_id":"6197b3f67c2b5cd3b6d9596a","session_id":"619bfbdc15aee3e8a3a0d3ed","condition":"full-information","relevant_dimensions":["antennae","legs"],"bee_group":{"antennae":"A","wings":"X","pattern":"X","legs":"F"},"action":"avoid","summary":"bad-avoid","bonus":1.1200000000000006},{"rt":1520.6000001430511,"stimulus":"\n                    <p><b>Action: <em>avoid</em></b></p>\n                    <p>This is the bee that you just saw.</p>\n                    <img src=\"bees-with-color/bee-A1SM.svg\" width=\"200\">\n                    <p><span class=\"redText\">Bad choice,</span> the bee was friendly.<br>Your bonus pay is unchanged, and remains at $0.60.</p>\n            ","response":0,"trial_type":"html-button-response","trial_index":58,"time_elapsed":333008,"internal_node_id":"0.0-4.0-1.25","subject_id":"5cdeaeb3557fbd00018a2c59","study_id":"6197b3f67c2b5cd3b6d9596a","session_id":"619bfbdc15aee3e8a3a0d3ed","condition":"full-information","relevant_dimensions":["antennae","legs"],"bee_group":{"antennae":"A","wings":"X","pattern":"X","legs":"F"},"bonus":1.1200000000000006},{"rt":2816.600000143051,"stimulus":"bees-with-color/bee-B2SF.svg","response":1,"trial_type":"image-button-response","trial_index":59,"time_elapsed":335826,"internal_node_id":"0.0-4.0-0.26","subject_id":"5cdeaeb3557fbd00018a2c59","study_id":"6197b3f67c2b5cd3b6d9596a","session_id":"619bfbdc15aee3e8a3a0d3ed","condition":"full-information","relevant_dimensions":["antennae","legs"],"bee_group":{"antennae":"A","wings":"X","pattern":"X","legs":"F"},"action":"avoid","summary":"bad-avoid","bonus":1.1200000000000006},{"rt":1396.8000001907349,"stimulus":"\n                    <p><b>Action: <em>avoid</em></b></p>\n                    <p>This is the bee that you just saw.</p>\n                    <img src=\"bees-with-color/bee-B2SF.svg\" width=\"200\">\n                    <p><span class=\"redText\">Bad choice,</span> the bee was friendly.<br>Your bonus pay is unchanged, and remains at $0.60.</p>\n            ","response":0,"trial_type":"html-button-response","trial_index":60,"time_elapsed":337224,"internal_node_id":"0.0-4.0-1.26","subject_id":"5cdeaeb3557fbd00018a2c59","study_id":"6197b3f67c2b5cd3b6d9596a","session_id":"619bfbdc15aee3e8a3a0d3ed","condition":"full-information","relevant_dimensions":["antennae","legs"],"bee_group":{"antennae":"A","wings":"X","pattern":"X","legs":"F"},"bonus":1.1200000000000006},{"rt":2932.4000000953674,"stimulus":"bees-with-color/bee-B1SM.svg","response":1,"trial_type":"image-button-response","trial_index":61,"time_elapsed":340158,"internal_node_id":"0.0-4.0-0.27","subject_id":"5cdeaeb3557fbd00018a2c59","study_id":"6197b3f67c2b5cd3b6d9596a","session_id":"619bfbdc15aee3e8a3a0d3ed","condition":"full-information","relevant_dimensions":["antennae","legs"],"bee_group":{"antennae":"A","wings":"X","pattern":"X","legs":"F"},"action":"avoid","summary":"bad-avoid","bonus":1.1200000000000006},{"rt":2908.4000000953674,"stimulus":"\n                    <p><b>Action: <em>avoid</em></b></p>\n                    <p>This is the bee that you just saw.</p>\n                    <img src=\"bees-with-color/bee-B1SM.svg\" width=\"200\">\n                    <p><span class=\"redText\">Bad choice,</span> the bee was friendly.<br>Your bonus pay is unchanged, and remains at $0.60.</p>\n            ","response":0,"trial_type":"html-button-response","trial_index":62,"time_elapsed":343068,"internal_node_id":"0.0-4.0-1.27","subject_id":"5cdeaeb3557fbd00018a2c59","study_id":"6197b3f67c2b5cd3b6d9596a","session_id":"619bfbdc15aee3e8a3a0d3ed","condition":"full-information","relevant_dimensions":["antennae","legs"],"bee_group":{"antennae":"A","wings":"X","pattern":"X","legs":"F"},"bonus":1.1200000000000006},{"rt":3048.399999856949,"stimulus":"bees-with-color/bee-B2DF.svg","response":1,"trial_type":"image-button-response","trial_index":63,"time_elapsed":346118,"internal_node_id":"0.0-4.0-0.28","subject_id":"5cdeaeb3557fbd00018a2c59","study_id":"6197b3f67c2b5cd3b6d9596a","session_id":"619bfbdc15aee3e8a3a0d3ed","condition":"full-information","relevant_dimensions":["antennae","legs"],"bee_group":{"antennae":"A","wings":"X","pattern":"X","legs":"F"},"action":"avoid","summary":"bad-avoid","bonus":1.1200000000000006},{"rt":1559,"stimulus":"\n                    <p><b>Action: <em>avoid</em></b></p>\n                    <p>This is the bee that you just saw.</p>\n                    <img src=\"bees-with-color/bee-B2DF.svg\" width=\"200\">\n                    <p><span class=\"redText\">Bad choice,</span> the bee was friendly.<br>Your bonus pay is unchanged, and remains at $0.60.</p>\n            ","response":0,"trial_type":"html-button-response","trial_index":64,"time_elapsed":347678,"internal_node_id":"0.0-4.0-1.28","subject_id":"5cdeaeb3557fbd00018a2c59","study_id":"6197b3f67c2b5cd3b6d9596a","session_id":"619bfbdc15aee3e8a3a0d3ed","condition":"full-information","relevant_dimensions":["antennae","legs"],"bee_group":{"antennae":"A","wings":"X","pattern":"X","legs":"F"},"bonus":1.1200000000000006},{"rt":2128.2000000476837,"stimulus":"bees-with-color/bee-A1DF.svg","response":1,"trial_type":"image-button-response","trial_index":65,"time_elapsed":349808,"internal_node_id":"0.0-4.0-0.29","subject_id":"5cdeaeb3557fbd00018a2c59","study_id":"6197b3f67c2b5cd3b6d9596a","session_id":"619bfbdc15aee3e8a3a0d3ed","condition":"full-information","relevant_dimensions":["antennae","legs"],"bee_group":{"antennae":"A","wings":"X","pattern":"X","legs":"F"},"action":"avoid","summary":"good-avoid","bonus":1.1200000000000006},{"rt":3505,"stimulus":"\n                    <p><b>Action: <em>avoid</em></b></p>\n                    <p>This is the bee that you just saw.</p>\n                    <img src=\"bees-with-color/bee-A1DF.svg\" width=\"200\">\n                    <p><span class=\"greenText\">Good choice!</span>  This bee would have stung you.<br>Your bonus pay is unchanged, and remains at $0.60.</p>\n            ","response":0,"trial_type":"html-button-response","trial_index":66,"time_elapsed":353314,"internal_node_id":"0.0-4.0-1.29","subject_id":"5cdeaeb3557fbd00018a2c59","study_id":"6197b3f67c2b5cd3b6d9596a","session_id":"619bfbdc15aee3e8a3a0d3ed","condition":"full-information","relevant_dimensions":["antennae","legs"],"bee_group":{"antennae":"A","wings":"X","pattern":"X","legs":"F"},"bonus":1.1200000000000006},{"rt":2306.399999856949,"stimulus":"bees-with-color/bee-A1DM.svg","response":1,"trial_type":"image-button-response","trial_index":67,"time_elapsed":355622,"internal_node_id":"0.0-4.0-0.30","subject_id":"5cdeaeb3557fbd00018a2c59","study_id":"6197b3f67c2b5cd3b6d9596a","session_id":"619bfbdc15aee3e8a3a0d3ed","condition":"full-information","relevant_dimensions":["antennae","legs"],"bee_group":{"antennae":"A","wings":"X","pattern":"X","legs":"F"},"action":"avoid","summary":"bad-avoid","bonus":1.1200000000000006},{"rt":1590.7000000476837,"stimulus":"\n                    <p><b>Action: <em>avoid</em></b></p>\n                    <p>This is the bee that you just saw.</p>\n                    <img src=\"bees-with-color/bee-A1DM.svg\" width=\"200\">\n                    <p><span class=\"redText\">Bad choice,</span> the bee was friendly.<br>Your bonus pay is unchanged, and remains at $0.60.</p>\n            ","response":0,"trial_type":"html-button-response","trial_index":68,"time_elapsed":357214,"internal_node_id":"0.0-4.0-1.30","subject_id":"5cdeaeb3557fbd00018a2c59","study_id":"6197b3f67c2b5cd3b6d9596a","session_id":"619bfbdc15aee3e8a3a0d3ed","condition":"full-information","relevant_dimensions":["antennae","legs"],"bee_group":{"antennae":"A","wings":"X","pattern":"X","legs":"F"},"bonus":1.1200000000000006},{"rt":2236.800000190735,"stimulus":"bees-with-color/bee-A2SF.svg","response":1,"trial_type":"image-button-response","trial_index":69,"time_elapsed":359453,"internal_node_id":"0.0-4.0-0.31","subject_id":"5cdeaeb3557fbd00018a2c59","study_id":"6197b3f67c2b5cd3b6d9596a","session_id":"619bfbdc15aee3e8a3a0d3ed","condition":"full-information","relevant_dimensions":["antennae","legs"],"bee_group":{"antennae":"A","wings":"X","pattern":"X","legs":"F"},"action":"avoid","summary":"good-avoid","bonus":1.1200000000000006},{"rt":1404.5,"stimulus":"\n                    <p><b>Action: <em>avoid</em></b></p>\n                    <p>This is the bee that you just saw.</p>\n                    <img src=\"bees-with-color/bee-A2SF.svg\" width=\"200\">\n                    <p><span class=\"greenText\">Good choice!</span>  This bee would have stung you.<br>Your bonus pay is unchanged, and remains at $0.60.</p>\n            ","response":0,"trial_type":"html-button-response","trial_index":70,"time_elapsed":360859,"internal_node_id":"0.0-4.0-1.31","subject_id":"5cdeaeb3557fbd00018a2c59","study_id":"6197b3f67c2b5cd3b6d9596a","session_id":"619bfbdc15aee3e8a3a0d3ed","condition":"full-information","relevant_dimensions":["antennae","legs"],"bee_group":{"antennae":"A","wings":"X","pattern":"X","legs":"F"},"bonus":1.1200000000000006},{"rt":4214.900000095367,"stimulus":"bees-with-color/bee-A2DM.svg","response":1,"trial_type":"image-button-response","trial_index":71,"time_elapsed":365075,"internal_node_id":"0.0-4.0-0.32","subject_id":"5cdeaeb3557fbd00018a2c59","study_id":"6197b3f67c2b5cd3b6d9596a","session_id":"619bfbdc15aee3e8a3a0d3ed","condition":"full-information","relevant_dimensions":["antennae","legs"],"bee_group":{"antennae":"A","wings":"X","pattern":"X","legs":"F"},"action":"avoid","summary":"bad-avoid","bonus":1.1200000000000006},{"rt":1402.6000001430511,"stimulus":"\n                    <p><b>Action: <em>avoid</em></b></p>\n                    <p>This is the bee that you just saw.</p>\n                    <img src=\"bees-with-color/bee-A2DM.svg\" width=\"200\">\n                    <p><span class=\"redText\">Bad choice,</span> the bee was friendly.<br>Your bonus pay is unchanged, and remains at $0.60.</p>\n            ","response":0,"trial_type":"html-button-response","trial_index":72,"time_elapsed":366479,"internal_node_id":"0.0-4.0-1.32","subject_id":"5cdeaeb3557fbd00018a2c59","study_id":"6197b3f67c2b5cd3b6d9596a","session_id":"619bfbdc15aee3e8a3a0d3ed","condition":"full-information","relevant_dimensions":["antennae","legs"],"bee_group":{"antennae":"A","wings":"X","pattern":"X","legs":"F"},"bonus":1.1200000000000006},{"rt":2446.4000000953674,"stimulus":"bees-with-color/bee-B1DM.svg","response":0,"trial_type":"image-button-response","trial_index":73,"time_elapsed":368927,"internal_node_id":"0.0-4.0-0.33","subject_id":"5cdeaeb3557fbd00018a2c59","study_id":"6197b3f67c2b5cd3b6d9596a","session_id":"619bfbdc15aee3e8a3a0d3ed","condition":"full-information","relevant_dimensions":["antennae","legs"],"bee_group":{"antennae":"A","wings":"X","pattern":"X","legs":"F"},"action":"harvest","summary":"good-harvest","bonus":1.1200000000000006},{"rt":2354.600000143051,"stimulus":"\n                    <p><b>Action: <em>harvest</em></b></p>\n                    <p>This is the bee that you just saw.</p>\n                    <img src=\"bees-with-color/bee-B1DM.svg\" width=\"200\">\n                    <p><span class=\"greenText\"><b>Successful harvest!</b></span><br>Your pay has increased by $0.02. Your bonus pay is now $0.62.</p>\n            ","response":0,"trial_type":"html-button-response","trial_index":74,"time_elapsed":371283,"internal_node_id":"0.0-4.0-1.33","subject_id":"5cdeaeb3557fbd00018a2c59","study_id":"6197b3f67c2b5cd3b6d9596a","session_id":"619bfbdc15aee3e8a3a0d3ed","condition":"full-information","relevant_dimensions":["antennae","legs"],"bee_group":{"antennae":"A","wings":"X","pattern":"X","legs":"F"},"bonus":1.1200000000000006},{"rt":1750.5,"stimulus":"bees-with-color/bee-B1SF.svg","response":1,"trial_type":"image-button-response","trial_index":75,"time_elapsed":373035,"internal_node_id":"0.0-4.0-0.34","subject_id":"5cdeaeb3557fbd00018a2c59","study_id":"6197b3f67c2b5cd3b6d9596a","session_id":"619bfbdc15aee3e8a3a0d3ed","condition":"full-information","relevant_dimensions":["antennae","legs"],"bee_group":{"antennae":"A","wings":"X","pattern":"X","legs":"F"},"action":"avoid","summary":"bad-avoid","bonus":1.1200000000000006},{"rt":1264.5999999046326,"stimulus":"\n                    <p><b>Action: <em>avoid</em></b></p>\n                    <p>This is the bee that you just saw.</p>\n                    <img src=\"bees-with-color/bee-B1SF.svg\" width=\"200\">\n                    <p><span class=\"redText\">Bad choice,</span> the bee was friendly.<br>Your bonus pay is unchanged, and remains at $0.62.</p>\n            ","response":0,"trial_type":"html-button-response","trial_index":76,"time_elapsed":374300,"internal_node_id":"0.0-4.0-1.34","subject_id":"5cdeaeb3557fbd00018a2c59","study_id":"6197b3f67c2b5cd3b6d9596a","session_id":"619bfbdc15aee3e8a3a0d3ed","condition":"full-information","relevant_dimensions":["antennae","legs"],"bee_group":{"antennae":"A","wings":"X","pattern":"X","legs":"F"},"bonus":1.1200000000000006},{"rt":2107.5,"stimulus":"bees-with-color/bee-B2DF.svg","response":1,"trial_type":"image-button-response","trial_index":77,"time_elapsed":376409,"internal_node_id":"0.0-4.0-0.35","subject_id":"5cdeaeb3557fbd00018a2c59","study_id":"6197b3f67c2b5cd3b6d9596a","session_id":"619bfbdc15aee3e8a3a0d3ed","condition":"full-information","relevant_dimensions":["antennae","legs"],"bee_group":{"antennae":"A","wings":"X","pattern":"X","legs":"F"},"action":"avoid","summary":"bad-avoid","bonus":1.1200000000000006},{"rt":1204.7000000476837,"stimulus":"\n                    <p><b>Action: <em>avoid</em></b></p>\n                    <p>This is the bee that you just saw.</p>\n                    <img src=\"bees-with-color/bee-B2DF.svg\" width=\"200\">\n                    <p><span class=\"redText\">Bad choice,</span> the bee was friendly.<br>Your bonus pay is unchanged, and remains at $0.62.</p>\n            ","response":0,"trial_type":"html-button-response","trial_index":78,"time_elapsed":377614,"internal_node_id":"0.0-4.0-1.35","subject_id":"5cdeaeb3557fbd00018a2c59","study_id":"6197b3f67c2b5cd3b6d9596a","session_id":"619bfbdc15aee3e8a3a0d3ed","condition":"full-information","relevant_dimensions":["antennae","legs"],"bee_group":{"antennae":"A","wings":"X","pattern":"X","legs":"F"},"bonus":1.1200000000000006},{"rt":1904.7999999523163,"stimulus":"bees-with-color/bee-A1SM.svg","response":1,"trial_type":"image-button-response","trial_index":79,"time_elapsed":379520,"internal_node_id":"0.0-4.0-0.36","subject_id":"5cdeaeb3557fbd00018a2c59","study_id":"6197b3f67c2b5cd3b6d9596a","session_id":"619bfbdc15aee3e8a3a0d3ed","condition":"full-information","relevant_dimensions":["antennae","legs"],"bee_group":{"antennae":"A","wings":"X","pattern":"X","legs":"F"},"action":"avoid","summary":"bad-avoid","bonus":1.1200000000000006},{"rt":1212.5999999046326,"stimulus":"\n                    <p><b>Action: <em>avoid</em></b></p>\n                    <p>This is the bee that you just saw.</p>\n                    <img src=\"bees-with-color/bee-A1SM.svg\" width=\"200\">\n                    <p><span class=\"redText\">Bad choice,</span> the bee was friendly.<br>Your bonus pay is unchanged, and remains at $0.62.</p>\n            ","response":0,"trial_type":"html-button-response","trial_index":80,"time_elapsed":380734,"internal_node_id":"0.0-4.0-1.36","subject_id":"5cdeaeb3557fbd00018a2c59","study_id":"6197b3f67c2b5cd3b6d9596a","session_id":"619bfbdc15aee3e8a3a0d3ed","condition":"full-information","relevant_dimensions":["antennae","legs"],"bee_group":{"antennae":"A","wings":"X","pattern":"X","legs":"F"},"bonus":1.1200000000000006},{"rt":2075.2000000476837,"stimulus":"bees-with-color/bee-B2SM.svg","response":0,"trial_type":"image-button-response","trial_index":81,"time_elapsed":382810,"internal_node_id":"0.0-4.0-0.37","subject_id":"5cdeaeb3557fbd00018a2c59","study_id":"6197b3f67c2b5cd3b6d9596a","session_id":"619bfbdc15aee3e8a3a0d3ed","condition":"full-information","relevant_dimensions":["antennae","legs"],"bee_group":{"antennae":"A","wings":"X","pattern":"X","legs":"F"},"action":"harvest","summary":"good-harvest","bonus":1.1200000000000006},{"rt":1559.1000001430511,"stimulus":"\n                    <p><b>Action: <em>harvest</em></b></p>\n                    <p>This is the bee that you just saw.</p>\n                    <img src=\"bees-with-color/bee-B2SM.svg\" width=\"200\">\n                    <p><span class=\"greenText\"><b>Successful harvest!</b></span><br>Your pay has increased by $0.02. Your bonus pay is now $0.64.</p>\n            ","response":0,"trial_type":"html-button-response","trial_index":82,"time_elapsed":384371,"internal_node_id":"0.0-4.0-1.37","subject_id":"5cdeaeb3557fbd00018a2c59","study_id":"6197b3f67c2b5cd3b6d9596a","session_id":"619bfbdc15aee3e8a3a0d3ed","condition":"full-information","relevant_dimensions":["antennae","legs"],"bee_group":{"antennae":"A","wings":"X","pattern":"X","legs":"F"},"bonus":1.1200000000000006},{"rt":5180.800000190735,"stimulus":"bees-with-color/bee-A1SF.svg","response":1,"trial_type":"image-button-response","trial_index":83,"time_elapsed":389553,"internal_node_id":"0.0-4.0-0.38","subject_id":"5cdeaeb3557fbd00018a2c59","study_id":"6197b3f67c2b5cd3b6d9596a","session_id":"619bfbdc15aee3e8a3a0d3ed","condition":"full-information","relevant_dimensions":["antennae","legs"],"bee_group":{"antennae":"A","wings":"X","pattern":"X","legs":"F"},"action":"avoid","summary":"good-avoid","bonus":1.1200000000000006},{"rt":2801.5,"stimulus":"\n                    <p><b>Action: <em>avoid</em></b></p>\n                    <p>This is the bee that you just saw.</p>\n                    <img src=\"bees-with-color/bee-A1SF.svg\" width=\"200\">\n                    <p><span class=\"greenText\">Good choice!</span>  This bee would have stung you.<br>Your bonus pay is unchanged, and remains at $0.64.</p>\n            ","response":0,"trial_type":"html-button-response","trial_index":84,"time_elapsed":392355,"internal_node_id":"0.0-4.0-1.38","subject_id":"5cdeaeb3557fbd00018a2c59","study_id":"6197b3f67c2b5cd3b6d9596a","session_id":"619bfbdc15aee3e8a3a0d3ed","condition":"full-information","relevant_dimensions":["antennae","legs"],"bee_group":{"antennae":"A","wings":"X","pattern":"X","legs":"F"},"bonus":1.1200000000000006},{"rt":2793.899999856949,"stimulus":"bees-with-color/bee-A2DF.svg","response":1,"trial_type":"image-button-response","trial_index":85,"time_elapsed":395151,"internal_node_id":"0.0-4.0-0.39","subject_id":"5cdeaeb3557fbd00018a2c59","study_id":"6197b3f67c2b5cd3b6d9596a","session_id":"619bfbdc15aee3e8a3a0d3ed","condition":"full-information","relevant_dimensions":["antennae","legs"],"bee_group":{"antennae":"A","wings":"X","pattern":"X","legs":"F"},"action":"avoid","summary":"good-avoid","bonus":1.1200000000000006},{"rt":1504.7999999523163,"stimulus":"\n                    <p><b>Action: <em>avoid</em></b></p>\n                    <p>This is the bee that you just saw.</p>\n                    <img src=\"bees-with-color/bee-A2DF.svg\" width=\"200\">\n                    <p><span class=\"greenText\">Good choice!</span>  This bee would have stung you.<br>Your bonus pay is unchanged, and remains at $0.64.</p>\n            ","response":0,"trial_type":"html-button-response","trial_index":86,"time_elapsed":396657,"internal_node_id":"0.0-4.0-1.39","subject_id":"5cdeaeb3557fbd00018a2c59","study_id":"6197b3f67c2b5cd3b6d9596a","session_id":"619bfbdc15aee3e8a3a0d3ed","condition":"full-information","relevant_dimensions":["antennae","legs"],"bee_group":{"antennae":"A","wings":"X","pattern":"X","legs":"F"},"bonus":1.1200000000000006},{"rt":5142.5,"stimulus":"bees-with-color/bee-A1DM.svg","response":0,"trial_type":"image-button-response","trial_index":87,"time_elapsed":401800,"internal_node_id":"0.0-4.0-0.40","subject_id":"5cdeaeb3557fbd00018a2c59","study_id":"6197b3f67c2b5cd3b6d9596a","session_id":"619bfbdc15aee3e8a3a0d3ed","condition":"full-information","relevant_dimensions":["antennae","legs"],"bee_group":{"antennae":"A","wings":"X","pattern":"X","legs":"F"},"action":"harvest","summary":"good-harvest","bonus":1.1200000000000006},{"rt":1211.1000001430511,"stimulus":"\n                    <p><b>Action: <em>harvest</em></b></p>\n                    <p>This is the bee that you just saw.</p>\n                    <img src=\"bees-with-color/bee-A1DM.svg\" width=\"200\">\n                    <p><span class=\"greenText\"><b>Successful harvest!</b></span><br>Your pay has increased by $0.02. Your bonus pay is now $0.66.</p>\n            ","response":0,"trial_type":"html-button-response","trial_index":88,"time_elapsed":403013,"internal_node_id":"0.0-4.0-1.40","subject_id":"5cdeaeb3557fbd00018a2c59","study_id":"6197b3f67c2b5cd3b6d9596a","session_id":"619bfbdc15aee3e8a3a0d3ed","condition":"full-information","relevant_dimensions":["antennae","legs"],"bee_group":{"antennae":"A","wings":"X","pattern":"X","legs":"F"},"bonus":1.1200000000000006},{"rt":3102.5999999046326,"stimulus":"bees-with-color/bee-A2SM.svg","response":0,"trial_type":"image-button-response","trial_index":89,"time_elapsed":406117,"internal_node_id":"0.0-4.0-0.41","subject_id":"5cdeaeb3557fbd00018a2c59","study_id":"6197b3f67c2b5cd3b6d9596a","session_id":"619bfbdc15aee3e8a3a0d3ed","condition":"full-information","relevant_dimensions":["antennae","legs"],"bee_group":{"antennae":"A","wings":"X","pattern":"X","legs":"F"},"action":"harvest","summary":"good-harvest","bonus":1.1200000000000006},{"rt":1165,"stimulus":"\n                    <p><b>Action: <em>harvest</em></b></p>\n                    <p>This is the bee that you just saw.</p>\n                    <img src=\"bees-with-color/bee-A2SM.svg\" width=\"200\">\n                    <p><span class=\"greenText\"><b>Successful harvest!</b></span><br>Your pay has increased by $0.02. Your bonus pay is now $0.68.</p>\n            ","response":0,"trial_type":"html-button-response","trial_index":90,"time_elapsed":407283,"internal_node_id":"0.0-4.0-1.41","subject_id":"5cdeaeb3557fbd00018a2c59","study_id":"6197b3f67c2b5cd3b6d9596a","session_id":"619bfbdc15aee3e8a3a0d3ed","condition":"full-information","relevant_dimensions":["antennae","legs"],"bee_group":{"antennae":"A","wings":"X","pattern":"X","legs":"F"},"bonus":1.1200000000000006},{"rt":3218.2999999523163,"stimulus":"bees-with-color/bee-B2SF.svg","response":1,"trial_type":"image-button-response","trial_index":91,"time_elapsed":410502,"internal_node_id":"0.0-4.0-0.42","subject_id":"5cdeaeb3557fbd00018a2c59","study_id":"6197b3f67c2b5cd3b6d9596a","session_id":"619bfbdc15aee3e8a3a0d3ed","condition":"full-information","relevant_dimensions":["antennae","legs"],"bee_group":{"antennae":"A","wings":"X","pattern":"X","legs":"F"},"action":"avoid","summary":"bad-avoid","bonus":1.1200000000000006},{"rt":1666.7999999523163,"stimulus":"\n                    <p><b>Action: <em>avoid</em></b></p>\n                    <p>This is the bee that you just saw.</p>\n                    <img src=\"bees-with-color/bee-B2SF.svg\" width=\"200\">\n                    <p><span class=\"redText\">Bad choice,</span> the bee was friendly.<br>Your bonus pay is unchanged, and remains at $0.68.</p>\n            ","response":0,"trial_type":"html-button-response","trial_index":92,"time_elapsed":412171,"internal_node_id":"0.0-4.0-1.42","subject_id":"5cdeaeb3557fbd00018a2c59","study_id":"6197b3f67c2b5cd3b6d9596a","session_id":"619bfbdc15aee3e8a3a0d3ed","condition":"full-information","relevant_dimensions":["antennae","legs"],"bee_group":{"antennae":"A","wings":"X","pattern":"X","legs":"F"},"bonus":1.1200000000000006},{"rt":2500.2999999523163,"stimulus":"bees-with-color/bee-B2DM.svg","response":0,"trial_type":"image-button-response","trial_index":93,"time_elapsed":414672,"internal_node_id":"0.0-4.0-0.43","subject_id":"5cdeaeb3557fbd00018a2c59","study_id":"6197b3f67c2b5cd3b6d9596a","session_id":"619bfbdc15aee3e8a3a0d3ed","condition":"full-information","relevant_dimensions":["antennae","legs"],"bee_group":{"antennae":"A","wings":"X","pattern":"X","legs":"F"},"action":"harvest","summary":"good-harvest","bonus":1.1200000000000006},{"rt":1326.5,"stimulus":"\n                    <p><b>Action: <em>harvest</em></b></p>\n                    <p>This is the bee that you just saw.</p>\n                    <img src=\"bees-with-color/bee-B2DM.svg\" width=\"200\">\n                    <p><span class=\"greenText\"><b>Successful harvest!</b></span><br>Your pay has increased by $0.02. Your bonus pay is now $0.70.</p>\n            ","response":0,"trial_type":"html-button-response","trial_index":94,"time_elapsed":416000,"internal_node_id":"0.0-4.0-1.43","subject_id":"5cdeaeb3557fbd00018a2c59","study_id":"6197b3f67c2b5cd3b6d9596a","session_id":"619bfbdc15aee3e8a3a0d3ed","condition":"full-information","relevant_dimensions":["antennae","legs"],"bee_group":{"antennae":"A","wings":"X","pattern":"X","legs":"F"},"bonus":1.1200000000000006},{"rt":2617,"stimulus":"bees-with-color/bee-B1DF.svg","response":1,"trial_type":"image-button-response","trial_index":95,"time_elapsed":418619,"internal_node_id":"0.0-4.0-0.44","subject_id":"5cdeaeb3557fbd00018a2c59","study_id":"6197b3f67c2b5cd3b6d9596a","session_id":"619bfbdc15aee3e8a3a0d3ed","condition":"full-information","relevant_dimensions":["antennae","legs"],"bee_group":{"antennae":"A","wings":"X","pattern":"X","legs":"F"},"action":"avoid","summary":"bad-avoid","bonus":1.1200000000000006},{"rt":1296.7000000476837,"stimulus":"\n                    <p><b>Action: <em>avoid</em></b></p>\n                    <p>This is the bee that you just saw.</p>\n                    <img src=\"bees-with-color/bee-B1DF.svg\" width=\"200\">\n                    <p><span class=\"redText\">Bad choice,</span> the bee was friendly.<br>Your bonus pay is unchanged, and remains at $0.70.</p>\n            ","response":0,"trial_type":"html-button-response","trial_index":96,"time_elapsed":419916,"internal_node_id":"0.0-4.0-1.44","subject_id":"5cdeaeb3557fbd00018a2c59","study_id":"6197b3f67c2b5cd3b6d9596a","session_id":"619bfbdc15aee3e8a3a0d3ed","condition":"full-information","relevant_dimensions":["antennae","legs"],"bee_group":{"antennae":"A","wings":"X","pattern":"X","legs":"F"},"bonus":1.1200000000000006},{"rt":2546.800000190735,"stimulus":"bees-with-color/bee-A2SF.svg","response":1,"trial_type":"image-button-response","trial_index":97,"time_elapsed":422465,"internal_node_id":"0.0-4.0-0.45","subject_id":"5cdeaeb3557fbd00018a2c59","study_id":"6197b3f67c2b5cd3b6d9596a","session_id":"619bfbdc15aee3e8a3a0d3ed","condition":"full-information","relevant_dimensions":["antennae","legs"],"bee_group":{"antennae":"A","wings":"X","pattern":"X","legs":"F"},"action":"avoid","summary":"good-avoid","bonus":1.1200000000000006},{"rt":2052.7000000476837,"stimulus":"\n                    <p><b>Action: <em>avoid</em></b></p>\n                    <p>This is the bee that you just saw.</p>\n                    <img src=\"bees-with-color/bee-A2SF.svg\" width=\"200\">\n                    <p><span class=\"greenText\">Good choice!</span>  This bee would have stung you.<br>Your bonus pay is unchanged, and remains at $0.70.</p>\n            ","response":0,"trial_type":"html-button-response","trial_index":98,"time_elapsed":424518,"internal_node_id":"0.0-4.0-1.45","subject_id":"5cdeaeb3557fbd00018a2c59","study_id":"6197b3f67c2b5cd3b6d9596a","session_id":"619bfbdc15aee3e8a3a0d3ed","condition":"full-information","relevant_dimensions":["antennae","legs"],"bee_group":{"antennae":"A","wings":"X","pattern":"X","legs":"F"},"bonus":1.1200000000000006},{"rt":2098.399999856949,"stimulus":"bees-with-color/bee-B1SM.svg","response":0,"trial_type":"image-button-response","trial_index":99,"time_elapsed":426618,"internal_node_id":"0.0-4.0-0.46","subject_id":"5cdeaeb3557fbd00018a2c59","study_id":"6197b3f67c2b5cd3b6d9596a","session_id":"619bfbdc15aee3e8a3a0d3ed","condition":"full-information","relevant_dimensions":["antennae","legs"],"bee_group":{"antennae":"A","wings":"X","pattern":"X","legs":"F"},"action":"harvest","summary":"good-harvest","bonus":1.1200000000000006},{"rt":1357,"stimulus":"\n                    <p><b>Action: <em>harvest</em></b></p>\n                    <p>This is the bee that you just saw.</p>\n                    <img src=\"bees-with-color/bee-B1SM.svg\" width=\"200\">\n                    <p><span class=\"greenText\"><b>Successful harvest!</b></span><br>Your pay has increased by $0.02. Your bonus pay is now $0.72.</p>\n            ","response":0,"trial_type":"html-button-response","trial_index":100,"time_elapsed":427976,"internal_node_id":"0.0-4.0-1.46","subject_id":"5cdeaeb3557fbd00018a2c59","study_id":"6197b3f67c2b5cd3b6d9596a","session_id":"619bfbdc15aee3e8a3a0d3ed","condition":"full-information","relevant_dimensions":["antennae","legs"],"bee_group":{"antennae":"A","wings":"X","pattern":"X","legs":"F"},"bonus":1.1200000000000006},{"rt":3798.5999999046326,"stimulus":"bees-with-color/bee-A1DF.svg","response":1,"trial_type":"image-button-response","trial_index":101,"time_elapsed":431776,"internal_node_id":"0.0-4.0-0.47","subject_id":"5cdeaeb3557fbd00018a2c59","study_id":"6197b3f67c2b5cd3b6d9596a","session_id":"619bfbdc15aee3e8a3a0d3ed","condition":"full-information","relevant_dimensions":["antennae","legs"],"bee_group":{"antennae":"A","wings":"X","pattern":"X","legs":"F"},"action":"avoid","summary":"good-avoid","bonus":1.1200000000000006},{"rt":2344.300000190735,"stimulus":"\n                    <p><b>Action: <em>avoid</em></b></p>\n                    <p>This is the bee that you just saw.</p>\n                    <img src=\"bees-with-color/bee-A1DF.svg\" width=\"200\">\n                    <p><span class=\"greenText\">Good choice!</span>  This bee would have stung you.<br>Your bonus pay is unchanged, and remains at $0.72.</p>\n            ","response":0,"trial_type":"html-button-response","trial_index":102,"time_elapsed":434122,"internal_node_id":"0.0-4.0-1.47","subject_id":"5cdeaeb3557fbd00018a2c59","study_id":"6197b3f67c2b5cd3b6d9596a","session_id":"619bfbdc15aee3e8a3a0d3ed","condition":"full-information","relevant_dimensions":["antennae","legs"],"bee_group":{"antennae":"A","wings":"X","pattern":"X","legs":"F"},"bonus":1.1200000000000006},{"rt":1712.7999999523163,"stimulus":"bees-with-color/bee-B2SM.svg","response":0,"trial_type":"image-button-response","trial_index":103,"time_elapsed":435836,"internal_node_id":"0.0-4.0-0.48","subject_id":"5cdeaeb3557fbd00018a2c59","study_id":"6197b3f67c2b5cd3b6d9596a","session_id":"619bfbdc15aee3e8a3a0d3ed","condition":"full-information","relevant_dimensions":["antennae","legs"],"bee_group":{"antennae":"A","wings":"X","pattern":"X","legs":"F"},"action":"harvest","summary":"good-harvest","bonus":1.1200000000000006},{"rt":1429.2999999523163,"stimulus":"\n                    <p><b>Action: <em>harvest</em></b></p>\n                    <p>This is the bee that you just saw.</p>\n                    <img src=\"bees-with-color/bee-B2SM.svg\" width=\"200\">\n                    <p><span class=\"greenText\"><b>Successful harvest!</b></span><br>Your pay has increased by $0.02. Your bonus pay is now $0.74.</p>\n            ","response":0,"trial_type":"html-button-response","trial_index":104,"time_elapsed":437267,"internal_node_id":"0.0-4.0-1.48","subject_id":"5cdeaeb3557fbd00018a2c59","study_id":"6197b3f67c2b5cd3b6d9596a","session_id":"619bfbdc15aee3e8a3a0d3ed","condition":"full-information","relevant_dimensions":["antennae","legs"],"bee_group":{"antennae":"A","wings":"X","pattern":"X","legs":"F"},"bonus":1.1200000000000006},{"rt":1725.7999999523163,"stimulus":"bees-with-color/bee-B2DF.svg","response":1,"trial_type":"image-button-response","trial_index":105,"time_elapsed":438994,"internal_node_id":"0.0-4.0-0.49","subject_id":"5cdeaeb3557fbd00018a2c59","study_id":"6197b3f67c2b5cd3b6d9596a","session_id":"619bfbdc15aee3e8a3a0d3ed","condition":"full-information","relevant_dimensions":["antennae","legs"],"bee_group":{"antennae":"A","wings":"X","pattern":"X","legs":"F"},"action":"avoid","summary":"bad-avoid","bonus":1.1200000000000006},{"rt":1226.6999998092651,"stimulus":"\n                    <p><b>Action: <em>avoid</em></b></p>\n                    <p>This is the bee that you just saw.</p>\n                    <img src=\"bees-with-color/bee-B2DF.svg\" width=\"200\">\n                    <p><span class=\"redText\">Bad choice,</span> the bee was friendly.<br>Your bonus pay is unchanged, and remains at $0.74.</p>\n            ","response":0,"trial_type":"html-button-response","trial_index":106,"time_elapsed":440222,"internal_node_id":"0.0-4.0-1.49","subject_id":"5cdeaeb3557fbd00018a2c59","study_id":"6197b3f67c2b5cd3b6d9596a","session_id":"619bfbdc15aee3e8a3a0d3ed","condition":"full-information","relevant_dimensions":["antennae","legs"],"bee_group":{"antennae":"A","wings":"X","pattern":"X","legs":"F"},"bonus":1.1200000000000006},{"rt":1936.7000000476837,"stimulus":"bees-with-color/bee-A1SM.svg","response":1,"trial_type":"image-button-response","trial_index":107,"time_elapsed":442160,"internal_node_id":"0.0-4.0-0.50","subject_id":"5cdeaeb3557fbd00018a2c59","study_id":"6197b3f67c2b5cd3b6d9596a","session_id":"619bfbdc15aee3e8a3a0d3ed","condition":"full-information","relevant_dimensions":["antennae","legs"],"bee_group":{"antennae":"A","wings":"X","pattern":"X","legs":"F"},"action":"avoid","summary":"bad-avoid","bonus":1.1200000000000006},{"rt":1202.7999999523163,"stimulus":"\n                    <p><b>Action: <em>avoid</em></b></p>\n                    <p>This is the bee that you just saw.</p>\n                    <img src=\"bees-with-color/bee-A1SM.svg\" width=\"200\">\n                    <p><span class=\"redText\">Bad choice,</span> the bee was friendly.<br>Your bonus pay is unchanged, and remains at $0.74.</p>\n            ","response":0,"trial_type":"html-button-response","trial_index":108,"time_elapsed":443365,"internal_node_id":"0.0-4.0-1.50","subject_id":"5cdeaeb3557fbd00018a2c59","study_id":"6197b3f67c2b5cd3b6d9596a","session_id":"619bfbdc15aee3e8a3a0d3ed","condition":"full-information","relevant_dimensions":["antennae","legs"],"bee_group":{"antennae":"A","wings":"X","pattern":"X","legs":"F"},"bonus":1.1200000000000006},{"rt":1588.5,"stimulus":"bees-with-color/bee-A1SF.svg","response":1,"trial_type":"image-button-response","trial_index":109,"time_elapsed":444955,"internal_node_id":"0.0-4.0-0.51","subject_id":"5cdeaeb3557fbd00018a2c59","study_id":"6197b3f67c2b5cd3b6d9596a","session_id":"619bfbdc15aee3e8a3a0d3ed","condition":"full-information","relevant_dimensions":["antennae","legs"],"bee_group":{"antennae":"A","wings":"X","pattern":"X","legs":"F"},"action":"avoid","summary":"good-avoid","bonus":1.1200000000000006},{"rt":1210.2999999523163,"stimulus":"\n                    <p><b>Action: <em>avoid</em></b></p>\n                    <p>This is the bee that you just saw.</p>\n                    <img src=\"bees-with-color/bee-A1SF.svg\" width=\"200\">\n                    <p><span class=\"greenText\">Good choice!</span>  This bee would have stung you.<br>Your bonus pay is unchanged, and remains at $0.74.</p>\n            ","response":0,"trial_type":"html-button-response","trial_index":110,"time_elapsed":446166,"internal_node_id":"0.0-4.0-1.51","subject_id":"5cdeaeb3557fbd00018a2c59","study_id":"6197b3f67c2b5cd3b6d9596a","session_id":"619bfbdc15aee3e8a3a0d3ed","condition":"full-information","relevant_dimensions":["antennae","legs"],"bee_group":{"antennae":"A","wings":"X","pattern":"X","legs":"F"},"bonus":1.1200000000000006},{"rt":2115.2000000476837,"stimulus":"bees-with-color/bee-B2SF.svg","response":1,"trial_type":"image-button-response","trial_index":111,"time_elapsed":448283,"internal_node_id":"0.0-4.0-0.52","subject_id":"5cdeaeb3557fbd00018a2c59","study_id":"6197b3f67c2b5cd3b6d9596a","session_id":"619bfbdc15aee3e8a3a0d3ed","condition":"full-information","relevant_dimensions":["antennae","legs"],"bee_group":{"antennae":"A","wings":"X","pattern":"X","legs":"F"},"action":"avoid","summary":"bad-avoid","bonus":1.1200000000000006},{"rt":986.5,"stimulus":"\n                    <p><b>Action: <em>avoid</em></b></p>\n                    <p>This is the bee that you just saw.</p>\n                    <img src=\"bees-with-color/bee-B2SF.svg\" width=\"200\">\n                    <p><span class=\"redText\">Bad choice,</span> the bee was friendly.<br>Your bonus pay is unchanged, and remains at $0.74.</p>\n            ","response":0,"trial_type":"html-button-response","trial_index":112,"time_elapsed":449271,"internal_node_id":"0.0-4.0-1.52","subject_id":"5cdeaeb3557fbd00018a2c59","study_id":"6197b3f67c2b5cd3b6d9596a","session_id":"619bfbdc15aee3e8a3a0d3ed","condition":"full-information","relevant_dimensions":["antennae","legs"],"bee_group":{"antennae":"A","wings":"X","pattern":"X","legs":"F"},"bonus":1.1200000000000006},{"rt":2106.600000143051,"stimulus":"bees-with-color/bee-A2SM.svg","response":0,"trial_type":"image-button-response","trial_index":113,"time_elapsed":451378,"internal_node_id":"0.0-4.0-0.53","subject_id":"5cdeaeb3557fbd00018a2c59","study_id":"6197b3f67c2b5cd3b6d9596a","session_id":"619bfbdc15aee3e8a3a0d3ed","condition":"full-information","relevant_dimensions":["antennae","legs"],"bee_group":{"antennae":"A","wings":"X","pattern":"X","legs":"F"},"action":"harvest","summary":"good-harvest","bonus":1.1200000000000006},{"rt":1062.5999999046326,"stimulus":"\n                    <p><b>Action: <em>harvest</em></b></p>\n                    <p>This is the bee that you just saw.</p>\n                    <img src=\"bees-with-color/bee-A2SM.svg\" width=\"200\">\n                    <p><span class=\"greenText\"><b>Successful harvest!</b></span><br>Your pay has increased by $0.02. Your bonus pay is now $0.76.</p>\n            ","response":0,"trial_type":"html-button-response","trial_index":114,"time_elapsed":452442,"internal_node_id":"0.0-4.0-1.53","subject_id":"5cdeaeb3557fbd00018a2c59","study_id":"6197b3f67c2b5cd3b6d9596a","session_id":"619bfbdc15aee3e8a3a0d3ed","condition":"full-information","relevant_dimensions":["antennae","legs"],"bee_group":{"antennae":"A","wings":"X","pattern":"X","legs":"F"},"bonus":1.1200000000000006},{"rt":1799.5,"stimulus":"bees-with-color/bee-A2DF.svg","response":1,"trial_type":"image-button-response","trial_index":115,"time_elapsed":454242,"internal_node_id":"0.0-4.0-0.54","subject_id":"5cdeaeb3557fbd00018a2c59","study_id":"6197b3f67c2b5cd3b6d9596a","session_id":"619bfbdc15aee3e8a3a0d3ed","condition":"full-information","relevant_dimensions":["antennae","legs"],"bee_group":{"antennae":"A","wings":"X","pattern":"X","legs":"F"},"action":"avoid","summary":"good-avoid","bonus":1.1200000000000006},{"rt":1256.6999998092651,"stimulus":"\n                    <p><b>Action: <em>avoid</em></b></p>\n                    <p>This is the bee that you just saw.</p>\n                    <img src=\"bees-with-color/bee-A2DF.svg\" width=\"200\">\n                    <p><span class=\"greenText\">Good choice!</span>  This bee would have stung you.<br>Your bonus pay is unchanged, and remains at $0.76.</p>\n            ","response":0,"trial_type":"html-button-response","trial_index":116,"time_elapsed":455500,"internal_node_id":"0.0-4.0-1.54","subject_id":"5cdeaeb3557fbd00018a2c59","study_id":"6197b3f67c2b5cd3b6d9596a","session_id":"619bfbdc15aee3e8a3a0d3ed","condition":"full-information","relevant_dimensions":["antennae","legs"],"bee_group":{"antennae":"A","wings":"X","pattern":"X","legs":"F"},"bonus":1.1200000000000006},{"rt":1464.6999998092651,"stimulus":"bees-with-color/bee-B1DM.svg","response":0,"trial_type":"image-button-response","trial_index":117,"time_elapsed":456966,"internal_node_id":"0.0-4.0-0.55","subject_id":"5cdeaeb3557fbd00018a2c59","study_id":"6197b3f67c2b5cd3b6d9596a","session_id":"619bfbdc15aee3e8a3a0d3ed","condition":"full-information","relevant_dimensions":["antennae","legs"],"bee_group":{"antennae":"A","wings":"X","pattern":"X","legs":"F"},"action":"harvest","summary":"good-harvest","bonus":1.1200000000000006},{"rt":1189,"stimulus":"\n                    <p><b>Action: <em>harvest</em></b></p>\n                    <p>This is the bee that you just saw.</p>\n                    <img src=\"bees-with-color/bee-B1DM.svg\" width=\"200\">\n                    <p><span class=\"greenText\"><b>Successful harvest!</b></span><br>Your pay has increased by $0.02. Your bonus pay is now $0.78.</p>\n            ","response":0,"trial_type":"html-button-response","trial_index":118,"time_elapsed":458156,"internal_node_id":"0.0-4.0-1.55","subject_id":"5cdeaeb3557fbd00018a2c59","study_id":"6197b3f67c2b5cd3b6d9596a","session_id":"619bfbdc15aee3e8a3a0d3ed","condition":"full-information","relevant_dimensions":["antennae","legs"],"bee_group":{"antennae":"A","wings":"X","pattern":"X","legs":"F"},"bonus":1.1200000000000006},{"rt":1618.8999998569489,"stimulus":"bees-with-color/bee-B1SM.svg","response":0,"trial_type":"image-button-response","trial_index":119,"time_elapsed":459776,"internal_node_id":"0.0-4.0-0.56","subject_id":"5cdeaeb3557fbd00018a2c59","study_id":"6197b3f67c2b5cd3b6d9596a","session_id":"619bfbdc15aee3e8a3a0d3ed","condition":"full-information","relevant_dimensions":["antennae","legs"],"bee_group":{"antennae":"A","wings":"X","pattern":"X","legs":"F"},"action":"harvest","summary":"good-harvest","bonus":1.1200000000000006},{"rt":994.7999999523163,"stimulus":"\n                    <p><b>Action: <em>harvest</em></b></p>\n                    <p>This is the bee that you just saw.</p>\n                    <img src=\"bees-with-color/bee-B1SM.svg\" width=\"200\">\n                    <p><span class=\"greenText\"><b>Successful harvest!</b></span><br>Your pay has increased by $0.02. Your bonus pay is now $0.80.</p>\n            ","response":0,"trial_type":"html-button-response","trial_index":120,"time_elapsed":460772,"internal_node_id":"0.0-4.0-1.56","subject_id":"5cdeaeb3557fbd00018a2c59","study_id":"6197b3f67c2b5cd3b6d9596a","session_id":"619bfbdc15aee3e8a3a0d3ed","condition":"full-information","relevant_dimensions":["antennae","legs"],"bee_group":{"antennae":"A","wings":"X","pattern":"X","legs":"F"},"bonus":1.1200000000000006},{"rt":1651.2000000476837,"stimulus":"bees-with-color/bee-B1SF.svg","response":1,"trial_type":"image-button-response","trial_index":121,"time_elapsed":462424,"internal_node_id":"0.0-4.0-0.57","subject_id":"5cdeaeb3557fbd00018a2c59","study_id":"6197b3f67c2b5cd3b6d9596a","session_id":"619bfbdc15aee3e8a3a0d3ed","condition":"full-information","relevant_dimensions":["antennae","legs"],"bee_group":{"antennae":"A","wings":"X","pattern":"X","legs":"F"},"action":"avoid","summary":"bad-avoid","bonus":1.1200000000000006},{"rt":1124.9000000953674,"stimulus":"\n                    <p><b>Action: <em>avoid</em></b></p>\n                    <p>This is the bee that you just saw.</p>\n                    <img src=\"bees-with-color/bee-B1SF.svg\" width=\"200\">\n                    <p><span class=\"redText\">Bad choice,</span> the bee was friendly.<br>Your bonus pay is unchanged, and remains at $0.80.</p>\n            ","response":0,"trial_type":"html-button-response","trial_index":122,"time_elapsed":463550,"internal_node_id":"0.0-4.0-1.57","subject_id":"5cdeaeb3557fbd00018a2c59","study_id":"6197b3f67c2b5cd3b6d9596a","session_id":"619bfbdc15aee3e8a3a0d3ed","condition":"full-information","relevant_dimensions":["antennae","legs"],"bee_group":{"antennae":"A","wings":"X","pattern":"X","legs":"F"},"bonus":1.1200000000000006},{"rt":1936.7000000476837,"stimulus":"bees-with-color/bee-B1DF.svg","response":1,"trial_type":"image-button-response","trial_index":123,"time_elapsed":465488,"internal_node_id":"0.0-4.0-0.58","subject_id":"5cdeaeb3557fbd00018a2c59","study_id":"6197b3f67c2b5cd3b6d9596a","session_id":"619bfbdc15aee3e8a3a0d3ed","condition":"full-information","relevant_dimensions":["antennae","legs"],"bee_group":{"antennae":"A","wings":"X","pattern":"X","legs":"F"},"action":"avoid","summary":"bad-avoid","bonus":1.1200000000000006},{"rt":1836.9000000953674,"stimulus":"\n                    <p><b>Action: <em>avoid</em></b></p>\n                    <p>This is the bee that you just saw.</p>\n                    <img src=\"bees-with-color/bee-B1DF.svg\" width=\"200\">\n                    <p><span class=\"redText\">Bad choice,</span> the bee was friendly.<br>Your bonus pay is unchanged, and remains at $0.80.</p>\n            ","response":0,"trial_type":"html-button-response","trial_index":124,"time_elapsed":467326,"internal_node_id":"0.0-4.0-1.58","subject_id":"5cdeaeb3557fbd00018a2c59","study_id":"6197b3f67c2b5cd3b6d9596a","session_id":"619bfbdc15aee3e8a3a0d3ed","condition":"full-information","relevant_dimensions":["antennae","legs"],"bee_group":{"antennae":"A","wings":"X","pattern":"X","legs":"F"},"bonus":1.1200000000000006},{"rt":3140.7999999523163,"stimulus":"bees-with-color/bee-A2DM.svg","response":1,"trial_type":"image-button-response","trial_index":125,"time_elapsed":470468,"internal_node_id":"0.0-4.0-0.59","subject_id":"5cdeaeb3557fbd00018a2c59","study_id":"6197b3f67c2b5cd3b6d9596a","session_id":"619bfbdc15aee3e8a3a0d3ed","condition":"full-information","relevant_dimensions":["antennae","legs"],"bee_group":{"antennae":"A","wings":"X","pattern":"X","legs":"F"},"action":"avoid","summary":"bad-avoid","bonus":1.1200000000000006},{"rt":986.7999999523163,"stimulus":"\n                    <p><b>Action: <em>avoid</em></b></p>\n                    <p>This is the bee that you just saw.</p>\n                    <img src=\"bees-with-color/bee-A2DM.svg\" width=\"200\">\n                    <p><span class=\"redText\">Bad choice,</span> the bee was friendly.<br>Your bonus pay is unchanged, and remains at $0.80.</p>\n            ","response":0,"trial_type":"html-button-response","trial_index":126,"time_elapsed":471456,"internal_node_id":"0.0-4.0-1.59","subject_id":"5cdeaeb3557fbd00018a2c59","study_id":"6197b3f67c2b5cd3b6d9596a","session_id":"619bfbdc15aee3e8a3a0d3ed","condition":"full-information","relevant_dimensions":["antennae","legs"],"bee_group":{"antennae":"A","wings":"X","pattern":"X","legs":"F"},"bonus":1.1200000000000006},{"rt":1342.7000000476837,"stimulus":"bees-with-color/bee-A1DF.svg","response":1,"trial_type":"image-button-response","trial_index":127,"time_elapsed":472800,"internal_node_id":"0.0-4.0-0.60","subject_id":"5cdeaeb3557fbd00018a2c59","study_id":"6197b3f67c2b5cd3b6d9596a","session_id":"619bfbdc15aee3e8a3a0d3ed","condition":"full-information","relevant_dimensions":["antennae","legs"],"bee_group":{"antennae":"A","wings":"X","pattern":"X","legs":"F"},"action":"avoid","summary":"good-avoid","bonus":1.1200000000000006},{"rt":1370.5,"stimulus":"\n                    <p><b>Action: <em>avoid</em></b></p>\n                    <p>This is the bee that you just saw.</p>\n                    <img src=\"bees-with-color/bee-A1DF.svg\" width=\"200\">\n                    <p><span class=\"greenText\">Good choice!</span>  This bee would have stung you.<br>Your bonus pay is unchanged, and remains at $0.80.</p>\n            ","response":0,"trial_type":"html-button-response","trial_index":128,"time_elapsed":474172,"internal_node_id":"0.0-4.0-1.60","subject_id":"5cdeaeb3557fbd00018a2c59","study_id":"6197b3f67c2b5cd3b6d9596a","session_id":"619bfbdc15aee3e8a3a0d3ed","condition":"full-information","relevant_dimensions":["antennae","legs"],"bee_group":{"antennae":"A","wings":"X","pattern":"X","legs":"F"},"bonus":1.1200000000000006},{"rt":1359.1000001430511,"stimulus":"bees-with-color/bee-A2SF.svg","response":1,"trial_type":"image-button-response","trial_index":129,"time_elapsed":475532,"internal_node_id":"0.0-4.0-0.61","subject_id":"5cdeaeb3557fbd00018a2c59","study_id":"6197b3f67c2b5cd3b6d9596a","session_id":"619bfbdc15aee3e8a3a0d3ed","condition":"full-information","relevant_dimensions":["antennae","legs"],"bee_group":{"antennae":"A","wings":"X","pattern":"X","legs":"F"},"action":"avoid","summary":"good-avoid","bonus":1.1200000000000006},{"rt":2112.699999809265,"stimulus":"\n                    <p><b>Action: <em>avoid</em></b></p>\n                    <p>This is the bee that you just saw.</p>\n                    <img src=\"bees-with-color/bee-A2SF.svg\" width=\"200\">\n                    <p><span class=\"greenText\">Good choice!</span>  This bee would have stung you.<br>Your bonus pay is unchanged, and remains at $0.80.</p>\n            ","response":0,"trial_type":"html-button-response","trial_index":130,"time_elapsed":477646,"internal_node_id":"0.0-4.0-1.61","subject_id":"5cdeaeb3557fbd00018a2c59","study_id":"6197b3f67c2b5cd3b6d9596a","session_id":"619bfbdc15aee3e8a3a0d3ed","condition":"full-information","relevant_dimensions":["antennae","legs"],"bee_group":{"antennae":"A","wings":"X","pattern":"X","legs":"F"},"bonus":1.1200000000000006},{"rt":1280.5999999046326,"stimulus":"bees-with-color/bee-A1DM.svg","response":0,"trial_type":"image-button-response","trial_index":131,"time_elapsed":478928,"internal_node_id":"0.0-4.0-0.62","subject_id":"5cdeaeb3557fbd00018a2c59","study_id":"6197b3f67c2b5cd3b6d9596a","session_id":"619bfbdc15aee3e8a3a0d3ed","condition":"full-information","relevant_dimensions":["antennae","legs"],"bee_group":{"antennae":"A","wings":"X","pattern":"X","legs":"F"},"action":"harvest","summary":"good-harvest","bonus":1.1200000000000006},{"rt":1102.6999998092651,"stimulus":"\n                    <p><b>Action: <em>harvest</em></b></p>\n                    <p>This is the bee that you just saw.</p>\n                    <img src=\"bees-with-color/bee-A1DM.svg\" width=\"200\">\n                    <p><span class=\"greenText\"><b>Successful harvest!</b></span><br>Your pay has increased by $0.02. Your bonus pay is now $0.82.</p>\n            ","response":0,"trial_type":"html-button-response","trial_index":132,"time_elapsed":480032,"internal_node_id":"0.0-4.0-1.62","subject_id":"5cdeaeb3557fbd00018a2c59","study_id":"6197b3f67c2b5cd3b6d9596a","session_id":"619bfbdc15aee3e8a3a0d3ed","condition":"full-information","relevant_dimensions":["antennae","legs"],"bee_group":{"antennae":"A","wings":"X","pattern":"X","legs":"F"},"bonus":1.1200000000000006},{"rt":1358.4000000953674,"stimulus":"bees-with-color/bee-B2DM.svg","response":0,"trial_type":"image-button-response","trial_index":133,"time_elapsed":481392,"internal_node_id":"0.0-4.0-0.63","subject_id":"5cdeaeb3557fbd00018a2c59","study_id":"6197b3f67c2b5cd3b6d9596a","session_id":"619bfbdc15aee3e8a3a0d3ed","condition":"full-information","relevant_dimensions":["antennae","legs"],"bee_group":{"antennae":"A","wings":"X","pattern":"X","legs":"F"},"action":"harvest","summary":"good-harvest","bonus":1.1200000000000006},{"rt":1311,"stimulus":"\n                    <p><b>Action: <em>harvest</em></b></p>\n                    <p>This is the bee that you just saw.</p>\n                    <img src=\"bees-with-color/bee-B2DM.svg\" width=\"200\">\n                    <p><span class=\"greenText\"><b>Successful harvest!</b></span><br>Your pay has increased by $0.02. Your bonus pay is now $0.84.</p>\n            ","response":0,"trial_type":"html-button-response","trial_index":134,"time_elapsed":482704,"internal_node_id":"0.0-4.0-1.63","subject_id":"5cdeaeb3557fbd00018a2c59","study_id":"6197b3f67c2b5cd3b6d9596a","session_id":"619bfbdc15aee3e8a3a0d3ed","condition":"full-information","relevant_dimensions":["antennae","legs"],"bee_group":{"antennae":"A","wings":"X","pattern":"X","legs":"F"},"bonus":1.1200000000000006},{"rt":5416.599999904633,"stimulus":"You have completed the first part of this experiment.<br><br>You will now begin a shorter second part, in which you will receive no feedback.<br>The same rules regarding bonus pay apply.<br><br>Press any key to begin.","response":" ","trial_type":"html-keyboard-response","trial_index":135,"time_elapsed":488123,"internal_node_id":"0.0-5.0","subject_id":"5cdeaeb3557fbd00018a2c59","study_id":"6197b3f67c2b5cd3b6d9596a","session_id":"619bfbdc15aee3e8a3a0d3ed","condition":"full-information","relevant_dimensions":["antennae","legs"],"bee_group":{"antennae":"A","wings":"X","pattern":"X","legs":"F"},"bonus":1.1200000000000006},{"rt":6050.200000047684,"stimulus":"bees-with-color/bee-B1DM.svg","response":0,"trial_type":"image-button-response","trial_index":136,"time_elapsed":494190,"internal_node_id":"0.0-6.0-0.0","subject_id":"5cdeaeb3557fbd00018a2c59","study_id":"6197b3f67c2b5cd3b6d9596a","session_id":"619bfbdc15aee3e8a3a0d3ed","condition":"full-information","relevant_dimensions":["antennae","legs"],"bee_group":{"antennae":"A","wings":"X","pattern":"X","legs":"F"},"bonus":1.1200000000000006},{"rt":1641.9000000953674,"stimulus":"bees-with-color/bee-A1SF.svg","response":1,"trial_type":"image-button-response","trial_index":137,"time_elapsed":495834,"internal_node_id":"0.0-6.0-0.1","subject_id":"5cdeaeb3557fbd00018a2c59","study_id":"6197b3f67c2b5cd3b6d9596a","session_id":"619bfbdc15aee3e8a3a0d3ed","condition":"full-information","relevant_dimensions":["antennae","legs"],"bee_group":{"antennae":"A","wings":"X","pattern":"X","legs":"F"},"bonus":1.1200000000000006},{"rt":2176.2000000476837,"stimulus":"bees-with-color/bee-A2DM.svg","response":0,"trial_type":"image-button-response","trial_index":138,"time_elapsed":498012,"internal_node_id":"0.0-6.0-0.2","subject_id":"5cdeaeb3557fbd00018a2c59","study_id":"6197b3f67c2b5cd3b6d9596a","session_id":"619bfbdc15aee3e8a3a0d3ed","condition":"full-information","relevant_dimensions":["antennae","legs"],"bee_group":{"antennae":"A","wings":"X","pattern":"X","legs":"F"},"bonus":1.1200000000000006},{"rt":2144.2000000476837,"stimulus":"bees-with-color/bee-B2SM.svg","response":1,"trial_type":"image-button-response","trial_index":139,"time_elapsed":500158,"internal_node_id":"0.0-6.0-0.3","subject_id":"5cdeaeb3557fbd00018a2c59","study_id":"6197b3f67c2b5cd3b6d9596a","session_id":"619bfbdc15aee3e8a3a0d3ed","condition":"full-information","relevant_dimensions":["antennae","legs"],"bee_group":{"antennae":"A","wings":"X","pattern":"X","legs":"F"},"bonus":1.1200000000000006},{"rt":1293.9000000953674,"stimulus":"bees-with-color/bee-B1SF.svg","response":1,"trial_type":"image-button-response","trial_index":140,"time_elapsed":501454,"internal_node_id":"0.0-6.0-0.4","subject_id":"5cdeaeb3557fbd00018a2c59","study_id":"6197b3f67c2b5cd3b6d9596a","session_id":"619bfbdc15aee3e8a3a0d3ed","condition":"full-information","relevant_dimensions":["antennae","legs"],"bee_group":{"antennae":"A","wings":"X","pattern":"X","legs":"F"},"bonus":1.1200000000000006},{"rt":1982.1000001430511,"stimulus":"bees-with-color/bee-A1DM.svg","response":0,"trial_type":"image-button-response","trial_index":141,"time_elapsed":503438,"internal_node_id":"0.0-6.0-0.5","subject_id":"5cdeaeb3557fbd00018a2c59","study_id":"6197b3f67c2b5cd3b6d9596a","session_id":"619bfbdc15aee3e8a3a0d3ed","condition":"full-information","relevant_dimensions":["antennae","legs"],"bee_group":{"antennae":"A","wings":"X","pattern":"X","legs":"F"},"bonus":1.1200000000000006},{"rt":1620,"stimulus":"bees-with-color/bee-B2SF.svg","response":1,"trial_type":"image-button-response","trial_index":142,"time_elapsed":505060,"internal_node_id":"0.0-6.0-0.6","subject_id":"5cdeaeb3557fbd00018a2c59","study_id":"6197b3f67c2b5cd3b6d9596a","session_id":"619bfbdc15aee3e8a3a0d3ed","condition":"full-information","relevant_dimensions":["antennae","legs"],"bee_group":{"antennae":"A","wings":"X","pattern":"X","legs":"F"},"bonus":1.1200000000000006},{"rt":1534.3000001907349,"stimulus":"bees-with-color/bee-A2DF.svg","response":1,"trial_type":"image-button-response","trial_index":143,"time_elapsed":506596,"internal_node_id":"0.0-6.0-0.7","subject_id":"5cdeaeb3557fbd00018a2c59","study_id":"6197b3f67c2b5cd3b6d9596a","session_id":"619bfbdc15aee3e8a3a0d3ed","condition":"full-information","relevant_dimensions":["antennae","legs"],"bee_group":{"antennae":"A","wings":"X","pattern":"X","legs":"F"},"bonus":1.1200000000000006},{"rt":2854.399999856949,"stimulus":"bees-with-color/bee-B1SM.svg","response":0,"trial_type":"image-button-response","trial_index":144,"time_elapsed":509452,"internal_node_id":"0.0-6.0-0.8","subject_id":"5cdeaeb3557fbd00018a2c59","study_id":"6197b3f67c2b5cd3b6d9596a","session_id":"619bfbdc15aee3e8a3a0d3ed","condition":"full-information","relevant_dimensions":["antennae","legs"],"bee_group":{"antennae":"A","wings":"X","pattern":"X","legs":"F"},"bonus":1.1200000000000006},{"rt":1949.5999999046326,"stimulus":"bees-with-color/bee-B2DM.svg","response":0,"trial_type":"image-button-response","trial_index":145,"time_elapsed":511404,"internal_node_id":"0.0-6.0-0.9","subject_id":"5cdeaeb3557fbd00018a2c59","study_id":"6197b3f67c2b5cd3b6d9596a","session_id":"619bfbdc15aee3e8a3a0d3ed","condition":"full-information","relevant_dimensions":["antennae","legs"],"bee_group":{"antennae":"A","wings":"X","pattern":"X","legs":"F"},"bonus":1.1200000000000006},{"rt":1712.2999999523163,"stimulus":"bees-with-color/bee-A1SM.svg","response":1,"trial_type":"image-button-response","trial_index":146,"time_elapsed":513118,"internal_node_id":"0.0-6.0-0.10","subject_id":"5cdeaeb3557fbd00018a2c59","study_id":"6197b3f67c2b5cd3b6d9596a","session_id":"619bfbdc15aee3e8a3a0d3ed","condition":"full-information","relevant_dimensions":["antennae","legs"],"bee_group":{"antennae":"A","wings":"X","pattern":"X","legs":"F"},"bonus":1.1200000000000006},{"rt":2168.100000143051,"stimulus":"bees-with-color/bee-B1DF.svg","response":0,"trial_type":"image-button-response","trial_index":147,"time_elapsed":515288,"internal_node_id":"0.0-6.0-0.11","subject_id":"5cdeaeb3557fbd00018a2c59","study_id":"6197b3f67c2b5cd3b6d9596a","session_id":"619bfbdc15aee3e8a3a0d3ed","condition":"full-information","relevant_dimensions":["antennae","legs"],"bee_group":{"antennae":"A","wings":"X","pattern":"X","legs":"F"},"bonus":1.1200000000000006},{"rt":1525.8999998569489,"stimulus":"bees-with-color/bee-B2DF.svg","response":0,"trial_type":"image-button-response","trial_index":148,"time_elapsed":516816,"internal_node_id":"0.0-6.0-0.12","subject_id":"5cdeaeb3557fbd00018a2c59","study_id":"6197b3f67c2b5cd3b6d9596a","session_id":"619bfbdc15aee3e8a3a0d3ed","condition":"full-information","relevant_dimensions":["antennae","legs"],"bee_group":{"antennae":"A","wings":"X","pattern":"X","legs":"F"},"bonus":1.1200000000000006},{"rt":4082.100000143051,"stimulus":"bees-with-color/bee-A2SM.svg","response":0,"trial_type":"image-button-response","trial_index":149,"time_elapsed":520900,"internal_node_id":"0.0-6.0-0.13","subject_id":"5cdeaeb3557fbd00018a2c59","study_id":"6197b3f67c2b5cd3b6d9596a","session_id":"619bfbdc15aee3e8a3a0d3ed","condition":"full-information","relevant_dimensions":["antennae","legs"],"bee_group":{"antennae":"A","wings":"X","pattern":"X","legs":"F"},"bonus":1.1200000000000006},{"rt":1287.6000001430511,"stimulus":"bees-with-color/bee-A1DF.svg","response":1,"trial_type":"image-button-response","trial_index":150,"time_elapsed":522190,"internal_node_id":"0.0-6.0-0.14","subject_id":"5cdeaeb3557fbd00018a2c59","study_id":"6197b3f67c2b5cd3b6d9596a","session_id":"619bfbdc15aee3e8a3a0d3ed","condition":"full-information","relevant_dimensions":["antennae","legs"],"bee_group":{"antennae":"A","wings":"X","pattern":"X","legs":"F"},"bonus":1.1200000000000006},{"rt":1239.7999999523163,"stimulus":"bees-with-color/bee-A2SF.svg","response":1,"trial_type":"image-button-response","trial_index":151,"time_elapsed":523432,"internal_node_id":"0.0-6.0-0.15","subject_id":"5cdeaeb3557fbd00018a2c59","study_id":"6197b3f67c2b5cd3b6d9596a","session_id":"619bfbdc15aee3e8a3a0d3ed","condition":"full-information","relevant_dimensions":["antennae","legs"],"bee_group":{"antennae":"A","wings":"X","pattern":"X","legs":"F"},"bonus":1.1200000000000006},{"rt":1720.3999998569489,"stimulus":"bees-with-color/bee-B2SM.svg","response":0,"trial_type":"image-button-response","trial_index":152,"time_elapsed":525154,"internal_node_id":"0.0-6.0-0.16","subject_id":"5cdeaeb3557fbd00018a2c59","study_id":"6197b3f67c2b5cd3b6d9596a","session_id":"619bfbdc15aee3e8a3a0d3ed","condition":"full-information","relevant_dimensions":["antennae","legs"],"bee_group":{"antennae":"A","wings":"X","pattern":"X","legs":"F"},"bonus":1.1200000000000006},{"rt":1542.2999999523163,"stimulus":"bees-with-color/bee-A1DF.svg","response":1,"trial_type":"image-button-response","trial_index":153,"time_elapsed":526698,"internal_node_id":"0.0-6.0-0.17","subject_id":"5cdeaeb3557fbd00018a2c59","study_id":"6197b3f67c2b5cd3b6d9596a","session_id":"619bfbdc15aee3e8a3a0d3ed","condition":"full-information","relevant_dimensions":["antennae","legs"],"bee_group":{"antennae":"A","wings":"X","pattern":"X","legs":"F"},"bonus":1.1200000000000006},{"rt":2751.800000190735,"stimulus":"bees-with-color/bee-B1SM.svg","response":0,"trial_type":"image-button-response","trial_index":154,"time_elapsed":529452,"internal_node_id":"0.0-6.0-0.18","subject_id":"5cdeaeb3557fbd00018a2c59","study_id":"6197b3f67c2b5cd3b6d9596a","session_id":"619bfbdc15aee3e8a3a0d3ed","condition":"full-information","relevant_dimensions":["antennae","legs"],"bee_group":{"antennae":"A","wings":"X","pattern":"X","legs":"F"},"bonus":1.1200000000000006},{"rt":1450,"stimulus":"bees-with-color/bee-A2SF.svg","response":1,"trial_type":"image-button-response","trial_index":155,"time_elapsed":530904,"internal_node_id":"0.0-6.0-0.19","subject_id":"5cdeaeb3557fbd00018a2c59","study_id":"6197b3f67c2b5cd3b6d9596a","session_id":"619bfbdc15aee3e8a3a0d3ed","condition":"full-information","relevant_dimensions":["antennae","legs"],"bee_group":{"antennae":"A","wings":"X","pattern":"X","legs":"F"},"bonus":1.1200000000000006},{"rt":1705.3999998569489,"stimulus":"bees-with-color/bee-A2SM.svg","response":0,"trial_type":"image-button-response","trial_index":156,"time_elapsed":532611,"internal_node_id":"0.0-6.0-0.20","subject_id":"5cdeaeb3557fbd00018a2c59","study_id":"6197b3f67c2b5cd3b6d9596a","session_id":"619bfbdc15aee3e8a3a0d3ed","condition":"full-information","relevant_dimensions":["antennae","legs"],"bee_group":{"antennae":"A","wings":"X","pattern":"X","legs":"F"},"bonus":1.1200000000000006},{"rt":1943.5,"stimulus":"bees-with-color/bee-A2DM.svg","response":0,"trial_type":"image-button-response","trial_index":157,"time_elapsed":534556,"internal_node_id":"0.0-6.0-0.21","subject_id":"5cdeaeb3557fbd00018a2c59","study_id":"6197b3f67c2b5cd3b6d9596a","session_id":"619bfbdc15aee3e8a3a0d3ed","condition":"full-information","relevant_dimensions":["antennae","legs"],"bee_group":{"antennae":"A","wings":"X","pattern":"X","legs":"F"},"bonus":1.1200000000000006},{"rt":1542.0999999046326,"stimulus":"bees-with-color/bee-B1DM.svg","response":1,"trial_type":"image-button-response","trial_index":158,"time_elapsed":536100,"internal_node_id":"0.0-6.0-0.22","subject_id":"5cdeaeb3557fbd00