[{"success":true,"trial_type":"fullscreen","trial_index":0,"time_elapsed":3963,"internal_node_id":"0.0-0.0","subject_id":"615de74c022cf6314cf54277","study_id":"60edd13110225f80f9f3709b","session_id":"6196c4a7e43e093fb397eaca","condition":"full-information","relevant_dimensions":["wings","legs"],"bee_group":{"antennae":"X","wings":"2","pattern":"X","legs":"F"},"bonus":1.580000000000001},{"success":true,"timeout":false,"failed_images":[],"failed_audio":[],"failed_video":[],"trial_type":"preload","trial_index":1,"time_elapsed":5384,"internal_node_id":"0.0-1.0","subject_id":"615de74c022cf6314cf54277","study_id":"60edd13110225f80f9f3709b","session_id":"6196c4a7e43e093fb397eaca","condition":"full-information","relevant_dimensions":["wings","legs"],"bee_group":{"antennae":"X","wings":"2","pattern":"X","legs":"F"},"bonus":1.580000000000001},{"rt":4465.5,"stimulus":"Welcome! Press any key to begin.","response":"enter","trial_type":"html-keyboard-response","trial_index":2,"time_elapsed":9850,"internal_node_id":"0.0-2.0","subject_id":"615de74c022cf6314cf54277","study_id":"60edd13110225f80f9f3709b","session_id":"6196c4a7e43e093fb397eaca","condition":"full-information","relevant_dimensions":["wings","legs"],"bee_group":{"antennae":"X","wings":"2","pattern":"X","legs":"F"},"bonus":1.580000000000001},{"view_history":[{"page_index":0,"viewing_time":11565.59999999404},{"page_index":1,"viewing_time":11975.700000017881},{"page_index":2,"viewing_time":7854.699999988079},{"page_index":3,"viewing_time":17953.5},{"page_index":4,"viewing_time":3870.800000011921},{"page_index":5,"viewing_time":6855.5999999940395},{"page_index":6,"viewing_time":6265.5},{"page_index":7,"viewing_time":5822.4000000059605},{"page_index":8,"viewing_time":4580.299999982119},{"page_index":9,"viewing_time":6265},{"page_index":10,"viewing_time":2703.800000011921},{"page_index":11,"viewing_time":7801.5999999940395},{"page_index":12,"viewing_time":8354.800000011921},{"page_index":13,"viewing_time":2039.199999988079},{"page_index":14,"viewing_time":2000.5999999940395}],"rt":105909.40000000596,"trial_type":"instructions","trial_index":3,"time_elapsed":115760,"internal_node_id":"0.0-3.0-0.0","subject_id":"615de74c022cf6314cf54277","study_id":"60edd13110225f80f9f3709b","session_id":"6196c4a7e43e093fb397eaca","condition":"full-information","relevant_dimensions":["wings","legs"],"bee_group":{"antennae":"X","wings":"2","pattern":"X","legs":"F"},"bonus":1.580000000000001},{"rt":27897.69999998808,"response":{"Q0":["Stripes or spots on body","Single or double wings","Antennae or no antennae"]},"question_order":[0],"trial_type":"survey-multi-select","trial_index":4,"time_elapsed":143661,"internal_node_id":"0.0-3.0-1.0","subject_id":"615de74c022cf6314cf54277","study_id":"60edd13110225f80f9f3709b","session_id":"6196c4a7e43e093fb397eaca","condition":"full-information","relevant_dimensions":["wings","legs"],"bee_group":{"antennae":"X","wings":"2","pattern":"X","legs":"F"},"correct":false,"bonus":1.580000000000001},{"rt":17887.59999999404,"response":{"Q1":"No.","Q2":"Based on the four features of the bee.","Q3":"You learn if it was friendly or dangerous, but do not alter your bonus."},"question_order":[0,1,2],"trial_type":"survey-multi-choice","trial_index":5,"time_elapsed":161550,"internal_node_id":"0.0-3.0-2.0","subject_id":"615de74c022cf6314cf54277","study_id":"60edd13110225f80f9f3709b","session_id":"6196c4a7e43e093fb397eaca","condition":"full-information","relevant_dimensions":["wings","legs"],"bee_group":{"antennae":"X","wings":"2","pattern":"X","legs":"F"},"correct":true,"bonus":1.580000000000001},{"rt":3765,"stimulus":"<p>You did not answer all comprehension questions correctly.<br>Press <b>continue</b> to review the instructions again.</p>","response":0,"trial_type":"html-button-response","trial_index":6,"time_elapsed":165317,"internal_node_id":"0.0-3.0-3.0","subject_id":"615de74c022cf6314cf54277","study_id":"60edd13110225f80f9f3709b","session_id":"6196c4a7e43e093fb397eaca","condition":"full-information","relevant_dimensions":["wings","legs"],"bee_group":{"antennae":"X","wings":"2","pattern":"X","legs":"F"},"bonus":1.580000000000001},{"view_history":[{"page_index":0,"viewing_time":1918},{"page_index":1,"viewing_time":1559.199999988079},{"page_index":2,"viewing_time":1513.800000011921},{"page_index":3,"viewing_time":1262.5999999940395},{"page_index":4,"viewing_time":1307.9000000059605},{"page_index":5,"viewing_time":2126.5},{"page_index":6,"viewing_time":1507.199999988079},{"page_index":7,"viewing_time":2208.0999999940395},{"page_index":8,"viewing_time":2185.2000000178814},{"page_index":9,"viewing_time":1204.0999999940395},{"page_index":10,"viewing_time":1113.9000000059605},{"page_index":11,"viewing_time":1610.199999988079},{"page_index":12,"viewing_time":2814.4000000059605},{"page_index":13,"viewing_time":1476.0999999940395},{"page_index":14,"viewing_time":1152.300000011921}],"rt":24959.79999998212,"trial_type":"instructions","trial_index":7,"time_elapsed":190278,"internal_node_id":"0.0-3.0-4.0-0.0","subject_id":"615de74c022cf6314cf54277","study_id":"60edd13110225f80f9f3709b","session_id":"6196c4a7e43e093fb397eaca","condition":"full-information","relevant_dimensions":["wings","legs"],"bee_group":{"antennae":"X","wings":"2","pattern":"X","legs":"F"},"bonus":1.580000000000001},{"rt":8742,"response":{"Q0":["Two or six legs","Stripes or spots on body","Single or double wings","Antennae or no antennae"]},"question_order":[0],"trial_type":"survey-multi-select","trial_index":8,"time_elapsed":199023,"internal_node_id":"0.0-3.0-4.0-1.0","subject_id":"615de74c022cf6314cf54277","study_id":"60edd13110225f80f9f3709b","session_id":"6196c4a7e43e093fb397eaca","condition":"full-information","relevant_dimensions":["wings","legs"],"bee_group":{"antennae":"X","wings":"2","pattern":"X","legs":"F"},"correct":true,"bonus":1.580000000000001},{"rt":12479.699999988079,"response":{"Q1":"No.","Q2":"Based on the four features of the bee.","Q3":"You learn if it was friendly or dangerous, but do not alter your bonus."},"question_order":[0,1,2],"trial_type":"survey-multi-choice","trial_index":9,"time_elapsed":211504,"internal_node_id":"0.0-3.0-4.0-2.0","subject_id":"615de74c022cf6314cf54277","study_id":"60edd13110225f80f9f3709b","session_id":"6196c4a7e43e093fb397eaca","condition":"full-information","relevant_dimensions":["wings","legs"],"bee_group":{"antennae":"X","wings":"2","pattern":"X","legs":"F"},"correct":true,"bonus":1.580000000000001},{"rt":2294.5999999940395,"stimulus":"<p>Congrats, you got everything right<br>When you're ready, click the button below to continue to the experiment.</p>","response":0,"trial_type":"html-button-response","trial_index":10,"time_elapsed":213799,"internal_node_id":"0.0-3.0-4.0-3.0","subject_id":"615de74c022cf6314cf54277","study_id":"60edd13110225f80f9f3709b","session_id":"6196c4a7e43e093fb397eaca","condition":"full-information","relevant_dimensions":["wings","legs"],"bee_group":{"antennae":"X","wings":"2","pattern":"X","legs":"F"},"bonus":1.580000000000001},{"rt":10740.699999988079,"stimulus":"bees-with-color/bee-A1SF.svg","response":0,"trial_type":"image-button-response","trial_index":11,"time_elapsed":224542,"internal_node_id":"0.0-4.0-0.0","subject_id":"615de74c022cf6314cf54277","study_id":"60edd13110225f80f9f3709b","session_id":"6196c4a7e43e093fb397eaca","condition":"full-information","relevant_dimensions":["wings","legs"],"bee_group":{"antennae":"X","wings":"2","pattern":"X","legs":"F"},"action":"harvest","summary":"good-harvest","bonus":1.580000000000001},{"rt":12501.899999976158,"stimulus":"\n                    <p><b>Action: <em>harvest</em></b></p>\n                    <p>This is the bee that you just saw.</p>\n                    <img src=\"bees-with-color/bee-A1SF.svg\" width=\"200\">\n                    <p><span class=\"greenText\"><b>Successful harvest!</b></span><br>Your pay has increased by $0.02. Your bonus pay is now $0.56.</p>\n            ","response":0,"trial_type":"html-button-response","trial_index":12,"time_elapsed":237046,"internal_node_id":"0.0-4.0-1.0","subject_id":"615de74c022cf6314cf54277","study_id":"60edd13110225f80f9f3709b","session_id":"6196c4a7e43e093fb397eaca","condition":"full-information","relevant_dimensions":["wings","legs"],"bee_group":{"antennae":"X","wings":"2","pattern":"X","legs":"F"},"bonus":1.580000000000001},{"rt":6493.5,"stimulus":"bees-with-color/bee-B1DF.svg","response":1,"trial_type":"image-button-response","trial_index":13,"time_elapsed":243542,"internal_node_id":"0.0-4.0-0.1","subject_id":"615de74c022cf6314cf54277","study_id":"60edd13110225f80f9f3709b","session_id":"6196c4a7e43e093fb397eaca","condition":"full-information","relevant_dimensions":["wings","legs"],"bee_group":{"antennae":"X","wings":"2","pattern":"X","legs":"F"},"action":"avoid","summary":"bad-avoid","bonus":1.580000000000001},{"rt":11389.90000000596,"stimulus":"\n                    <p><b>Action: <em>avoid</em></b></p>\n                    <p>This is the bee that you just saw.</p>\n                    <img src=\"bees-with-color/bee-B1DF.svg\" width=\"200\">\n                    <p><span class=\"redText\">Bad choice,</span> the bee was friendly.<br>Your bonus pay is unchanged, and remains at $0.56.</p>\n            ","response":0,"trial_type":"html-button-response","trial_index":14,"time_elapsed":254933,"internal_node_id":"0.0-4.0-1.1","subject_id":"615de74c022cf6314cf54277","study_id":"60edd13110225f80f9f3709b","session_id":"6196c4a7e43e093fb397eaca","condition":"full-information","relevant_dimensions":["wings","legs"],"bee_group":{"antennae":"X","wings":"2","pattern":"X","legs":"F"},"bonus":1.580000000000001},{"rt":24114,"stimulus":"bees-with-color/bee-A1DM.svg","response":1,"trial_type":"image-button-response","trial_index":15,"time_elapsed":279050,"internal_node_id":"0.0-4.0-0.2","subject_id":"615de74c022cf6314cf54277","study_id":"60edd13110225f80f9f3709b","session_id":"6196c4a7e43e093fb397eaca","condition":"full-information","relevant_dimensions":["wings","legs"],"bee_group":{"antennae":"X","wings":"2","pattern":"X","legs":"F"},"action":"avoid","summary":"bad-avoid","bonus":1.580000000000001},{"rt":13639.800000011921,"stimulus":"\n                    <p><b>Action: <em>avoid</em></b></p>\n                    <p>This is the bee that you just saw.</p>\n                    <img src=\"bees-with-color/bee-A1DM.svg\" width=\"200\">\n                    <p><span class=\"redText\">Bad choice,</span> the bee was friendly.<br>Your bonus pay is unchanged, and remains at $0.56.</p>\n            ","response":0,"trial_type":"html-button-response","trial_index":16,"time_elapsed":292692,"internal_node_id":"0.0-4.0-1.2","subject_id":"615de74c022cf6314cf54277","study_id":"60edd13110225f80f9f3709b","session_id":"6196c4a7e43e093fb397eaca","condition":"full-information","relevant_dimensions":["wings","legs"],"bee_group":{"antennae":"X","wings":"2","pattern":"X","legs":"F"},"bonus":1.580000000000001},{"rt":2758.7999999821186,"stimulus":"bees-with-color/bee-B2SF.svg","response":1,"trial_type":"image-button-response","trial_index":17,"time_elapsed":295453,"internal_node_id":"0.0-4.0-0.3","subject_id":"615de74c022cf6314cf54277","study_id":"60edd13110225f80f9f3709b","session_id":"6196c4a7e43e093fb397eaca","condition":"full-information","relevant_dimensions":["wings","legs"],"bee_group":{"antennae":"X","wings":"2","pattern":"X","legs":"F"},"action":"avoid","summary":"good-avoid","bonus":1.580000000000001},{"rt":36090,"stimulus":"\n                    <p><b>Action: <em>avoid</em></b></p>\n                    <p>This is the bee that you just saw.</p>\n                    <img src=\"bees-with-color/bee-B2SF.svg\" width=\"200\">\n                    <p><span class=\"greenText\">Good choice!</span>  This bee would have stung you.<br>Your bonus pay is unchanged, and remains at $0.56.</p>\n            ","response":0,"trial_type":"html-button-response","trial_index":18,"time_elapsed":331544,"internal_node_id":"0.0-4.0-1.3","subject_id":"615de74c022cf6314cf54277","study_id":"60edd13110225f80f9f3709b","session_id":"6196c4a7e43e093fb397eaca","condition":"full-information","relevant_dimensions":["wings","legs"],"bee_group":{"antennae":"X","wings":"2","pattern":"X","legs":"F"},"bonus":1.580000000000001},{"rt":2439.4000000059605,"stimulus":"bees-with-color/bee-A2SM.svg","response":1,"trial_type":"image-button-response","trial_index":19,"time_elapsed":333986,"internal_node_id":"0.0-4.0-0.4","subject_id":"615de74c022cf6314cf54277","study_id":"60edd13110225f80f9f3709b","session_id":"6196c4a7e43e093fb397eaca","condition":"full-information","relevant_dimensions":["wings","legs"],"bee_group":{"antennae":"X","wings":"2","pattern":"X","legs":"F"},"action":"avoid","summary":"bad-avoid","bonus":1.580000000000001},{"rt":12438,"stimulus":"\n                    <p><b>Action: <em>avoid</em></b></p>\n                    <p>This is the bee that you just saw.</p>\n                    <img src=\"bees-with-color/bee-A2SM.svg\" width=\"200\">\n                    <p><span class=\"redText\">Bad choice,</span> the bee was friendly.<br>Your bonus pay is unchanged, and remains at $0.56.</p>\n            ","response":0,"trial_type":"html-button-response","trial_index":20,"time_elapsed":346426,"internal_node_id":"0.0-4.0-1.4","subject_id":"615de74c022cf6314cf54277","study_id":"60edd13110225f80f9f3709b","session_id":"6196c4a7e43e093fb397eaca","condition":"full-information","relevant_dimensions":["wings","legs"],"bee_group":{"antennae":"X","wings":"2","pattern":"X","legs":"F"},"bonus":1.580000000000001},{"rt":8544,"stimulus":"bees-with-color/bee-B2DF.svg","response":1,"trial_type":"image-button-response","trial_index":21,"time_elapsed":354973,"internal_node_id":"0.0-4.0-0.5","subject_id":"615de74c022cf6314cf54277","study_id":"60edd13110225f80f9f3709b","session_id":"6196c4a7e43e093fb397eaca","condition":"full-information","relevant_dimensions":["wings","legs"],"bee_group":{"antennae":"X","wings":"2","pattern":"X","legs":"F"},"action":"avoid","summary":"good-avoid","bonus":1.580000000000001},{"rt":9394.800000011921,"stimulus":"\n                    <p><b>Action: <em>avoid</em></b></p>\n                    <p>This is the bee that you just saw.</p>\n                    <img src=\"bees-with-color/bee-B2DF.svg\" width=\"200\">\n                    <p><span class=\"greenText\">Good choice!</span>  This bee would have stung you.<br>Your bonus pay is unchanged, and remains at $0.56.</p>\n            ","response":0,"trial_type":"html-button-response","trial_index":22,"time_elapsed":364369,"internal_node_id":"0.0-4.0-1.5","subject_id":"615de74c022cf6314cf54277","study_id":"60edd13110225f80f9f3709b","session_id":"6196c4a7e43e093fb397eaca","condition":"full-information","relevant_dimensions":["wings","legs"],"bee_group":{"antennae":"X","wings":"2","pattern":"X","legs":"F"},"bonus":1.580000000000001},{"rt":11777.800000011921,"stimulus":"bees-with-color/bee-B2DM.svg","response":0,"trial_type":"image-button-response","trial_index":23,"time_elapsed":376150,"internal_node_id":"0.0-4.0-0.6","subject_id":"615de74c022cf6314cf54277","study_id":"60edd13110225f80f9f3709b","session_id":"6196c4a7e43e093fb397eaca","condition":"full-information","relevant_dimensions":["wings","legs"],"bee_group":{"antennae":"X","wings":"2","pattern":"X","legs":"F"},"action":"harvest","summary":"good-harvest","bonus":1.580000000000001},{"rt":9009.199999988079,"stimulus":"\n                    <p><b>Action: <em>harvest</em></b></p>\n                    <p>This is the bee that you just saw.</p>\n                    <img src=\"bees-with-color/bee-B2DM.svg\" width=\"200\">\n                    <p><span class=\"greenText\"><b>Successful harvest!</b></span><br>Your pay has increased by $0.02. Your bonus pay is now $0.58.</p>\n            ","response":0,"trial_type":"html-button-response","trial_index":24,"time_elapsed":385160,"internal_node_id":"0.0-4.0-1.6","subject_id":"615de74c022cf6314cf54277","study_id":"60edd13110225f80f9f3709b","session_id":"6196c4a7e43e093fb397eaca","condition":"full-information","relevant_dimensions":["wings","legs"],"bee_group":{"antennae":"X","wings":"2","pattern":"X","legs":"F"},"bonus":1.580000000000001},{"rt":8759.40000000596,"stimulus":"bees-with-color/bee-B2SM.svg","response":1,"trial_type":"image-button-response","trial_index":25,"time_elapsed":393922,"internal_node_id":"0.0-4.0-0.7","subject_id":"615de74c022cf6314cf54277","study_id":"60edd13110225f80f9f3709b","session_id":"6196c4a7e43e093fb397eaca","condition":"full-information","relevant_dimensions":["wings","legs"],"bee_group":{"antennae":"X","wings":"2","pattern":"X","legs":"F"},"action":"avoid","summary":"bad-avoid","bonus":1.580000000000001},{"rt":10215,"stimulus":"\n                    <p><b>Action: <em>avoid</em></b></p>\n                    <p>This is the bee that you just saw.</p>\n                    <img src=\"bees-with-color/bee-B2SM.svg\" width=\"200\">\n                    <p><span class=\"redText\">Bad choice,</span> the bee was friendly.<br>Your bonus pay is unchanged, and remains at $0.58.</p>\n            ","response":0,"trial_type":"html-button-response","trial_index":26,"time_elapsed":404138,"internal_node_id":"0.0-4.0-1.7","subject_id":"615de74c022cf6314cf54277","study_id":"60edd13110225f80f9f3709b","session_id":"6196c4a7e43e093fb397eaca","condition":"full-information","relevant_dimensions":["wings","legs"],"bee_group":{"antennae":"X","wings":"2","pattern":"X","legs":"F"},"bonus":1.580000000000001},{"rt":21109.79999998212,"stimulus":"bees-with-color/bee-A1DF.svg","response":1,"trial_type":"image-button-response","trial_index":27,"time_elapsed":425250,"internal_node_id":"0.0-4.0-0.8","subject_id":"615de74c022cf6314cf54277","study_id":"60edd13110225f80f9f3709b","session_id":"6196c4a7e43e093fb397eaca","condition":"full-information","relevant_dimensions":["wings","legs"],"bee_group":{"antennae":"X","wings":"2","pattern":"X","legs":"F"},"action":"avoid","summary":"bad-avoid","bonus":1.580000000000001},{"rt":7203.800000011921,"stimulus":"\n                    <p><b>Action: <em>avoid</em></b></p>\n                    <p>This is the bee that you just saw.</p>\n                    <img src=\"bees-with-color/bee-A1DF.svg\" width=\"200\">\n                    <p><span class=\"redText\">Bad choice,</span> the bee was friendly.<br>Your bonus pay is unchanged, and remains at $0.58.</p>\n            ","response":0,"trial_type":"html-button-response","trial_index":28,"time_elapsed":432455,"internal_node_id":"0.0-4.0-1.8","subject_id":"615de74c022cf6314cf54277","study_id":"60edd13110225f80f9f3709b","session_id":"6196c4a7e43e093fb397eaca","condition":"full-information","relevant_dimensions":["wings","legs"],"bee_group":{"antennae":"X","wings":"2","pattern":"X","legs":"F"},"bonus":1.580000000000001},{"rt":3710.5999999940395,"stimulus":"bees-with-color/bee-A2SF.svg","response":1,"trial_type":"image-button-response","trial_index":29,"time_elapsed":436167,"internal_node_id":"0.0-4.0-0.9","subject_id":"615de74c022cf6314cf54277","study_id":"60edd13110225f80f9f3709b","session_id":"6196c4a7e43e093fb397eaca","condition":"full-information","relevant_dimensions":["wings","legs"],"bee_group":{"antennae":"X","wings":"2","pattern":"X","legs":"F"},"action":"avoid","summary":"good-avoid","bonus":1.580000000000001},{"rt":1815,"stimulus":"\n                    <p><b>Action: <em>avoid</em></b></p>\n                    <p>This is the bee that you just saw.</p>\n                    <img src=\"bees-with-color/bee-A2SF.svg\" width=\"200\">\n                    <p><span class=\"greenText\">Good choice!</span>  This bee would have stung you.<br>Your bonus pay is unchanged, and remains at $0.58.</p>\n            ","response":0,"trial_type":"html-button-response","trial_index":30,"time_elapsed":437984,"internal_node_id":"0.0-4.0-1.9","subject_id":"615de74c022cf6314cf54277","study_id":"60edd13110225f80f9f3709b","session_id":"6196c4a7e43e093fb397eaca","condition":"full-information","relevant_dimensions":["wings","legs"],"bee_group":{"antennae":"X","wings":"2","pattern":"X","legs":"F"},"bonus":1.580000000000001},{"rt":2516.0999999940395,"stimulus":"bees-with-color/bee-B1SF.svg","response":0,"trial_type":"image-button-response","trial_index":31,"time_elapsed":440501,"internal_node_id":"0.0-4.0-0.10","subject_id":"615de74c022cf6314cf54277","study_id":"60edd13110225f80f9f3709b","session_id":"6196c4a7e43e093fb397eaca","condition":"full-information","relevant_dimensions":["wings","legs"],"bee_group":{"antennae":"X","wings":"2","pattern":"X","legs":"F"},"action":"harvest","summary":"good-harvest","bonus":1.580000000000001},{"rt":1481.4000000059605,"stimulus":"\n                    <p><b>Action: <em>harvest</em></b></p>\n                    <p>This is the bee that you just saw.</p>\n                    <img src=\"bees-with-color/bee-B1SF.svg\" width=\"200\">\n                    <p><span class=\"greenText\"><b>Successful harvest!</b></span><br>Your pay has increased by $0.02. Your bonus pay is now $0.60.</p>\n            ","response":0,"trial_type":"html-button-response","trial_index":32,"time_elapsed":441984,"internal_node_id":"0.0-4.0-1.10","subject_id":"615de74c022cf6314cf54277","study_id":"60edd13110225f80f9f3709b","session_id":"6196c4a7e43e093fb397eaca","condition":"full-information","relevant_dimensions":["wings","legs"],"bee_group":{"antennae":"X","wings":"2","pattern":"X","legs":"F"},"bonus":1.580000000000001},{"rt":3119.699999988079,"stimulus":"bees-with-color/bee-A1SM.svg","response":0,"trial_type":"image-button-response","trial_index":33,"time_elapsed":445106,"internal_node_id":"0.0-4.0-0.11","subject_id":"615de74c022cf6314cf54277","study_id":"60edd13110225f80f9f3709b","session_id":"6196c4a7e43e093fb397eaca","condition":"full-information","relevant_dimensions":["wings","legs"],"bee_group":{"antennae":"X","wings":"2","pattern":"X","legs":"F"},"action":"harvest","summary":"good-harvest","bonus":1.580000000000001},{"rt":1482.0999999940395,"stimulus":"\n                    <p><b>Action: <em>harvest</em></b></p>\n                    <p>This is the bee that you just saw.</p>\n                    <img src=\"bees-with-color/bee-A1SM.svg\" width=\"200\">\n                    <p><span class=\"greenText\"><b>Successful harvest!</b></span><br>Your pay has increased by $0.02. Your bonus pay is now $0.62.</p>\n            ","response":0,"trial_type":"html-button-response","trial_index":34,"time_elapsed":446589,"internal_node_id":"0.0-4.0-1.11","subject_id":"615de74c022cf6314cf54277","study_id":"60edd13110225f80f9f3709b","session_id":"6196c4a7e43e093fb397eaca","condition":"full-information","relevant_dimensions":["wings","legs"],"bee_group":{"antennae":"X","wings":"2","pattern":"X","legs":"F"},"bonus":1.580000000000001},{"rt":2160.5,"stimulus":"bees-with-color/bee-A2DM.svg","response":1,"trial_type":"image-button-response","trial_index":35,"time_elapsed":448752,"internal_node_id":"0.0-4.0-0.12","subject_id":"615de74c022cf6314cf54277","study_id":"60edd13110225f80f9f3709b","session_id":"6196c4a7e43e093fb397eaca","condition":"full-information","relevant_dimensions":["wings","legs"],"bee_group":{"antennae":"X","wings":"2","pattern":"X","legs":"F"},"action":"avoid","summary":"bad-avoid","bonus":1.580000000000001},{"rt":1718.5,"stimulus":"\n                    <p><b>Action: <em>avoid</em></b></p>\n                    <p>This is the bee that you just saw.</p>\n                    <img src=\"bees-with-color/bee-A2DM.svg\" width=\"200\">\n                    <p><span class=\"redText\">Bad choice,</span> the bee was friendly.<br>Your bonus pay is unchanged, and remains at $0.62.</p>\n            ","response":0,"trial_type":"html-button-response","trial_index":36,"time_elapsed":450472,"internal_node_id":"0.0-4.0-1.12","subject_id":"615de74c022cf6314cf54277","study_id":"60edd13110225f80f9f3709b","session_id":"6196c4a7e43e093fb397eaca","condition":"full-information","relevant_dimensions":["wings","legs"],"bee_group":{"antennae":"X","wings":"2","pattern":"X","legs":"F"},"bonus":1.580000000000001},{"rt":2153.199999988079,"stimulus":"bees-with-color/bee-A2DF.svg","response":1,"trial_type":"image-button-response","trial_index":37,"time_elapsed":452626,"internal_node_id":"0.0-4.0-0.13","subject_id":"615de74c022cf6314cf54277","study_id":"60edd13110225f80f9f3709b","session_id":"6196c4a7e43e093fb397eaca","condition":"full-information","relevant_dimensions":["wings","legs"],"bee_group":{"antennae":"X","wings":"2","pattern":"X","legs":"F"},"action":"avoid","summary":"good-avoid","bonus":1.580000000000001},{"rt":1504.9000000059605,"stimulus":"\n                    <p><b>Action: <em>avoid</em></b></p>\n                    <p>This is the bee that you just saw.</p>\n                    <img src=\"bees-with-color/bee-A2DF.svg\" width=\"200\">\n                    <p><span class=\"greenText\">Good choice!</span>  This bee would have stung you.<br>Your bonus pay is unchanged, and remains at $0.62.</p>\n            ","response":0,"trial_type":"html-button-response","trial_index":38,"time_elapsed":454132,"internal_node_id":"0.0-4.0-1.13","subject_id":"615de74c022cf6314cf54277","study_id":"60edd13110225f80f9f3709b","session_id":"6196c4a7e43e093fb397eaca","condition":"full-information","relevant_dimensions":["wings","legs"],"bee_group":{"antennae":"X","wings":"2","pattern":"X","legs":"F"},"bonus":1.580000000000001},{"rt":3060.4000000059605,"stimulus":"bees-with-color/bee-B1DM.svg","response":0,"trial_type":"image-button-response","trial_index":39,"time_elapsed":457194,"internal_node_id":"0.0-4.0-0.14","subject_id":"615de74c022cf6314cf54277","study_id":"60edd13110225f80f9f3709b","session_id":"6196c4a7e43e093fb397eaca","condition":"full-information","relevant_dimensions":["wings","legs"],"bee_group":{"antennae":"X","wings":"2","pattern":"X","legs":"F"},"action":"harvest","summary":"good-harvest","bonus":1.580000000000001},{"rt":1806.7999999821186,"stimulus":"\n                    <p><b>Action: <em>harvest</em></b></p>\n                    <p>This is the bee that you just saw.</p>\n                    <img src=\"bees-with-color/bee-B1DM.svg\" width=\"200\">\n                    <p><span class=\"greenText\"><b>Successful harvest!</b></span><br>Your pay has increased by $0.02. Your bonus pay is now $0.64.</p>\n            ","response":0,"trial_type":"html-button-response","trial_index":40,"time_elapsed":459003,"internal_node_id":"0.0-4.0-1.14","subject_id":"615de74c022cf6314cf54277","study_id":"60edd13110225f80f9f3709b","session_id":"6196c4a7e43e093fb397eaca","condition":"full-information","relevant_dimensions":["wings","legs"],"bee_group":{"antennae":"X","wings":"2","pattern":"X","legs":"F"},"bonus":1.580000000000001},{"rt":2300.9000000059605,"stimulus":"bees-with-color/bee-B1SM.svg","response":0,"trial_type":"image-button-response","trial_index":41,"time_elapsed":461306,"internal_node_id":"0.0-4.0-0.15","subject_id":"615de74c022cf6314cf54277","study_id":"60edd13110225f80f9f3709b","session_id":"6196c4a7e43e093fb397eaca","condition":"full-information","relevant_dimensions":["wings","legs"],"bee_group":{"antennae":"X","wings":"2","pattern":"X","legs":"F"},"action":"harvest","summary":"good-harvest","bonus":1.580000000000001},{"rt":1489.800000011921,"stimulus":"\n                    <p><b>Action: <em>harvest</em></b></p>\n                    <p>This is the bee that you just saw.</p>\n                    <img src=\"bees-with-color/bee-B1SM.svg\" width=\"200\">\n                    <p><span class=\"greenText\"><b>Successful harvest!</b></span><br>Your pay has increased by $0.02. Your bonus pay is now $0.66.</p>\n            ","response":0,"trial_type":"html-button-response","trial_index":42,"time_elapsed":462797,"internal_node_id":"0.0-4.0-1.15","subject_id":"615de74c022cf6314cf54277","study_id":"60edd13110225f80f9f3709b","session_id":"6196c4a7e43e093fb397eaca","condition":"full-information","relevant_dimensions":["wings","legs"],"bee_group":{"antennae":"X","wings":"2","pattern":"X","legs":"F"},"bonus":1.580000000000001},{"rt":2057.0999999940395,"stimulus":"bees-with-color/bee-B2DM.svg","response":1,"trial_type":"image-button-response","trial_index":43,"time_elapsed":464855,"internal_node_id":"0.0-4.0-0.16","subject_id":"615de74c022cf6314cf54277","study_id":"60edd13110225f80f9f3709b","session_id":"6196c4a7e43e093fb397eaca","condition":"full-information","relevant_dimensions":["wings","legs"],"bee_group":{"antennae":"X","wings":"2","pattern":"X","legs":"F"},"action":"avoid","summary":"bad-avoid","bonus":1.580000000000001},{"rt":1430.8999999761581,"stimulus":"\n                    <p><b>Action: <em>avoid</em></b></p>\n                    <p>This is the bee that you just saw.</p>\n                    <img src=\"bees-with-color/bee-B2DM.svg\" width=\"200\">\n                    <p><span class=\"redText\">Bad choice,</span> the bee was friendly.<br>Your bonus pay is unchanged, and remains at $0.66.</p>\n            ","response":0,"trial_type":"html-button-response","trial_index":44,"time_elapsed":466288,"internal_node_id":"0.0-4.0-1.16","subject_id":"615de74c022cf6314cf54277","study_id":"60edd13110225f80f9f3709b","session_id":"6196c4a7e43e093fb397eaca","condition":"full-information","relevant_dimensions":["wings","legs"],"bee_group":{"antennae":"X","wings":"2","pattern":"X","legs":"F"},"bonus":1.580000000000001},{"rt":2168.399999976158,"stimulus":"bees-with-color/bee-B2DF.svg","response":1,"trial_type":"image-button-response","trial_index":45,"time_elapsed":468458,"internal_node_id":"0.0-4.0-0.17","subject_id":"615de74c022cf6314cf54277","study_id":"60edd13110225f80f9f3709b","session_id":"6196c4a7e43e093fb397eaca","condition":"full-information","relevant_dimensions":["wings","legs"],"bee_group":{"antennae":"X","wings":"2","pattern":"X","legs":"F"},"action":"avoid","summary":"good-avoid","bonus":1.580000000000001},{"rt":1502.7999999821186,"stimulus":"\n                    <p><b>Action: <em>avoid</em></b></p>\n                    <p>This is the bee that you just saw.</p>\n                    <img src=\"bees-with-color/bee-B2DF.svg\" width=\"200\">\n                    <p><span class=\"greenText\">Good choice!</span>  This bee would have stung you.<br>Your bonus pay is unchanged, and remains at $0.66.</p>\n            ","response":0,"trial_type":"html-button-response","trial_index":46,"time_elapsed":469962,"internal_node_id":"0.0-4.0-1.17","subject_id":"615de74c022cf6314cf54277","study_id":"60edd13110225f80f9f3709b","session_id":"6196c4a7e43e093fb397eaca","condition":"full-information","relevant_dimensions":["wings","legs"],"bee_group":{"antennae":"X","wings":"2","pattern":"X","legs":"F"},"bonus":1.580000000000001},{"rt":2619.0999999940395,"stimulus":"bees-with-color/bee-B1DM.svg","response":0,"trial_type":"image-button-response","trial_index":47,"time_elapsed":472582,"internal_node_id":"0.0-4.0-0.18","subject_id":"615de74c022cf6314cf54277","study_id":"60edd13110225f80f9f3709b","session_id":"6196c4a7e43e093fb397eaca","condition":"full-information","relevant_dimensions":["wings","legs"],"bee_group":{"antennae":"X","wings":"2","pattern":"X","legs":"F"},"action":"harvest","summary":"good-harvest","bonus":1.580000000000001},{"rt":1555.699999988079,"stimulus":"\n                    <p><b>Action: <em>harvest</em></b></p>\n                    <p>This is the bee that you just saw.</p>\n                    <img src=\"bees-with-color/bee-B1DM.svg\" width=\"200\">\n                    <p><span class=\"greenText\"><b>Successful harvest!</b></span><br>Your pay has increased by $0.02. Your bonus pay is now $0.68.</p>\n            ","response":0,"trial_type":"html-button-response","trial_index":48,"time_elapsed":474139,"internal_node_id":"0.0-4.0-1.18","subject_id":"615de74c022cf6314cf54277","study_id":"60edd13110225f80f9f3709b","session_id":"6196c4a7e43e093fb397eaca","condition":"full-information","relevant_dimensions":["wings","legs"],"bee_group":{"antennae":"X","wings":"2","pattern":"X","legs":"F"},"bonus":1.580000000000001},{"rt":2420,"stimulus":"bees-with-color/bee-B1DF.svg","response":0,"trial_type":"image-button-response","trial_index":49,"time_elapsed":476561,"internal_node_id":"0.0-4.0-0.19","subject_id":"615de74c022cf6314cf54277","study_id":"60edd13110225f80f9f3709b","session_id":"6196c4a7e43e093fb397eaca","condition":"full-information","relevant_dimensions":["wings","legs"],"bee_group":{"antennae":"X","wings":"2","pattern":"X","legs":"F"},"action":"harvest","summary":"good-harvest","bonus":1.580000000000001},{"rt":1386.199999988079,"stimulus":"\n                    <p><b>Action: <em>harvest</em></b></p>\n                    <p>This is the bee that you just saw.</p>\n                    <img src=\"bees-with-color/bee-B1DF.svg\" width=\"200\">\n                    <p><span class=\"greenText\"><b>Successful harvest!</b></span><br>Your pay has increased by $0.02. Your bonus pay is now $0.70.</p>\n            ","response":0,"trial_type":"html-button-response","trial_index":50,"time_elapsed":477948,"internal_node_id":"0.0-4.0-1.19","subject_id":"615de74c022cf6314cf54277","study_id":"60edd13110225f80f9f3709b","session_id":"6196c4a7e43e093fb397eaca","condition":"full-information","relevant_dimensions":["wings","legs"],"bee_group":{"antennae":"X","wings":"2","pattern":"X","legs":"F"},"bonus":1.580000000000001},{"rt":1717.300000011921,"stimulus":"bees-with-color/bee-A2SM.svg","response":1,"trial_type":"image-button-response","trial_index":51,"time_elapsed":479668,"internal_node_id":"0.0-4.0-0.20","subject_id":"615de74c022cf6314cf54277","study_id":"60edd13110225f80f9f3709b","session_id":"6196c4a7e43e093fb397eaca","condition":"full-information","relevant_dimensions":["wings","legs"],"bee_group":{"antennae":"X","wings":"2","pattern":"X","legs":"F"},"action":"avoid","summary":"bad-avoid","bonus":1.580000000000001},{"rt":1511.2999999821186,"stimulus":"\n                    <p><b>Action: <em>avoid</em></b></p>\n                    <p>This is the bee that you just saw.</p>\n                    <img src=\"bees-with-color/bee-A2SM.svg\" width=\"200\">\n                    <p><span class=\"redText\">Bad choice,</span> the bee was friendly.<br>Your bonus pay is unchanged, and remains at $0.70.</p>\n            ","response":0,"trial_type":"html-button-response","trial_index":52,"time_elapsed":481181,"internal_node_id":"0.0-4.0-1.20","subject_id":"615de74c022cf6314cf54277","study_id":"60edd13110225f80f9f3709b","session_id":"6196c4a7e43e093fb397eaca","condition":"full-information","relevant_dimensions":["wings","legs"],"bee_group":{"antennae":"X","wings":"2","pattern":"X","legs":"F"},"bonus":1.580000000000001},{"rt":1924.9000000059605,"stimulus":"bees-with-color/bee-A1SM.svg","response":0,"trial_type":"image-button-response","trial_index":53,"time_elapsed":483106,"internal_node_id":"0.0-4.0-0.21","subject_id":"615de74c022cf6314cf54277","study_id":"60edd13110225f80f9f3709b","session_id":"6196c4a7e43e093fb397eaca","condition":"full-information","relevant_dimensions":["wings","legs"],"bee_group":{"antennae":"X","wings":"2","pattern":"X","legs":"F"},"action":"harvest","summary":"good-harvest","bonus":1.580000000000001},{"rt":1451.699999988079,"stimulus":"\n                    <p><b>Action: <em>harvest</em></b></p>\n                    <p>This is the bee that you just saw.</p>\n                    <img src=\"bees-with-color/bee-A1SM.svg\" width=\"200\">\n                    <p><span class=\"greenText\"><b>Successful harvest!</b></span><br>Your pay has increased by $0.02. Your bonus pay is now $0.72.</p>\n            ","response":0,"trial_type":"html-button-response","trial_index":54,"time_elapsed":484560,"internal_node_id":"0.0-4.0-1.21","subject_id":"615de74c022cf6314cf54277","study_id":"60edd13110225f80f9f3709b","session_id":"6196c4a7e43e093fb397eaca","condition":"full-information","relevant_dimensions":["wings","legs"],"bee_group":{"antennae":"X","wings":"2","pattern":"X","legs":"F"},"bonus":1.580000000000001},{"rt":1562.9000000059605,"stimulus":"bees-with-color/bee-A2SF.svg","response":1,"trial_type":"image-button-response","trial_index":55,"time_elapsed":486124,"internal_node_id":"0.0-4.0-0.22","subject_id":"615de74c022cf6314cf54277","study_id":"60edd13110225f80f9f3709b","session_id":"6196c4a7e43e093fb397eaca","condition":"full-information","relevant_dimensions":["wings","legs"],"bee_group":{"antennae":"X","wings":"2","pattern":"X","legs":"F"},"action":"avoid","summary":"good-avoid","bonus":1.580000000000001},{"rt":1481.699999988079,"stimulus":"\n                    <p><b>Action: <em>avoid</em></b></p>\n                    <p>This is the bee that you just saw.</p>\n                    <img src=\"bees-with-color/bee-A2SF.svg\" width=\"200\">\n                    <p><span class=\"greenText\">Good choice!</span>  This bee would have stung you.<br>Your bonus pay is unchanged, and remains at $0.72.</p>\n            ","response":0,"trial_type":"html-button-response","trial_index":56,"time_elapsed":487608,"internal_node_id":"0.0-4.0-1.22","subject_id":"615de74c022cf6314cf54277","study_id":"60edd13110225f80f9f3709b","session_id":"6196c4a7e43e093fb397eaca","condition":"full-information","relevant_dimensions":["wings","legs"],"bee_group":{"antennae":"X","wings":"2","pattern":"X","legs":"F"},"bonus":1.580000000000001},{"rt":1688.9000000059605,"stimulus":"bees-with-color/bee-B2SM.svg","response":1,"trial_type":"image-button-response","trial_index":57,"time_elapsed":489298,"internal_node_id":"0.0-4.0-0.23","subject_id":"615de74c022cf6314cf54277","study_id":"60edd13110225f80f9f3709b","session_id":"6196c4a7e43e093fb397eaca","condition":"full-information","relevant_dimensions":["wings","legs"],"bee_group":{"antennae":"X","wings":"2","pattern":"X","legs":"F"},"action":"avoid","summary":"bad-avoid","bonus":1.580000000000001},{"rt":1333.699999988079,"stimulus":"\n                    <p><b>Action: <em>avoid</em></b></p>\n                    <p>This is the bee that you just saw.</p>\n                    <img src=\"bees-with-color/bee-B2SM.svg\" width=\"200\">\n                    <p><span class=\"redText\">Bad choice,</span> the bee was friendly.<br>Your bonus pay is unchanged, and remains at $0.72.</p>\n            ","response":0,"trial_type":"html-button-response","trial_index":58,"time_elapsed":490634,"internal_node_id":"0.0-4.0-1.23","subject_id":"615de74c022cf6314cf54277","study_id":"60edd13110225f80f9f3709b","session_id":"6196c4a7e43e093fb397eaca","condition":"full-information","relevant_dimensions":["wings","legs"],"bee_group":{"antennae":"X","wings":"2","pattern":"X","legs":"F"},"bonus":1.580000000000001},{"rt":2286.300000011921,"stimulus":"bees-with-color/bee-A1DM.svg","response":0,"trial_type":"image-button-response","trial_index":59,"time_elapsed":492921,"internal_node_id":"0.0-4.0-0.24","subject_id":"615de74c022cf6314cf54277","study_id":"60edd13110225f80f9f3709b","session_id":"6196c4a7e43e093fb397eaca","condition":"full-information","relevant_dimensions":["wings","legs"],"bee_group":{"antennae":"X","wings":"2","pattern":"X","legs":"F"},"action":"harvest","summary":"good-harvest","bonus":1.580000000000001},{"rt":1408.800000011921,"stimulus":"\n                    <p><b>Action: <em>harvest</em></b></p>\n                    <p>This is the bee that you just saw.</p>\n                    <img src=\"bees-with-color/bee-A1DM.svg\" width=\"200\">\n                    <p><span class=\"greenText\"><b>Successful harvest!</b></span><br>Your pay has increased by $0.02. Your bonus pay is now $0.74.</p>\n            ","response":0,"trial_type":"html-button-response","trial_index":60,"time_elapsed":494331,"internal_node_id":"0.0-4.0-1.24","subject_id":"615de74c022cf6314cf54277","study_id":"60edd13110225f80f9f3709b","session_id":"6196c4a7e43e093fb397eaca","condition":"full-information","relevant_dimensions":["wings","legs"],"bee_group":{"antennae":"X","wings":"2","pattern":"X","legs":"F"},"bonus":1.580000000000001},{"rt":1687.7999999821186,"stimulus":"bees-with-color/bee-B2SF.svg","response":1,"trial_type":"image-button-response","trial_index":61,"time_elapsed":496020,"internal_node_id":"0.0-4.0-0.25","subject_id":"615de74c022cf6314cf54277","study_id":"60edd13110225f80f9f3709b","session_id":"6196c4a7e43e093fb397eaca","condition":"full-information","relevant_dimensions":["wings","legs"],"bee_group":{"antennae":"X","wings":"2","pattern":"X","legs":"F"},"action":"avoid","summary":"good-avoid","bonus":1.580000000000001},{"rt":1755,"stimulus":"\n                    <p><b>Action: <em>avoid</em></b></p>\n                    <p>This is the bee that you just saw.</p>\n                    <img src=\"bees-with-color/bee-B2SF.svg\" width=\"200\">\n                    <p><span class=\"greenText\">Good choice!</span>  This bee would have stung you.<br>Your bonus pay is unchanged, and remains at $0.74.</p>\n            ","response":0,"trial_type":"html-button-response","trial_index":62,"time_elapsed":497777,"internal_node_id":"0.0-4.0-1.25","subject_id":"615de74c022cf6314cf54277","study_id":"60edd13110225f80f9f3709b","session_id":"6196c4a7e43e093fb397eaca","condition":"full-information","relevant_dimensions":["wings","legs"],"bee_group":{"antennae":"X","wings":"2","pattern":"X","legs":"F"},"bonus":1.580000000000001},{"rt":2020.7000000178814,"stimulus":"bees-with-color/bee-A1DF.svg","response":0,"trial_type":"image-button-response","trial_index":63,"time_elapsed":499799,"internal_node_id":"0.0-4.0-0.26","subject_id":"615de74c022cf6314cf54277","study_id":"60edd13110225f80f9f3709b","session_id":"6196c4a7e43e093fb397eaca","condition":"full-information","relevant_dimensions":["wings","legs"],"bee_group":{"antennae":"X","wings":"2","pattern":"X","legs":"F"},"action":"harvest","summary":"good-harvest","bonus":1.580000000000001},{"rt":1466.9000000059605,"stimulus":"\n                    <p><b>Action: <em>harvest</em></b></p>\n                    <p>This is the bee that you just saw.</p>\n                    <img src=\"bees-with-color/bee-A1DF.svg\" width=\"200\">\n                    <p><span class=\"greenText\"><b>Successful harvest!</b></span><br>Your pay has increased by $0.02. Your bonus pay is now $0.76.</p>\n            ","response":0,"trial_type":"html-button-response","trial_index":64,"time_elapsed":501267,"internal_node_id":"0.0-4.0-1.26","subject_id":"615de74c022cf6314cf54277","study_id":"60edd13110225f80f9f3709b","session_id":"6196c4a7e43e093fb397eaca","condition":"full-information","relevant_dimensions":["wings","legs"],"bee_group":{"antennae":"X","wings":"2","pattern":"X","legs":"F"},"bonus":1.580000000000001},{"rt":1644.5,"stimulus":"bees-with-color/bee-A1SF.svg","response":0,"trial_type":"image-button-response","trial_index":65,"time_elapsed":502912,"internal_node_id":"0.0-4.0-0.27","subject_id":"615de74c022cf6314cf54277","study_id":"60edd13110225f80f9f3709b","session_id":"6196c4a7e43e093fb397eaca","condition":"full-information","relevant_dimensions":["wings","legs"],"bee_group":{"antennae":"X","wings":"2","pattern":"X","legs":"F"},"action":"harvest","summary":"good-harvest","bonus":1.580000000000001},{"rt":1283.300000011921,"stimulus":"\n                    <p><b>Action: <em>harvest</em></b></p>\n                    <p>This is the bee that you just saw.</p>\n                    <img src=\"bees-with-color/bee-A1SF.svg\" width=\"200\">\n                    <p><span class=\"greenText\"><b>Successful harvest!</b></span><br>Your pay has increased by $0.02. Your bonus pay is now $0.78.</p>\n            ","response":0,"trial_type":"html-button-response","trial_index":66,"time_elapsed":504197,"internal_node_id":"0.0-4.0-1.27","subject_id":"615de74c022cf6314cf54277","study_id":"60edd13110225f80f9f3709b","session_id":"6196c4a7e43e093fb397eaca","condition":"full-information","relevant_dimensions":["wings","legs"],"bee_group":{"antennae":"X","wings":"2","pattern":"X","legs":"F"},"bonus":1.580000000000001},{"rt":1703.5,"stimulus":"bees-with-color/bee-A2DM.svg","response":1,"trial_type":"image-button-response","trial_index":67,"time_elapsed":505902,"internal_node_id":"0.0-4.0-0.28","subject_id":"615de74c022cf6314cf54277","study_id":"60edd13110225f80f9f3709b","session_id":"6196c4a7e43e093fb397eaca","condition":"full-information","relevant_dimensions":["wings","legs"],"bee_group":{"antennae":"X","wings":"2","pattern":"X","legs":"F"},"action":"avoid","summary":"bad-avoid","bonus":1.580000000000001},{"rt":1244.699999988079,"stimulus":"\n                    <p><b>Action: <em>avoid</em></b></p>\n                    <p>This is the bee that you just saw.</p>\n                    <img src=\"bees-with-color/bee-A2DM.svg\" width=\"200\">\n                    <p><span class=\"redText\">Bad choice,</span> the bee was friendly.<br>Your bonus pay is unchanged, and remains at $0.78.</p>\n            ","response":0,"trial_type":"html-button-response","trial_index":68,"time_elapsed":507148,"internal_node_id":"0.0-4.0-1.28","subject_id":"615de74c022cf6314cf54277","study_id":"60edd13110225f80f9f3709b","session_id":"6196c4a7e43e093fb397eaca","condition":"full-information","relevant_dimensions":["wings","legs"],"bee_group":{"antennae":"X","wings":"2","pattern":"X","legs":"F"},"bonus":1.580000000000001},{"rt":1740.300000011921,"stimulus":"bees-with-color/bee-B1SM.svg","response":0,"trial_type":"image-button-response","trial_index":69,"time_elapsed":508890,"internal_node_id":"0.0-4.0-0.29","subject_id":"615de74c022cf6314cf54277","study_id":"60edd13110225f80f9f3709b","session_id":"6196c4a7e43e093fb397eaca","condition":"full-information","relevant_dimensions":["wings","legs"],"bee_group":{"antennae":"X","wings":"2","pattern":"X","legs":"F"},"action":"harvest","summary":"good-harvest","bonus":1.580000000000001},{"rt":1341.199999988079,"stimulus":"\n                    <p><b>Action: <em>harvest</em></b></p>\n                    <p>This is the bee that you just saw.</p>\n                    <img src=\"bees-with-color/bee-B1SM.svg\" width=\"200\">\n                    <p><span class=\"greenText\"><b>Successful harvest!</b></span><br>Your pay has increased by $0.02. Your bonus pay is now $0.80.</p>\n            ","response":0,"trial_type":"html-button-response","trial_index":70,"time_elapsed":510233,"internal_node_id":"0.0-4.0-1.29","subject_id":"615de74c022cf6314cf54277","study_id":"60edd13110225f80f9f3709b","session_id":"6196c4a7e43e093fb397eaca","condition":"full-information","relevant_dimensions":["wings","legs"],"bee_group":{"antennae":"X","wings":"2","pattern":"X","legs":"F"},"bonus":1.580000000000001},{"rt":2544.699999988079,"stimulus":"bees-with-color/bee-A2DF.svg","response":1,"trial_type":"image-button-response","trial_index":71,"time_elapsed":512779,"internal_node_id":"0.0-4.0-0.30","subject_id":"615de74c022cf6314cf54277","study_id":"60edd13110225f80f9f3709b","session_id":"6196c4a7e43e093fb397eaca","condition":"full-information","relevant_dimensions":["wings","legs"],"bee_group":{"antennae":"X","wings":"2","pattern":"X","legs":"F"},"action":"avoid","summary":"good-avoid","bonus":1.580000000000001},{"rt":1459.0999999940395,"stimulus":"\n                    <p><b>Action: <em>avoid</em></b></p>\n                    <p>This is the bee that you just saw.</p>\n                    <img src=\"bees-with-color/bee-A2DF.svg\" width=\"200\">\n                    <p><span class=\"greenText\">Good choice!</span>  This bee would have stung you.<br>Your bonus pay is unchanged, and remains at $0.80.</p>\n            ","response":0,"trial_type":"html-button-response","trial_index":72,"time_elapsed":514239,"internal_node_id":"0.0-4.0-1.30","subject_id":"615de74c022cf6314cf54277","study_id":"60edd13110225f80f9f3709b","session_id":"6196c4a7e43e093fb397eaca","condition":"full-information","relevant_dimensions":["wings","legs"],"bee_group":{"antennae":"X","wings":"2","pattern":"X","legs":"F"},"bonus":1.580000000000001},{"rt":1681.9000000059605,"stimulus":"bees-with-color/bee-B1SF.svg","response":0,"trial_type":"image-button-response","trial_index":73,"time_elapsed":515922,"internal_node_id":"0.0-4.0-0.31","subject_id":"615de74c022cf6314cf54277","study_id":"60edd13110225f80f9f3709b","session_id":"6196c4a7e43e093fb397eaca","condition":"full-information","relevant_dimensions":["wings","legs"],"bee_group":{"antennae":"X","wings":"2","pattern":"X","legs":"F"},"action":"harvest","summary":"good-harvest","bonus":1.580000000000001},{"rt":1268,"stimulus":"\n                    <p><b>Action: <em>harvest</em></b></p>\n                    <p>This is the bee that you just saw.</p>\n                    <img src=\"bees-with-color/bee-B1SF.svg\" width=\"200\">\n                    <p><span class=\"greenText\"><b>Successful harvest!</b></span><br>Your pay has increased by $0.02. Your bonus pay is now $0.82.</p>\n            ","response":0,"trial_type":"html-button-response","trial_index":74,"time_elapsed":517191,"internal_node_id":"0.0-4.0-1.31","subject_id":"615de74c022cf6314cf54277","study_id":"60edd13110225f80f9f3709b","session_id":"6196c4a7e43e093fb397eaca","condition":"full-information","relevant_dimensions":["wings","legs"],"bee_group":{"antennae":"X","wings":"2","pattern":"X","legs":"F"},"bonus":1.580000000000001},{"rt":1998.7999999821186,"stimulus":"bees-with-color/bee-A1DM.svg","response":0,"trial_type":"image-button-response","trial_index":75,"time_elapsed":519192,"internal_node_id":"0.0-4.0-0.32","subject_id":"615de74c022cf6314cf54277","study_id":"60edd13110225f80f9f3709b","session_id":"6196c4a7e43e093fb397eaca","condition":"full-information","relevant_dimensions":["wings","legs"],"bee_group":{"antennae":"X","wings":"2","pattern":"X","legs":"F"},"action":"harvest","summary":"good-harvest","bonus":1.580000000000001},{"rt":1363.9000000059605,"stimulus":"\n                    <p><b>Action: <em>harvest</em></b></p>\n                    <p>This is the bee that you just saw.</p>\n                    <img src=\"bees-with-color/bee-A1DM.svg\" width=\"200\">\n                    <p><span class=\"greenText\"><b>Successful harvest!</b></span><br>Your pay has increased by $0.02. Your bonus pay is now $0.84.</p>\n            ","response":0,"trial_type":"html-button-response","trial_index":76,"time_elapsed":520557,"internal_node_id":"0.0-4.0-1.32","subject_id":"615de74c022cf6314cf54277","study_id":"60edd13110225f80f9f3709b","session_id":"6196c4a7e43e093fb397eaca","condition":"full-information","relevant_dimensions":["wings","legs"],"bee_group":{"antennae":"X","wings":"2","pattern":"X","legs":"F"},"bonus":1.580000000000001},{"rt":2168,"stimulus":"bees-with-color/bee-A1SF.svg","response":0,"trial_type":"image-button-response","trial_index":77,"time_elapsed":522726,"internal_node_id":"0.0-4.0-0.33","subject_id":"615de74c022cf6314cf54277","study_id":"60edd13110225f80f9f3709b","session_id":"6196c4a7e43e093fb397eaca","condition":"full-information","relevant_dimensions":["wings","legs"],"bee_group":{"antennae":"X","wings":"2","pattern":"X","legs":"F"},"action":"harvest","summary":"good-harvest","bonus":1.580000000000001},{"rt":1253.2000000178814,"stimulus":"\n                    <p><b>Action: <em>harvest</em></b></p>\n                    <p>This is the bee that you just saw.</p>\n                    <img src=\"bees-with-color/bee-A1SF.svg\" width=\"200\">\n                    <p><span class=\"greenText\"><b>Successful harvest!</b></span><br>Your pay has increased by $0.02. Your bonus pay is now $0.86.</p>\n            ","response":0,"trial_type":"html-button-response","trial_index":78,"time_elapsed":523981,"internal_node_id":"0.0-4.0-1.33","subject_id":"615de74c022cf6314cf54277","study_id":"60edd13110225f80f9f3709b","session_id":"6196c4a7e43e093fb397eaca","condition":"full-information","relevant_dimensions":["wings","legs"],"bee_group":{"antennae":"X","wings":"2","pattern":"X","legs":"F"},"bonus":1.580000000000001},{"rt":1673.7000000178814,"stimulus":"bees-with-color/bee-B1SM.svg","response":0,"trial_type":"image-button-response","trial_index":79,"time_elapsed":525656,"internal_node_id":"0.0-4.0-0.34","subject_id":"615de74c022cf6314cf54277","study_id":"60edd13110225f80f9f3709b","session_id":"6196c4a7e43e093fb397eaca","condition":"full-information","relevant_dimensions":["wings","legs"],"bee_group":{"antennae":"X","wings":"2","pattern":"X","legs":"F"},"action":"harvest","summary":"good-harvest","bonus":1.580000000000001},{"rt":1311.699999988079,"stimulus":"\n                    <p><b>Action: <em>harvest</em></b></p>\n                    <p>This is the bee that you just saw.</p>\n                    <img src=\"bees-with-color/bee-B1SM.svg\" width=\"200\">\n                    <p><span class=\"greenText\"><b>Successful harvest!</b></span><br>Your pay has increased by $0.02. Your bonus pay is now $0.88.</p>\n            ","response":0,"trial_type":"html-button-response","trial_index":80,"time_elapsed":526969,"internal_node_id":"0.0-4.0-1.34","subject_id":"615de74c022cf6314cf54277","study_id":"60edd13110225f80f9f3709b","session_id":"6196c4a7e43e093fb397eaca","condition":"full-information","relevant_dimensions":["wings","legs"],"bee_group":{"antennae":"X","wings":"2","pattern":"X","legs":"F"},"bonus":1.580000000000001},{"rt":1760.5999999940395,"stimulus":"bees-with-color/bee-A2SF.svg","response":1,"trial_type":"image-button-response","trial_index":81,"time_elapsed":528731,"internal_node_id":"0.0-4.0-0.35","subject_id":"615de74c022cf6314cf54277","study_id":"60edd13110225f80f9f3709b","session_id":"6196c4a7e43e093fb397eaca","condition":"full-information","relevant_dimensions":["wings","legs"],"bee_group":{"antennae":"X","wings":"2","pattern":"X","legs":"F"},"action":"avoid","summary":"good-avoid","bonus":1.580000000000001},{"rt":1378.4000000059605,"stimulus":"\n                    <p><b>Action: <em>avoid</em></b></p>\n                    <p>This is the bee that you just saw.</p>\n                    <img src=\"bees-with-color/bee-A2SF.svg\" width=\"200\">\n                    <p><span class=\"greenText\">Good choice!</span>  This bee would have stung you.<br>Your bonus pay is unchanged, and remains at $0.88.</p>\n            ","response":0,"trial_type":"html-button-response","trial_index":82,"time_elapsed":530111,"internal_node_id":"0.0-4.0-1.35","subject_id":"615de74c022cf6314cf54277","study_id":"60edd13110225f80f9f3709b","session_id":"6196c4a7e43e093fb397eaca","condition":"full-information","relevant_dimensions":["wings","legs"],"bee_group":{"antennae":"X","wings":"2","pattern":"X","legs":"F"},"bonus":1.580000000000001},{"rt":1520,"stimulus":"bees-with-color/bee-B1DM.svg","response":0,"trial_type":"image-button-response","trial_index":83,"time_elapsed":531632,"internal_node_id":"0.0-4.0-0.36","subject_id":"615de74c022cf6314cf54277","study_id":"60edd13110225f80f9f3709b","session_id":"6196c4a7e43e093fb397eaca","condition":"full-information","relevant_dimensions":["wings","legs"],"bee_group":{"antennae":"X","wings":"2","pattern":"X","legs":"F"},"action":"harvest","summary":"good-harvest","bonus":1.580000000000001},{"rt":1370.199999988079,"stimulus":"\n                    <p><b>Action: <em>harvest</em></b></p>\n                    <p>This is the bee that you just saw.</p>\n                    <img src=\"bees-with-color/bee-B1DM.svg\" width=\"200\">\n                    <p><span class=\"greenText\"><b>Successful harvest!</b></span><br>Your pay has increased by $0.02. Your bonus pay is now $0.90.</p>\n            ","response":0,"trial_type":"html-button-response","trial_index":84,"time_elapsed":533004,"internal_node_id":"0.0-4.0-1.36","subject_id":"615de74c022cf6314cf54277","study_id":"60edd13110225f80f9f3709b","session_id":"6196c4a7e43e093fb397eaca","condition":"full-information","relevant_dimensions":["wings","legs"],"bee_group":{"antennae":"X","wings":"2","pattern":"X","legs":"F"},"bonus":1.580000000000001},{"rt":1488.300000011921,"stimulus":"bees-with-color/bee-B2SF.svg","response":1,"trial_type":"image-button-response","trial_index":85,"time_elapsed":534494,"internal_node_id":"0.0-4.0-0.37","subject_id":"615de74c022cf6314cf54277","study_id":"60edd13110225f80f9f3709b","session_id":"6196c4a7e43e093fb397eaca","condition":"full-information","relevant_dimensions":["wings","legs"],"bee_group":{"antennae":"X","wings":"2","pattern":"X","legs":"F"},"action":"avoid","summary":"good-avoid","bonus":1.580000000000001},{"rt":1400.5,"stimulus":"\n                    <p><b>Action: <em>avoid</em></b></p>\n                    <p>This is the bee that you just saw.</p>\n                    <img src=\"bees-with-color/bee-B2SF.svg\" width=\"200\">\n                    <p><span class=\"greenText\">Good choice!</span>  This bee would have stung you.<br>Your bonus pay is unchanged, and remains at $0.90.</p>\n            ","response":0,"trial_type":"html-button-response","trial_index":86,"time_elapsed":535896,"internal_node_id":"0.0-4.0-1.37","subject_id":"615de74c022cf6314cf54277","study_id":"60edd13110225f80f9f3709b","session_id":"6196c4a7e43e093fb397eaca","condition":"full-information","relevant_dimensions":["wings","legs"],"bee_group":{"antennae":"X","wings":"2","pattern":"X","legs":"F"},"bonus":1.580000000000001},{"rt":1340.7999999821186,"stimulus":"bees-with-color/bee-B2SM.svg","response":1,"trial_type":"image-button-response","trial_index":87,"time_elapsed":537239,"internal_node_id":"0.0-4.0-0.38","subject_id":"615de74c022cf6314cf54277","study_id":"60edd13110225f80f9f3709b","session_id":"6196c4a7e43e093fb397eaca","condition":"full-information","relevant_dimensions":["wings","legs"],"bee_group":{"antennae":"X","wings":"2","pattern":"X","legs":"F"},"action":"avoid","summary":"bad-avoid","bonus":1.580000000000001},{"rt":1288.800000011921,"stimulus":"\n                    <p><b>Action: <em>avoid</em></b></p>\n                    <p>This is the bee that you just saw.</p>\n                    <img src=\"bees-with-color/bee-B2SM.svg\" width=\"200\">\n                    <p><span class=\"redText\">Bad choice,</span> the bee was friendly.<br>Your bonus pay is unchanged, and remains at $0.90.</p>\n            ","response":0,"trial_type":"html-button-response","trial_index":88,"time_elapsed":538530,"internal_node_id":"0.0-4.0-1.38","subject_id":"615de74c022cf6314cf54277","study_id":"60edd13110225f80f9f3709b","session_id":"6196c4a7e43e093fb397eaca","condition":"full-information","relevant_dimensions":["wings","legs"],"bee_group":{"antennae":"X","wings":"2","pattern":"X","legs":"F"},"bonus":1.580000000000001},{"rt":1540.199999988079,"stimulus":"bees-with-color/bee-A2SM.svg","response":1,"trial_type":"image-button-response","trial_index":89,"time_elapsed":540072,"internal_node_id":"0.0-4.0-0.39","subject_id":"615de74c022cf6314cf54277","study_id":"60edd13110225f80f9f3709b","session_id":"6196c4a7e43e093fb397eaca","condition":"full-information","relevant_dimensions":["wings","legs"],"bee_group":{"antennae":"X","wings":"2","pattern":"X","legs":"F"},"action":"avoid","summary":"bad-avoid","bonus":1.580000000000001},{"rt":1508.699999988079,"stimulus":"\n                    <p><b>Action: <em>avoid</em></b></p>\n                    <p>This is the bee that you just saw.</p>\n                    <img src=\"bees-with-color/bee-A2SM.svg\" width=\"200\">\n                    <p><span class=\"redText\">Bad choice,</span> the bee was friendly.<br>Your bonus pay is unchanged, and remains at $0.90.</p>\n            ","response":0,"trial_type":"html-button-response","trial_index":90,"time_elapsed":541585,"internal_node_id":"0.0-4.0-1.39","subject_id":"615de74c022cf6314cf54277","study_id":"60edd13110225f80f9f3709b","session_id":"6196c4a7e43e093fb397eaca","condition":"full-information","relevant_dimensions":["wings","legs"],"bee_group":{"antennae":"X","wings":"2","pattern":"X","legs":"F"},"bonus":1.580000000000001},{"rt":1576.0999999940395,"stimulus":"bees-with-color/bee-B1SF.svg","response":0,"trial_type":"image-button-response","trial_index":91,"time_elapsed":543163,"internal_node_id":"0.0-4.0-0.40","subject_id":"615de74c022cf6314cf54277","study_id":"60edd13110225f80f9f3709b","session_id":"6196c4a7e43e093fb397eaca","condition":"full-information","relevant_dimensions":["wings","legs"],"bee_group":{"antennae":"X","wings":"2","pattern":"X","legs":"F"},"action":"harvest","summary":"good-harvest","bonus":1.580000000000001},{"rt":1273.800000011921,"stimulus":"\n                    <p><b>Action: <em>harvest</em></b></p>\n                    <p>This is the bee that you just saw.</p>\n                    <img src=\"bees-with-color/bee-B1SF.svg\" width=\"200\">\n                    <p><span class=\"greenText\"><b>Successful harvest!</b></span><br>Your pay has increased by $0.02. Your bonus pay is now $0.92.</p>\n            ","response":0,"trial_type":"html-button-response","trial_index":92,"time_elapsed":544439,"internal_node_id":"0.0-4.0-1.40","subject_id":"615de74c022cf6314cf54277","study_id":"60edd13110225f80f9f3709b","session_id":"6196c4a7e43e093fb397eaca","condition":"full-information","relevant_dimensions":["wings","legs"],"bee_group":{"antennae":"X","wings":"2","pattern":"X","legs":"F"},"bonus":1.580000000000001},{"rt":1562.4000000059605,"stimulus":"bees-with-color/bee-B2DM.svg","response":1,"trial_type":"image-button-response","trial_index":93,"time_elapsed":546003,"internal_node_id":"0.0-4.0-0.41","subject_id":"615de74c022cf6314cf54277","study_id":"60edd13110225f80f9f3709b","session_id":"6196c4a7e43e093fb397eaca","condition":"full-information","relevant_dimensions":["wings","legs"],"bee_group":{"antennae":"X","wings":"2","pattern":"X","legs":"F"},"action":"avoid","summary":"bad-avoid","bonus":1.580000000000001},{"rt":1245.199999988079,"stimulus":"\n                    <p><b>Action: <em>avoid</em></b></p>\n                    <p>This is the bee that you just saw.</p>\n                    <img src=\"bees-with-color/bee-B2DM.svg\" width=\"200\">\n                    <p><span class=\"redText\">Bad choice,</span> the bee was friendly.<br>Your bonus pay is unchanged, and remains at $0.92.</p>\n            ","response":0,"trial_type":"html-button-response","trial_index":94,"time_elapsed":547250,"internal_node_id":"0.0-4.0-1.41","subject_id":"615de74c022cf6314cf54277","study_id":"60edd13110225f80f9f3709b","session_id":"6196c4a7e43e093fb397eaca","condition":"full-information","relevant_dimensions":["wings","legs"],"bee_group":{"antennae":"X","wings":"2","pattern":"X","legs":"F"},"bonus":1.580000000000001},{"rt":1621.2000000178814,"stimulus":"bees-with-color/bee-B2DF.svg","response":1,"trial_type":"image-button-response","trial_index":95,"time_elapsed":548873,"internal_node_id":"0.0-4.0-0.42","subject_id":"615de74c022cf6314cf54277","study_id":"60edd13110225f80f9f3709b","session_id":"6196c4a7e43e093fb397eaca","condition":"full-information","relevant_dimensions":["wings","legs"],"bee_group":{"antennae":"X","wings":"2","pattern":"X","legs":"F"},"action":"avoid","summary":"good-avoid","bonus":1.580000000000001},{"rt":1266.5999999940395,"stimulus":"\n                    <p><b>Action: <em>avoid</em></b></p>\n                    <p>This is the bee that you just saw.</p>\n                    <img src=\"bees-with-color/bee-B2DF.svg\" width=\"200\">\n                    <p><span class=\"greenText\">Good choice!</span>  This bee would have stung you.<br>Your bonus pay is unchanged, and remains at $0.92.</p>\n            ","response":0,"trial_type":"html-button-response","trial_index":96,"time_elapsed":550142,"internal_node_id":"0.0-4.0-1.42","subject_id":"615de74c022cf6314cf54277","study_id":"60edd13110225f80f9f3709b","session_id":"6196c4a7e43e093fb397eaca","condition":"full-information","relevant_dimensions":["wings","legs"],"bee_group":{"antennae":"X","wings":"2","pattern":"X","legs":"F"},"bonus":1.580000000000001},{"rt":1482.5,"stimulus":"bees-with-color/bee-A1DF.svg","response":0,"trial_type":"image-button-response","trial_index":97,"time_elapsed":551626,"internal_node_id":"0.0-4.0-0.43","subject_id":"615de74c022cf6314cf54277","study_id":"60edd13110225f80f9f3709b","session_id":"6196c4a7e43e093fb397eaca","condition":"full-information","relevant_dimensions":["wings","legs"],"bee_group":{"antennae":"X","wings":"2","pattern":"X","legs":"F"},"action":"harvest","summary":"good-harvest","bonus":1.580000000000001},{"rt":1657.7999999821186,"stimulus":"\n                    <p><b>Action: <em>harvest</em></b></p>\n                    <p>This is the bee that you just saw.</p>\n                    <img src=\"bees-with-color/bee-A1DF.svg\" width=\"200\">\n                    <p><span class=\"greenText\"><b>Successful harvest!</b></span><br>Your pay has increased by $0.02. Your bonus pay is now $0.94.</p>\n            ","response":0,"trial_type":"html-button-response","trial_index":98,"time_elapsed":553285,"internal_node_id":"0.0-4.0-1.43","subject_id":"615de74c022cf6314cf54277","study_id":"60edd13110225f80f9f3709b","session_id":"6196c4a7e43e093fb397eaca","condition":"full-information","relevant_dimensions":["wings","legs"],"bee_group":{"antennae":"X","wings":"2","pattern":"X","legs":"F"},"bonus":1.580000000000001},{"rt":1606.800000011921,"stimulus":"bees-with-color/bee-B1DF.svg","response":0,"trial_type":"image-button-response","trial_index":99,"time_elapsed":554893,"internal_node_id":"0.0-4.0-0.44","subject_id":"615de74c022cf6314cf54277","study_id":"60edd13110225f80f9f3709b","session_id":"6196c4a7e43e093fb397eaca","condition":"full-information","relevant_dimensions":["wings","legs"],"bee_group":{"antennae":"X","wings":"2","pattern":"X","legs":"F"},"action":"harvest","summary":"good-harvest","bonus":1.580000000000001},{"rt":1297.9000000059605,"stimulus":"\n                    <p><b>Action: <em>harvest</em></b></p>\n                    <p>This is the bee that you just saw.</p>\n                    <img src=\"bees-with-color/bee-B1DF.svg\" width=\"200\">\n                    <p><span class=\"greenText\"><b>Successful harvest!</b></span><br>Your pay has increased by $0.02. Your bonus pay is now $0.96.</p>\n            ","response":0,"trial_type":"html-button-response","trial_index":100,"time_elapsed":556192,"internal_node_id":"0.0-4.0-1.44","subject_id":"615de74c022cf6314cf54277","study_id":"60edd13110225f80f9f3709b","session_id":"6196c4a7e43e093fb397eaca","condition":"full-information","relevant_dimensions":["wings","legs"],"bee_group":{"antennae":"X","wings":"2","pattern":"X","legs":"F"},"bonus":1.580000000000001},{"rt":6452.5999999940395,"stimulus":"bees-with-color/bee-A2DF.svg","response":1,"trial_type":"image-button-response","trial_index":101,"time_elapsed":562646,"internal_node_id":"0.0-4.0-0.45","subject_id":"615de74c022cf6314cf54277","study_id":"60edd13110225f80f9f3709b","session_id":"6196c4a7e43e093fb397eaca","condition":"full-information","relevant_dimensions":["wings","legs"],"bee_group":{"antennae":"X","wings":"2","pattern":"X","legs":"F"},"action":"avoid","summary":"good-avoid","bonus":1.580000000000001},{"rt":5116.200000017881,"stimulus":"\n                    <p><b>Action: <em>avoid</em></b></p>\n                    <p>This is the bee that you just saw.</p>\n                    <img src=\"bees-with-color/bee-A2DF.svg\" width=\"200\">\n                    <p><span class=\"greenText\">Good choice!</span>  This bee would have stung you.<br>Your bonus pay is unchanged, and remains at $0.96.</p>\n            ","response":0,"trial_type":"html-button-response","trial_index":102,"time_elapsed":567763,"internal_node_id":"0.0-4.0-1.45","subject_id":"615de74c022cf6314cf54277","study_id":"60edd13110225f80f9f3709b","session_id":"6196c4a7e43e093fb397eaca","condition":"full-information","relevant_dimensions":["wings","legs"],"bee_group":{"antennae":"X","wings":"2","pattern":"X","legs":"F"},"bonus":1.580000000000001},{"rt":1938.4000000059605,"stimulus":"bees-with-color/bee-A1SM.svg","response":0,"trial_type":"image-button-response","trial_index":103,"time_elapsed":569704,"internal_node_id":"0.0-4.0-0.46","subject_id":"615de74c022cf6314cf54277","study_id":"60edd13110225f80f9f3709b","session_id":"6196c4a7e43e093fb397eaca","condition":"full-information","relevant_dimensions":["wings","legs"],"bee_group":{"antennae":"X","wings":"2","pattern":"X","legs":"F"},"action":"harvest","summary":"good-harvest","bonus":1.580000000000001},{"rt":1193.5999999940395,"stimulus":"\n                    <p><b>Action: <em>harvest</em></b></p>\n                    <p>This is the bee that you just saw.</p>\n                    <img src=\"bees-with-color/bee-A1SM.svg\" width=\"200\">\n                    <p><span class=\"greenText\"><b>Successful harvest!</b></span><br>Your pay has increased by $0.02. Your bonus pay is now $0.98.</p>\n            ","response":0,"trial_type":"html-button-response","trial_index":104,"time_elapsed":570899,"internal_node_id":"0.0-4.0-1.46","subject_id":"615de74c022cf6314cf54277","study_id":"60edd13110225f80f9f3709b","session_id":"6196c4a7e43e093fb397eaca","condition":"full-information","relevant_dimensions":["wings","legs"],"bee_group":{"antennae":"X","wings":"2","pattern":"X","legs":"F"},"bonus":1.580000000000001},{"rt":4211.0999999940395,"stimulus":"bees-with-color/bee-A2DM.svg","response":1,"trial_type":"image-button-response","trial_index":105,"time_elapsed":575111,"internal_node_id":"0.0-4.0-0.47","subject_id":"615de74c022cf6314cf54277","study_id":"60edd13110225f80f9f3709b","session_id":"6196c4a7e43e093fb397eaca","condition":"full-information","relevant_dimensions":["wings","legs"],"bee_group":{"antennae":"X","wings":"2","pattern":"X","legs":"F"},"action":"avoid","summary":"bad-avoid","bonus":1.580000000000001},{"rt":4195.5,"stimulus":"\n                    <p><b>Action: <em>avoid</em></b></p>\n                    <p>This is the bee that you just saw.</p>\n                    <img src=\"bees-with-color/bee-A2DM.svg\" width=\"200\">\n                    <p><span class=\"redText\">Bad choice,</span> the bee was friendly.<br>Your bonus pay is unchanged, and remains at $0.98.</p>\n            ","response":0,"trial_type":"html-button-response","trial_index":106,"time_elapsed":579309,"internal_node_id":"0.0-4.0-1.47","subject_id":"615de74c022cf6314cf54277","study_id":"60edd13110225f80f9f3709b","session_id":"6196c4a7e43e093fb397eaca","condition":"full-information","relevant_dimensions":["wings","legs"],"bee_group":{"antennae":"X","wings":"2","pattern":"X","legs":"F"},"bonus":1.580000000000001},{"rt":4385.5999999940395,"stimulus":"bees-with-color/bee-A2DM.svg","response":0,"trial_type":"image-button-response","trial_index":107,"time_elapsed":583696,"internal_node_id":"0.0-4.0-0.48","subject_id":"615de74c022cf6314cf54277","study_id":"60edd13110225f80f9f3709b","session_id":"6196c4a7e43e093fb397eaca","condition":"full-information","relevant_dimensions":["wings","legs"],"bee_group":{"antennae":"X","wings":"2","pattern":"X","legs":"F"},"action":"harvest","summary":"good-harvest","bonus":1.580000000000001},{"rt":1997.300000011921,"stimulus":"\n                    <p><b>Action: <em>harvest</em></b></p>\n                    <p>This is the bee that you just saw.</p>\n                    <img src=\"bees-with-color/bee-A2DM.svg\" width=\"200\">\n                    <p><span class=\"greenText\"><b>Successful harvest!</b></span><br>Your pay has increased by $0.02. Your bonus pay is now $1.00.</p>\n            ","response":0,"trial_type":"html-button-response","trial_index":108,"time_elapsed":585695,"internal_node_id":"0.0-4.0-1.48","subject_id":"615de74c022cf6314cf54277","study_id":"60edd13110225f80f9f3709b","session_id":"6196c4a7e43e093fb397eaca","condition":"full-information","relevant_dimensions":["wings","legs"],"bee_group":{"antennae":"X","wings":"2","pattern":"X","legs":"F"},"bonus":1.580000000000001},{"rt":2691,"stimulus":"bees-with-color/bee-B1DM.svg","response":0,"trial_type":"image-button-response","trial_index":109,"time_elapsed":588388,"internal_node_id":"0.0-4.0-0.49","subject_id":"615de74c022cf6314cf54277","study_id":"60edd13110225f80f9f3709b","session_id":"6196c4a7e43e093fb397eaca","condition":"full-information","relevant_dimensions":["wings","legs"],"bee_group":{"antennae":"X","wings":"2","pattern":"X","legs":"F"},"action":"harvest","summary":"good-harvest","bonus":1.580000000000001},{"rt":1465.4000000059605,"stimulus":"\n                    <p><b>Action: <em>harvest</em></b></p>\n                    <p>This is the bee that you just saw.</p>\n                    <img src=\"bees-with-color/bee-B1DM.svg\" width=\"200\">\n                    <p><span class=\"greenText\"><b>Successful harvest!</b></span><br>Your pay has increased by $0.02. Your bonus pay is now $1.02.</p>\n            ","response":0,"trial_type":"html-button-response","trial_index":110,"time_elapsed":589855,"internal_node_id":"0.0-4.0-1.49","subject_id":"615de74c022cf6314cf54277","study_id":"60edd13110225f80f9f3709b","session_id":"6196c4a7e43e093fb397eaca","condition":"full-information","relevant_dimensions":["wings","legs"],"bee_group":{"antennae":"X","wings":"2","pattern":"X","legs":"F"},"bonus":1.580000000000001},{"rt":2307.2999999821186,"stimulus":"bees-with-color/bee-A1DF.svg","response":0,"trial_type":"image-button-response","trial_index":111,"time_elapsed":592164,"internal_node_id":"0.0-4.0-0.50","subject_id":"615de74c022cf6314cf54277","study_id":"60edd13110225f80f9f3709b","session_id":"6196c4a7e43e093fb397eaca","condition":"full-information","relevant_dimensions":["wings","legs"],"bee_group":{"antennae":"X","wings":"2","pattern":"X","legs":"F"},"action":"harvest","summary":"good-harvest","bonus":1.580000000000001},{"rt":1215.9000000059605,"stimulus":"\n                    <p><b>Action: <em>harvest</em></b></p>\n                    <p>This is the bee that you just saw.</p>\n                    <img src=\"bees-with-color/bee-A1DF.svg\" width=\"200\">\n                    <p><span class=\"greenText\"><b>Successful harvest!</b></span><br>Your pay has increased by $0.02. Your bonus pay is now $1.04.</p>\n            ","response":0,"trial_type":"html-button-response","trial_index":112,"time_elapsed":593382,"internal_node_id":"0.0-4.0-1.50","subject_id":"615de74c022cf6314cf54277","study_id":"60edd13110225f80f9f3709b","session_id":"6196c4a7e43e093fb397eaca","condition":"full-information","relevant_dimensions":["wings","legs"],"bee_group":{"antennae":"X","wings":"2","pattern":"X","legs":"F"},"bonus":1.580000000000001},{"rt":3810.2999999821186,"stimulus":"bees-with-color/bee-A2DF.svg","response":0,"trial_type":"image-button-response","trial_index":113,"time_elapsed":597194,"internal_node_id":"0.0-4.0-0.51","subject_id":"615de74c022cf6314cf54277","study_id":"60edd13110225f80f9f3709b","session_id":"6196c4a7e43e093fb397eaca","condition":"full-information","relevant_dimensions":["wings","legs"],"bee_group":{"antennae":"X","wings":"2","pattern":"X","legs":"F"},"action":"harvest","summary":"bad-harvest","bonus":1.580000000000001},{"rt":4594,"stimulus":"\n                    <p><b>Action: <em>harvest</em></b></p>\n                    <p>This is the bee that you just saw.</p>\n                    <img src=\"bees-with-color/bee-A2DF.svg\" width=\"200\">\n                    <p><span class=\"redText\">Bad choice, the bee was angry.</span><br><b>You have been stung!</b><br>Your pay has been decreased by $0.10. Your bonus pay is now $0.94.</p>\n            ","response":0,"trial_type":"html-button-response","trial_index":114,"time_elapsed":601789,"internal_node_id":"0.0-4.0-1.51","subject_id":"615de74c022cf6314cf54277","study_id":"60edd13110225f80f9f3709b","session_id":"6196c4a7e43e093fb397eaca","condition":"full-information","relevant_dimensions":["wings","legs"],"bee_group":{"antennae":"X","wings":"2","pattern":"X","legs":"F"},"bonus":1.580000000000001},{"rt":2565.0999999940395,"stimulus":"bees-with-color/bee-B2DF.svg","response":1,"trial_type":"image-button-response","trial_index":115,"time_elapsed":604357,"internal_node_id":"0.0-4.0-0.52","subject_id":"615de74c022cf6314cf54277","study_id":"60edd13110225f80f9f3709b","session_id":"6196c4a7e43e093fb397eaca","condition":"full-information","relevant_dimensions":["wings","legs"],"bee_group":{"antennae":"X","wings":"2","pattern":"X","legs":"F"},"action":"avoid","summary":"good-avoid","bonus":1.580000000000001},{"rt":6504.4000000059605,"stimulus":"\n                    <p><b>Action: <em>avoid</em></b></p>\n                    <p>This is the bee that you just saw.</p>\n                    <img src=\"bees-with-color/bee-B2DF.svg\" width=\"200\">\n                    <p><span class=\"greenText\">Good choice!</span>  This bee would have stung you.<br>Your bonus pay is unchanged, and remains at $0.94.</p>\n            ","response":0,"trial_type":"html-button-response","trial_index":116,"time_elapsed":610863,"internal_node_id":"0.0-4.0-1.52","subject_id":"615de74c022cf6314cf54277","study_id":"60edd13110225f80f9f3709b","session_id":"6196c4a7e43e093fb397eaca","condition":"full-information","relevant_dimensions":["wings","legs"],"bee_group":{"antennae":"X","wings":"2","pattern":"X","legs":"F"},"bonus":1.580000000000001},{"rt":1560.2000000178814,"stimulus":"bees-with-color/bee-B1SM.svg","response":0,"trial_type":"image-button-response","trial_index":117,"time_elapsed":612426,"internal_node_id":"0.0-4.0-0.53","subject_id":"615de74c022cf6314cf54277","study_id":"60edd13110225f80f9f3709b","session_id":"6196c4a7e43e093fb397eaca","condition":"full-information","relevant_dimensions":["wings","legs"],"bee_group":{"antennae":"X","wings":"2","pattern":"X","legs":"F"},"action":"harvest","summary":"good-harvest","bonus":1.580000000000001},{"rt":1599.199999988079,"stimulus":"\n                    <p><b>Action: <em>harvest</em></b></p>\n                    <p>This is the bee that you just saw.</p>\n                    <img src=\"bees-with-color/bee-B1SM.svg\" width=\"200\">\n                    <p><span class=\"greenText\"><b>Successful harvest!</b></span><br>Your pay has increased by $0.02. Your bonus pay is now $0.96.</p>\n            ","response":0,"trial_type":"html-button-response","trial_index":118,"time_elapsed":614027,"internal_node_id":"0.0-4.0-1.53","subject_id":"615de74c022cf6314cf54277","study_id":"60edd13110225f80f9f3709b","session_id":"6196c4a7e43e093fb397eaca","condition":"full-information","relevant_dimensions":["wings","legs"],"bee_group":{"antennae":"X","wings":"2","pattern":"X","legs":"F"},"bonus":1.580000000000001},{"rt":3420.800000011921,"stimulus":"bees-with-color/bee-A2SM.svg","response":0,"trial_type":"image-button-response","trial_index":119,"time_elapsed":617449,"internal_node_id":"0.0-4.0-0.54","subject_id":"615de74c022cf6314cf54277","study_id":"60edd13110225f80f9f3709b","session_id":"6196c4a7e43e093fb397eaca","condition":"full-information","relevant_dimensions":["wings","legs"],"bee_group":{"antennae":"X","wings":"2","pattern":"X","legs":"F"},"action":"harvest","summary":"good-harvest","bonus":1.580000000000001},{"rt":1444.5,"stimulus":"\n                    <p><b>Action: <em>harvest</em></b></p>\n                    <p>This is the bee that you just saw.</p>\n                    <img src=\"bees-with-color/bee-A2SM.svg\" width=\"200\">\n                    <p><span class=\"greenText\"><b>Successful harvest!</b></span><br>Your pay has increased by $0.02. Your bonus pay is now $0.98.</p>\n            ","response":0,"trial_type":"html-button-response","trial_index":120,"time_elapsed":618894,"internal_node_id":"0.0-4.0-1.54","subject_id":"615de74c022cf6314cf54277","study_id":"60edd13110225f80f9f3709b","session_id":"6196c4a7e43e093fb397eaca","condition":"full-information","relevant_dimensions":["wings","legs"],"bee_group":{"antennae":"X","wings":"2","pattern":"X","legs":"F"},"bonus":1.580000000000001},{"rt":1763.199999988079,"stimulus":"bees-with-color/bee-A1SM.svg","response":0,"trial_type":"image-button-response","trial_index":121,"time_elapsed":620659,"internal_node_id":"0.0-4.0-0.55","subject_id":"615de74c022cf6314cf54277","study_id":"60edd13110225f80f9f3709b","session_id":"6196c4a7e43e093fb397eaca","condition":"full-information","relevant_dimensions":["wings","legs"],"bee_group":{"antennae":"X","wings":"2","pattern":"X","legs":"F"},"action":"harvest","summary":"good-harvest","bonus":1.580000000000001},{"rt":1303.699999988079,"stimulus":"\n                    <p><b>Action: <em>harvest</em></b></p>\n                    <p>This is the bee that you just saw.</p>\n                    <img src=\"bees-with-color/bee-A1SM.svg\" width=\"200\">\n                    <p><span class=\"greenText\"><b>Successful harvest!</b></span><br>Your pay has increased by $0.02. Your bonus pay is now $1.00.</p>\n            ","response":0,"trial_type":"html-button-response","trial_index":122,"time_elapsed":621964,"internal_node_id":"0.0-4.0-1.55","subject_id":"615de74c022cf6314cf54277","study_id":"60edd13110225f80f9f3709b","session_id":"6196c4a7e43e093fb397eaca","condition":"full-information","relevant_dimensions":["wings","legs"],"bee_group":{"antennae":"X","wings":"2","pattern":"X","legs":"F"},"bonus":1.580000000000001},{"rt":5117.0999999940395,"stimulus":"bees-with-color/bee-A2SF.svg","response":1,"trial_type":"image-button-response","trial_index":123,"time_elapsed":627082,"internal_node_id":"0.0-4.0-0.56","subject_id":"615de74c022cf6314cf54277","study_id":"60edd13110225f80f9f3709b","session_id":"6196c4a7e43e093fb397eaca","condition":"full-information","relevant_dimensions":["wings","legs"],"bee_group":{"antennae":"X","wings":"2","pattern":"X","legs":"F"},"action":"avoid","summary":"good-avoid","bonus":1.580000000000001},{"rt":5867.4000000059605,"stimulus":"\n                    <p><b>Action: <em>avoid</em></b></p>\n                    <p>This is the bee that you just saw.</p>\n                    <img src=\"bees-with-color/bee-A2SF.svg\" width=\"200\">\n                    <p><span class=\"greenText\">Good choice!</span>  This bee would have stung you.<br>Your bonus pay is unchanged, and remains at $1.00.</p>\n            ","response":0,"trial_type":"html-button-response","trial_index":124,"time_elapsed":632951,"internal_node_id":"0.0-4.0-1.56","subject_id":"615de74c022cf6314cf54277","study_id":"60edd13110225f80f9f3709b","session_id":"6196c4a7e43e093fb397eaca","condition":"full-information","relevant_dimensions":["wings","legs"],"bee_group":{"antennae":"X","wings":"2","pattern":"X","legs":"F"},"bonus":1.580000000000001},{"rt":2956.5999999940395,"stimulus":"bees-with-color/bee-B2SF.svg","response":1,"trial_type":"image-button-response","trial_index":125,"time_elapsed":635909,"internal_node_id":"0.0-4.0-0.57","subject_id":"615de74c022cf6314cf54277","study_id":"60edd13110225f80f9f3709b","session_id":"6196c4a7e43e093fb397eaca","condition":"full-information","relevant_dimensions":["wings","legs"],"bee_group":{"antennae":"X","wings":"2","pattern":"X","legs":"F"},"action":"avoid","summary":"good-avoid","bonus":1.580000000000001},{"rt":1916,"stimulus":"\n                    <p><b>Action: <em>avoid</em></b></p>\n                    <p>This is the bee that you just saw.</p>\n                    <img src=\"bees-with-color/bee-B2SF.svg\" width=\"200\">\n                    <p><span class=\"greenText\">Good choice!</span>  This bee would have stung you.<br>Your bonus pay is unchanged, and remains at $1.00.</p>\n            ","response":0,"trial_type":"html-button-response","trial_index":126,"time_elapsed":637826,"internal_node_id":"0.0-4.0-1.57","subject_id":"615de74c022cf6314cf54277","study_id":"60edd13110225f80f9f3709b","session_id":"6196c4a7e43e093fb397eaca","condition":"full-information","relevant_dimensions":["wings","legs"],"bee_group":{"antennae":"X","wings":"2","pattern":"X","legs":"F"},"bonus":1.580000000000001},{"rt":3178.2000000178814,"stimulus":"bees-with-color/bee-B2DM.svg","response":1,"trial_type":"image-button-response","trial_index":127,"time_elapsed":641005,"internal_node_id":"0.0-4.0-0.58","subject_id":"615de74c022cf6314cf54277","study_id":"60edd13110225f80f9f3709b","session_id":"6196c4a7e43e093fb397eaca","condition":"full-information","relevant_dimensions":["wings","legs"],"bee_group":{"antennae":"X","wings":"2","pattern":"X","legs":"F"},"action":"avoid","summary":"bad-avoid","bonus":1.580000000000001},{"rt":2505.7000000178814,"stimulus":"\n                    <p><b>Action: <em>avoid</em></b></p>\n                    <p>This is the bee that you just saw.</p>\n                    <img src=\"bees-with-color/bee-B2DM.svg\" width=\"200\">\n                    <p><span class=\"redText\">Bad choice,</span> the bee was friendly.<br>Your bonus pay is unchanged, and remains at $1.00.</p>\n            ","response":0,"trial_type":"html-button-response","trial_index":128,"time_elapsed":643513,"internal_node_id":"0.0-4.0-1.58","subject_id":"615de74c022cf6314cf54277","study_id":"60edd13110225f80f9f3709b","session_id":"6196c4a7e43e093fb397eaca","condition":"full-information","relevant_dimensions":["wings","legs"],"bee_group":{"antennae":"X","wings":"2","pattern":"X","legs":"F"},"bonus":1.580000000000001},{"rt":1554.5,"stimulus":"bees-with-color/bee-B1SF.svg","response":0,"trial_type":"image-button-response","trial_index":129,"time_elapsed":645069,"internal_node_id":"0.0-4.0-0.59","subject_id":"615de74c022cf6314cf54277","study_id":"60edd13110225f80f9f3709b","session_id":"6196c4a7e43e093fb397eaca","condition":"full-information","relevant_dimensions":["wings","legs"],"bee_group":{"antennae":"X","wings":"2","pattern":"X","legs":"F"},"action":"harvest","summary":"good-harvest","bonus":1.580000000000001},{"rt":1260,"stimulus":"\n                    <p><b>Action: <em>harvest</em></b></p>\n                    <p>This is the bee that you just saw.</p>\n                    <img src=\"bees-with-color/bee-B1SF.svg\" width=\"200\">\n                    <p><span class=\"greenText\"><b>Successful harvest!</b></span><br>Your pay has increased by $0.02. Your bonus pay is now $1.02.</p>\n            ","response":0,"trial_type":"html-button-response","trial_index":130,"time_elapsed":646331,"internal_node_id":"0.0-4.0-1.59","subject_id":"615de74c022cf6314cf54277","study_id":"60edd13110225f80f9f3709b","session_id":"6196c4a7e43e093fb397eaca","condition":"full-information","relevant_dimensions":["wings","legs"],"bee_group":{"antennae":"X","wings":"2","pattern":"X","legs":"F"},"bonus":1.580000000000001},{"rt":1451.0999999940395,"stimulus":"bees-with-color/bee-B1DF.svg","response":0,"trial_type":"image-button-response","trial_index":131,"time_elapsed":647783,"internal_node_id":"0.0-4.0-0.60","subject_id":"615de74c022cf6314cf54277","study_id":"60edd13110225f80f9f3709b","session_id":"6196c4a7e43e093fb397eaca","condition":"full-information","relevant_dimensions":["wings","legs"],"bee_group":{"antennae":"X","wings":"2","pattern":"X","legs":"F"},"action":"harvest","summary":"good-harvest","bonus":1.580000000000001},{"rt":1054.1000000238419,"stimulus":"\n                    <p><b>Action: <em>harvest</em></b></p>\n                    <p>This is the bee that you just saw.</p>\n                    <img src=\"bees-with-color/bee-B1DF.svg\" width=\"200\">\n                    <p><span class=\"greenText\"><b>Successful harvest!</b></span><br>Your pay has increased by $0.02. Your bonus pay is now $1.04.</p>\n            ","response":0,"trial_type":"html-button-response","trial_index":132,"time_elapsed":648838,"internal_node_id":"0.0-4.0-1.60","subject_id":"615de74c022cf6314cf54277","study_id":"60edd13110225f80f9f3709b","session_id":"6196c4a7e43e093fb397eaca","condition":"full-information","relevant_dimensions":["wings","legs"],"bee_group":{"antennae":"X","wings":"2","pattern":"X","legs":"F"},"bonus":1.580000000000001},{"rt":2609.4000000059605,"stimulus":"bees-with-color/bee-B2SM.svg","response":0,"trial_type":"image-button-response","trial_index":133,"time_elapsed":651449,"internal_node_id":"0.0-4.0-0.61","subject_id":"615de74c022cf6314cf54277","study_id":"60edd13110225f80f9f3709b","session_id":"6196c4a7e43e093fb397eaca","condition":"full-information","relevant_dimensions":["wings","legs"],"bee_group":{"antennae":"X","wings":"2","pattern":"X","legs":"F"},"action":"harvest","summary":"good-harvest","bonus":1.580000000000001},{"rt":1393.0999999940395,"stimulus":"\n                    <p><b>Action: <em>harvest</em></b></p>\n                    <p>This is the bee that you just saw.</p>\n                    <img src=\"bees-with-color/bee-B2SM.svg\" width=\"200\">\n                    <p><span class=\"greenText\"><b>Successful harvest!</b></span><br>Your pay has increased by $0.02. Your bonus pay is now $1.06.</p>\n            ","response":0,"trial_type":"html-button-response","trial_index":134,"time_elapsed":652843,"internal_node_id":"0.0-4.0-1.61","subject_id":"615de74c022cf6314cf54277","study_id":"60edd13110225f80f9f3709b","session_id":"6196c4a7e43e093fb397eaca","condition":"full-information","relevant_dimensions":["wings","legs"],"bee_group":{"antennae":"X","wings":"2","pattern":"X","legs":"F"},"bonus":1.580000000000001},{"rt":1341.199999988079,"stimulus":"bees-with-color/bee-A1DM.svg","response":0,"trial_type":"image-button-response","trial_index":135,"time_elapsed":654185,"internal_node_id":"0.0-4.0-0.62","subject_id":"615de74c022cf6314cf54277","study_id":"60edd13110225f80f9f3709b","session_id":"6196c4a7e43e093fb397eaca","condition":"full-information","relevant_dimensions":["wings","legs"],"bee_group":{"antennae":"X","wings":"2","pattern":"X","legs":"F"},"action":"harvest","summary":"good-harvest","bonus":1.580000000000001},{"rt":1142.199999988079,"stimulus":"\n                    <p><b>Action: <em>harvest</em></b></p>\n                    <p>This is the bee that you just saw.</p>\n                    <img src=\"bees-with-color/bee-A1DM.svg\" width=\"200\">\n                    <p><span class=\"greenText\"><b>Successful harvest!</b></span><br>Your pay has increased by $0.02. Your bonus pay is now $1.08.</p>\n            ","response":0,"trial_type":"html-button-response","trial_index":136,"time_elapsed":655329,"internal_node_id":"0.0-4.0-1.62","subject_id":"615de74c022cf6314cf54277","study_id":"60edd13110225f80f9f3709b","session_id":"6196c4a7e43e093fb397eaca","condition":"full-information","relevant_dimensions":["wings","legs"],"bee_group":{"antennae":"X","wings":"2","pattern":"X","legs":"F"},"bonus":1.580000000000001},{"rt":1349.7000000178814,"stimulus":"bees-with-color/bee-A1SF.svg","response":0,"trial_type":"image-button-response","trial_index":137,"time_elapsed":656679,"internal_node_id":"0.0-4.0-0.63","subject_id":"615de74c022cf6314cf54277","study_id":"60edd13110225f80f9f3709b","session_id":"6196c4a7e43e093fb397eaca","condition":"full-information","relevant_dimensions":["wings","legs"],"bee_group":{"antennae":"X","wings":"2","pattern":"X","legs":"F"},"action":"harvest","summary":"good-harvest","bonus":1.580000000000001},{"rt":1076,"stimulus":"\n                    <p><b>Action: <em>harvest</em></b></p>\n                    <p>This is the bee that you just saw.</p>\n                    <img src=\"bees-with-color/bee-A1SF.svg\" width=\"200\">\n                    <p><span class=\"greenText\"><b>Successful harvest!</b></span><br>Your pay has increased by $0.02. Your bonus pay is now $1.10.</p>\n            ","response":0,"trial_type":"html-button-response","trial_index":138,"time_elapsed":657756,"internal_node_id":"0.0-4.0-1.63","subject_id":"615de74c022cf6314cf54277","study_id":"60edd13110225f80f9f3709b","session_id":"6196c4a7e43e093fb397eaca","condition":"full-information","relevant_dimensions":["wings","legs"],"bee_group":{"antennae":"X","wings":"2","pattern":"X","legs":"F"},"bonus":1.580000000000001},{"rt":7313.5999999940395,"stimulus":"You have completed the first part of this experiment.<br><br>You will now begin a shorter second part, in which you will receive no feedback.<br>The same rules regarding bonus pay apply.<br><br>Press any key to begin.","response":" ","trial_type":"html-keyboard-response","trial_index":139,"time_elapsed":665071,"internal_node_id":"0.0-5.0","subject_id":"615de74c022cf6314cf54277","study_id":"60edd13110225f80f9f3709b","session_id":"6196c4a7e43e093fb397eaca","condition":"full-information","relevant_dimensions":["wings","legs"],"bee_group":{"antennae":"X","wings":"2","pattern":"X","legs":"F"},"bonus":1.580000000000001},{"rt":2570.300000011921,"stimulus":"bees-with-color/bee-B1DM.svg","response":0,"trial_type":"image-button-response","trial_index":140,"time_elapsed":667651,"internal_node_id":"0.0-6.0-0.0","subject_id":"615de74c022cf6314cf54277","study_id":"60edd13110225f80f9f3709b","session_id":"6196c4a7e43e093fb397eaca","condition":"full-information","relevant_dimensions":["wings","legs"],"bee_group":{"antennae":"X","wings":"2","pattern":"X","legs":"F"},"bonus":1.580000000000001},{"rt":2172.5999999940395,"stimulus":"bees-with-color/bee-A1DM.svg","response":0,"trial_type":"image-button-response","trial_index":141,"time_elapsed":669826,"internal_node_id":"0.0-6.0-0.1","subject_id":"615de74c022cf6314cf54277","study_id":"60edd13110225f80f9f3709b","session_id":"6196c4a7e43e093fb397eaca","condition":"full-information","relevant_dimensions":["wings","legs"],"bee_group":{"antennae":"X","wings":"2","pattern":"X","legs":"F"},"bonus":1.580000000000001},{"rt":1561.5999999940395,"stimulus":"bees-with-color/bee-A2SM.svg","response":0,"trial_type":"image-button-response","trial_index":142,"time_elapsed":671389,"internal_node_id":"0.0-6.0-0.2","subject_id":"615de74c022cf6314cf54277","study_id":"60edd13110225f80f9f3709b","session_id":"6196c4a7e43e093fb397eaca","condition":"full-information","relevant_dimensions":["wings","legs"],"bee_group":{"antennae":"X","wings":"2","pattern":"X","legs":"F"},"bonus":1.580000000000001},{"rt":2062.7000000178814,"stimulus":"bees-with-color/bee-B2SM.svg","response":0,"trial_type":"image-button-response","trial_index":143,"time_elapsed":673453,"internal_node_id":"0.0-6.0-0.3","subject_id":"615de74c022cf6314cf54277","study_id":"60edd13110225f80f9f3709b","session_id":"6196c4a7e43e093fb397eaca","condition":"full-information","relevant_dimensions":["wings","legs"],"bee_group":{"antennae":"X","wings":"2","pattern":"X","legs":"F"},"bonus":1.580000000000001},{"rt":1797.2000000178814,"stimulus":"bees-with-color/bee-B2SF.svg","response":1,"trial_type":"image-button-response","trial_index":144,"time_elapsed":675252,"internal_node_id":"0.0-6.0-0.4","subject_id":"615de74c022cf6314cf54277","study_id":"60edd13110225f80f9f3709b","session_id":"6196c4a7e43e093fb397eaca","condition":"full-information","relevant_dimensions":["wings","legs"],"bee_group":{"antennae":"X","wings":"2","pattern":"X","legs":"F"},"bonus":1.580000000000001},{"rt":2861.699999988079,"stimulus":"bees-with-color/bee-A2DF.svg","response":1,"trial_type":"image-button-response","trial_index":145,"time_elapsed":678115,"internal_node_id":"0.0-6.0-0.5","subject_id":"615de74c022cf6314cf54277","study_id":"60edd13110225f80f9f3709b","session_id":"6196c4a7e43e093fb397eaca","condition":"full-information","relevant_dimensions":["wings","legs"],"bee_group":{"antennae":"X","wings":"2","pattern":"X","legs":"F"},"bonus":1.580000000000001},{"rt":1716.7999999821186,"stimulus":"bees-with-color/bee-A2DM.svg","response":0,"trial_type":"image-button-response","trial_index":146,"time_elapsed":679834,"internal_node_id":"0.0-6.0-0.6","subject_id":"615de74c022cf6314cf54277","study_id":"60edd13110225f80f9f3709b","session_id":"6196c4a7e43e093fb397eaca","condition":"full-information","relevant_dimensions":["wings","legs"],"bee_group":{"antennae":"X","wings":"2","pattern":"X","legs":"F"},"bonus":1.580000000000001},{"rt":1892.5,"stimulus":"bees-with-color/bee-A1DF.svg","response":0,"trial_type":"image-button-response","trial_index":147,"time_elapsed":681728,"internal_node_id":"0.0-6.0-0.7","subject_id":"615de74c022cf6314cf54277","study_id":"60edd13110225f80f9f3709b","session_id":"6196c4a7e43e093fb397eaca","condition":"full-information","relevant_dimensions":["wings","legs"],"bee_group":{"antennae":"X","wings":"2","pattern":"X","legs":"F"},"bonus":1.580000000000001},{"rt":1819.199999988079,"stimulus":"bees-with-color/bee-B2DF.svg","response":1,"trial_type":"image-button-response","trial_index":148,"time_elapsed":683549,"internal_node_id":"0.0-6.0-0.8","subject_id":"615de74c022cf6314cf54277","study_id":"60edd13110225f80f9f3709b","session_id":"6196c4a7e43e093fb397eaca","condition":"full-information","relevant_dimensions":["wings","legs"],"bee_group":{"antennae":"X","wings":"2","pattern":"X","legs":"F"},"bonus":1.580000000000001},{"rt":1435.8999999761581,"stimulus":"bees-with-color/bee-A2SF.svg","response":1,"trial_type":"image-button-response","trial_index":149,"time_elapsed":684987,"internal_node_id":"0.0-6.0-0.9","subject_id":"615de74c022cf6314cf54277","study_id":"60edd13110225f80f9f3709b","session_id":"6196c4a7e43e093fb397eaca","condition":"full-information","relevant_dimensions":["wings","legs"],"bee_group":{"antennae":"X","wings":"2","pattern":"X","legs":"F"},"bonus":1.580000000000001},{"rt":1502.7000000178814,"stimulus":"bees-with-color/bee-B1DF.svg","response":0,"trial_type":"image-button-response","trial_index":150,"time_elapsed":686491,"internal_node_id":"0.0-6.0-0.10","subject_id":"615de74c022cf6314cf54277","study_id":"60edd13110225f80f9f3709b","session_id":"6196c4a7e43e093fb397eaca","condition":"full-information","relevant_dimensions":["wings","legs"],"bee_group":{"antennae":"X","wings":"2","pattern":"X","legs":"F"},"bonus":1.580000000000001},{"rt":1457.699999988079,"stimulus":"bees-with-color/bee-B2DM.svg","response":0,"trial_type":"image-button-response","trial_index":151,"time_elapsed":687951,"internal_node_id":"0.0-6.0-0.11","subject_id":"615de74c022cf6314cf54277","study_id":"60edd13110225f80f9f3709b","session_id":"6196c4a7e43e093fb397eaca","condition":"full-information","relevant_dimensions":["wings","legs"],"bee_group":{"antennae":"X","wings":"2","pattern":"X","legs":"F"},"bonus":1.580000000000001},{"rt":955.8000000119209,"stimulus":"bees-with-color/bee-A1SM.svg","response":0,"trial_type":"image-button-response","trial_index":152,"time_elapsed":688909,"internal_node_id":"0.0-6.0-0.12","subject_id":"615de74c022cf6314cf54277","study_id":"60edd13110225f80f9f3709b","session_id":"6196c4a7e43e093fb397eaca","condition":"full-information","relevant_dimensions":["wings","legs"],"bee_group":{"antennae":"X","wings":"2","pattern":"X","legs":"F"},"bonus":1.580000000000001},{"rt":808.7000000178814,"stimulus":"bees-with-color/bee-B1SF.svg","response":0,"trial_type":"image-button-response","trial_index":153,"time_elapsed":689721,"internal_node_id":"0.0-6.0-0.13","subject_id":"615de74c022cf6314cf54277","study_id":"60edd13110225f80f9f3709b","session_id":"6196c4a7e43e093fb397eaca","condition":"full-information","relevant_dimensions":["wings","legs"],"bee_group":{"antennae":"X","wings":"2","pattern":"X","legs":"F"},"bonus":1.580000000000001},{"rt":808.2999999821186,"stimulus":"bees-with-color/bee-A1SF.svg","response":0,"trial_type":"image-button-response","trial_index":154,"time_elapsed":690531,"internal_node_id":"0.0-6.0-0.14","subject_id":"615de74c022cf6314cf54277","study_id":"60edd13110225f80f9f3709b","session_id":"6196c4a7e43e093fb397eaca","condition":"full-information","relevant_dimensions":["wings","legs"],"bee_group":{"antennae":"X","wings":"2","pattern":"X","legs":"F"},"bonus":1.580000000000001},{"rt":949.4000000059605,"stimulus":"bees-with-color/bee-B1SM.svg","response":0,"trial_type":"image-button-response","trial_index":155,"time_elapsed":691483,"internal_node_id":"0.0-6.0-0.15","subject_id":"615de74c022cf6314cf54277","study_id":"60edd13110225f80f9f3709b","session_id":"6196c4a7e43e093fb397eaca","condition":"full-information","relevant_dimensions":["wings","legs"],"bee_group":{"antennae":"X","wings":"2","pattern":"X","legs":"F"},"bonus":1.580000000000001},{"rt":1730.699999988079,"stimulus":"bees-with-color/bee-B2DF.svg","response":1,"trial_type":"image-button-response","trial_index":156,"time_elapsed":693215,"internal_node_id":"0.0-6.0-0.16","subject_id":"615de74c022cf6314cf54277","study_id":"60edd13110225f80f9f3709b","session_id":"6196c4a7e43e093fb397eaca","condition":"full-information","relevant_dimensions":["wings","legs"],"bee_group":{"antennae":"X","wings":"2","pattern":"X","legs":"F"},"bonus":1.580000000000001},{"rt":1377.8000000