[{"success":true,"trial_type":"fullscreen","trial_index":0,"time_elapsed":2551,"internal_node_id":"0.0-0.0","subject_id":"5aa429f7b5e2110001c726db","study_id":"6197b3f67c2b5cd3b6d9596a","session_id":"6197b9f1755fa2d7a0390437","condition":"full-information","relevant_dimensions":["pattern","legs"],"bee_group":{"antennae":"X","wings":"X","pattern":"D","legs":"M"},"bonus":1.6200000000000012},{"success":true,"timeout":false,"failed_images":[],"failed_audio":[],"failed_video":[],"trial_type":"preload","trial_index":1,"time_elapsed":4854,"internal_node_id":"0.0-1.0","subject_id":"5aa429f7b5e2110001c726db","study_id":"6197b3f67c2b5cd3b6d9596a","session_id":"6197b9f1755fa2d7a0390437","condition":"full-information","relevant_dimensions":["pattern","legs"],"bee_group":{"antennae":"X","wings":"X","pattern":"D","legs":"M"},"bonus":1.6200000000000012},{"rt":3336.5,"stimulus":"Welcome! Press any key to begin.","response":" ","trial_type":"html-keyboard-response","trial_index":2,"time_elapsed":8192,"internal_node_id":"0.0-2.0","subject_id":"5aa429f7b5e2110001c726db","study_id":"6197b3f67c2b5cd3b6d9596a","session_id":"6197b9f1755fa2d7a0390437","condition":"full-information","relevant_dimensions":["pattern","legs"],"bee_group":{"antennae":"X","wings":"X","pattern":"D","legs":"M"},"bonus":1.6200000000000012},{"view_history":[{"page_index":0,"viewing_time":3303},{"page_index":1,"viewing_time":14073.699999988079},{"page_index":2,"viewing_time":9849.90000000596},{"page_index":3,"viewing_time":10750.300000011921},{"page_index":4,"viewing_time":5639.799999982119},{"page_index":5,"viewing_time":4397.800000011921},{"page_index":6,"viewing_time":8004},{"page_index":7,"viewing_time":4611.699999988079},{"page_index":8,"viewing_time":4083.4000000059605},{"page_index":9,"viewing_time":2575.5999999940395},{"page_index":10,"viewing_time":2796.0999999940395},{"page_index":11,"viewing_time":7611.5},{"page_index":12,"viewing_time":7240.300000011921},{"page_index":13,"viewing_time":1607.800000011921},{"page_index":14,"viewing_time":2104.5}],"rt":88649.69999998808,"trial_type":"instructions","trial_index":3,"time_elapsed":96843,"internal_node_id":"0.0-3.0-0.0","subject_id":"5aa429f7b5e2110001c726db","study_id":"6197b3f67c2b5cd3b6d9596a","session_id":"6197b9f1755fa2d7a0390437","condition":"full-information","relevant_dimensions":["pattern","legs"],"bee_group":{"antennae":"X","wings":"X","pattern":"D","legs":"M"},"bonus":1.6200000000000012},{"rt":11551.199999988079,"response":{"Q0":["Two or six legs","Stripes or spots on body","Single or double wings","Antennae or no antennae"]},"question_order":[0],"trial_type":"survey-multi-select","trial_index":4,"time_elapsed":108399,"internal_node_id":"0.0-3.0-1.0","subject_id":"5aa429f7b5e2110001c726db","study_id":"6197b3f67c2b5cd3b6d9596a","session_id":"6197b9f1755fa2d7a0390437","condition":"full-information","relevant_dimensions":["pattern","legs"],"bee_group":{"antennae":"X","wings":"X","pattern":"D","legs":"M"},"correct":true,"bonus":1.6200000000000012},{"rt":17254.20000001788,"response":{"Q1":"No.","Q2":"Based on the four features of the bee.","Q3":"You learn if it was friendly or dangerous, but do not alter your bonus."},"question_order":[0,1,2],"trial_type":"survey-multi-choice","trial_index":5,"time_elapsed":125655,"internal_node_id":"0.0-3.0-2.0","subject_id":"5aa429f7b5e2110001c726db","study_id":"6197b3f67c2b5cd3b6d9596a","session_id":"6197b9f1755fa2d7a0390437","condition":"full-information","relevant_dimensions":["pattern","legs"],"bee_group":{"antennae":"X","wings":"X","pattern":"D","legs":"M"},"correct":true,"bonus":1.6200000000000012},{"rt":1897.6000000238419,"stimulus":"<p>Congrats, you got everything right<br>When you're ready, click the button below to continue to the experiment.</p>","response":0,"trial_type":"html-button-response","trial_index":6,"time_elapsed":127555,"internal_node_id":"0.0-3.0-3.0","subject_id":"5aa429f7b5e2110001c726db","study_id":"6197b3f67c2b5cd3b6d9596a","session_id":"6197b9f1755fa2d7a0390437","condition":"full-information","relevant_dimensions":["pattern","legs"],"bee_group":{"antennae":"X","wings":"X","pattern":"D","legs":"M"},"bonus":1.6200000000000012},{"rt":4519.5,"stimulus":"bees-with-color/bee-A1DM.svg","response":0,"trial_type":"image-button-response","trial_index":7,"time_elapsed":132077,"internal_node_id":"0.0-4.0-0.0","subject_id":"5aa429f7b5e2110001c726db","study_id":"6197b3f67c2b5cd3b6d9596a","session_id":"6197b9f1755fa2d7a0390437","condition":"full-information","relevant_dimensions":["pattern","legs"],"bee_group":{"antennae":"X","wings":"X","pattern":"D","legs":"M"},"action":"harvest","summary":"bad-harvest","bonus":1.6200000000000012},{"rt":14849.90000000596,"stimulus":"\n                    <p><b>Action: <em>harvest</em></b></p>\n                    <p>This is the bee that you just saw.</p>\n                    <img src=\"bees-with-color/bee-A1DM.svg\" width=\"200\">\n                    <p><span class=\"redText\">Bad choice, the bee was angry.</span><br><b>You have been stung!</b><br>Your pay has been decreased by $0.10. Your bonus pay is now $0.44.</p>\n            ","response":0,"trial_type":"html-button-response","trial_index":8,"time_elapsed":146929,"internal_node_id":"0.0-4.0-1.0","subject_id":"5aa429f7b5e2110001c726db","study_id":"6197b3f67c2b5cd3b6d9596a","session_id":"6197b9f1755fa2d7a0390437","condition":"full-information","relevant_dimensions":["pattern","legs"],"bee_group":{"antennae":"X","wings":"X","pattern":"D","legs":"M"},"bonus":1.6200000000000012},{"rt":2104.2000000178814,"stimulus":"bees-with-color/bee-B2SM.svg","response":0,"trial_type":"image-button-response","trial_index":9,"time_elapsed":149036,"internal_node_id":"0.0-4.0-0.1","subject_id":"5aa429f7b5e2110001c726db","study_id":"6197b3f67c2b5cd3b6d9596a","session_id":"6197b9f1755fa2d7a0390437","condition":"full-information","relevant_dimensions":["pattern","legs"],"bee_group":{"antennae":"X","wings":"X","pattern":"D","legs":"M"},"action":"harvest","summary":"good-harvest","bonus":1.6200000000000012},{"rt":3712.699999988079,"stimulus":"\n                    <p><b>Action: <em>harvest</em></b></p>\n                    <p>This is the bee that you just saw.</p>\n                    <img src=\"bees-with-color/bee-B2SM.svg\" width=\"200\">\n                    <p><span class=\"greenText\"><b>Successful harvest!</b></span><br>Your pay has increased by $0.02. Your bonus pay is now $0.46.</p>\n            ","response":0,"trial_type":"html-button-response","trial_index":10,"time_elapsed":152750,"internal_node_id":"0.0-4.0-1.1","subject_id":"5aa429f7b5e2110001c726db","study_id":"6197b3f67c2b5cd3b6d9596a","session_id":"6197b9f1755fa2d7a0390437","condition":"full-information","relevant_dimensions":["pattern","legs"],"bee_group":{"antennae":"X","wings":"X","pattern":"D","legs":"M"},"bonus":1.6200000000000012},{"rt":2116.300000011921,"stimulus":"bees-with-color/bee-A2SM.svg","response":0,"trial_type":"image-button-response","trial_index":11,"time_elapsed":154868,"internal_node_id":"0.0-4.0-0.2","subject_id":"5aa429f7b5e2110001c726db","study_id":"6197b3f67c2b5cd3b6d9596a","session_id":"6197b9f1755fa2d7a0390437","condition":"full-information","relevant_dimensions":["pattern","legs"],"bee_group":{"antennae":"X","wings":"X","pattern":"D","legs":"M"},"action":"harvest","summary":"good-harvest","bonus":1.6200000000000012},{"rt":1309.9000000059605,"stimulus":"\n                    <p><b>Action: <em>harvest</em></b></p>\n                    <p>This is the bee that you just saw.</p>\n                    <img src=\"bees-with-color/bee-A2SM.svg\" width=\"200\">\n                    <p><span class=\"greenText\"><b>Successful harvest!</b></span><br>Your pay has increased by $0.02. Your bonus pay is now $0.48.</p>\n            ","response":0,"trial_type":"html-button-response","trial_index":12,"time_elapsed":156180,"internal_node_id":"0.0-4.0-1.2","subject_id":"5aa429f7b5e2110001c726db","study_id":"6197b3f67c2b5cd3b6d9596a","session_id":"6197b9f1755fa2d7a0390437","condition":"full-information","relevant_dimensions":["pattern","legs"],"bee_group":{"antennae":"X","wings":"X","pattern":"D","legs":"M"},"bonus":1.6200000000000012},{"rt":1703.300000011921,"stimulus":"bees-with-color/bee-A2DM.svg","response":0,"trial_type":"image-button-response","trial_index":13,"time_elapsed":157884,"internal_node_id":"0.0-4.0-0.3","subject_id":"5aa429f7b5e2110001c726db","study_id":"6197b3f67c2b5cd3b6d9596a","session_id":"6197b9f1755fa2d7a0390437","condition":"full-information","relevant_dimensions":["pattern","legs"],"bee_group":{"antennae":"X","wings":"X","pattern":"D","legs":"M"},"action":"harvest","summary":"bad-harvest","bonus":1.6200000000000012},{"rt":2720,"stimulus":"\n                    <p><b>Action: <em>harvest</em></b></p>\n                    <p>This is the bee that you just saw.</p>\n                    <img src=\"bees-with-color/bee-A2DM.svg\" width=\"200\">\n                    <p><span class=\"redText\">Bad choice, the bee was angry.</span><br><b>You have been stung!</b><br>Your pay has been decreased by $0.10. Your bonus pay is now $0.38.</p>\n            ","response":0,"trial_type":"html-button-response","trial_index":14,"time_elapsed":160605,"internal_node_id":"0.0-4.0-1.3","subject_id":"5aa429f7b5e2110001c726db","study_id":"6197b3f67c2b5cd3b6d9596a","session_id":"6197b9f1755fa2d7a0390437","condition":"full-information","relevant_dimensions":["pattern","legs"],"bee_group":{"antennae":"X","wings":"X","pattern":"D","legs":"M"},"bonus":1.6200000000000012},{"rt":2111.5999999940395,"stimulus":"bees-with-color/bee-A2SF.svg","response":0,"trial_type":"image-button-response","trial_index":15,"time_elapsed":162718,"internal_node_id":"0.0-4.0-0.4","subject_id":"5aa429f7b5e2110001c726db","study_id":"6197b3f67c2b5cd3b6d9596a","session_id":"6197b9f1755fa2d7a0390437","condition":"full-information","relevant_dimensions":["pattern","legs"],"bee_group":{"antennae":"X","wings":"X","pattern":"D","legs":"M"},"action":"harvest","summary":"good-harvest","bonus":1.6200000000000012},{"rt":1097.0999999940395,"stimulus":"\n                    <p><b>Action: <em>harvest</em></b></p>\n                    <p>This is the bee that you just saw.</p>\n                    <img src=\"bees-with-color/bee-A2SF.svg\" width=\"200\">\n                    <p><span class=\"greenText\"><b>Successful harvest!</b></span><br>Your pay has increased by $0.02. Your bonus pay is now $0.40.</p>\n            ","response":0,"trial_type":"html-button-response","trial_index":16,"time_elapsed":163817,"internal_node_id":"0.0-4.0-1.4","subject_id":"5aa429f7b5e2110001c726db","study_id":"6197b3f67c2b5cd3b6d9596a","session_id":"6197b9f1755fa2d7a0390437","condition":"full-information","relevant_dimensions":["pattern","legs"],"bee_group":{"antennae":"X","wings":"X","pattern":"D","legs":"M"},"bonus":1.6200000000000012},{"rt":1503.5999999940395,"stimulus":"bees-with-color/bee-A2DF.svg","response":1,"trial_type":"image-button-response","trial_index":17,"time_elapsed":165322,"internal_node_id":"0.0-4.0-0.5","subject_id":"5aa429f7b5e2110001c726db","study_id":"6197b3f67c2b5cd3b6d9596a","session_id":"6197b9f1755fa2d7a0390437","condition":"full-information","relevant_dimensions":["pattern","legs"],"bee_group":{"antennae":"X","wings":"X","pattern":"D","legs":"M"},"action":"avoid","summary":"bad-avoid","bonus":1.6200000000000012},{"rt":5567.9000000059605,"stimulus":"\n                    <p><b>Action: <em>avoid</em></b></p>\n                    <p>This is the bee that you just saw.</p>\n                    <img src=\"bees-with-color/bee-A2DF.svg\" width=\"200\">\n                    <p><span class=\"redText\">Bad choice,</span> the bee was friendly.<br>Your bonus pay is unchanged, and remains at $0.40.</p>\n            ","response":0,"trial_type":"html-button-response","trial_index":18,"time_elapsed":170891,"internal_node_id":"0.0-4.0-1.5","subject_id":"5aa429f7b5e2110001c726db","study_id":"6197b3f67c2b5cd3b6d9596a","session_id":"6197b9f1755fa2d7a0390437","condition":"full-information","relevant_dimensions":["pattern","legs"],"bee_group":{"antennae":"X","wings":"X","pattern":"D","legs":"M"},"bonus":1.6200000000000012},{"rt":1948.2000000178814,"stimulus":"bees-with-color/bee-B1SF.svg","response":0,"trial_type":"image-button-response","trial_index":19,"time_elapsed":172842,"internal_node_id":"0.0-4.0-0.6","subject_id":"5aa429f7b5e2110001c726db","study_id":"6197b3f67c2b5cd3b6d9596a","session_id":"6197b9f1755fa2d7a0390437","condition":"full-information","relevant_dimensions":["pattern","legs"],"bee_group":{"antennae":"X","wings":"X","pattern":"D","legs":"M"},"action":"harvest","summary":"good-harvest","bonus":1.6200000000000012},{"rt":2290.7999999821186,"stimulus":"\n                    <p><b>Action: <em>harvest</em></b></p>\n                    <p>This is the bee that you just saw.</p>\n                    <img src=\"bees-with-color/bee-B1SF.svg\" width=\"200\">\n                    <p><span class=\"greenText\"><b>Successful harvest!</b></span><br>Your pay has increased by $0.02. Your bonus pay is now $0.42.</p>\n            ","response":0,"trial_type":"html-button-response","trial_index":20,"time_elapsed":175134,"internal_node_id":"0.0-4.0-1.6","subject_id":"5aa429f7b5e2110001c726db","study_id":"6197b3f67c2b5cd3b6d9596a","session_id":"6197b9f1755fa2d7a0390437","condition":"full-information","relevant_dimensions":["pattern","legs"],"bee_group":{"antennae":"X","wings":"X","pattern":"D","legs":"M"},"bonus":1.6200000000000012},{"rt":2606.800000011921,"stimulus":"bees-with-color/bee-B1DF.svg","response":1,"trial_type":"image-button-response","trial_index":21,"time_elapsed":177742,"internal_node_id":"0.0-4.0-0.7","subject_id":"5aa429f7b5e2110001c726db","study_id":"6197b3f67c2b5cd3b6d9596a","session_id":"6197b9f1755fa2d7a0390437","condition":"full-information","relevant_dimensions":["pattern","legs"],"bee_group":{"antennae":"X","wings":"X","pattern":"D","legs":"M"},"action":"avoid","summary":"bad-avoid","bonus":1.6200000000000012},{"rt":3752.9000000059605,"stimulus":"\n                    <p><b>Action: <em>avoid</em></b></p>\n                    <p>This is the bee that you just saw.</p>\n                    <img src=\"bees-with-color/bee-B1DF.svg\" width=\"200\">\n                    <p><span class=\"redText\">Bad choice,</span> the bee was friendly.<br>Your bonus pay is unchanged, and remains at $0.42.</p>\n            ","response":0,"trial_type":"html-button-response","trial_index":22,"time_elapsed":181496,"internal_node_id":"0.0-4.0-1.7","subject_id":"5aa429f7b5e2110001c726db","study_id":"6197b3f67c2b5cd3b6d9596a","session_id":"6197b9f1755fa2d7a0390437","condition":"full-information","relevant_dimensions":["pattern","legs"],"bee_group":{"antennae":"X","wings":"X","pattern":"D","legs":"M"},"bonus":1.6200000000000012},{"rt":1771.5,"stimulus":"bees-with-color/bee-B1DM.svg","response":1,"trial_type":"image-button-response","trial_index":23,"time_elapsed":183270,"internal_node_id":"0.0-4.0-0.8","subject_id":"5aa429f7b5e2110001c726db","study_id":"6197b3f67c2b5cd3b6d9596a","session_id":"6197b9f1755fa2d7a0390437","condition":"full-information","relevant_dimensions":["pattern","legs"],"bee_group":{"antennae":"X","wings":"X","pattern":"D","legs":"M"},"action":"avoid","summary":"good-avoid","bonus":1.6200000000000012},{"rt":4907.799999982119,"stimulus":"\n                    <p><b>Action: <em>avoid</em></b></p>\n                    <p>This is the bee that you just saw.</p>\n                    <img src=\"bees-with-color/bee-B1DM.svg\" width=\"200\">\n                    <p><span class=\"greenText\">Good choice!</span>  This bee would have stung you.<br>Your bonus pay is unchanged, and remains at $0.42.</p>\n            ","response":0,"trial_type":"html-button-response","trial_index":24,"time_elapsed":188179,"internal_node_id":"0.0-4.0-1.8","subject_id":"5aa429f7b5e2110001c726db","study_id":"6197b3f67c2b5cd3b6d9596a","session_id":"6197b9f1755fa2d7a0390437","condition":"full-information","relevant_dimensions":["pattern","legs"],"bee_group":{"antennae":"X","wings":"X","pattern":"D","legs":"M"},"bonus":1.6200000000000012},{"rt":3325.0999999940395,"stimulus":"bees-with-color/bee-B2DM.svg","response":1,"trial_type":"image-button-response","trial_index":25,"time_elapsed":191506,"internal_node_id":"0.0-4.0-0.9","subject_id":"5aa429f7b5e2110001c726db","study_id":"6197b3f67c2b5cd3b6d9596a","session_id":"6197b9f1755fa2d7a0390437","condition":"full-information","relevant_dimensions":["pattern","legs"],"bee_group":{"antennae":"X","wings":"X","pattern":"D","legs":"M"},"action":"avoid","summary":"good-avoid","bonus":1.6200000000000012},{"rt":3772.5999999940395,"stimulus":"\n                    <p><b>Action: <em>avoid</em></b></p>\n                    <p>This is the bee that you just saw.</p>\n                    <img src=\"bees-with-color/bee-B2DM.svg\" width=\"200\">\n                    <p><span class=\"greenText\">Good choice!</span>  This bee would have stung you.<br>Your bonus pay is unchanged, and remains at $0.42.</p>\n            ","response":0,"trial_type":"html-button-response","trial_index":26,"time_elapsed":195280,"internal_node_id":"0.0-4.0-1.9","subject_id":"5aa429f7b5e2110001c726db","study_id":"6197b3f67c2b5cd3b6d9596a","session_id":"6197b9f1755fa2d7a0390437","condition":"full-information","relevant_dimensions":["pattern","legs"],"bee_group":{"antennae":"X","wings":"X","pattern":"D","legs":"M"},"bonus":1.6200000000000012},{"rt":1623.9000000059605,"stimulus":"bees-with-color/bee-B2DF.svg","response":1,"trial_type":"image-button-response","trial_index":27,"time_elapsed":196906,"internal_node_id":"0.0-4.0-0.10","subject_id":"5aa429f7b5e2110001c726db","study_id":"6197b3f67c2b5cd3b6d9596a","session_id":"6197b9f1755fa2d7a0390437","condition":"full-information","relevant_dimensions":["pattern","legs"],"bee_group":{"antennae":"X","wings":"X","pattern":"D","legs":"M"},"action":"avoid","summary":"bad-avoid","bonus":1.6200000000000012},{"rt":1368.9000000059605,"stimulus":"\n                    <p><b>Action: <em>avoid</em></b></p>\n                    <p>This is the bee that you just saw.</p>\n                    <img src=\"bees-with-color/bee-B2DF.svg\" width=\"200\">\n                    <p><span class=\"redText\">Bad choice,</span> the bee was friendly.<br>Your bonus pay is unchanged, and remains at $0.42.</p>\n            ","response":0,"trial_type":"html-button-response","trial_index":28,"time_elapsed":198276,"internal_node_id":"0.0-4.0-1.10","subject_id":"5aa429f7b5e2110001c726db","study_id":"6197b3f67c2b5cd3b6d9596a","session_id":"6197b9f1755fa2d7a0390437","condition":"full-information","relevant_dimensions":["pattern","legs"],"bee_group":{"antennae":"X","wings":"X","pattern":"D","legs":"M"},"bonus":1.6200000000000012},{"rt":1706.6000000238419,"stimulus":"bees-with-color/bee-B1SM.svg","response":0,"trial_type":"image-button-response","trial_index":29,"time_elapsed":199984,"internal_node_id":"0.0-4.0-0.11","subject_id":"5aa429f7b5e2110001c726db","study_id":"6197b3f67c2b5cd3b6d9596a","session_id":"6197b9f1755fa2d7a0390437","condition":"full-information","relevant_dimensions":["pattern","legs"],"bee_group":{"antennae":"X","wings":"X","pattern":"D","legs":"M"},"action":"harvest","summary":"good-harvest","bonus":1.6200000000000012},{"rt":1147.4000000059605,"stimulus":"\n                    <p><b>Action: <em>harvest</em></b></p>\n                    <p>This is the bee that you just saw.</p>\n                    <img src=\"bees-with-color/bee-B1SM.svg\" width=\"200\">\n                    <p><span class=\"greenText\"><b>Successful harvest!</b></span><br>Your pay has increased by $0.02. Your bonus pay is now $0.44.</p>\n            ","response":0,"trial_type":"html-button-response","trial_index":30,"time_elapsed":201133,"internal_node_id":"0.0-4.0-1.11","subject_id":"5aa429f7b5e2110001c726db","study_id":"6197b3f67c2b5cd3b6d9596a","session_id":"6197b9f1755fa2d7a0390437","condition":"full-information","relevant_dimensions":["pattern","legs"],"bee_group":{"antennae":"X","wings":"X","pattern":"D","legs":"M"},"bonus":1.6200000000000012},{"rt":1368,"stimulus":"bees-with-color/bee-B2SF.svg","response":0,"trial_type":"image-button-response","trial_index":31,"time_elapsed":202502,"internal_node_id":"0.0-4.0-0.12","subject_id":"5aa429f7b5e2110001c726db","study_id":"6197b3f67c2b5cd3b6d9596a","session_id":"6197b9f1755fa2d7a0390437","condition":"full-information","relevant_dimensions":["pattern","legs"],"bee_group":{"antennae":"X","wings":"X","pattern":"D","legs":"M"},"action":"harvest","summary":"good-harvest","bonus":1.6200000000000012},{"rt":916.5999999940395,"stimulus":"\n                    <p><b>Action: <em>harvest</em></b></p>\n                    <p>This is the bee that you just saw.</p>\n                    <img src=\"bees-with-color/bee-B2SF.svg\" width=\"200\">\n                    <p><span class=\"greenText\"><b>Successful harvest!</b></span><br>Your pay has increased by $0.02. Your bonus pay is now $0.46.</p>\n            ","response":0,"trial_type":"html-button-response","trial_index":32,"time_elapsed":203420,"internal_node_id":"0.0-4.0-1.12","subject_id":"5aa429f7b5e2110001c726db","study_id":"6197b3f67c2b5cd3b6d9596a","session_id":"6197b9f1755fa2d7a0390437","condition":"full-information","relevant_dimensions":["pattern","legs"],"bee_group":{"antennae":"X","wings":"X","pattern":"D","legs":"M"},"bonus":1.6200000000000012},{"rt":1292.699999988079,"stimulus":"bees-with-color/bee-A1SF.svg","response":0,"trial_type":"image-button-response","trial_index":33,"time_elapsed":204714,"internal_node_id":"0.0-4.0-0.13","subject_id":"5aa429f7b5e2110001c726db","study_id":"6197b3f67c2b5cd3b6d9596a","session_id":"6197b9f1755fa2d7a0390437","condition":"full-information","relevant_dimensions":["pattern","legs"],"bee_group":{"antennae":"X","wings":"X","pattern":"D","legs":"M"},"action":"harvest","summary":"good-harvest","bonus":1.6200000000000012},{"rt":667.6999999880791,"stimulus":"\n                    <p><b>Action: <em>harvest</em></b></p>\n                    <p>This is the bee that you just saw.</p>\n                    <img src=\"bees-with-color/bee-A1SF.svg\" width=\"200\">\n                    <p><span class=\"greenText\"><b>Successful harvest!</b></span><br>Your pay has increased by $0.02. Your bonus pay is now $0.48.</p>\n            ","response":0,"trial_type":"html-button-response","trial_index":34,"time_elapsed":205383,"internal_node_id":"0.0-4.0-1.13","subject_id":"5aa429f7b5e2110001c726db","study_id":"6197b3f67c2b5cd3b6d9596a","session_id":"6197b9f1755fa2d7a0390437","condition":"full-information","relevant_dimensions":["pattern","legs"],"bee_group":{"antennae":"X","wings":"X","pattern":"D","legs":"M"},"bonus":1.6200000000000012},{"rt":2990,"stimulus":"bees-with-color/bee-A1SM.svg","response":0,"trial_type":"image-button-response","trial_index":35,"time_elapsed":208374,"internal_node_id":"0.0-4.0-0.14","subject_id":"5aa429f7b5e2110001c726db","study_id":"6197b3f67c2b5cd3b6d9596a","session_id":"6197b9f1755fa2d7a0390437","condition":"full-information","relevant_dimensions":["pattern","legs"],"bee_group":{"antennae":"X","wings":"X","pattern":"D","legs":"M"},"action":"harvest","summary":"good-harvest","bonus":1.6200000000000012},{"rt":1096.300000011921,"stimulus":"\n                    <p><b>Action: <em>harvest</em></b></p>\n                    <p>This is the bee that you just saw.</p>\n                    <img src=\"bees-with-color/bee-A1SM.svg\" width=\"200\">\n                    <p><span class=\"greenText\"><b>Successful harvest!</b></span><br>Your pay has increased by $0.02. Your bonus pay is now $0.50.</p>\n            ","response":0,"trial_type":"html-button-response","trial_index":36,"time_elapsed":209472,"internal_node_id":"0.0-4.0-1.14","subject_id":"5aa429f7b5e2110001c726db","study_id":"6197b3f67c2b5cd3b6d9596a","session_id":"6197b9f1755fa2d7a0390437","condition":"full-information","relevant_dimensions":["pattern","legs"],"bee_group":{"antennae":"X","wings":"X","pattern":"D","legs":"M"},"bonus":1.6200000000000012},{"rt":1417.1000000238419,"stimulus":"bees-with-color/bee-A1DF.svg","response":1,"trial_type":"image-button-response","trial_index":37,"time_elapsed":210890,"internal_node_id":"0.0-4.0-0.15","subject_id":"5aa429f7b5e2110001c726db","study_id":"6197b3f67c2b5cd3b6d9596a","session_id":"6197b9f1755fa2d7a0390437","condition":"full-information","relevant_dimensions":["pattern","legs"],"bee_group":{"antennae":"X","wings":"X","pattern":"D","legs":"M"},"action":"avoid","summary":"bad-avoid","bonus":1.6200000000000012},{"rt":2327.699999988079,"stimulus":"\n                    <p><b>Action: <em>avoid</em></b></p>\n                    <p>This is the bee that you just saw.</p>\n                    <img src=\"bees-with-color/bee-A1DF.svg\" width=\"200\">\n                    <p><span class=\"redText\">Bad choice,</span> the bee was friendly.<br>Your bonus pay is unchanged, and remains at $0.50.</p>\n            ","response":0,"trial_type":"html-button-response","trial_index":38,"time_elapsed":213219,"internal_node_id":"0.0-4.0-1.15","subject_id":"5aa429f7b5e2110001c726db","study_id":"6197b3f67c2b5cd3b6d9596a","session_id":"6197b9f1755fa2d7a0390437","condition":"full-information","relevant_dimensions":["pattern","legs"],"bee_group":{"antennae":"X","wings":"X","pattern":"D","legs":"M"},"bonus":1.6200000000000012},{"rt":1523.5999999940395,"stimulus":"bees-with-color/bee-A1DF.svg","response":0,"trial_type":"image-button-response","trial_index":39,"time_elapsed":214744,"internal_node_id":"0.0-4.0-0.16","subject_id":"5aa429f7b5e2110001c726db","study_id":"6197b3f67c2b5cd3b6d9596a","session_id":"6197b9f1755fa2d7a0390437","condition":"full-information","relevant_dimensions":["pattern","legs"],"bee_group":{"antennae":"X","wings":"X","pattern":"D","legs":"M"},"action":"harvest","summary":"good-harvest","bonus":1.6200000000000012},{"rt":1342.199999988079,"stimulus":"\n                    <p><b>Action: <em>harvest</em></b></p>\n                    <p>This is the bee that you just saw.</p>\n                    <img src=\"bees-with-color/bee-A1DF.svg\" width=\"200\">\n                    <p><span class=\"greenText\"><b>Successful harvest!</b></span><br>Your pay has increased by $0.02. Your bonus pay is now $0.52.</p>\n            ","response":0,"trial_type":"html-button-response","trial_index":40,"time_elapsed":216088,"internal_node_id":"0.0-4.0-1.16","subject_id":"5aa429f7b5e2110001c726db","study_id":"6197b3f67c2b5cd3b6d9596a","session_id":"6197b9f1755fa2d7a0390437","condition":"full-information","relevant_dimensions":["pattern","legs"],"bee_group":{"antennae":"X","wings":"X","pattern":"D","legs":"M"},"bonus":1.6200000000000012},{"rt":1789.5,"stimulus":"bees-with-color/bee-B2DM.svg","response":1,"trial_type":"image-button-response","trial_index":41,"time_elapsed":217878,"internal_node_id":"0.0-4.0-0.17","subject_id":"5aa429f7b5e2110001c726db","study_id":"6197b3f67c2b5cd3b6d9596a","session_id":"6197b9f1755fa2d7a0390437","condition":"full-information","relevant_dimensions":["pattern","legs"],"bee_group":{"antennae":"X","wings":"X","pattern":"D","legs":"M"},"action":"avoid","summary":"good-avoid","bonus":1.6200000000000012},{"rt":2042.5999999940395,"stimulus":"\n                    <p><b>Action: <em>avoid</em></b></p>\n                    <p>This is the bee that you just saw.</p>\n                    <img src=\"bees-with-color/bee-B2DM.svg\" width=\"200\">\n                    <p><span class=\"greenText\">Good choice!</span>  This bee would have stung you.<br>Your bonus pay is unchanged, and remains at $0.52.</p>\n            ","response":0,"trial_type":"html-button-response","trial_index":42,"time_elapsed":219922,"internal_node_id":"0.0-4.0-1.17","subject_id":"5aa429f7b5e2110001c726db","study_id":"6197b3f67c2b5cd3b6d9596a","session_id":"6197b9f1755fa2d7a0390437","condition":"full-information","relevant_dimensions":["pattern","legs"],"bee_group":{"antennae":"X","wings":"X","pattern":"D","legs":"M"},"bonus":1.6200000000000012},{"rt":1343.2000000178814,"stimulus":"bees-with-color/bee-A1SF.svg","response":0,"trial_type":"image-button-response","trial_index":43,"time_elapsed":221266,"internal_node_id":"0.0-4.0-0.18","subject_id":"5aa429f7b5e2110001c726db","study_id":"6197b3f67c2b5cd3b6d9596a","session_id":"6197b9f1755fa2d7a0390437","condition":"full-information","relevant_dimensions":["pattern","legs"],"bee_group":{"antennae":"X","wings":"X","pattern":"D","legs":"M"},"action":"harvest","summary":"good-harvest","bonus":1.6200000000000012},{"rt":981.2000000178814,"stimulus":"\n                    <p><b>Action: <em>harvest</em></b></p>\n                    <p>This is the bee that you just saw.</p>\n                    <img src=\"bees-with-color/bee-A1SF.svg\" width=\"200\">\n                    <p><span class=\"greenText\"><b>Successful harvest!</b></span><br>Your pay has increased by $0.02. Your bonus pay is now $0.54.</p>\n            ","response":0,"trial_type":"html-button-response","trial_index":44,"time_elapsed":222249,"internal_node_id":"0.0-4.0-1.18","subject_id":"5aa429f7b5e2110001c726db","study_id":"6197b3f67c2b5cd3b6d9596a","session_id":"6197b9f1755fa2d7a0390437","condition":"full-information","relevant_dimensions":["pattern","legs"],"bee_group":{"antennae":"X","wings":"X","pattern":"D","legs":"M"},"bonus":1.6200000000000012},{"rt":1716.699999988079,"stimulus":"bees-with-color/bee-B2SM.svg","response":0,"trial_type":"image-button-response","trial_index":45,"time_elapsed":223967,"internal_node_id":"0.0-4.0-0.19","subject_id":"5aa429f7b5e2110001c726db","study_id":"6197b3f67c2b5cd3b6d9596a","session_id":"6197b9f1755fa2d7a0390437","condition":"full-information","relevant_dimensions":["pattern","legs"],"bee_group":{"antennae":"X","wings":"X","pattern":"D","legs":"M"},"action":"harvest","summary":"good-harvest","bonus":1.6200000000000012},{"rt":2002.1000000238419,"stimulus":"\n                    <p><b>Action: <em>harvest</em></b></p>\n                    <p>This is the bee that you just saw.</p>\n                    <img src=\"bees-with-color/bee-B2SM.svg\" width=\"200\">\n                    <p><span class=\"greenText\"><b>Successful harvest!</b></span><br>Your pay has increased by $0.02. Your bonus pay is now $0.56.</p>\n            ","response":0,"trial_type":"html-button-response","trial_index":46,"time_elapsed":225970,"internal_node_id":"0.0-4.0-1.19","subject_id":"5aa429f7b5e2110001c726db","study_id":"6197b3f67c2b5cd3b6d9596a","session_id":"6197b9f1755fa2d7a0390437","condition":"full-information","relevant_dimensions":["pattern","legs"],"bee_group":{"antennae":"X","wings":"X","pattern":"D","legs":"M"},"bonus":1.6200000000000012},{"rt":1136.4000000059605,"stimulus":"bees-with-color/bee-A2DF.svg","response":0,"trial_type":"image-button-response","trial_index":47,"time_elapsed":227108,"internal_node_id":"0.0-4.0-0.20","subject_id":"5aa429f7b5e2110001c726db","study_id":"6197b3f67c2b5cd3b6d9596a","session_id":"6197b9f1755fa2d7a0390437","condition":"full-information","relevant_dimensions":["pattern","legs"],"bee_group":{"antennae":"X","wings":"X","pattern":"D","legs":"M"},"action":"harvest","summary":"good-harvest","bonus":1.6200000000000012},{"rt":1509,"stimulus":"\n                    <p><b>Action: <em>harvest</em></b></p>\n                    <p>This is the bee that you just saw.</p>\n                    <img src=\"bees-with-color/bee-A2DF.svg\" width=\"200\">\n                    <p><span class=\"greenText\"><b>Successful harvest!</b></span><br>Your pay has increased by $0.02. Your bonus pay is now $0.58.</p>\n            ","response":0,"trial_type":"html-button-response","trial_index":48,"time_elapsed":228618,"internal_node_id":"0.0-4.0-1.20","subject_id":"5aa429f7b5e2110001c726db","study_id":"6197b3f67c2b5cd3b6d9596a","session_id":"6197b9f1755fa2d7a0390437","condition":"full-information","relevant_dimensions":["pattern","legs"],"bee_group":{"antennae":"X","wings":"X","pattern":"D","legs":"M"},"bonus":1.6200000000000012},{"rt":2218.9000000059605,"stimulus":"bees-with-color/bee-B1DM.svg","response":1,"trial_type":"image-button-response","trial_index":49,"time_elapsed":230838,"internal_node_id":"0.0-4.0-0.21","subject_id":"5aa429f7b5e2110001c726db","study_id":"6197b3f67c2b5cd3b6d9596a","session_id":"6197b9f1755fa2d7a0390437","condition":"full-information","relevant_dimensions":["pattern","legs"],"bee_group":{"antennae":"X","wings":"X","pattern":"D","legs":"M"},"action":"avoid","summary":"good-avoid","bonus":1.6200000000000012},{"rt":2294.699999988079,"stimulus":"\n                    <p><b>Action: <em>avoid</em></b></p>\n                    <p>This is the bee that you just saw.</p>\n                    <img src=\"bees-with-color/bee-B1DM.svg\" width=\"200\">\n                    <p><span class=\"greenText\">Good choice!</span>  This bee would have stung you.<br>Your bonus pay is unchanged, and remains at $0.58.</p>\n            ","response":0,"trial_type":"html-button-response","trial_index":50,"time_elapsed":233134,"internal_node_id":"0.0-4.0-1.21","subject_id":"5aa429f7b5e2110001c726db","study_id":"6197b3f67c2b5cd3b6d9596a","session_id":"6197b9f1755fa2d7a0390437","condition":"full-information","relevant_dimensions":["pattern","legs"],"bee_group":{"antennae":"X","wings":"X","pattern":"D","legs":"M"},"bonus":1.6200000000000012},{"rt":1459.699999988079,"stimulus":"bees-with-color/bee-A1SM.svg","response":0,"trial_type":"image-button-response","trial_index":51,"time_elapsed":234595,"internal_node_id":"0.0-4.0-0.22","subject_id":"5aa429f7b5e2110001c726db","study_id":"6197b3f67c2b5cd3b6d9596a","session_id":"6197b9f1755fa2d7a0390437","condition":"full-information","relevant_dimensions":["pattern","legs"],"bee_group":{"antennae":"X","wings":"X","pattern":"D","legs":"M"},"action":"harvest","summary":"good-harvest","bonus":1.6200000000000012},{"rt":994.2999999821186,"stimulus":"\n                    <p><b>Action: <em>harvest</em></b></p>\n                    <p>This is the bee that you just saw.</p>\n                    <img src=\"bees-with-color/bee-A1SM.svg\" width=\"200\">\n                    <p><span class=\"greenText\"><b>Successful harvest!</b></span><br>Your pay has increased by $0.02. Your bonus pay is now $0.60.</p>\n            ","response":0,"trial_type":"html-button-response","trial_index":52,"time_elapsed":235591,"internal_node_id":"0.0-4.0-1.22","subject_id":"5aa429f7b5e2110001c726db","study_id":"6197b3f67c2b5cd3b6d9596a","session_id":"6197b9f1755fa2d7a0390437","condition":"full-information","relevant_dimensions":["pattern","legs"],"bee_group":{"antennae":"X","wings":"X","pattern":"D","legs":"M"},"bonus":1.6200000000000012},{"rt":1296.199999988079,"stimulus":"bees-with-color/bee-B1SM.svg","response":0,"trial_type":"image-button-response","trial_index":53,"time_elapsed":236889,"internal_node_id":"0.0-4.0-0.23","subject_id":"5aa429f7b5e2110001c726db","study_id":"6197b3f67c2b5cd3b6d9596a","session_id":"6197b9f1755fa2d7a0390437","condition":"full-information","relevant_dimensions":["pattern","legs"],"bee_group":{"antennae":"X","wings":"X","pattern":"D","legs":"M"},"action":"harvest","summary":"good-harvest","bonus":1.6200000000000012},{"rt":1802.7999999821186,"stimulus":"\n                    <p><b>Action: <em>harvest</em></b></p>\n                    <p>This is the bee that you just saw.</p>\n                    <img src=\"bees-with-color/bee-B1SM.svg\" width=\"200\">\n                    <p><span class=\"greenText\"><b>Successful harvest!</b></span><br>Your pay has increased by $0.02. Your bonus pay is now $0.62.</p>\n            ","response":0,"trial_type":"html-button-response","trial_index":54,"time_elapsed":238693,"internal_node_id":"0.0-4.0-1.23","subject_id":"5aa429f7b5e2110001c726db","study_id":"6197b3f67c2b5cd3b6d9596a","session_id":"6197b9f1755fa2d7a0390437","condition":"full-information","relevant_dimensions":["pattern","legs"],"bee_group":{"antennae":"X","wings":"X","pattern":"D","legs":"M"},"bonus":1.6200000000000012},{"rt":884.1000000238419,"stimulus":"bees-with-color/bee-B2SF.svg","response":0,"trial_type":"image-button-response","trial_index":55,"time_elapsed":239578,"internal_node_id":"0.0-4.0-0.24","subject_id":"5aa429f7b5e2110001c726db","study_id":"6197b3f67c2b5cd3b6d9596a","session_id":"6197b9f1755fa2d7a0390437","condition":"full-information","relevant_dimensions":["pattern","legs"],"bee_group":{"antennae":"X","wings":"X","pattern":"D","legs":"M"},"action":"harvest","summary":"good-harvest","bonus":1.6200000000000012},{"rt":585.4000000059605,"stimulus":"\n                    <p><b>Action: <em>harvest</em></b></p>\n                    <p>This is the bee that you just saw.</p>\n                    <img src=\"bees-with-color/bee-B2SF.svg\" width=\"200\">\n                    <p><span class=\"greenText\"><b>Successful harvest!</b></span><br>Your pay has increased by $0.02. Your bonus pay is now $0.64.</p>\n            ","response":0,"trial_type":"html-button-response","trial_index":56,"time_elapsed":240165,"internal_node_id":"0.0-4.0-1.24","subject_id":"5aa429f7b5e2110001c726db","study_id":"6197b3f67c2b5cd3b6d9596a","session_id":"6197b9f1755fa2d7a0390437","condition":"full-information","relevant_dimensions":["pattern","legs"],"bee_group":{"antennae":"X","wings":"X","pattern":"D","legs":"M"},"bonus":1.6200000000000012},{"rt":1954.6000000238419,"stimulus":"bees-with-color/bee-A2SF.svg","response":0,"trial_type":"image-button-response","trial_index":57,"time_elapsed":242121,"internal_node_id":"0.0-4.0-0.25","subject_id":"5aa429f7b5e2110001c726db","study_id":"6197b3f67c2b5cd3b6d9596a","session_id":"6197b9f1755fa2d7a0390437","condition":"full-information","relevant_dimensions":["pattern","legs"],"bee_group":{"antennae":"X","wings":"X","pattern":"D","legs":"M"},"action":"harvest","summary":"good-harvest","bonus":1.6200000000000012},{"rt":1087.0999999940395,"stimulus":"\n                    <p><b>Action: <em>harvest</em></b></p>\n                    <p>This is the bee that you just saw.</p>\n                    <img src=\"bees-with-color/bee-A2SF.svg\" width=\"200\">\n                    <p><span class=\"greenText\"><b>Successful harvest!</b></span><br>Your pay has increased by $0.02. Your bonus pay is now $0.66.</p>\n            ","response":0,"trial_type":"html-button-response","trial_index":58,"time_elapsed":243209,"internal_node_id":"0.0-4.0-1.25","subject_id":"5aa429f7b5e2110001c726db","study_id":"6197b3f67c2b5cd3b6d9596a","session_id":"6197b9f1755fa2d7a0390437","condition":"full-information","relevant_dimensions":["pattern","legs"],"bee_group":{"antennae":"X","wings":"X","pattern":"D","legs":"M"},"bonus":1.6200000000000012},{"rt":1325.0999999940395,"stimulus":"bees-with-color/bee-B1SF.svg","response":0,"trial_type":"image-button-response","trial_index":59,"time_elapsed":244536,"internal_node_id":"0.0-4.0-0.26","subject_id":"5aa429f7b5e2110001c726db","study_id":"6197b3f67c2b5cd3b6d9596a","session_id":"6197b9f1755fa2d7a0390437","condition":"full-information","relevant_dimensions":["pattern","legs"],"bee_group":{"antennae":"X","wings":"X","pattern":"D","legs":"M"},"action":"harvest","summary":"good-harvest","bonus":1.6200000000000012},{"rt":657.8000000119209,"stimulus":"\n                    <p><b>Action: <em>harvest</em></b></p>\n                    <p>This is the bee that you just saw.</p>\n                    <img src=\"bees-with-color/bee-B1SF.svg\" width=\"200\">\n                    <p><span class=\"greenText\"><b>Successful harvest!</b></span><br>Your pay has increased by $0.02. Your bonus pay is now $0.68.</p>\n            ","response":0,"trial_type":"html-button-response","trial_index":60,"time_elapsed":245195,"internal_node_id":"0.0-4.0-1.26","subject_id":"5aa429f7b5e2110001c726db","study_id":"6197b3f67c2b5cd3b6d9596a","session_id":"6197b9f1755fa2d7a0390437","condition":"full-information","relevant_dimensions":["pattern","legs"],"bee_group":{"antennae":"X","wings":"X","pattern":"D","legs":"M"},"bonus":1.6200000000000012},{"rt":1243.9000000059605,"stimulus":"bees-with-color/bee-A2DM.svg","response":1,"trial_type":"image-button-response","trial_index":61,"time_elapsed":246440,"internal_node_id":"0.0-4.0-0.27","subject_id":"5aa429f7b5e2110001c726db","study_id":"6197b3f67c2b5cd3b6d9596a","session_id":"6197b9f1755fa2d7a0390437","condition":"full-information","relevant_dimensions":["pattern","legs"],"bee_group":{"antennae":"X","wings":"X","pattern":"D","legs":"M"},"action":"avoid","summary":"good-avoid","bonus":1.6200000000000012},{"rt":2271,"stimulus":"\n                    <p><b>Action: <em>avoid</em></b></p>\n                    <p>This is the bee that you just saw.</p>\n                    <img src=\"bees-with-color/bee-A2DM.svg\" width=\"200\">\n                    <p><span class=\"greenText\">Good choice!</span>  This bee would have stung you.<br>Your bonus pay is unchanged, and remains at $0.68.</p>\n            ","response":0,"trial_type":"html-button-response","trial_index":62,"time_elapsed":248713,"internal_node_id":"0.0-4.0-1.27","subject_id":"5aa429f7b5e2110001c726db","study_id":"6197b3f67c2b5cd3b6d9596a","session_id":"6197b9f1755fa2d7a0390437","condition":"full-information","relevant_dimensions":["pattern","legs"],"bee_group":{"antennae":"X","wings":"X","pattern":"D","legs":"M"},"bonus":1.6200000000000012},{"rt":1559.2999999821186,"stimulus":"bees-with-color/bee-A2SM.svg","response":0,"trial_type":"image-button-response","trial_index":63,"time_elapsed":250273,"internal_node_id":"0.0-4.0-0.28","subject_id":"5aa429f7b5e2110001c726db","study_id":"6197b3f67c2b5cd3b6d9596a","session_id":"6197b9f1755fa2d7a0390437","condition":"full-information","relevant_dimensions":["pattern","legs"],"bee_group":{"antennae":"X","wings":"X","pattern":"D","legs":"M"},"action":"harvest","summary":"good-harvest","bonus":1.6200000000000012},{"rt":1058.5999999940395,"stimulus":"\n                    <p><b>Action: <em>harvest</em></b></p>\n                    <p>This is the bee that you just saw.</p>\n                    <img src=\"bees-with-color/bee-A2SM.svg\" width=\"200\">\n                    <p><span class=\"greenText\"><b>Successful harvest!</b></span><br>Your pay has increased by $0.02. Your bonus pay is now $0.70.</p>\n            ","response":0,"trial_type":"html-button-response","trial_index":64,"time_elapsed":251333,"internal_node_id":"0.0-4.0-1.28","subject_id":"5aa429f7b5e2110001c726db","study_id":"6197b3f67c2b5cd3b6d9596a","session_id":"6197b9f1755fa2d7a0390437","condition":"full-information","relevant_dimensions":["pattern","legs"],"bee_group":{"antennae":"X","wings":"X","pattern":"D","legs":"M"},"bonus":1.6200000000000012},{"rt":1546,"stimulus":"bees-with-color/bee-A1DM.svg","response":1,"trial_type":"image-button-response","trial_index":65,"time_elapsed":252881,"internal_node_id":"0.0-4.0-0.29","subject_id":"5aa429f7b5e2110001c726db","study_id":"6197b3f67c2b5cd3b6d9596a","session_id":"6197b9f1755fa2d7a0390437","condition":"full-information","relevant_dimensions":["pattern","legs"],"bee_group":{"antennae":"X","wings":"X","pattern":"D","legs":"M"},"action":"avoid","summary":"good-avoid","bonus":1.6200000000000012},{"rt":1452.800000011921,"stimulus":"\n                    <p><b>Action: <em>avoid</em></b></p>\n                    <p>This is the bee that you just saw.</p>\n                    <img src=\"bees-with-color/bee-A1DM.svg\" width=\"200\">\n                    <p><span class=\"greenText\">Good choice!</span>  This bee would have stung you.<br>Your bonus pay is unchanged, and remains at $0.70.</p>\n            ","response":0,"trial_type":"html-button-response","trial_index":66,"time_elapsed":254335,"internal_node_id":"0.0-4.0-1.29","subject_id":"5aa429f7b5e2110001c726db","study_id":"6197b3f67c2b5cd3b6d9596a","session_id":"6197b9f1755fa2d7a0390437","condition":"full-information","relevant_dimensions":["pattern","legs"],"bee_group":{"antennae":"X","wings":"X","pattern":"D","legs":"M"},"bonus":1.6200000000000012},{"rt":1956,"stimulus":"bees-with-color/bee-B1DF.svg","response":1,"trial_type":"image-button-response","trial_index":67,"time_elapsed":256292,"internal_node_id":"0.0-4.0-0.30","subject_id":"5aa429f7b5e2110001c726db","study_id":"6197b3f67c2b5cd3b6d9596a","session_id":"6197b9f1755fa2d7a0390437","condition":"full-information","relevant_dimensions":["pattern","legs"],"bee_group":{"antennae":"X","wings":"X","pattern":"D","legs":"M"},"action":"avoid","summary":"bad-avoid","bonus":1.6200000000000012},{"rt":1654.300000011921,"stimulus":"\n                    <p><b>Action: <em>avoid</em></b></p>\n                    <p>This is the bee that you just saw.</p>\n                    <img src=\"bees-with-color/bee-B1DF.svg\" width=\"200\">\n                    <p><span class=\"redText\">Bad choice,</span> the bee was friendly.<br>Your bonus pay is unchanged, and remains at $0.70.</p>\n            ","response":0,"trial_type":"html-button-response","trial_index":68,"time_elapsed":257948,"internal_node_id":"0.0-4.0-1.30","subject_id":"5aa429f7b5e2110001c726db","study_id":"6197b3f67c2b5cd3b6d9596a","session_id":"6197b9f1755fa2d7a0390437","condition":"full-information","relevant_dimensions":["pattern","legs"],"bee_group":{"antennae":"X","wings":"X","pattern":"D","legs":"M"},"bonus":1.6200000000000012},{"rt":1026.0999999940395,"stimulus":"bees-with-color/bee-B2DF.svg","response":0,"trial_type":"image-button-response","trial_index":69,"time_elapsed":258975,"internal_node_id":"0.0-4.0-0.31","subject_id":"5aa429f7b5e2110001c726db","study_id":"6197b3f67c2b5cd3b6d9596a","session_id":"6197b9f1755fa2d7a0390437","condition":"full-information","relevant_dimensions":["pattern","legs"],"bee_group":{"antennae":"X","wings":"X","pattern":"D","legs":"M"},"action":"harvest","summary":"good-harvest","bonus":1.6200000000000012},{"rt":939,"stimulus":"\n                    <p><b>Action: <em>harvest</em></b></p>\n                    <p>This is the bee that you just saw.</p>\n                    <img src=\"bees-with-color/bee-B2DF.svg\" width=\"200\">\n                    <p><span class=\"greenText\"><b>Successful harvest!</b></span><br>Your pay has increased by $0.02. Your bonus pay is now $0.72.</p>\n            ","response":0,"trial_type":"html-button-response","trial_index":70,"time_elapsed":259916,"internal_node_id":"0.0-4.0-1.31","subject_id":"5aa429f7b5e2110001c726db","study_id":"6197b3f67c2b5cd3b6d9596a","session_id":"6197b9f1755fa2d7a0390437","condition":"full-information","relevant_dimensions":["pattern","legs"],"bee_group":{"antennae":"X","wings":"X","pattern":"D","legs":"M"},"bonus":1.6200000000000012},{"rt":1603.7000000178814,"stimulus":"bees-with-color/bee-A2DM.svg","response":1,"trial_type":"image-button-response","trial_index":71,"time_elapsed":261520,"internal_node_id":"0.0-4.0-0.32","subject_id":"5aa429f7b5e2110001c726db","study_id":"6197b3f67c2b5cd3b6d9596a","session_id":"6197b9f1755fa2d7a0390437","condition":"full-information","relevant_dimensions":["pattern","legs"],"bee_group":{"antennae":"X","wings":"X","pattern":"D","legs":"M"},"action":"avoid","summary":"good-avoid","bonus":1.6200000000000012},{"rt":1468.7999999821186,"stimulus":"\n                    <p><b>Action: <em>avoid</em></b></p>\n                    <p>This is the bee that you just saw.</p>\n                    <img src=\"bees-with-color/bee-A2DM.svg\" width=\"200\">\n                    <p><span class=\"greenText\">Good choice!</span>  This bee would have stung you.<br>Your bonus pay is unchanged, and remains at $0.72.</p>\n            ","response":0,"trial_type":"html-button-response","trial_index":72,"time_elapsed":262990,"internal_node_id":"0.0-4.0-1.32","subject_id":"5aa429f7b5e2110001c726db","study_id":"6197b3f67c2b5cd3b6d9596a","session_id":"6197b9f1755fa2d7a0390437","condition":"full-information","relevant_dimensions":["pattern","legs"],"bee_group":{"antennae":"X","wings":"X","pattern":"D","legs":"M"},"bonus":1.6200000000000012},{"rt":3459.699999988079,"stimulus":"bees-with-color/bee-B2DF.svg","response":1,"trial_type":"image-button-response","trial_index":73,"time_elapsed":266451,"internal_node_id":"0.0-4.0-0.33","subject_id":"5aa429f7b5e2110001c726db","study_id":"6197b3f67c2b5cd3b6d9596a","session_id":"6197b9f1755fa2d7a0390437","condition":"full-information","relevant_dimensions":["pattern","legs"],"bee_group":{"antennae":"X","wings":"X","pattern":"D","legs":"M"},"action":"avoid","summary":"bad-avoid","bonus":1.6200000000000012},{"rt":1257.2000000178814,"stimulus":"\n                    <p><b>Action: <em>avoid</em></b></p>\n                    <p>This is the bee that you just saw.</p>\n                    <img src=\"bees-with-color/bee-B2DF.svg\" width=\"200\">\n                    <p><span class=\"redText\">Bad choice,</span> the bee was friendly.<br>Your bonus pay is unchanged, and remains at $0.72.</p>\n            ","response":0,"trial_type":"html-button-response","trial_index":74,"time_elapsed":267709,"internal_node_id":"0.0-4.0-1.33","subject_id":"5aa429f7b5e2110001c726db","study_id":"6197b3f67c2b5cd3b6d9596a","session_id":"6197b9f1755fa2d7a0390437","condition":"full-information","relevant_dimensions":["pattern","legs"],"bee_group":{"antennae":"X","wings":"X","pattern":"D","legs":"M"},"bonus":1.6200000000000012},{"rt":1179,"stimulus":"bees-with-color/bee-A1SM.svg","response":0,"trial_type":"image-button-response","trial_index":75,"time_elapsed":268890,"internal_node_id":"0.0-4.0-0.34","subject_id":"5aa429f7b5e2110001c726db","study_id":"6197b3f67c2b5cd3b6d9596a","session_id":"6197b9f1755fa2d7a0390437","condition":"full-information","relevant_dimensions":["pattern","legs"],"bee_group":{"antennae":"X","wings":"X","pattern":"D","legs":"M"},"action":"harvest","summary":"good-harvest","bonus":1.6200000000000012},{"rt":654.5,"stimulus":"\n                    <p><b>Action: <em>harvest</em></b></p>\n                    <p>This is the bee that you just saw.</p>\n                    <img src=\"bees-with-color/bee-A1SM.svg\" width=\"200\">\n                    <p><span class=\"greenText\"><b>Successful harvest!</b></span><br>Your pay has increased by $0.02. Your bonus pay is now $0.74.</p>\n            ","response":0,"trial_type":"html-button-response","trial_index":76,"time_elapsed":269546,"internal_node_id":"0.0-4.0-1.34","subject_id":"5aa429f7b5e2110001c726db","study_id":"6197b3f67c2b5cd3b6d9596a","session_id":"6197b9f1755fa2d7a0390437","condition":"full-information","relevant_dimensions":["pattern","legs"],"bee_group":{"antennae":"X","wings":"X","pattern":"D","legs":"M"},"bonus":1.6200000000000012},{"rt":1000.4000000059605,"stimulus":"bees-with-color/bee-A1SF.svg","response":0,"trial_type":"image-button-response","trial_index":77,"time_elapsed":270547,"internal_node_id":"0.0-4.0-0.35","subject_id":"5aa429f7b5e2110001c726db","study_id":"6197b3f67c2b5cd3b6d9596a","session_id":"6197b9f1755fa2d7a0390437","condition":"full-information","relevant_dimensions":["pattern","legs"],"bee_group":{"antennae":"X","wings":"X","pattern":"D","legs":"M"},"action":"harvest","summary":"good-harvest","bonus":1.6200000000000012},{"rt":710.0999999940395,"stimulus":"\n                    <p><b>Action: <em>harvest</em></b></p>\n                    <p>This is the bee that you just saw.</p>\n                    <img src=\"bees-with-color/bee-A1SF.svg\" width=\"200\">\n                    <p><span class=\"greenText\"><b>Successful harvest!</b></span><br>Your pay has increased by $0.02. Your bonus pay is now $0.76.</p>\n            ","response":0,"trial_type":"html-button-response","trial_index":78,"time_elapsed":271258,"internal_node_id":"0.0-4.0-1.35","subject_id":"5aa429f7b5e2110001c726db","study_id":"6197b3f67c2b5cd3b6d9596a","session_id":"6197b9f1755fa2d7a0390437","condition":"full-information","relevant_dimensions":["pattern","legs"],"bee_group":{"antennae":"X","wings":"X","pattern":"D","legs":"M"},"bonus":1.6200000000000012},{"rt":2080.699999988079,"stimulus":"bees-with-color/bee-B2DM.svg","response":1,"trial_type":"image-button-response","trial_index":79,"time_elapsed":273340,"internal_node_id":"0.0-4.0-0.36","subject_id":"5aa429f7b5e2110001c726db","study_id":"6197b3f67c2b5cd3b6d9596a","session_id":"6197b9f1755fa2d7a0390437","condition":"full-information","relevant_dimensions":["pattern","legs"],"bee_group":{"antennae":"X","wings":"X","pattern":"D","legs":"M"},"action":"avoid","summary":"good-avoid","bonus":1.6200000000000012},{"rt":957.6999999880791,"stimulus":"\n                    <p><b>Action: <em>avoid</em></b></p>\n                    <p>This is the bee that you just saw.</p>\n                    <img src=\"bees-with-color/bee-B2DM.svg\" width=\"200\">\n                    <p><span class=\"greenText\">Good choice!</span>  This bee would have stung you.<br>Your bonus pay is unchanged, and remains at $0.76.</p>\n            ","response":0,"trial_type":"html-button-response","trial_index":80,"time_elapsed":274299,"internal_node_id":"0.0-4.0-1.36","subject_id":"5aa429f7b5e2110001c726db","study_id":"6197b3f67c2b5cd3b6d9596a","session_id":"6197b9f1755fa2d7a0390437","condition":"full-information","relevant_dimensions":["pattern","legs"],"bee_group":{"antennae":"X","wings":"X","pattern":"D","legs":"M"},"bonus":1.6200000000000012},{"rt":1131,"stimulus":"bees-with-color/bee-B2SM.svg","response":0,"trial_type":"image-button-response","trial_index":81,"time_elapsed":275431,"internal_node_id":"0.0-4.0-0.37","subject_id":"5aa429f7b5e2110001c726db","study_id":"6197b3f67c2b5cd3b6d9596a","session_id":"6197b9f1755fa2d7a0390437","condition":"full-information","relevant_dimensions":["pattern","legs"],"bee_group":{"antennae":"X","wings":"X","pattern":"D","legs":"M"},"action":"harvest","summary":"good-harvest","bonus":1.6200000000000012},{"rt":726.5,"stimulus":"\n                    <p><b>Action: <em>harvest</em></b></p>\n                    <p>This is the bee that you just saw.</p>\n                    <img src=\"bees-with-color/bee-B2SM.svg\" width=\"200\">\n                    <p><span class=\"greenText\"><b>Successful harvest!</b></span><br>Your pay has increased by $0.02. Your bonus pay is now $0.78.</p>\n            ","response":0,"trial_type":"html-button-response","trial_index":82,"time_elapsed":276158,"internal_node_id":"0.0-4.0-1.37","subject_id":"5aa429f7b5e2110001c726db","study_id":"6197b3f67c2b5cd3b6d9596a","session_id":"6197b9f1755fa2d7a0390437","condition":"full-information","relevant_dimensions":["pattern","legs"],"bee_group":{"antennae":"X","wings":"X","pattern":"D","legs":"M"},"bonus":1.6200000000000012},{"rt":993.5,"stimulus":"bees-with-color/bee-B1SM.svg","response":0,"trial_type":"image-button-response","trial_index":83,"time_elapsed":277153,"internal_node_id":"0.0-4.0-0.38","subject_id":"5aa429f7b5e2110001c726db","study_id":"6197b3f67c2b5cd3b6d9596a","session_id":"6197b9f1755fa2d7a0390437","condition":"full-information","relevant_dimensions":["pattern","legs"],"bee_group":{"antennae":"X","wings":"X","pattern":"D","legs":"M"},"action":"harvest","summary":"good-harvest","bonus":1.6200000000000012},{"rt":1410.800000011921,"stimulus":"\n                    <p><b>Action: <em>harvest</em></b></p>\n                    <p>This is the bee that you just saw.</p>\n                    <img src=\"bees-with-color/bee-B1SM.svg\" width=\"200\">\n                    <p><span class=\"greenText\"><b>Successful harvest!</b></span><br>Your pay has increased by $0.02. Your bonus pay is now $0.80.</p>\n            ","response":0,"trial_type":"html-button-response","trial_index":84,"time_elapsed":278565,"internal_node_id":"0.0-4.0-1.38","subject_id":"5aa429f7b5e2110001c726db","study_id":"6197b3f67c2b5cd3b6d9596a","session_id":"6197b9f1755fa2d7a0390437","condition":"full-information","relevant_dimensions":["pattern","legs"],"bee_group":{"antennae":"X","wings":"X","pattern":"D","legs":"M"},"bonus":1.6200000000000012},{"rt":1604.9000000059605,"stimulus":"bees-with-color/bee-A2DF.svg","response":1,"trial_type":"image-button-response","trial_index":85,"time_elapsed":280171,"internal_node_id":"0.0-4.0-0.39","subject_id":"5aa429f7b5e2110001c726db","study_id":"6197b3f67c2b5cd3b6d9596a","session_id":"6197b9f1755fa2d7a0390437","condition":"full-information","relevant_dimensions":["pattern","legs"],"bee_group":{"antennae":"X","wings":"X","pattern":"D","legs":"M"},"action":"avoid","summary":"bad-avoid","bonus":1.6200000000000012},{"rt":2551.9000000059605,"stimulus":"\n                    <p><b>Action: <em>avoid</em></b></p>\n                    <p>This is the bee that you just saw.</p>\n                    <img src=\"bees-with-color/bee-A2DF.svg\" width=\"200\">\n                    <p><span class=\"redText\">Bad choice,</span> the bee was friendly.<br>Your bonus pay is unchanged, and remains at $0.80.</p>\n            ","response":0,"trial_type":"html-button-response","trial_index":86,"time_elapsed":282724,"internal_node_id":"0.0-4.0-1.39","subject_id":"5aa429f7b5e2110001c726db","study_id":"6197b3f67c2b5cd3b6d9596a","session_id":"6197b9f1755fa2d7a0390437","condition":"full-information","relevant_dimensions":["pattern","legs"],"bee_group":{"antennae":"X","wings":"X","pattern":"D","legs":"M"},"bonus":1.6200000000000012},{"rt":1509.800000011921,"stimulus":"bees-with-color/bee-A1DM.svg","response":1,"trial_type":"image-button-response","trial_index":87,"time_elapsed":284235,"internal_node_id":"0.0-4.0-0.40","subject_id":"5aa429f7b5e2110001c726db","study_id":"6197b3f67c2b5cd3b6d9596a","session_id":"6197b9f1755fa2d7a0390437","condition":"full-information","relevant_dimensions":["pattern","legs"],"bee_group":{"antennae":"X","wings":"X","pattern":"D","legs":"M"},"action":"avoid","summary":"good-avoid","bonus":1.6200000000000012},{"rt":818.2999999821186,"stimulus":"\n                    <p><b>Action: <em>avoid</em></b></p>\n                    <p>This is the bee that you just saw.</p>\n                    <img src=\"bees-with-color/bee-A1DM.svg\" width=\"200\">\n                    <p><span class=\"greenText\">Good choice!</span>  This bee would have stung you.<br>Your bonus pay is unchanged, and remains at $0.80.</p>\n            ","response":0,"trial_type":"html-button-response","trial_index":88,"time_elapsed":285055,"internal_node_id":"0.0-4.0-1.40","subject_id":"5aa429f7b5e2110001c726db","study_id":"6197b3f67c2b5cd3b6d9596a","session_id":"6197b9f1755fa2d7a0390437","condition":"full-information","relevant_dimensions":["pattern","legs"],"bee_group":{"antennae":"X","wings":"X","pattern":"D","legs":"M"},"bonus":1.6200000000000012},{"rt":1539.2000000178814,"stimulus":"bees-with-color/bee-B1DF.svg","response":0,"trial_type":"image-button-response","trial_index":89,"time_elapsed":286595,"internal_node_id":"0.0-4.0-0.41","subject_id":"5aa429f7b5e2110001c726db","study_id":"6197b3f67c2b5cd3b6d9596a","session_id":"6197b9f1755fa2d7a0390437","condition":"full-information","relevant_dimensions":["pattern","legs"],"bee_group":{"antennae":"X","wings":"X","pattern":"D","legs":"M"},"action":"harvest","summary":"good-harvest","bonus":1.6200000000000012},{"rt":1044.300000011921,"stimulus":"\n                    <p><b>Action: <em>harvest</em></b></p>\n                    <p>This is the bee that you just saw.</p>\n                    <img src=\"bees-with-color/bee-B1DF.svg\" width=\"200\">\n                    <p><span class=\"greenText\"><b>Successful harvest!</b></span><br>Your pay has increased by $0.02. Your bonus pay is now $0.82.</p>\n            ","response":0,"trial_type":"html-button-response","trial_index":90,"time_elapsed":287641,"internal_node_id":"0.0-4.0-1.41","subject_id":"5aa429f7b5e2110001c726db","study_id":"6197b3f67c2b5cd3b6d9596a","session_id":"6197b9f1755fa2d7a0390437","condition":"full-information","relevant_dimensions":["pattern","legs"],"bee_group":{"antennae":"X","wings":"X","pattern":"D","legs":"M"},"bonus":1.6200000000000012},{"rt":1876.7999999821186,"stimulus":"bees-with-color/bee-A1DF.svg","response":0,"trial_type":"image-button-response","trial_index":91,"time_elapsed":289519,"internal_node_id":"0.0-4.0-0.42","subject_id":"5aa429f7b5e2110001c726db","study_id":"6197b3f67c2b5cd3b6d9596a","session_id":"6197b9f1755fa2d7a0390437","condition":"full-information","relevant_dimensions":["pattern","legs"],"bee_group":{"antennae":"X","wings":"X","pattern":"D","legs":"M"},"action":"harvest","summary":"good-harvest","bonus":1.6200000000000012},{"rt":624.9000000059605,"stimulus":"\n                    <p><b>Action: <em>harvest</em></b></p>\n                    <p>This is the bee that you just saw.</p>\n                    <img src=\"bees-with-color/bee-A1DF.svg\" width=\"200\">\n                    <p><span class=\"greenText\"><b>Successful harvest!</b></span><br>Your pay has increased by $0.02. Your bonus pay is now $0.84.</p>\n            ","response":0,"trial_type":"html-button-response","trial_index":92,"time_elapsed":290145,"internal_node_id":"0.0-4.0-1.42","subject_id":"5aa429f7b5e2110001c726db","study_id":"6197b3f67c2b5cd3b6d9596a","session_id":"6197b9f1755fa2d7a0390437","condition":"full-information","relevant_dimensions":["pattern","legs"],"bee_group":{"antennae":"X","wings":"X","pattern":"D","legs":"M"},"bonus":1.6200000000000012},{"rt":950.5,"stimulus":"bees-with-color/bee-B1SF.svg","response":0,"trial_type":"image-button-response","trial_index":93,"time_elapsed":291097,"internal_node_id":"0.0-4.0-0.43","subject_id":"5aa429f7b5e2110001c726db","study_id":"6197b3f67c2b5cd3b6d9596a","session_id":"6197b9f1755fa2d7a0390437","condition":"full-information","relevant_dimensions":["pattern","legs"],"bee_group":{"antennae":"X","wings":"X","pattern":"D","legs":"M"},"action":"harvest","summary":"good-harvest","bonus":1.6200000000000012},{"rt":644.9000000059605,"stimulus":"\n                    <p><b>Action: <em>harvest</em></b></p>\n                    <p>This is the bee that you just saw.</p>\n                    <img src=\"bees-with-color/bee-B1SF.svg\" width=\"200\">\n                    <p><span class=\"greenText\"><b>Successful harvest!</b></span><br>Your pay has increased by $0.02. Your bonus pay is now $0.86.</p>\n            ","response":0,"trial_type":"html-button-response","trial_index":94,"time_elapsed":291743,"internal_node_id":"0.0-4.0-1.43","subject_id":"5aa429f7b5e2110001c726db","study_id":"6197b3f67c2b5cd3b6d9596a","session_id":"6197b9f1755fa2d7a0390437","condition":"full-information","relevant_dimensions":["pattern","legs"],"bee_group":{"antennae":"X","wings":"X","pattern":"D","legs":"M"},"bonus":1.6200000000000012},{"rt":1399.8999999761581,"stimulus":"bees-with-color/bee-A2SM.svg","response":0,"trial_type":"image-button-response","trial_index":95,"time_elapsed":293144,"internal_node_id":"0.0-4.0-0.44","subject_id":"5aa429f7b5e2110001c726db","study_id":"6197b3f67c2b5cd3b6d9596a","session_id":"6197b9f1755fa2d7a0390437","condition":"full-information","relevant_dimensions":["pattern","legs"],"bee_group":{"antennae":"X","wings":"X","pattern":"D","legs":"M"},"action":"harvest","summary":"good-harvest","bonus":1.6200000000000012},{"rt":959.4000000059605,"stimulus":"\n                    <p><b>Action: <em>harvest</em></b></p>\n                    <p>This is the bee that you just saw.</p>\n                    <img src=\"bees-with-color/bee-A2SM.svg\" width=\"200\">\n                    <p><span class=\"greenText\"><b>Successful harvest!</b></span><br>Your pay has increased by $0.02. Your bonus pay is now $0.88.</p>\n            ","response":0,"trial_type":"html-button-response","trial_index":96,"time_elapsed":294105,"internal_node_id":"0.0-4.0-1.44","subject_id":"5aa429f7b5e2110001c726db","study_id":"6197b3f67c2b5cd3b6d9596a","session_id":"6197b9f1755fa2d7a0390437","condition":"full-information","relevant_dimensions":["pattern","legs"],"bee_group":{"antennae":"X","wings":"X","pattern":"D","legs":"M"},"bonus":1.6200000000000012},{"rt":993.3000000119209,"stimulus":"bees-with-color/bee-A2SF.svg","response":0,"trial_type":"image-button-response","trial_index":97,"time_elapsed":295100,"internal_node_id":"0.0-4.0-0.45","subject_id":"5aa429f7b5e2110001c726db","study_id":"6197b3f67c2b5cd3b6d9596a","session_id":"6197b9f1755fa2d7a0390437","condition":"full-information","relevant_dimensions":["pattern","legs"],"bee_group":{"antennae":"X","wings":"X","pattern":"D","legs":"M"},"action":"harvest","summary":"good-harvest","bonus":1.6200000000000012},{"rt":755.7000000178814,"stimulus":"\n                    <p><b>Action: <em>harvest</em></b></p>\n                    <p>This is the bee that you just saw.</p>\n                    <img src=\"bees-with-color/bee-A2SF.svg\" width=\"200\">\n                    <p><span class=\"greenText\"><b>Successful harvest!</b></span><br>Your pay has increased by $0.02. Your bonus pay is now $0.90.</p>\n            ","response":0,"trial_type":"html-button-response","trial_index":98,"time_elapsed":295857,"internal_node_id":"0.0-4.0-1.45","subject_id":"5aa429f7b5e2110001c726db","study_id":"6197b3f67c2b5cd3b6d9596a","session_id":"6197b9f1755fa2d7a0390437","condition":"full-information","relevant_dimensions":["pattern","legs"],"bee_group":{"antennae":"X","wings":"X","pattern":"D","legs":"M"},"bonus":1.6200000000000012},{"rt":1402.800000011921,"stimulus":"bees-with-color/bee-B1DM.svg","response":1,"trial_type":"image-button-response","trial_index":99,"time_elapsed":297260,"internal_node_id":"0.0-4.0-0.46","subject_id":"5aa429f7b5e2110001c726db","study_id":"6197b3f67c2b5cd3b6d9596a","session_id":"6197b9f1755fa2d7a0390437","condition":"full-information","relevant_dimensions":["pattern","legs"],"bee_group":{"antennae":"X","wings":"X","pattern":"D","legs":"M"},"action":"avoid","summary":"good-avoid","bonus":1.6200000000000012},{"rt":1190.9000000059605,"stimulus":"\n                    <p><b>Action: <em>avoid</em></b></p>\n                    <p>This is the bee that you just saw.</p>\n                    <img src=\"bees-with-color/bee-B1DM.svg\" width=\"200\">\n                    <p><span class=\"greenText\">Good choice!</span>  This bee would have stung you.<br>Your bonus pay is unchanged, and remains at $0.90.</p>\n            ","response":0,"trial_type":"html-button-response","trial_index":100,"time_elapsed":298452,"internal_node_id":"0.0-4.0-1.46","subject_id":"5aa429f7b5e2110001c726db","study_id":"6197b3f67c2b5cd3b6d9596a","session_id":"6197b9f1755fa2d7a0390437","condition":"full-information","relevant_dimensions":["pattern","legs"],"bee_group":{"antennae":"X","wings":"X","pattern":"D","legs":"M"},"bonus":1.6200000000000012},{"rt":866.2999999821186,"stimulus":"bees-with-color/bee-B2SF.svg","response":0,"trial_type":"image-button-response","trial_index":101,"time_elapsed":299320,"internal_node_id":"0.0-4.0-0.47","subject_id":"5aa429f7b5e2110001c726db","study_id":"6197b3f67c2b5cd3b6d9596a","session_id":"6197b9f1755fa2d7a0390437","condition":"full-information","relevant_dimensions":["pattern","legs"],"bee_group":{"antennae":"X","wings":"X","pattern":"D","legs":"M"},"action":"harvest","summary":"good-harvest","bonus":1.6200000000000012},{"rt":799,"stimulus":"\n                    <p><b>Action: <em>harvest</em></b></p>\n                    <p>This is the bee that you just saw.</p>\n                    <img src=\"bees-with-color/bee-B2SF.svg\" width=\"200\">\n                    <p><span class=\"greenText\"><b>Successful harvest!</b></span><br>Your pay has increased by $0.02. Your bonus pay is now $0.92.</p>\n            ","response":0,"trial_type":"html-button-response","trial_index":102,"time_elapsed":300120,"internal_node_id":"0.0-4.0-1.47","subject_id":"5aa429f7b5e2110001c726db","study_id":"6197b3f67c2b5cd3b6d9596a","session_id":"6197b9f1755fa2d7a0390437","condition":"full-information","relevant_dimensions":["pattern","legs"],"bee_group":{"antennae":"X","wings":"X","pattern":"D","legs":"M"},"bonus":1.6200000000000012},{"rt":1404,"stimulus":"bees-with-color/bee-A2DF.svg","response":0,"trial_type":"image-button-response","trial_index":103,"time_elapsed":301525,"internal_node_id":"0.0-4.0-0.48","subject_id":"5aa429f7b5e2110001c726db","study_id":"6197b3f67c2b5cd3b6d9596a","session_id":"6197b9f1755fa2d7a0390437","condition":"full-information","relevant_dimensions":["pattern","legs"],"bee_group":{"antennae":"X","wings":"X","pattern":"D","legs":"M"},"action":"harvest","summary":"good-harvest","bonus":1.6200000000000012},{"rt":842.6999999880791,"stimulus":"\n                    <p><b>Action: <em>harvest</em></b></p>\n                    <p>This is the bee that you just saw.</p>\n                    <img src=\"bees-with-color/bee-A2DF.svg\" width=\"200\">\n                    <p><span class=\"greenText\"><b>Successful harvest!</b></span><br>Your pay has increased by $0.02. Your bonus pay is now $0.94.</p>\n            ","response":0,"trial_type":"html-button-response","trial_index":104,"time_elapsed":302369,"internal_node_id":"0.0-4.0-1.48","subject_id":"5aa429f7b5e2110001c726db","study_id":"6197b3f67c2b5cd3b6d9596a","session_id":"6197b9f1755fa2d7a0390437","condition":"full-information","relevant_dimensions":["pattern","legs"],"bee_group":{"antennae":"X","wings":"X","pattern":"D","legs":"M"},"bonus":1.6200000000000012},{"rt":1143.4000000059605,"stimulus":"bees-with-color/bee-B1SF.svg","response":0,"trial_type":"image-button-response","trial_index":105,"time_elapsed":303514,"internal_node_id":"0.0-4.0-0.49","subject_id":"5aa429f7b5e2110001c726db","study_id":"6197b3f67c2b5cd3b6d9596a","session_id":"6197b9f1755fa2d7a0390437","condition":"full-information","relevant_dimensions":["pattern","legs"],"bee_group":{"antennae":"X","wings":"X","pattern":"D","legs":"M"},"action":"harvest","summary":"good-harvest","bonus":1.6200000000000012},{"rt":575.5,"stimulus":"\n                    <p><b>Action: <em>harvest</em></b></p>\n                    <p>This is the bee that you just saw.</p>\n                    <img src=\"bees-with-color/bee-B1SF.svg\" width=\"200\">\n                    <p><span class=\"greenText\"><b>Successful harvest!</b></span><br>Your pay has increased by $0.02. Your bonus pay is now $0.96.</p>\n            ","response":0,"trial_type":"html-button-response","trial_index":106,"time_elapsed":304091,"internal_node_id":"0.0-4.0-1.49","subject_id":"5aa429f7b5e2110001c726db","study_id":"6197b3f67c2b5cd3b6d9596a","session_id":"6197b9f1755fa2d7a0390437","condition":"full-information","relevant_dimensions":["pattern","legs"],"bee_group":{"antennae":"X","wings":"X","pattern":"D","legs":"M"},"bonus":1.6200000000000012},{"rt":605.5,"stimulus":"bees-with-color/bee-B1SM.svg","response":0,"trial_type":"image-button-response","trial_index":107,"time_elapsed":304697,"internal_node_id":"0.0-4.0-0.50","subject_id":"5aa429f7b5e2110001c726db","study_id":"6197b3f67c2b5cd3b6d9596a","session_id":"6197b9f1755fa2d7a0390437","condition":"full-information","relevant_dimensions":["pattern","legs"],"bee_group":{"antennae":"X","wings":"X","pattern":"D","legs":"M"},"action":"harvest","summary":"good-harvest","bonus":1.6200000000000012},{"rt":935,"stimulus":"\n                    <p><b>Action: <em>harvest</em></b></p>\n                    <p>This is the bee that you just saw.</p>\n                    <img src=\"bees-with-color/bee-B1SM.svg\" width=\"200\">\n                    <p><span class=\"greenText\"><b>Successful harvest!</b></span><br>Your pay has increased by $0.02. Your bonus pay is now $0.98.</p>\n            ","response":0,"trial_type":"html-button-response","trial_index":108,"time_elapsed":305634,"internal_node_id":"0.0-4.0-1.50","subject_id":"5aa429f7b5e2110001c726db","study_id":"6197b3f67c2b5cd3b6d9596a","session_id":"6197b9f1755fa2d7a0390437","condition":"full-information","relevant_dimensions":["pattern","legs"],"bee_group":{"antennae":"X","wings":"X","pattern":"D","legs":"M"},"bonus":1.6200000000000012},{"rt":1138.9000000059605,"stimulus":"bees-with-color/bee-A1DM.svg","response":1,"trial_type":"image-button-response","trial_index":109,"time_elapsed":306774,"internal_node_id":"0.0-4.0-0.51","subject_id":"5aa429f7b5e2110001c726db","study_id":"6197b3f67c2b5cd3b6d9596a","session_id":"6197b9f1755fa2d7a0390437","condition":"full-information","relevant_dimensions":["pattern","legs"],"bee_group":{"antennae":"X","wings":"X","pattern":"D","legs":"M"},"action":"avoid","summary":"good-avoid","bonus":1.6200000000000012},{"rt":688.5,"stimulus":"\n                    <p><b>Action: <em>avoid</em></b></p>\n                    <p>This is the bee that you just saw.</p>\n                    <img src=\"bees-with-color/bee-A1DM.svg\" width=\"200\">\n                    <p><span class=\"greenText\">Good choice!</span>  This bee would have stung you.<br>Your bonus pay is unchanged, and remains at $0.98.</p>\n            ","response":0,"trial_type":"html-button-response","trial_index":110,"time_elapsed":307463,"internal_node_id":"0.0-4.0-1.51","subject_id":"5aa429f7b5e2110001c726db","study_id":"6197b3f67c2b5cd3b6d9596a","session_id":"6197b9f1755fa2d7a0390437","condition":"full-information","relevant_dimensions":["pattern","legs"],"bee_group":{"antennae":"X","wings":"X","pattern":"D","legs":"M"},"bonus":1.6200000000000012},{"rt":2515.800000011921,"stimulus":"bees-with-color/bee-A1DF.svg","response":1,"trial_type":"image-button-response","trial_index":111,"time_elapsed":309980,"internal_node_id":"0.0-4.0-0.52","subject_id":"5aa429f7b5e2110001c726db","study_id":"6197b3f67c2b5cd3b6d9596a","session_id":"6197b9f1755fa2d7a0390437","condition":"full-information","relevant_dimensions":["pattern","legs"],"bee_group":{"antennae":"X","wings":"X","pattern":"D","legs":"M"},"action":"avoid","summary":"bad-avoid","bonus":1.6200000000000012},{"rt":818.8000000119209,"stimulus":"\n                    <p><b>Action: <em>avoid</em></b></p>\n                    <p>This is the bee that you just saw.</p>\n                    <img src=\"bees-with-color/bee-A1DF.svg\" width=\"200\">\n                    <p><span class=\"redText\">Bad choice,</span> the bee was friendly.<br>Your bonus pay is unchanged, and remains at $0.98.</p>\n            ","response":0,"trial_type":"html-button-response","trial_index":112,"time_elapsed":310800,"internal_node_id":"0.0-4.0-1.52","subject_id":"5aa429f7b5e2110001c726db","study_id":"6197b3f67c2b5cd3b6d9596a","session_id":"6197b9f1755fa2d7a0390437","condition":"full-information","relevant_dimensions":["pattern","legs"],"bee_group":{"antennae":"X","wings":"X","pattern":"D","legs":"M"},"bonus":1.6200000000000012},{"rt":947.0999999940395,"stimulus":"bees-with-color/bee-A1SF.svg","response":0,"trial_type":"image-button-response","trial_index":113,"time_elapsed":311748,"internal_node_id":"0.0-4.0-0.53","subject_id":"5aa429f7b5e2110001c726db","study_id":"6197b3f67c2b5cd3b6d9596a","session_id":"6197b9f1755fa2d7a0390437","condition":"full-information","relevant_dimensions":["pattern","legs"],"bee_group":{"antennae":"X","wings":"X","pattern":"D","legs":"M"},"action":"harvest","summary":"good-harvest","bonus":1.6200000000000012},{"rt":649,"stimulus":"\n                    <p><b>Action: <em>harvest</em></b></p>\n                    <p>This is the bee that you just saw.</p>\n                    <img src=\"bees-with-color/bee-A1SF.svg\" width=\"200\">\n                    <p><span class=\"greenText\"><b>Successful harvest!</b></span><br>Your pay has increased by $0.02. Your bonus pay is now $1.00.</p>\n            ","response":0,"trial_type":"html-button-response","trial_index":114,"time_elapsed":312398,"internal_node_id":"0.0-4.0-1.53","subject_id":"5aa429f7b5e2110001c726db","study_id":"6197b3f67c2b5cd3b6d9596a","session_id":"6197b9f1755fa2d7a0390437","condition":"full-information","relevant_dimensions":["pattern","legs"],"bee_group":{"antennae":"X","wings":"X","pattern":"D","legs":"M"},"bonus":1.6200000000000012},{"rt":1372.5,"stimulus":"bees-with-color/bee-B1DM.svg","response":1,"trial_type":"image-button-response","trial_index":115,"time_elapsed":313772,"internal_node_id":"0.0-4.0-0.54","subject_id":"5aa429f7b5e2110001c726db","study_id":"6197b3f67c2b5cd3b6d9596a","session_id":"6197b9f1755fa2d7a0390437","condition":"full-information","relevant_dimensions":["pattern","legs"],"bee_group":{"antennae":"X","wings":"X","pattern":"D","legs":"M"},"action":"avoid","summary":"good-avoid","bonus":1.6200000000000012},{"rt":953.1000000238419,"stimulus":"\n                    <p><b>Action: <em>avoid</em></b></p>\n                    <p>This is the bee that you just saw.</p>\n                    <img src=\"bees-with-color/bee-B1DM.svg\" width=\"200\">\n                    <p><span class=\"greenText\">Good choice!</span>  This bee would have stung you.<br>Your bonus pay is unchanged, and remains at $1.00.</p>\n            ","response":0,"trial_type":"html-button-response","trial_index":116,"time_elapsed":314726,"internal_node_id":"0.0-4.0-1.54","subject_id":"5aa429f7b5e2110001c726db","study_id":"6197b3f67c2b5cd3b6d9596a","session_id":"6197b9f1755fa2d7a0390437","condition":"full-information","relevant_dimensions":["pattern","legs"],"bee_group":{"antennae":"X","wings":"X","pattern":"D","legs":"M"},"bonus":1.6200000000000012},{"rt":1480.3999999761581,"stimulus":"bees-with-color/bee-A1SM.svg","response":0,"trial_type":"image-button-response","trial_index":117,"time_elapsed":316208,"internal_node_id":"0.0-4.0-0.55","subject_id":"5aa429f7b5e2110001c726db","study_id":"6197b3f67c2b5cd3b6d9596a","session_id":"6197b9f1755fa2d7a0390437","condition":"full-information","relevant_dimensions":["pattern","legs"],"bee_group":{"antennae":"X","wings":"X","pattern":"D","legs":"M"},"action":"harvest","summary":"good-harvest","bonus":1.6200000000000012},{"rt":792.9000000059605,"stimulus":"\n                    <p><b>Action: <em>harvest</em></b></p>\n                    <p>This is the bee that you just saw.</p>\n                    <img src=\"bees-with-color/bee-A1SM.svg\" width=\"200\">\n                    <p><span class=\"greenText\"><b>Successful harvest!</b></span><br>Your pay has increased by $0.02. Your bonus pay is now $1.02.</p>\n            ","response":0,"trial_type":"html-button-response","trial_index":118,"time_elapsed":317002,"internal_node_id":"0.0-4.0-1.55","subject_id":"5aa429f7b5e2110001c726db","study_id":"6197b3f67c2b5cd3b6d9596a","session_id":"6197b9f1755fa2d7a0390437","condition":"full-information","relevant_dimensions":["pattern","legs"],"bee_group":{"antennae":"X","wings":"X","pattern":"D","legs":"M"},"bonus":1.6200000000000012},{"rt":1121.199999988079,"stimulus":"bees-with-color/bee-B2SF.svg","response":0,"trial_type":"image-button-response","trial_index":119,"time_elapsed":318124,"internal_node_id":"0.0-4.0-0.56","subject_id":"5aa429f7b5e2110001c726db","study_id":"6197b3f67c2b5cd3b6d9596a","session_id":"6197b9f1755fa2d7a0390437","condition":"full-information","relevant_dimensions":["pattern","legs"],"bee_group":{"antennae":"X","wings":"X","pattern":"D","legs":"M"},"action":"harvest","summary":"good-harvest","bonus":1.6200000000000012},{"rt":565.8999999761581,"stimulus":"\n                    <p><b>Action: <em>harvest</em></b></p>\n                    <p>This is the bee that you just saw.</p>\n                    <img src=\"bees-with-color/bee-B2SF.svg\" width=\"200\">\n                    <p><span class=\"greenText\"><b>Successful harvest!</b></span><br>Your pay has increased by $0.02. Your bonus pay is now $1.04.</p>\n            ","response":0,"trial_type":"html-button-response","trial_index":120,"time_elapsed":318691,"internal_node_id":"0.0-4.0-1.56","subject_id":"5aa429f7b5e2110001c726db","study_id":"6197b3f67c2b5cd3b6d9596a","session_id":"6197b9f1755fa2d7a0390437","condition":"full-information","relevant_dimensions":["pattern","legs"],"bee_group":{"antennae":"X","wings":"X","pattern":"D","legs":"M"},"bonus":1.6200000000000012},{"rt":976.1999999880791,"stimulus":"bees-with-color/bee-A2SF.svg","response":0,"trial_type":"image-button-response","trial_index":121,"time_elapsed":319668,"internal_node_id":"0.0-4.0-0.57","subject_id":"5aa429f7b5e2110001c726db","study_id":"6197b3f67c2b5cd3b6d9596a","session_id":"6197b9f1755fa2d7a0390437","condition":"full-information","relevant_dimensions":["pattern","legs"],"bee_group":{"antennae":"X","wings":"X","pattern":"D","legs":"M"},"action":"harvest","summary":"good-harvest","bonus":1.6200000000000012},{"rt":776.8999999761581,"stimulus":"\n                    <p><b>Action: <em>harvest</em></b></p>\n                    <p>This is the bee that you just saw.</p>\n                    <img src=\"bees-with-color/bee-A2SF.svg\" width=\"200\">\n                    <p><span class=\"greenText\"><b>Successful harvest!</b></span><br>Your pay has increased by $0.02. Your bonus pay is now $1.06.</p>\n            ","response":0,"trial_type":"html-button-response","trial_index":122,"time_elapsed":320447,"internal_node_id":"0.0-4.0-1.57","subject_id":"5aa429f7b5e2110001c726db","study_id":"6197b3f67c2b5cd3b6d9596a","session_id":"6197b9f1755fa2d7a0390437","condition":"full-information","relevant_dimensions":["pattern","legs"],"bee_group":{"antennae":"X","wings":"X","pattern":"D","legs":"M"},"bonus":1.6200000000000012},{"rt":1751.5,"stimulus":"bees-with-color/bee-B2DF.svg","response":0,"trial_type":"image-button-response","trial_index":123,"time_elapsed":322199,"internal_node_id":"0.0-4.0-0.58","subject_id":"5aa429f7b5e2110001c726db","study_id":"6197b3f67c2b5cd3b6d9596a","session_id":"6197b9f1755fa2d7a0390437","condition":"full-information","relevant_dimensions":["pattern","legs"],"bee_group":{"antennae":"X","wings":"X","pattern":"D","legs":"M"},"action":"harvest","summary":"good-harvest","bonus":1.6200000000000012},{"rt":564,"stimulus":"\n                    <p><b>Action: <em>harvest</em></b></p>\n                    <p>This is the bee that you just saw.</p>\n                    <img src=\"bees-with-color/bee-B2DF.svg\" width=\"200\">\n                    <p><span class=\"greenText\"><b>Successful harvest!</b></span><br>Your pay has increased by $0.02. Your bonus pay is now $1.08.</p>\n            ","response":0,"trial_type":"html-button-response","trial_index":124,"time_elapsed":322764,"internal_node_id":"0.0-4.0-1.58","subject_id":"5aa429f7b5e2110001c726db","study_id":"6197b3f67c2b5cd3b6d9596a","session_id":"6197b9f1755fa2d7a0390437","condition":"full-information","relevant_dimensions":["pattern","legs"],"bee_group":{"antennae":"X","wings":"X","pattern":"D","legs":"M"},"bonus":1.6200000000000012},{"rt":1345.0999999940395,"stimulus":"bees-with-color/bee-A2DM.svg","response":1,"trial_type":"image-button-response","trial_index":125,"time_elapsed":324111,"internal_node_id":"0.0-4.0-0.59","subject_id":"5aa429f7b5e2110001c726db","study_id":"6197b3f67c2b5cd3b6d9596a","session_id":"6197b9f1755fa2d7a0390437","condition":"full-information","relevant_dimensions":["pattern","legs"],"bee_group":{"antennae":"X","wings":"X","pattern":"D","legs":"M"},"action":"avoid","summary":"good-avoid","bonus":1.6200000000000012},{"rt":754.4000000059605,"stimulus":"\n                    <p><b>Action: <em>avoid</em></b></p>\n                    <p>This is the bee that you just saw.</p>\n                    <img src=\"bees-with-color/bee-A2DM.svg\" width=\"200\">\n                    <p><span class=\"greenText\">Good choice!</span>  This bee would have stung you.<br>Your bonus pay is unchanged, and remains at $1.08.</p>\n            ","response":0,"trial_type":"html-button-response","trial_index":126,"time_elapsed":324866,"internal_node_id":"0.0-4.0-1.59","subject_id":"5aa429f7b5e2110001c726db","study_id":"6197b3f67c2b5cd3b6d9596a","session_id":"6197b9f1755fa2d7a0390437","condition":"full-information","relevant_dimensions":["pattern","legs"],"bee_group":{"antennae":"X","wings":"X","pattern":"D","legs":"M"},"bonus":1.6200000000000012},{"rt":1089.699999988079,"stimulus":"bees-with-color/bee-B2SM.svg","response":0,"trial_type":"image-button-response","trial_index":127,"time_elapsed":325957,"internal_node_id":"0.0-4.0-0.60","subject_id":"5aa429f7b5e2110001c726db","study_id":"6197b3f67c2b5cd3b6d9596a","session_id":"6197b9f1755fa2d7a0390437","condition":"full-information","relevant_dimensions":["pattern","legs"],"bee_group":{"antennae":"X","wings":"X","pattern":"D","legs":"M"},"action":"harvest","summary":"good-harvest","bonus":1.6200000000000012},{"rt":724.9000000059605,"stimulus":"\n                    <p><b>Action: <em>harvest</em></b></p>\n                    <p>This is the bee that you just saw.</p>\n                    <img src=\"bees-with-color/bee-B2SM.svg\" width=\"200\">\n                    <p><span class=\"greenText\"><b>Successful harvest!</b></span><br>Your pay has increased by $0.02. Your bonus pay is now $1.10.</p>\n            ","response":0,"trial_type":"html-button-response","trial_index":128,"time_elapsed":326683,"internal_node_id":"0.0-4.0-1.60","subject_id":"5aa429f7b5e2110001c726db","study_id":"6197b3f67c2b5cd3b6d9596a","session_id":"6197b9f1755fa2d7a0390437","condition":"full-information","relevant_dimensions":["pattern","legs"],"bee_group":{"antennae":"X","wings":"X","pattern":"D","legs":"M"},"bonus":1.6200000000000012},{"rt":857.2000000178814,"stimulus":"bees-with-color/bee-A2SM.svg","response":0,"trial_type":"image-button-response","trial_index":129,"time_elapsed":327542,"internal_node_id":"0.0-4.0-0.61","subject_id":"5aa429f7b5e2110001c726db","study_id":"6197b3f67c2b5cd3b6d9596a","session_id":"6197b9f1755fa2d7a0390437","condition":"full-information","relevant_dimensions":["pattern","legs"],"bee_group":{"antennae":"X","wings":"X","pattern":"D","legs":"M"},"action":"harvest","summary":"good-harvest","bonus":1.6200000000000012},{"rt":683.8000000119209,"stimulus":"\n                    <p><b>Action: <em>harvest</em></b></p>\n                    <p>This is the bee that you just saw.</p>\n                    <img src=\"bees-with-color/bee-A2SM.svg\" width=\"200\">\n                    <p><span class=\"greenText\"><b>Successful harvest!</b></span><br>Your pay has increased by $0.02. Your bonus pay is now $1.12.</p>\n            ","response":0,"trial_type":"html-button-response","trial_index":130,"time_elapsed":328227,"internal_node_id":"0.0-4.0-1.61","subject_id":"5aa429f7b5e2110001c726db","study_id":"6197b3f67c2b5cd3b6d9596a","session_id":"6197b9f1755fa2d7a0390437","condition":"full-information","relevant_dimensions":["pattern","legs"],"bee_group":{"antennae":"X","wings":"X","pattern":"D","legs":"M"},"bonus":1.6200000000000012},{"rt":1743.4000000059605,"stimulus":"bees-with-color/bee-B2DM.svg","response":1,"trial_type":"image-button-response","trial_index":131,"time_elapsed":329972,"internal_node_id":"0.0-4.0-0.62","subject_id":"5aa429f7b5e2110001c726db","study_id":"6197b3f67c2b5cd3b6d9596a","session_id":"6197b9f1755fa2d7a0390437","condition":"full-information","relevant_dimensions":["pattern","legs"],"bee_group":{"antennae":"X","wings":"X","pattern":"D","legs":"M"},"action":"avoid","summary":"good-avoid","bonus":1.6200000000000012},{"rt":1148.9000000059605,"stimulus":"\n                    <p><b>Action: <em>avoid</em></b></p>\n                    <p>This is the bee that you just saw.</p>\n                    <img src=\"bees-with-color/bee-B2DM.svg\" width=\"200\">\n                    <p><span class=\"greenText\">Good choice!</span>  This bee would have stung you.<br>Your bonus pay is unchanged, and remains at $1.12.</p>\n            ","response":0,"trial_type":"html-button-response","trial_index":132,"time_elapsed":331122,"internal_node_id":"0.0-4.0-1.62","subject_id":"5aa429f7b5e2110001c726db","study_id":"6197b3f67c2b5cd3b6d9596a","session_id":"6197b9f1755fa2d7a0390437","condition":"full-information","relevant_dimensions":["pattern","legs"],"bee_group":{"antennae":"X","wings":"X","pattern":"D","legs":"M"},"bonus":1.6200000000000012},{"rt":1054.5999999940395,"stimulus":"bees-with-color/bee-B1DF.svg","response":0,"trial_type":"image-button-response","trial_index":133,"time_elapsed":332177,"internal_node_id":"0.0-4.0-0.63","subject_id":"5aa429f7b5e2110001c726db","study_id":"6197b3f67c2b5cd3b6d9596a","session_id":"6197b9f1755fa2d7a0390437","condition":"full-information","relevant_dimensions":["pattern","legs"],"bee_group":{"antennae":"X","wings":"X","pattern":"D","legs":"M"},"action":"harvest","summary":"good-harvest","bonus":1.6200000000000012},{"rt":705,"stimulus":"\n                    <p><b>Action: <em>harvest</em></b></p>\n                    <p>This is the bee that you just saw.</p>\n                    <img src=\"bees-with-color/bee-B1DF.svg\" width=\"200\">\n                    <p><span class=\"greenText\"><b>Successful harvest!</b></span><br>Your pay has increased by $0.02. Your bonus pay is now $1.14.</p>\n            ","response":0,"trial_type":"html-button-response","trial_index":134,"time_elapsed":332884,"internal_node_id":"0.0-4.0-1.63","subject_id":"5aa429f7b5e2110001c726db","study_id":"6197b3f67c2b5cd3b6d9596a","session_id":"6197b9f1755fa2d7a0390437","condition":"full-information","relevant_dimensions":["pattern","legs"],"bee_group":{"antennae":"X","wings":"X","pattern":"D","legs":"M"},"bonus":1.6200000000000012},{"rt":6014.899999976158,"stimulus":"You have completed the first part of this experiment.<br><br>You will now begin a shorter second part, in which you will receive no feedback.<br>The same rules regarding bonus pay apply.<br><br>Press any key to begin.","response":" ","trial_type":"html-keyboard-response","trial_index":135,"time_elapsed":338900,"internal_node_id":"0.0-5.0","subject_id":"5aa429f7b5e2110001c726db","study_id":"6197b3f67c2b5cd3b6d9596a","session_id":"6197b9f1755fa2d7a0390437","condition":"full-information","relevant_dimensions":["pattern","legs"],"bee_group":{"antennae":"X","wings":"X","pattern":"D","legs":"M"},"bonus":1.6200000000000012},{"rt":3401.5,"stimulus":"bees-with-color/bee-B2DF.svg","response":0,"trial_type":"image-button-response","trial_index":136,"time_elapsed":342322,"internal_node_id":"0.0-6.0-0.0","subject_id":"5aa429f7b5e2110001c726db","study_id":"6197b3f67c2b5cd3b6d9596a","session_id":"6197b9f1755fa2d7a0390437","condition":"full-information","relevant_dimensions":["pattern","legs"],"bee_group":{"antennae":"X","wings":"X","pattern":"D","legs":"M"},"bonus":1.6200000000000012},{"rt":1840.0999999940395,"stimulus":"bees-with-color/bee-B2SM.svg","response":0,"trial_type":"image-button-response","trial_index":137,"time_elapsed":344164,"internal_node_id":"0.0-6.0-0.1","subject_id":"5aa429f7b5e2110001c726db","study_id":"6197b3f67c2b5cd3b6d9596a","session_id":"6197b9f1755fa2d7a0390437","condition":"full-information","relevant_dimensions":["pattern","legs"],"bee_group":{"antennae":"X","wings":"X","pattern":"D","legs":"M"},"bonus":1.6200000000000012},{"rt":1080.0999999940395,"stimulus":"bees-with-color/bee-B1SM.svg","response":0,"trial_type":"image-button-response","trial_index":138,"time_elapsed":345246,"internal_node_id":"0.0-6.0-0.2","subject_id":"5aa429f7b5e2110001c726db","study_id":"6197b3f67c2b5cd3b6d9596a","session_id":"6197b9f1755fa2d7a0390437","condition":"full-information","relevant_dimensions":["pattern","legs"],"bee_group":{"antennae":"X","wings":"X","pattern":"D","legs":"M"},"bonus":1.6200000000000012},{"rt":1173,"stimulus":"bees-with-color/bee-B2DM.svg","response":1,"trial_type":"image-button-response","trial_index":139,"time_elapsed":346421,"internal_node_id":"0.0-6.0-0.3","subject_id":"5aa429f7b5e2110001c726db","study_id":"6197b3f67c2b5cd3b6d9596a","session_id":"6197b9f1755fa2d7a0390437","condition":"full-information","relevant_dimensions":["pattern","legs"],"bee_group":{"antennae":"X","wings":"X","pattern":"D","legs":"M"},"bonus":1.6200000000000012},{"rt":804,"stimulus":"bees-with-color/bee-B2SF.svg","response":0,"trial_type":"image-button-response","trial_index":140,"time_elapsed":347227,"internal_node_id":"0.0-6.0-0.4","subject_id":"5aa429f7b5e2110001c726db","study_id":"6197b3f67c2b5cd3b6d9596a","session_id":"6197b9f1755fa2d7a0390437","condition":"full-information","relevant_dimensions":["pattern","legs"],"bee_group":{"antennae":"X","wings":"X","pattern":"D","legs":"M"},"bonus":1.6200000000000012},{"rt":3899,"stimulus":"bees-with-color/bee-A1DF.svg","response":0,"trial_type":"image-button-response","trial_index":141,"time_elapsed":351128,"internal_node_id":"0.0-6.0-0.5","subject_id":"5aa429f7b5e2110001c726db","study_id":"6197b3f67c2b5cd3b6d9596a","session_id":"6197b9f1755fa2d7a0390437","condition":"full-information","relevant_dimensions":["pattern","legs"],"bee_group":{"antennae":"X","wings":"X","pattern":"D","legs":"M"},"bonus":1.6200000000000012},{"rt":2058.5,"stimulus":"bees-with-color/bee-B1DM.svg","response":1,"trial_type":"image-button-response","trial_index":142,"time_elapsed":353189,"internal_node_id":"0.0-6.0-0.6","subject_id":"5aa429f7b5e2110001c726db","study_id":"6197b3f67c2b5cd3b6d9596a","session_id":"6197b9f1755fa2d7a0390437","condition":"full-information","relevant_dimensions":["pattern","legs"],"bee_group":{"antennae":"X","wings":"X","pattern":"D","legs":"M"},"bonus":1.6200000000000012},{"rt":1956.4000000059605,"stimulus":"bees-with-color/bee-A2DF.svg","response":0,"trial_type":"image-button-response","trial_index":143,"time_elapsed":355147,"internal_node_id":"0.0-6.0-0.7","subject_id":"5aa429f7b5e2110001c726db","study_id":"6197b3f67c2b5cd3b6d9596a","session_id":"6197b9f1755fa2d7a0390437","condition":"full-information","relevant_dimensions":["pattern","legs"],"bee_group":{"antennae":"X","wings":"X","pattern":"D","legs":"M"},"bonus":1.6200000000000012},{"rt":1159.9000000059605,"stimulus":"bees-with-color/bee-A2DM.svg","response":1,"trial_type":"image-button-response","trial_index":144,"time_elapsed":356309,"internal_node_id":"0.0-6.0-0.8","subject_id":"5aa429f7b5e2110001c726db","study_id":"6197b3f67c2b5cd3b6d9596a","session_id":"6197b9f1755fa2d7a0390437","condition":"full-information","relevant_dimensions":["pattern","legs"],"bee_group":{"antennae":"X","wings":"X","pattern":"D","legs":"M"},"bonus":1.6200000000000012},{"rt":849.6000000238419,"stimulus":"bees-with-color/bee-A2SM.svg","response":0,"trial_type":"image-button-response","trial_index":145,"time_elapsed":357161,"internal_node_id":"0.0-6.0-0.9","subject_id":"5aa429f7b5e2110001c726db","study_id":"6197b3f67c2b5cd3b6d9596a","session_id":"6197b9f1755fa2d7a0390437","condition":"full-information","relevant_dimensions":["pattern","legs"],"bee_group":{"antennae":"X","wings":"X","pattern":"D","legs":"M"},"bonus":1.6200000000000012},{"rt":2846.2999999821186,"stimulus":"bees-with-color/bee-B1DF.svg","response":0,"trial_type":"image-button-response","trial_index":146,"time_elapsed":360009,"internal_node_id":"0.0-6.0-0.10","subject_id":"5aa429f7b5e2110001c726db","study_id":"6197b3f67c2b5cd3b6d9596a","session_id":"6197b9f1755fa2d7a0390437","condition":"full-information","relevant_dimensions":["pattern","legs"],"bee_group":{"antennae":"X","wings":"X","pattern":"D","legs":"M"},"bonus":1.6200000000000012},{"rt":749.5,"stimulus":"bees-with-color/bee-A1SM.svg","response":0,"trial_type":"image-button-response","trial_index":147,"time_elapsed":360760,"internal_node_id":"0.0-6.0-0.11","subject_id":"5aa429f7b5e2110001c726db","study_id":"6197b3f67c2b5cd3b6d9596a","session_id":"6197b9f1755fa2d7a0390437","condition":"full-information","relevant_dimensions":["pattern","legs"],"bee_group":{"antennae":"X","wings":"X","pattern":"D","legs":"M"},"bonus":1.6200000000000012},{"rt":663.5,"stimulus":"bees-with-color/bee-B1SF.svg","response":0,"trial_type":"image-button-response","trial_index":148,"time_elapsed":361425,"internal_node_id":"0.0-6.0-0.12","subject_id":"5aa429f7b5e2110001c726db","study_id":"6197b3f67c2b5cd3b6d9596a","session_id":"6197b9f1755fa2d7a0390437","condition":"full-information","relevant_dimensions":["pattern","legs"],"bee_group":{"antennae":"X","wings":"X","pattern":"D","legs":"M"},"bonus":1.6200000000000012},{"rt":515.5999999940395,"stimulus":"bees-with-color/bee-A2SF.svg","response":0,"trial_type":"image-button-response","trial_index":149,"time_elapsed":361943,"internal_node_id":"0.0-6.0-0.13","subject_id":"5aa429f7b5e2110001c726db","study_id":"6197b3f67c2b5cd3b6d9596a","session_id":"6197b9f1755fa2d7a0390437","condition":"full-information","relevant_dimensions":["pattern","legs"],"bee_group":{"antennae":"X","wings":"X","pattern":"D","legs":"M"},"bonus":1.6200000000000012},{"rt":554.2999999821186,"stimulus":"bees-with-color/bee-A1SF.svg","response":0,"trial_type":"image-button-response","trial_index":150,"time_elapsed":362499,"internal_node_id":"0.0-6.0-0.14","subject_id":"5aa429f7b5e2110001c726db","study_id":"6197b3f67c2b5cd3b6d9596a","session_id":"6197b9f1755fa2d7a0390437","condition":"full-information","relevant_dimensions":["pattern","legs"],"bee_group":{"antennae":"X","wings":"X","pattern":"D","legs":"M"},"bonus":1.6200000000000012},{"rt":952,"stimulus":"bees-with-color/bee-A1DM.svg","response":1,"trial_type":"image-button-response","trial_index":151,"time_elapsed":363452,"internal_node_id":"0.0-6.0-0.15","subject_id":"5aa429f7b5e2110001c726db","study_id":"6197b3f67c2b5cd3b6d9596a","session_id":"6197b9f1755fa2d7a0390437","condition":"full-information","relevant_dimensions":["pattern","legs"],"bee_group":{"antennae":"X","wings":"X","pattern":"D","legs":"M"},"bonus":1.6200000000000012},{"rt":4974.5,"stimulus":"bees-with-color/bee-B1DF.svg","response":0,"trial_type":"image-button-response","trial_index":152,"time_elapsed":368428,"internal_node_id":"0.0-6.0-0.16","subject_id":"5aa429f7b5e2110001c726db","study_id":"6197b3f67c2b5cd3b6d9596a","session_id":"6197b9f1755fa2d7a0390437","condition":"full-information","relevant_dimensions":["pattern","legs"],"bee_group":{"antennae":"X","wings":"X","pattern":"D","legs":"M"},"bonus":1.6200000000000012},{"rt":782.4000000059605,"stimulus":"bees-with-color/bee-A1SF.svg","response":0,"trial_type":"image-button-response","trial_index":153,"time_elapsed":369212,"internal_node_id":"0.0-6.0-0.17","subject_id":"5aa429f7b5e2110001c726db","study_id":"6197b3f67c2b5cd3b6d9596a","session_id":"6197b9f1755fa2d7a0390437","condition":"full-information","relevant_dimensions":["pattern","legs"],"bee_group":{"antennae":"X","wings":"X","pattern":"D","legs":"M"},"bonus":1.6200000000000012},{"rt":2806.7999999821186,"stimulus":"bees-with-color/bee-A1DF.svg","response":0,"trial_type":"image-button-response","trial_index":154,"time_elapsed":372021,"internal_node_id":"0.0-6.0-0.18","subject_id":"5aa429f7b5e2110001c726db","study_id":"6197b3f67c2b5cd3b6d9596a","session_id":"6197b9f1755fa2d7a0390437","condition":"full-information","relevant_dimensions":["pattern","legs"],"bee_group":{"antennae":"X","wings":"X","pattern":"D","legs":"M"},"bonus":1.6200000000000012},{"rt":1019.4000000059605,"stimulus":"bees-with-color/bee-B2DM.svg","response":1,"trial_type":"image-button-response","trial_index":155,"time_elapsed":373042,"internal_node_id":"0.0-6.0-0.19","subject_id":"5aa429f7b5e2110001c726db","study_id":"6197b3f67c2b5cd3b6d9596a","session_id":"6197b9f1755fa2d7a0390437","condition":"full-information","relevant_dimensions":["pattern","legs"],"bee_group":{"antennae":"X","wings":"X","pattern":"D","legs":"M"},"bonus":1.6200000000000012},{"rt":822.6000000238419,"stimulus":"bees-with-color/bee-A2SM.svg","response":0,"trial_type":"image-button-response","trial_index":156,"time_elapsed":373866,"internal_node_id":"0.0-6.0-0.20","subject_id":"5aa429f7b5e2110001c726db","study_id":"6197b3f67c2b5cd3b6d9596a","session_id":"6197b9f1755fa2d7a0390437","condition":"full-information","relevant_dimensions":["pattern","legs"],"bee_group":{"antennae":"X","wings":"X","pattern":"D","legs":"M"},"bonus":1.6200000000000012},{"rt":1213.300000011921,"stimulus":"bees-with-color/bee-B2DF.svg","response":0,"trial_type":"image-button-response","trial_index":157,"time_elapsed":375081,"internal_node_id":"0.0-6.0-0.21","subject_id":"5aa429f7b5e2110001c726db","study_id":"6197b3f67c2b5cd3b6d9596a","session_id":"6197b9f1755fa2d7a0390437","condition":"full-information","relevant_dimensions":["pattern","legs"],"bee_group":{"antennae":"X","wings":"X","pattern":"D","legs":"M"},"bonus":1.6200000000000012},{"rt":736.8999999761581,"stimulus":"bees-with-color/bee-B1DM.svg","response":1,"trial_type":"image-butt