[{"success":true,"trial_type":"fullscreen","trial_index":0,"time_elapsed":3379,"internal_node_id":"0.0-0.0","subject_id":"5e983ab90e13cb01177b3ee0","study_id":"6197b3f67c2b5cd3b6d9596a","session_id":"6197b7f490f7a2f452f36cef","condition":"full-information","relevant_dimensions":["antennae","wings"],"bee_group":{"antennae":"B","wings":"1","pattern":"X","legs":"X"},"bonus":0.9600000000000007},{"success":true,"timeout":false,"failed_images":[],"failed_audio":[],"failed_video":[],"trial_type":"preload","trial_index":1,"time_elapsed":6337,"internal_node_id":"0.0-1.0","subject_id":"5e983ab90e13cb01177b3ee0","study_id":"6197b3f67c2b5cd3b6d9596a","session_id":"6197b7f490f7a2f452f36cef","condition":"full-information","relevant_dimensions":["antennae","wings"],"bee_group":{"antennae":"B","wings":"1","pattern":"X","legs":"X"},"bonus":0.9600000000000007},{"rt":8447.200000047684,"stimulus":"Welcome! Press any key to begin.","response":"enter","trial_type":"html-keyboard-response","trial_index":2,"time_elapsed":14786,"internal_node_id":"0.0-2.0","subject_id":"5e983ab90e13cb01177b3ee0","study_id":"6197b3f67c2b5cd3b6d9596a","session_id":"6197b7f490f7a2f452f36cef","condition":"full-information","relevant_dimensions":["antennae","wings"],"bee_group":{"antennae":"B","wings":"1","pattern":"X","legs":"X"},"bonus":0.9600000000000007},{"view_history":[{"page_index":0,"viewing_time":5295.5},{"page_index":1,"viewing_time":37727.89999997616},{"page_index":2,"viewing_time":28152.100000023842},{"page_index":3,"viewing_time":26880.100000023842},{"page_index":4,"viewing_time":23656},{"page_index":5,"viewing_time":15232.099999904633},{"page_index":6,"viewing_time":17464},{"page_index":7,"viewing_time":30311.800000071526},{"page_index":8,"viewing_time":8960},{"page_index":9,"viewing_time":7920.199999928474},{"page_index":10,"viewing_time":11232},{"page_index":11,"viewing_time":29343.900000095367},{"page_index":12,"viewing_time":17552},{"page_index":13,"viewing_time":1415.8999999761581},{"page_index":14,"viewing_time":11016.199999928474}],"rt":272160.10000002384,"trial_type":"instructions","trial_index":3,"time_elapsed":286947,"internal_node_id":"0.0-3.0-0.0","subject_id":"5e983ab90e13cb01177b3ee0","study_id":"6197b3f67c2b5cd3b6d9596a","session_id":"6197b7f490f7a2f452f36cef","condition":"full-information","relevant_dimensions":["antennae","wings"],"bee_group":{"antennae":"B","wings":"1","pattern":"X","legs":"X"},"bonus":0.9600000000000007},{"rt":69377.5,"response":{"Q0":["Two or six legs","Stripes or spots on body","Single or double wings","Antennae or no antennae"]},"question_order":[0],"trial_type":"survey-multi-select","trial_index":4,"time_elapsed":356333,"internal_node_id":"0.0-3.0-1.0","subject_id":"5e983ab90e13cb01177b3ee0","study_id":"6197b3f67c2b5cd3b6d9596a","session_id":"6197b7f490f7a2f452f36cef","condition":"full-information","relevant_dimensions":["antennae","wings"],"bee_group":{"antennae":"B","wings":"1","pattern":"X","legs":"X"},"correct":true,"bonus":0.9600000000000007},{"rt":78604.5,"response":{"Q1":"No.","Q2":"Based on the four features of the bee.","Q3":"You learn if it was friendly or dangerous, but do not alter your bonus."},"question_order":[0,1,2],"trial_type":"survey-multi-choice","trial_index":5,"time_elapsed":434940,"internal_node_id":"0.0-3.0-2.0","subject_id":"5e983ab90e13cb01177b3ee0","study_id":"6197b3f67c2b5cd3b6d9596a","session_id":"6197b7f490f7a2f452f36cef","condition":"full-information","relevant_dimensions":["antennae","wings"],"bee_group":{"antennae":"B","wings":"1","pattern":"X","legs":"X"},"correct":true,"bonus":0.9600000000000007},{"rt":3821.2000000476837,"stimulus":"<p>Congrats, you got everything right<br>When you're ready, click the button below to continue to the experiment.</p>","response":0,"trial_type":"html-button-response","trial_index":6,"time_elapsed":438764,"internal_node_id":"0.0-3.0-3.0","subject_id":"5e983ab90e13cb01177b3ee0","study_id":"6197b3f67c2b5cd3b6d9596a","session_id":"6197b7f490f7a2f452f36cef","condition":"full-information","relevant_dimensions":["antennae","wings"],"bee_group":{"antennae":"B","wings":"1","pattern":"X","legs":"X"},"bonus":0.9600000000000007},{"rt":23404.400000095367,"stimulus":"bees-with-color/bee-A2DF.svg","response":1,"trial_type":"image-button-response","trial_index":7,"time_elapsed":462172,"internal_node_id":"0.0-4.0-0.0","subject_id":"5e983ab90e13cb01177b3ee0","study_id":"6197b3f67c2b5cd3b6d9596a","session_id":"6197b7f490f7a2f452f36cef","condition":"full-information","relevant_dimensions":["antennae","wings"],"bee_group":{"antennae":"B","wings":"1","pattern":"X","legs":"X"},"action":"avoid","summary":"bad-avoid","bonus":0.9600000000000007},{"rt":26134.399999976158,"stimulus":"\n                    <p><b>Action: <em>avoid</em></b></p>\n                    <p>This is the bee that you just saw.</p>\n                    <img src=\"bees-with-color/bee-A2DF.svg\" width=\"200\">\n                    <p><span class=\"redText\">Bad choice,</span> the bee was friendly.<br>Your bonus pay is unchanged, and remains at $0.54.</p>\n            ","response":0,"trial_type":"html-button-response","trial_index":8,"time_elapsed":488324,"internal_node_id":"0.0-4.0-1.0","subject_id":"5e983ab90e13cb01177b3ee0","study_id":"6197b3f67c2b5cd3b6d9596a","session_id":"6197b7f490f7a2f452f36cef","condition":"full-information","relevant_dimensions":["antennae","wings"],"bee_group":{"antennae":"B","wings":"1","pattern":"X","legs":"X"},"bonus":0.9600000000000007},{"rt":13437.199999928474,"stimulus":"bees-with-color/bee-B1DM.svg","response":1,"trial_type":"image-button-response","trial_index":9,"time_elapsed":501764,"internal_node_id":"0.0-4.0-0.1","subject_id":"5e983ab90e13cb01177b3ee0","study_id":"6197b3f67c2b5cd3b6d9596a","session_id":"6197b7f490f7a2f452f36cef","condition":"full-information","relevant_dimensions":["antennae","wings"],"bee_group":{"antennae":"B","wings":"1","pattern":"X","legs":"X"},"action":"avoid","summary":"good-avoid","bonus":0.9600000000000007},{"rt":24981.699999928474,"stimulus":"\n                    <p><b>Action: <em>avoid</em></b></p>\n                    <p>This is the bee that you just saw.</p>\n                    <img src=\"bees-with-color/bee-B1DM.svg\" width=\"200\">\n                    <p><span class=\"greenText\">Good choice!</span>  This bee would have stung you.<br>Your bonus pay is unchanged, and remains at $0.54.</p>\n            ","response":0,"trial_type":"html-button-response","trial_index":10,"time_elapsed":526747,"internal_node_id":"0.0-4.0-1.1","subject_id":"5e983ab90e13cb01177b3ee0","study_id":"6197b3f67c2b5cd3b6d9596a","session_id":"6197b7f490f7a2f452f36cef","condition":"full-information","relevant_dimensions":["antennae","wings"],"bee_group":{"antennae":"B","wings":"1","pattern":"X","legs":"X"},"bonus":0.9600000000000007},{"rt":10909.600000023842,"stimulus":"bees-with-color/bee-B2DM.svg","response":0,"trial_type":"image-button-response","trial_index":11,"time_elapsed":537659,"internal_node_id":"0.0-4.0-0.2","subject_id":"5e983ab90e13cb01177b3ee0","study_id":"6197b3f67c2b5cd3b6d9596a","session_id":"6197b7f490f7a2f452f36cef","condition":"full-information","relevant_dimensions":["antennae","wings"],"bee_group":{"antennae":"B","wings":"1","pattern":"X","legs":"X"},"action":"harvest","summary":"good-harvest","bonus":0.9600000000000007},{"rt":6934.5,"stimulus":"\n                    <p><b>Action: <em>harvest</em></b></p>\n                    <p>This is the bee that you just saw.</p>\n                    <img src=\"bees-with-color/bee-B2DM.svg\" width=\"200\">\n                    <p><span class=\"greenText\"><b>Successful harvest!</b></span><br>Your pay has increased by $0.02. Your bonus pay is now $0.56.</p>\n            ","response":0,"trial_type":"html-button-response","trial_index":12,"time_elapsed":544595,"internal_node_id":"0.0-4.0-1.2","subject_id":"5e983ab90e13cb01177b3ee0","study_id":"6197b3f67c2b5cd3b6d9596a","session_id":"6197b7f490f7a2f452f36cef","condition":"full-information","relevant_dimensions":["antennae","wings"],"bee_group":{"antennae":"B","wings":"1","pattern":"X","legs":"X"},"bonus":0.9600000000000007},{"rt":10389.899999976158,"stimulus":"bees-with-color/bee-A1SM.svg","response":0,"trial_type":"image-button-response","trial_index":13,"time_elapsed":554987,"internal_node_id":"0.0-4.0-0.3","subject_id":"5e983ab90e13cb01177b3ee0","study_id":"6197b3f67c2b5cd3b6d9596a","session_id":"6197b7f490f7a2f452f36cef","condition":"full-information","relevant_dimensions":["antennae","wings"],"bee_group":{"antennae":"B","wings":"1","pattern":"X","legs":"X"},"action":"harvest","summary":"good-harvest","bonus":0.9600000000000007},{"rt":16565.600000023842,"stimulus":"\n                    <p><b>Action: <em>harvest</em></b></p>\n                    <p>This is the bee that you just saw.</p>\n                    <img src=\"bees-with-color/bee-A1SM.svg\" width=\"200\">\n                    <p><span class=\"greenText\"><b>Successful harvest!</b></span><br>Your pay has increased by $0.02. Your bonus pay is now $0.58.</p>\n            ","response":0,"trial_type":"html-button-response","trial_index":14,"time_elapsed":571555,"internal_node_id":"0.0-4.0-1.3","subject_id":"5e983ab90e13cb01177b3ee0","study_id":"6197b3f67c2b5cd3b6d9596a","session_id":"6197b7f490f7a2f452f36cef","condition":"full-information","relevant_dimensions":["antennae","wings"],"bee_group":{"antennae":"B","wings":"1","pattern":"X","legs":"X"},"bonus":0.9600000000000007},{"rt":24374,"stimulus":"bees-with-color/bee-A2DM.svg","response":0,"trial_type":"image-button-response","trial_index":15,"time_elapsed":595931,"internal_node_id":"0.0-4.0-0.4","subject_id":"5e983ab90e13cb01177b3ee0","study_id":"6197b3f67c2b5cd3b6d9596a","session_id":"6197b7f490f7a2f452f36cef","condition":"full-information","relevant_dimensions":["antennae","wings"],"bee_group":{"antennae":"B","wings":"1","pattern":"X","legs":"X"},"action":"harvest","summary":"good-harvest","bonus":0.9600000000000007},{"rt":9998,"stimulus":"\n                    <p><b>Action: <em>harvest</em></b></p>\n                    <p>This is the bee that you just saw.</p>\n                    <img src=\"bees-with-color/bee-A2DM.svg\" width=\"200\">\n                    <p><span class=\"greenText\"><b>Successful harvest!</b></span><br>Your pay has increased by $0.02. Your bonus pay is now $0.60.</p>\n            ","response":0,"trial_type":"html-button-response","trial_index":16,"time_elapsed":605931,"internal_node_id":"0.0-4.0-1.4","subject_id":"5e983ab90e13cb01177b3ee0","study_id":"6197b3f67c2b5cd3b6d9596a","session_id":"6197b7f490f7a2f452f36cef","condition":"full-information","relevant_dimensions":["antennae","wings"],"bee_group":{"antennae":"B","wings":"1","pattern":"X","legs":"X"},"bonus":0.9600000000000007},{"rt":3893.7999999523163,"stimulus":"bees-with-color/bee-B1SF.svg","response":1,"trial_type":"image-button-response","trial_index":17,"time_elapsed":609827,"internal_node_id":"0.0-4.0-0.5","subject_id":"5e983ab90e13cb01177b3ee0","study_id":"6197b3f67c2b5cd3b6d9596a","session_id":"6197b7f490f7a2f452f36cef","condition":"full-information","relevant_dimensions":["antennae","wings"],"bee_group":{"antennae":"B","wings":"1","pattern":"X","legs":"X"},"action":"avoid","summary":"good-avoid","bonus":0.9600000000000007},{"rt":10254.199999928474,"stimulus":"\n                    <p><b>Action: <em>avoid</em></b></p>\n                    <p>This is the bee that you just saw.</p>\n                    <img src=\"bees-with-color/bee-B1SF.svg\" width=\"200\">\n                    <p><span class=\"greenText\">Good choice!</span>  This bee would have stung you.<br>Your bonus pay is unchanged, and remains at $0.60.</p>\n            ","response":0,"trial_type":"html-button-response","trial_index":18,"time_elapsed":620083,"internal_node_id":"0.0-4.0-1.5","subject_id":"5e983ab90e13cb01177b3ee0","study_id":"6197b3f67c2b5cd3b6d9596a","session_id":"6197b7f490f7a2f452f36cef","condition":"full-information","relevant_dimensions":["antennae","wings"],"bee_group":{"antennae":"B","wings":"1","pattern":"X","legs":"X"},"bonus":0.9600000000000007},{"rt":19853.399999976158,"stimulus":"bees-with-color/bee-A2SM.svg","response":1,"trial_type":"image-button-response","trial_index":19,"time_elapsed":639939,"internal_node_id":"0.0-4.0-0.6","subject_id":"5e983ab90e13cb01177b3ee0","study_id":"6197b3f67c2b5cd3b6d9596a","session_id":"6197b7f490f7a2f452f36cef","condition":"full-information","relevant_dimensions":["antennae","wings"],"bee_group":{"antennae":"B","wings":"1","pattern":"X","legs":"X"},"action":"avoid","summary":"bad-avoid","bonus":0.9600000000000007},{"rt":33622.200000047684,"stimulus":"\n                    <p><b>Action: <em>avoid</em></b></p>\n                    <p>This is the bee that you just saw.</p>\n                    <img src=\"bees-with-color/bee-A2SM.svg\" width=\"200\">\n                    <p><span class=\"redText\">Bad choice,</span> the bee was friendly.<br>Your bonus pay is unchanged, and remains at $0.60.</p>\n            ","response":0,"trial_type":"html-button-response","trial_index":20,"time_elapsed":673564,"internal_node_id":"0.0-4.0-1.6","subject_id":"5e983ab90e13cb01177b3ee0","study_id":"6197b3f67c2b5cd3b6d9596a","session_id":"6197b7f490f7a2f452f36cef","condition":"full-information","relevant_dimensions":["antennae","wings"],"bee_group":{"antennae":"B","wings":"1","pattern":"X","legs":"X"},"bonus":0.9600000000000007},{"rt":18717.800000071526,"stimulus":"bees-with-color/bee-A2SF.svg","response":0,"trial_type":"image-button-response","trial_index":21,"time_elapsed":692283,"internal_node_id":"0.0-4.0-0.7","subject_id":"5e983ab90e13cb01177b3ee0","study_id":"6197b3f67c2b5cd3b6d9596a","session_id":"6197b7f490f7a2f452f36cef","condition":"full-information","relevant_dimensions":["antennae","wings"],"bee_group":{"antennae":"B","wings":"1","pattern":"X","legs":"X"},"action":"harvest","summary":"good-harvest","bonus":0.9600000000000007},{"rt":19270,"stimulus":"\n                    <p><b>Action: <em>harvest</em></b></p>\n                    <p>This is the bee that you just saw.</p>\n                    <img src=\"bees-with-color/bee-A2SF.svg\" width=\"200\">\n                    <p><span class=\"greenText\"><b>Successful harvest!</b></span><br>Your pay has increased by $0.02. Your bonus pay is now $0.62.</p>\n            ","response":0,"trial_type":"html-button-response","trial_index":22,"time_elapsed":711556,"internal_node_id":"0.0-4.0-1.7","subject_id":"5e983ab90e13cb01177b3ee0","study_id":"6197b3f67c2b5cd3b6d9596a","session_id":"6197b7f490f7a2f452f36cef","condition":"full-information","relevant_dimensions":["antennae","wings"],"bee_group":{"antennae":"B","wings":"1","pattern":"X","legs":"X"},"bonus":0.9600000000000007},{"rt":17677.100000023842,"stimulus":"bees-with-color/bee-A1DF.svg","response":1,"trial_type":"image-button-response","trial_index":23,"time_elapsed":729236,"internal_node_id":"0.0-4.0-0.8","subject_id":"5e983ab90e13cb01177b3ee0","study_id":"6197b3f67c2b5cd3b6d9596a","session_id":"6197b7f490f7a2f452f36cef","condition":"full-information","relevant_dimensions":["antennae","wings"],"bee_group":{"antennae":"B","wings":"1","pattern":"X","legs":"X"},"action":"avoid","summary":"bad-avoid","bonus":0.9600000000000007},{"rt":11989.799999952316,"stimulus":"\n                    <p><b>Action: <em>avoid</em></b></p>\n                    <p>This is the bee that you just saw.</p>\n                    <img src=\"bees-with-color/bee-A1DF.svg\" width=\"200\">\n                    <p><span class=\"redText\">Bad choice,</span> the bee was friendly.<br>Your bonus pay is unchanged, and remains at $0.62.</p>\n            ","response":0,"trial_type":"html-button-response","trial_index":24,"time_elapsed":741228,"internal_node_id":"0.0-4.0-1.8","subject_id":"5e983ab90e13cb01177b3ee0","study_id":"6197b3f67c2b5cd3b6d9596a","session_id":"6197b7f490f7a2f452f36cef","condition":"full-information","relevant_dimensions":["antennae","wings"],"bee_group":{"antennae":"B","wings":"1","pattern":"X","legs":"X"},"bonus":0.9600000000000007},{"rt":36941.60000002384,"stimulus":"bees-with-color/bee-B2SF.svg","response":1,"trial_type":"image-button-response","trial_index":25,"time_elapsed":778171,"internal_node_id":"0.0-4.0-0.9","subject_id":"5e983ab90e13cb01177b3ee0","study_id":"6197b3f67c2b5cd3b6d9596a","session_id":"6197b7f490f7a2f452f36cef","condition":"full-information","relevant_dimensions":["antennae","wings"],"bee_group":{"antennae":"B","wings":"1","pattern":"X","legs":"X"},"action":"avoid","summary":"bad-avoid","bonus":0.9600000000000007},{"rt":14269.600000023842,"stimulus":"\n                    <p><b>Action: <em>avoid</em></b></p>\n                    <p>This is the bee that you just saw.</p>\n                    <img src=\"bees-with-color/bee-B2SF.svg\" width=\"200\">\n                    <p><span class=\"redText\">Bad choice,</span> the bee was friendly.<br>Your bonus pay is unchanged, and remains at $0.62.</p>\n            ","response":0,"trial_type":"html-button-response","trial_index":26,"time_elapsed":792443,"internal_node_id":"0.0-4.0-1.9","subject_id":"5e983ab90e13cb01177b3ee0","study_id":"6197b3f67c2b5cd3b6d9596a","session_id":"6197b7f490f7a2f452f36cef","condition":"full-information","relevant_dimensions":["antennae","wings"],"bee_group":{"antennae":"B","wings":"1","pattern":"X","legs":"X"},"bonus":0.9600000000000007},{"rt":26461.800000071526,"stimulus":"bees-with-color/bee-B1SM.svg","response":1,"trial_type":"image-button-response","trial_index":27,"time_elapsed":818907,"internal_node_id":"0.0-4.0-0.10","subject_id":"5e983ab90e13cb01177b3ee0","study_id":"6197b3f67c2b5cd3b6d9596a","session_id":"6197b7f490f7a2f452f36cef","condition":"full-information","relevant_dimensions":["antennae","wings"],"bee_group":{"antennae":"B","wings":"1","pattern":"X","legs":"X"},"action":"avoid","summary":"good-avoid","bonus":0.9600000000000007},{"rt":12253.799999952316,"stimulus":"\n                    <p><b>Action: <em>avoid</em></b></p>\n                    <p>This is the bee that you just saw.</p>\n                    <img src=\"bees-with-color/bee-B1SM.svg\" width=\"200\">\n                    <p><span class=\"greenText\">Good choice!</span>  This bee would have stung you.<br>Your bonus pay is unchanged, and remains at $0.62.</p>\n            ","response":0,"trial_type":"html-button-response","trial_index":28,"time_elapsed":831163,"internal_node_id":"0.0-4.0-1.10","subject_id":"5e983ab90e13cb01177b3ee0","study_id":"6197b3f67c2b5cd3b6d9596a","session_id":"6197b7f490f7a2f452f36cef","condition":"full-information","relevant_dimensions":["antennae","wings"],"bee_group":{"antennae":"B","wings":"1","pattern":"X","legs":"X"},"bonus":0.9600000000000007},{"rt":31797.800000071526,"stimulus":"bees-with-color/bee-A1SF.svg","response":0,"trial_type":"image-button-response","trial_index":29,"time_elapsed":862964,"internal_node_id":"0.0-4.0-0.11","subject_id":"5e983ab90e13cb01177b3ee0","study_id":"6197b3f67c2b5cd3b6d9596a","session_id":"6197b7f490f7a2f452f36cef","condition":"full-information","relevant_dimensions":["antennae","wings"],"bee_group":{"antennae":"B","wings":"1","pattern":"X","legs":"X"},"action":"harvest","summary":"good-harvest","bonus":0.9600000000000007},{"rt":11925.700000047684,"stimulus":"\n                    <p><b>Action: <em>harvest</em></b></p>\n                    <p>This is the bee that you just saw.</p>\n                    <img src=\"bees-with-color/bee-A1SF.svg\" width=\"200\">\n                    <p><span class=\"greenText\"><b>Successful harvest!</b></span><br>Your pay has increased by $0.02. Your bonus pay is now $0.64.</p>\n            ","response":0,"trial_type":"html-button-response","trial_index":30,"time_elapsed":874892,"internal_node_id":"0.0-4.0-1.11","subject_id":"5e983ab90e13cb01177b3ee0","study_id":"6197b3f67c2b5cd3b6d9596a","session_id":"6197b7f490f7a2f452f36cef","condition":"full-information","relevant_dimensions":["antennae","wings"],"bee_group":{"antennae":"B","wings":"1","pattern":"X","legs":"X"},"bonus":0.9600000000000007},{"rt":14301.800000071526,"stimulus":"bees-with-color/bee-B1DF.svg","response":1,"trial_type":"image-button-response","trial_index":31,"time_elapsed":889196,"internal_node_id":"0.0-4.0-0.12","subject_id":"5e983ab90e13cb01177b3ee0","study_id":"6197b3f67c2b5cd3b6d9596a","session_id":"6197b7f490f7a2f452f36cef","condition":"full-information","relevant_dimensions":["antennae","wings"],"bee_group":{"antennae":"B","wings":"1","pattern":"X","legs":"X"},"action":"avoid","summary":"good-avoid","bonus":0.9600000000000007},{"rt":11741.899999976158,"stimulus":"\n                    <p><b>Action: <em>avoid</em></b></p>\n                    <p>This is the bee that you just saw.</p>\n                    <img src=\"bees-with-color/bee-B1DF.svg\" width=\"200\">\n                    <p><span class=\"greenText\">Good choice!</span>  This bee would have stung you.<br>Your bonus pay is unchanged, and remains at $0.64.</p>\n            ","response":0,"trial_type":"html-button-response","trial_index":32,"time_elapsed":900939,"internal_node_id":"0.0-4.0-1.12","subject_id":"5e983ab90e13cb01177b3ee0","study_id":"6197b3f67c2b5cd3b6d9596a","session_id":"6197b7f490f7a2f452f36cef","condition":"full-information","relevant_dimensions":["antennae","wings"],"bee_group":{"antennae":"B","wings":"1","pattern":"X","legs":"X"},"bonus":0.9600000000000007},{"rt":25102.200000047684,"stimulus":"bees-with-color/bee-B2DF.svg","response":0,"trial_type":"image-button-response","trial_index":33,"time_elapsed":926043,"internal_node_id":"0.0-4.0-0.13","subject_id":"5e983ab90e13cb01177b3ee0","study_id":"6197b3f67c2b5cd3b6d9596a","session_id":"6197b7f490f7a2f452f36cef","condition":"full-information","relevant_dimensions":["antennae","wings"],"bee_group":{"antennae":"B","wings":"1","pattern":"X","legs":"X"},"action":"harvest","summary":"good-harvest","bonus":0.9600000000000007},{"rt":10638.5,"stimulus":"\n                    <p><b>Action: <em>harvest</em></b></p>\n                    <p>This is the bee that you just saw.</p>\n                    <img src=\"bees-with-color/bee-B2DF.svg\" width=\"200\">\n                    <p><span class=\"greenText\"><b>Successful harvest!</b></span><br>Your pay has increased by $0.02. Your bonus pay is now $0.66.</p>\n            ","response":0,"trial_type":"html-button-response","trial_index":34,"time_elapsed":936683,"internal_node_id":"0.0-4.0-1.13","subject_id":"5e983ab90e13cb01177b3ee0","study_id":"6197b3f67c2b5cd3b6d9596a","session_id":"6197b7f490f7a2f452f36cef","condition":"full-information","relevant_dimensions":["antennae","wings"],"bee_group":{"antennae":"B","wings":"1","pattern":"X","legs":"X"},"bonus":0.9600000000000007},{"rt":21406,"stimulus":"bees-with-color/bee-B2SM.svg","response":1,"trial_type":"image-button-response","trial_index":35,"time_elapsed":958091,"internal_node_id":"0.0-4.0-0.14","subject_id":"5e983ab90e13cb01177b3ee0","study_id":"6197b3f67c2b5cd3b6d9596a","session_id":"6197b7f490f7a2f452f36cef","condition":"full-information","relevant_dimensions":["antennae","wings"],"bee_group":{"antennae":"B","wings":"1","pattern":"X","legs":"X"},"action":"avoid","summary":"bad-avoid","bonus":0.9600000000000007},{"rt":10870.600000023842,"stimulus":"\n                    <p><b>Action: <em>avoid</em></b></p>\n                    <p>This is the bee that you just saw.</p>\n                    <img src=\"bees-with-color/bee-B2SM.svg\" width=\"200\">\n                    <p><span class=\"redText\">Bad choice,</span> the bee was friendly.<br>Your bonus pay is unchanged, and remains at $0.66.</p>\n            ","response":0,"trial_type":"html-button-response","trial_index":36,"time_elapsed":968963,"internal_node_id":"0.0-4.0-1.14","subject_id":"5e983ab90e13cb01177b3ee0","study_id":"6197b3f67c2b5cd3b6d9596a","session_id":"6197b7f490f7a2f452f36cef","condition":"full-information","relevant_dimensions":["antennae","wings"],"bee_group":{"antennae":"B","wings":"1","pattern":"X","legs":"X"},"bonus":0.9600000000000007},{"rt":30302,"stimulus":"bees-with-color/bee-A1DM.svg","response":1,"trial_type":"image-button-response","trial_index":37,"time_elapsed":999267,"internal_node_id":"0.0-4.0-0.15","subject_id":"5e983ab90e13cb01177b3ee0","study_id":"6197b3f67c2b5cd3b6d9596a","session_id":"6197b7f490f7a2f452f36cef","condition":"full-information","relevant_dimensions":["antennae","wings"],"bee_group":{"antennae":"B","wings":"1","pattern":"X","legs":"X"},"action":"avoid","summary":"bad-avoid","bonus":0.9600000000000007},{"rt":11550.300000071526,"stimulus":"\n                    <p><b>Action: <em>avoid</em></b></p>\n                    <p>This is the bee that you just saw.</p>\n                    <img src=\"bees-with-color/bee-A1DM.svg\" width=\"200\">\n                    <p><span class=\"redText\">Bad choice,</span> the bee was friendly.<br>Your bonus pay is unchanged, and remains at $0.66.</p>\n            ","response":0,"trial_type":"html-button-response","trial_index":38,"time_elapsed":1010819,"internal_node_id":"0.0-4.0-1.15","subject_id":"5e983ab90e13cb01177b3ee0","study_id":"6197b3f67c2b5cd3b6d9596a","session_id":"6197b7f490f7a2f452f36cef","condition":"full-information","relevant_dimensions":["antennae","wings"],"bee_group":{"antennae":"B","wings":"1","pattern":"X","legs":"X"},"bonus":0.9600000000000007},{"rt":33846.5,"stimulus":"bees-with-color/bee-A2SF.svg","response":0,"trial_type":"image-button-response","trial_index":39,"time_elapsed":1044668,"internal_node_id":"0.0-4.0-0.16","subject_id":"5e983ab90e13cb01177b3ee0","study_id":"6197b3f67c2b5cd3b6d9596a","session_id":"6197b7f490f7a2f452f36cef","condition":"full-information","relevant_dimensions":["antennae","wings"],"bee_group":{"antennae":"B","wings":"1","pattern":"X","legs":"X"},"action":"harvest","summary":"good-harvest","bonus":0.9600000000000007},{"rt":8990,"stimulus":"\n                    <p><b>Action: <em>harvest</em></b></p>\n                    <p>This is the bee that you just saw.</p>\n                    <img src=\"bees-with-color/bee-A2SF.svg\" width=\"200\">\n                    <p><span class=\"greenText\"><b>Successful harvest!</b></span><br>Your pay has increased by $0.02. Your bonus pay is now $0.68.</p>\n            ","response":0,"trial_type":"html-button-response","trial_index":40,"time_elapsed":1053659,"internal_node_id":"0.0-4.0-1.16","subject_id":"5e983ab90e13cb01177b3ee0","study_id":"6197b3f67c2b5cd3b6d9596a","session_id":"6197b7f490f7a2f452f36cef","condition":"full-information","relevant_dimensions":["antennae","wings"],"bee_group":{"antennae":"B","wings":"1","pattern":"X","legs":"X"},"bonus":0.9600000000000007},{"rt":13510,"stimulus":"bees-with-color/bee-A2SM.svg","response":1,"trial_type":"image-button-response","trial_index":41,"time_elapsed":1067171,"internal_node_id":"0.0-4.0-0.17","subject_id":"5e983ab90e13cb01177b3ee0","study_id":"6197b3f67c2b5cd3b6d9596a","session_id":"6197b7f490f7a2f452f36cef","condition":"full-information","relevant_dimensions":["antennae","wings"],"bee_group":{"antennae":"B","wings":"1","pattern":"X","legs":"X"},"action":"avoid","summary":"bad-avoid","bonus":0.9600000000000007},{"rt":9030.5,"stimulus":"\n                    <p><b>Action: <em>avoid</em></b></p>\n                    <p>This is the bee that you just saw.</p>\n                    <img src=\"bees-with-color/bee-A2SM.svg\" width=\"200\">\n                    <p><span class=\"redText\">Bad choice,</span> the bee was friendly.<br>Your bonus pay is unchanged, and remains at $0.68.</p>\n            ","response":0,"trial_type":"html-button-response","trial_index":42,"time_elapsed":1076203,"internal_node_id":"0.0-4.0-1.17","subject_id":"5e983ab90e13cb01177b3ee0","study_id":"6197b3f67c2b5cd3b6d9596a","session_id":"6197b7f490f7a2f452f36cef","condition":"full-information","relevant_dimensions":["antennae","wings"],"bee_group":{"antennae":"B","wings":"1","pattern":"X","legs":"X"},"bonus":0.9600000000000007},{"rt":16302.100000023842,"stimulus":"bees-with-color/bee-A1DF.svg","response":0,"trial_type":"image-button-response","trial_index":43,"time_elapsed":1092508,"internal_node_id":"0.0-4.0-0.18","subject_id":"5e983ab90e13cb01177b3ee0","study_id":"6197b3f67c2b5cd3b6d9596a","session_id":"6197b7f490f7a2f452f36cef","condition":"full-information","relevant_dimensions":["antennae","wings"],"bee_group":{"antennae":"B","wings":"1","pattern":"X","legs":"X"},"action":"harvest","summary":"good-harvest","bonus":0.9600000000000007},{"rt":1070.3999999761581,"stimulus":"\n                    <p><b>Action: <em>harvest</em></b></p>\n                    <p>This is the bee that you just saw.</p>\n                    <img src=\"bees-with-color/bee-A1DF.svg\" width=\"200\">\n                    <p><span class=\"greenText\"><b>Successful harvest!</b></span><br>Your pay has increased by $0.02. Your bonus pay is now $0.70.</p>\n            ","response":0,"trial_type":"html-button-response","trial_index":44,"time_elapsed":1093580,"internal_node_id":"0.0-4.0-1.18","subject_id":"5e983ab90e13cb01177b3ee0","study_id":"6197b3f67c2b5cd3b6d9596a","session_id":"6197b7f490f7a2f452f36cef","condition":"full-information","relevant_dimensions":["antennae","wings"],"bee_group":{"antennae":"B","wings":"1","pattern":"X","legs":"X"},"bonus":0.9600000000000007},{"rt":35046,"stimulus":"bees-with-color/bee-B1SF.svg","response":1,"trial_type":"image-button-response","trial_index":45,"time_elapsed":1128628,"internal_node_id":"0.0-4.0-0.19","subject_id":"5e983ab90e13cb01177b3ee0","study_id":"6197b3f67c2b5cd3b6d9596a","session_id":"6197b7f490f7a2f452f36cef","condition":"full-information","relevant_dimensions":["antennae","wings"],"bee_group":{"antennae":"B","wings":"1","pattern":"X","legs":"X"},"action":"avoid","summary":"good-avoid","bonus":0.9600000000000007},{"rt":1062.2000000476837,"stimulus":"\n                    <p><b>Action: <em>avoid</em></b></p>\n                    <p>This is the bee that you just saw.</p>\n                    <img src=\"bees-with-color/bee-B1SF.svg\" width=\"200\">\n                    <p><span class=\"greenText\">Good choice!</span>  This bee would have stung you.<br>Your bonus pay is unchanged, and remains at $0.70.</p>\n            ","response":0,"trial_type":"html-button-response","trial_index":46,"time_elapsed":1129691,"internal_node_id":"0.0-4.0-1.19","subject_id":"5e983ab90e13cb01177b3ee0","study_id":"6197b3f67c2b5cd3b6d9596a","session_id":"6197b7f490f7a2f452f36cef","condition":"full-information","relevant_dimensions":["antennae","wings"],"bee_group":{"antennae":"B","wings":"1","pattern":"X","legs":"X"},"bonus":0.9600000000000007},{"rt":11734.200000047684,"stimulus":"bees-with-color/bee-B1SM.svg","response":1,"trial_type":"image-button-response","trial_index":47,"time_elapsed":1141428,"internal_node_id":"0.0-4.0-0.20","subject_id":"5e983ab90e13cb01177b3ee0","study_id":"6197b3f67c2b5cd3b6d9596a","session_id":"6197b7f490f7a2f452f36cef","condition":"full-information","relevant_dimensions":["antennae","wings"],"bee_group":{"antennae":"B","wings":"1","pattern":"X","legs":"X"},"action":"avoid","summary":"good-avoid","bonus":0.9600000000000007},{"rt":9350.899999976158,"stimulus":"\n                    <p><b>Action: <em>avoid</em></b></p>\n                    <p>This is the bee that you just saw.</p>\n                    <img src=\"bees-with-color/bee-B1SM.svg\" width=\"200\">\n                    <p><span class=\"greenText\">Good choice!</span>  This bee would have stung you.<br>Your bonus pay is unchanged, and remains at $0.70.</p>\n            ","response":0,"trial_type":"html-button-response","trial_index":48,"time_elapsed":1150780,"internal_node_id":"0.0-4.0-1.20","subject_id":"5e983ab90e13cb01177b3ee0","study_id":"6197b3f67c2b5cd3b6d9596a","session_id":"6197b7f490f7a2f452f36cef","condition":"full-information","relevant_dimensions":["antennae","wings"],"bee_group":{"antennae":"B","wings":"1","pattern":"X","legs":"X"},"bonus":0.9600000000000007},{"rt":14365.400000095367,"stimulus":"bees-with-color/bee-A2DF.svg","response":1,"trial_type":"image-button-response","trial_index":49,"time_elapsed":1165148,"internal_node_id":"0.0-4.0-0.21","subject_id":"5e983ab90e13cb01177b3ee0","study_id":"6197b3f67c2b5cd3b6d9596a","session_id":"6197b7f490f7a2f452f36cef","condition":"full-information","relevant_dimensions":["antennae","wings"],"bee_group":{"antennae":"B","wings":"1","pattern":"X","legs":"X"},"action":"avoid","summary":"bad-avoid","bonus":0.9600000000000007},{"rt":8262.399999976158,"stimulus":"\n                    <p><b>Action: <em>avoid</em></b></p>\n                    <p>This is the bee that you just saw.</p>\n                    <img src=\"bees-with-color/bee-A2DF.svg\" width=\"200\">\n                    <p><span class=\"redText\">Bad choice,</span> the bee was friendly.<br>Your bonus pay is unchanged, and remains at $0.70.</p>\n            ","response":0,"trial_type":"html-button-response","trial_index":50,"time_elapsed":1173412,"internal_node_id":"0.0-4.0-1.21","subject_id":"5e983ab90e13cb01177b3ee0","study_id":"6197b3f67c2b5cd3b6d9596a","session_id":"6197b7f490f7a2f452f36cef","condition":"full-information","relevant_dimensions":["antennae","wings"],"bee_group":{"antennae":"B","wings":"1","pattern":"X","legs":"X"},"bonus":0.9600000000000007},{"rt":11654,"stimulus":"bees-with-color/bee-A1DM.svg","response":0,"trial_type":"image-button-response","trial_index":51,"time_elapsed":1185068,"internal_node_id":"0.0-4.0-0.22","subject_id":"5e983ab90e13cb01177b3ee0","study_id":"6197b3f67c2b5cd3b6d9596a","session_id":"6197b7f490f7a2f452f36cef","condition":"full-information","relevant_dimensions":["antennae","wings"],"bee_group":{"antennae":"B","wings":"1","pattern":"X","legs":"X"},"action":"harvest","summary":"good-harvest","bonus":0.9600000000000007},{"rt":1918.3000000715256,"stimulus":"\n                    <p><b>Action: <em>harvest</em></b></p>\n                    <p>This is the bee that you just saw.</p>\n                    <img src=\"bees-with-color/bee-A1DM.svg\" width=\"200\">\n                    <p><span class=\"greenText\"><b>Successful harvest!</b></span><br>Your pay has increased by $0.02. Your bonus pay is now $0.72.</p>\n            ","response":0,"trial_type":"html-button-response","trial_index":52,"time_elapsed":1186988,"internal_node_id":"0.0-4.0-1.22","subject_id":"5e983ab90e13cb01177b3ee0","study_id":"6197b3f67c2b5cd3b6d9596a","session_id":"6197b7f490f7a2f452f36cef","condition":"full-information","relevant_dimensions":["antennae","wings"],"bee_group":{"antennae":"B","wings":"1","pattern":"X","legs":"X"},"bonus":0.9600000000000007},{"rt":7702.099999904633,"stimulus":"bees-with-color/bee-B2SM.svg","response":0,"trial_type":"image-button-response","trial_index":53,"time_elapsed":1194692,"internal_node_id":"0.0-4.0-0.23","subject_id":"5e983ab90e13cb01177b3ee0","study_id":"6197b3f67c2b5cd3b6d9596a","session_id":"6197b7f490f7a2f452f36cef","condition":"full-information","relevant_dimensions":["antennae","wings"],"bee_group":{"antennae":"B","wings":"1","pattern":"X","legs":"X"},"action":"harvest","summary":"good-harvest","bonus":0.9600000000000007},{"rt":1142.1000000238419,"stimulus":"\n                    <p><b>Action: <em>harvest</em></b></p>\n                    <p>This is the bee that you just saw.</p>\n                    <img src=\"bees-with-color/bee-B2SM.svg\" width=\"200\">\n                    <p><span class=\"greenText\"><b>Successful harvest!</b></span><br>Your pay has increased by $0.02. Your bonus pay is now $0.74.</p>\n            ","response":0,"trial_type":"html-button-response","trial_index":54,"time_elapsed":1195836,"internal_node_id":"0.0-4.0-1.23","subject_id":"5e983ab90e13cb01177b3ee0","study_id":"6197b3f67c2b5cd3b6d9596a","session_id":"6197b7f490f7a2f452f36cef","condition":"full-information","relevant_dimensions":["antennae","wings"],"bee_group":{"antennae":"B","wings":"1","pattern":"X","legs":"X"},"bonus":0.9600000000000007},{"rt":24566,"stimulus":"bees-with-color/bee-A1SM.svg","response":1,"trial_type":"image-button-response","trial_index":55,"time_elapsed":1220404,"internal_node_id":"0.0-4.0-0.24","subject_id":"5e983ab90e13cb01177b3ee0","study_id":"6197b3f67c2b5cd3b6d9596a","session_id":"6197b7f490f7a2f452f36cef","condition":"full-information","relevant_dimensions":["antennae","wings"],"bee_group":{"antennae":"B","wings":"1","pattern":"X","legs":"X"},"action":"avoid","summary":"bad-avoid","bonus":0.9600000000000007},{"rt":7870.600000023842,"stimulus":"\n                    <p><b>Action: <em>avoid</em></b></p>\n                    <p>This is the bee that you just saw.</p>\n                    <img src=\"bees-with-color/bee-A1SM.svg\" width=\"200\">\n                    <p><span class=\"redText\">Bad choice,</span> the bee was friendly.<br>Your bonus pay is unchanged, and remains at $0.74.</p>\n            ","response":0,"trial_type":"html-button-response","trial_index":56,"time_elapsed":1228276,"internal_node_id":"0.0-4.0-1.24","subject_id":"5e983ab90e13cb01177b3ee0","study_id":"6197b3f67c2b5cd3b6d9596a","session_id":"6197b7f490f7a2f452f36cef","condition":"full-information","relevant_dimensions":["antennae","wings"],"bee_group":{"antennae":"B","wings":"1","pattern":"X","legs":"X"},"bonus":0.9600000000000007},{"rt":14197.099999904633,"stimulus":"bees-with-color/bee-B2DF.svg","response":0,"trial_type":"image-button-response","trial_index":57,"time_elapsed":1242476,"internal_node_id":"0.0-4.0-0.25","subject_id":"5e983ab90e13cb01177b3ee0","study_id":"6197b3f67c2b5cd3b6d9596a","session_id":"6197b7f490f7a2f452f36cef","condition":"full-information","relevant_dimensions":["antennae","wings"],"bee_group":{"antennae":"B","wings":"1","pattern":"X","legs":"X"},"action":"harvest","summary":"good-harvest","bonus":0.9600000000000007},{"rt":1006.0999999046326,"stimulus":"\n                    <p><b>Action: <em>harvest</em></b></p>\n                    <p>This is the bee that you just saw.</p>\n                    <img src=\"bees-with-color/bee-B2DF.svg\" width=\"200\">\n                    <p><span class=\"greenText\"><b>Successful harvest!</b></span><br>Your pay has increased by $0.02. Your bonus pay is now $0.76.</p>\n            ","response":0,"trial_type":"html-button-response","trial_index":58,"time_elapsed":1243484,"internal_node_id":"0.0-4.0-1.25","subject_id":"5e983ab90e13cb01177b3ee0","study_id":"6197b3f67c2b5cd3b6d9596a","session_id":"6197b7f490f7a2f452f36cef","condition":"full-information","relevant_dimensions":["antennae","wings"],"bee_group":{"antennae":"B","wings":"1","pattern":"X","legs":"X"},"bonus":0.9600000000000007},{"rt":33030.300000071526,"stimulus":"bees-with-color/bee-A2DM.svg","response":0,"trial_type":"image-button-response","trial_index":59,"time_elapsed":1276516,"internal_node_id":"0.0-4.0-0.26","subject_id":"5e983ab90e13cb01177b3ee0","study_id":"6197b3f67c2b5cd3b6d9596a","session_id":"6197b7f490f7a2f452f36cef","condition":"full-information","relevant_dimensions":["antennae","wings"],"bee_group":{"antennae":"B","wings":"1","pattern":"X","legs":"X"},"action":"harvest","summary":"good-harvest","bonus":0.9600000000000007},{"rt":1085.5,"stimulus":"\n                    <p><b>Action: <em>harvest</em></b></p>\n                    <p>This is the bee that you just saw.</p>\n                    <img src=\"bees-with-color/bee-A2DM.svg\" width=\"200\">\n                    <p><span class=\"greenText\"><b>Successful harvest!</b></span><br>Your pay has increased by $0.02. Your bonus pay is now $0.78.</p>\n            ","response":0,"trial_type":"html-button-response","trial_index":60,"time_elapsed":1277604,"internal_node_id":"0.0-4.0-1.26","subject_id":"5e983ab90e13cb01177b3ee0","study_id":"6197b3f67c2b5cd3b6d9596a","session_id":"6197b7f490f7a2f452f36cef","condition":"full-information","relevant_dimensions":["antennae","wings"],"bee_group":{"antennae":"B","wings":"1","pattern":"X","legs":"X"},"bonus":0.9600000000000007},{"rt":29325.799999952316,"stimulus":"bees-with-color/bee-B2DM.svg","response":1,"trial_type":"image-button-response","trial_index":61,"time_elapsed":1306932,"internal_node_id":"0.0-4.0-0.27","subject_id":"5e983ab90e13cb01177b3ee0","study_id":"6197b3f67c2b5cd3b6d9596a","session_id":"6197b7f490f7a2f452f36cef","condition":"full-information","relevant_dimensions":["antennae","wings"],"bee_group":{"antennae":"B","wings":"1","pattern":"X","legs":"X"},"action":"avoid","summary":"bad-avoid","bonus":0.9600000000000007},{"rt":7765.600000023842,"stimulus":"\n                    <p><b>Action: <em>avoid</em></b></p>\n                    <p>This is the bee that you just saw.</p>\n                    <img src=\"bees-with-color/bee-B2DM.svg\" width=\"200\">\n                    <p><span class=\"redText\">Bad choice,</span> the bee was friendly.<br>Your bonus pay is unchanged, and remains at $0.78.</p>\n            ","response":0,"trial_type":"html-button-response","trial_index":62,"time_elapsed":1314700,"internal_node_id":"0.0-4.0-1.27","subject_id":"5e983ab90e13cb01177b3ee0","study_id":"6197b3f67c2b5cd3b6d9596a","session_id":"6197b7f490f7a2f452f36cef","condition":"full-information","relevant_dimensions":["antennae","wings"],"bee_group":{"antennae":"B","wings":"1","pattern":"X","legs":"X"},"bonus":0.9600000000000007},{"rt":15893.800000071526,"stimulus":"bees-with-color/bee-B2SF.svg","response":1,"trial_type":"image-button-response","trial_index":63,"time_elapsed":1330596,"internal_node_id":"0.0-4.0-0.28","subject_id":"5e983ab90e13cb01177b3ee0","study_id":"6197b3f67c2b5cd3b6d9596a","session_id":"6197b7f490f7a2f452f36cef","condition":"full-information","relevant_dimensions":["antennae","wings"],"bee_group":{"antennae":"B","wings":"1","pattern":"X","legs":"X"},"action":"avoid","summary":"bad-avoid","bonus":0.9600000000000007},{"rt":8502.5,"stimulus":"\n                    <p><b>Action: <em>avoid</em></b></p>\n                    <p>This is the bee that you just saw.</p>\n                    <img src=\"bees-with-color/bee-B2SF.svg\" width=\"200\">\n                    <p><span class=\"redText\">Bad choice,</span> the bee was friendly.<br>Your bonus pay is unchanged, and remains at $0.78.</p>\n            ","response":0,"trial_type":"html-button-response","trial_index":64,"time_elapsed":1339099,"internal_node_id":"0.0-4.0-1.28","subject_id":"5e983ab90e13cb01177b3ee0","study_id":"6197b3f67c2b5cd3b6d9596a","session_id":"6197b7f490f7a2f452f36cef","condition":"full-information","relevant_dimensions":["antennae","wings"],"bee_group":{"antennae":"B","wings":"1","pattern":"X","legs":"X"},"bonus":0.9600000000000007},{"rt":32719,"stimulus":"bees-with-color/bee-B1DM.svg","response":1,"trial_type":"image-button-response","trial_index":65,"time_elapsed":1371820,"internal_node_id":"0.0-4.0-0.29","subject_id":"5e983ab90e13cb01177b3ee0","study_id":"6197b3f67c2b5cd3b6d9596a","session_id":"6197b7f490f7a2f452f36cef","condition":"full-information","relevant_dimensions":["antennae","wings"],"bee_group":{"antennae":"B","wings":"1","pattern":"X","legs":"X"},"action":"avoid","summary":"good-avoid","bonus":0.9600000000000007},{"rt":7453.5,"stimulus":"\n                    <p><b>Action: <em>avoid</em></b></p>\n                    <p>This is the bee that you just saw.</p>\n                    <img src=\"bees-with-color/bee-B1DM.svg\" width=\"200\">\n                    <p><span class=\"greenText\">Good choice!</span>  This bee would have stung you.<br>Your bonus pay is unchanged, and remains at $0.78.</p>\n            ","response":0,"trial_type":"html-button-response","trial_index":66,"time_elapsed":1379275,"internal_node_id":"0.0-4.0-1.29","subject_id":"5e983ab90e13cb01177b3ee0","study_id":"6197b3f67c2b5cd3b6d9596a","session_id":"6197b7f490f7a2f452f36cef","condition":"full-information","relevant_dimensions":["antennae","wings"],"bee_group":{"antennae":"B","wings":"1","pattern":"X","legs":"X"},"bonus":0.9600000000000007},{"rt":21454.099999904633,"stimulus":"bees-with-color/bee-B1DF.svg","response":1,"trial_type":"image-button-response","trial_index":67,"time_elapsed":1400732,"internal_node_id":"0.0-4.0-0.30","subject_id":"5e983ab90e13cb01177b3ee0","study_id":"6197b3f67c2b5cd3b6d9596a","session_id":"6197b7f490f7a2f452f36cef","condition":"full-information","relevant_dimensions":["antennae","wings"],"bee_group":{"antennae":"B","wings":"1","pattern":"X","legs":"X"},"action":"avoid","summary":"good-avoid","bonus":0.9600000000000007},{"rt":814.3999999761581,"stimulus":"\n                    <p><b>Action: <em>avoid</em></b></p>\n                    <p>This is the bee that you just saw.</p>\n                    <img src=\"bees-with-color/bee-B1DF.svg\" width=\"200\">\n                    <p><span class=\"greenText\">Good choice!</span>  This bee would have stung you.<br>Your bonus pay is unchanged, and remains at $0.78.</p>\n            ","response":0,"trial_type":"html-button-response","trial_index":68,"time_elapsed":1401548,"internal_node_id":"0.0-4.0-1.30","subject_id":"5e983ab90e13cb01177b3ee0","study_id":"6197b3f67c2b5cd3b6d9596a","session_id":"6197b7f490f7a2f452f36cef","condition":"full-information","relevant_dimensions":["antennae","wings"],"bee_group":{"antennae":"B","wings":"1","pattern":"X","legs":"X"},"bonus":0.9600000000000007},{"rt":8334.299999952316,"stimulus":"bees-with-color/bee-A1SF.svg","response":0,"trial_type":"image-button-response","trial_index":69,"time_elapsed":1409884,"internal_node_id":"0.0-4.0-0.31","subject_id":"5e983ab90e13cb01177b3ee0","study_id":"6197b3f67c2b5cd3b6d9596a","session_id":"6197b7f490f7a2f452f36cef","condition":"full-information","relevant_dimensions":["antennae","wings"],"bee_group":{"antennae":"B","wings":"1","pattern":"X","legs":"X"},"action":"harvest","summary":"good-harvest","bonus":0.9600000000000007},{"rt":1014.3999999761581,"stimulus":"\n                    <p><b>Action: <em>harvest</em></b></p>\n                    <p>This is the bee that you just saw.</p>\n                    <img src=\"bees-with-color/bee-A1SF.svg\" width=\"200\">\n                    <p><span class=\"greenText\"><b>Successful harvest!</b></span><br>Your pay has increased by $0.02. Your bonus pay is now $0.80.</p>\n            ","response":0,"trial_type":"html-button-response","trial_index":70,"time_elapsed":1410900,"internal_node_id":"0.0-4.0-1.31","subject_id":"5e983ab90e13cb01177b3ee0","study_id":"6197b3f67c2b5cd3b6d9596a","session_id":"6197b7f490f7a2f452f36cef","condition":"full-information","relevant_dimensions":["antennae","wings"],"bee_group":{"antennae":"B","wings":"1","pattern":"X","legs":"X"},"bonus":0.9600000000000007},{"rt":33870.199999928474,"stimulus":"bees-with-color/bee-A2DF.svg","response":1,"trial_type":"image-button-response","trial_index":71,"time_elapsed":1444772,"internal_node_id":"0.0-4.0-0.32","subject_id":"5e983ab90e13cb01177b3ee0","study_id":"6197b3f67c2b5cd3b6d9596a","session_id":"6197b7f490f7a2f452f36cef","condition":"full-information","relevant_dimensions":["antennae","wings"],"bee_group":{"antennae":"B","wings":"1","pattern":"X","legs":"X"},"action":"avoid","summary":"bad-avoid","bonus":0.9600000000000007},{"rt":8046.299999952316,"stimulus":"\n                    <p><b>Action: <em>avoid</em></b></p>\n                    <p>This is the bee that you just saw.</p>\n                    <img src=\"bees-with-color/bee-A2DF.svg\" width=\"200\">\n                    <p><span class=\"redText\">Bad choice,</span> the bee was friendly.<br>Your bonus pay is unchanged, and remains at $0.80.</p>\n            ","response":0,"trial_type":"html-button-response","trial_index":72,"time_elapsed":1452820,"internal_node_id":"0.0-4.0-1.32","subject_id":"5e983ab90e13cb01177b3ee0","study_id":"6197b3f67c2b5cd3b6d9596a","session_id":"6197b7f490f7a2f452f36cef","condition":"full-information","relevant_dimensions":["antennae","wings"],"bee_group":{"antennae":"B","wings":"1","pattern":"X","legs":"X"},"bonus":0.9600000000000007},{"rt":25822.100000023842,"stimulus":"bees-with-color/bee-B2DF.svg","response":0,"trial_type":"image-button-response","trial_index":73,"time_elapsed":1478644,"internal_node_id":"0.0-4.0-0.33","subject_id":"5e983ab90e13cb01177b3ee0","study_id":"6197b3f67c2b5cd3b6d9596a","session_id":"6197b7f490f7a2f452f36cef","condition":"full-information","relevant_dimensions":["antennae","wings"],"bee_group":{"antennae":"B","wings":"1","pattern":"X","legs":"X"},"action":"harvest","summary":"good-harvest","bonus":0.9600000000000007},{"rt":1062.6000000238419,"stimulus":"\n                    <p><b>Action: <em>harvest</em></b></p>\n                    <p>This is the bee that you just saw.</p>\n                    <img src=\"bees-with-color/bee-B2DF.svg\" width=\"200\">\n                    <p><span class=\"greenText\"><b>Successful harvest!</b></span><br>Your pay has increased by $0.02. Your bonus pay is now $0.82.</p>\n            ","response":0,"trial_type":"html-button-response","trial_index":74,"time_elapsed":1479708,"internal_node_id":"0.0-4.0-1.33","subject_id":"5e983ab90e13cb01177b3ee0","study_id":"6197b3f67c2b5cd3b6d9596a","session_id":"6197b7f490f7a2f452f36cef","condition":"full-information","relevant_dimensions":["antennae","wings"],"bee_group":{"antennae":"B","wings":"1","pattern":"X","legs":"X"},"bonus":0.9600000000000007},{"rt":12094.100000023842,"stimulus":"bees-with-color/bee-A1DF.svg","response":0,"trial_type":"image-button-response","trial_index":75,"time_elapsed":1491804,"internal_node_id":"0.0-4.0-0.34","subject_id":"5e983ab90e13cb01177b3ee0","study_id":"6197b3f67c2b5cd3b6d9596a","session_id":"6197b7f490f7a2f452f36cef","condition":"full-information","relevant_dimensions":["antennae","wings"],"bee_group":{"antennae":"B","wings":"1","pattern":"X","legs":"X"},"action":"harvest","summary":"good-harvest","bonus":0.9600000000000007},{"rt":966.2999999523163,"stimulus":"\n                    <p><b>Action: <em>harvest</em></b></p>\n                    <p>This is the bee that you just saw.</p>\n                    <img src=\"bees-with-color/bee-A1DF.svg\" width=\"200\">\n                    <p><span class=\"greenText\"><b>Successful harvest!</b></span><br>Your pay has increased by $0.02. Your bonus pay is now $0.84.</p>\n            ","response":0,"trial_type":"html-button-response","trial_index":76,"time_elapsed":1492772,"internal_node_id":"0.0-4.0-1.34","subject_id":"5e983ab90e13cb01177b3ee0","study_id":"6197b3f67c2b5cd3b6d9596a","session_id":"6197b7f490f7a2f452f36cef","condition":"full-information","relevant_dimensions":["antennae","wings"],"bee_group":{"antennae":"B","wings":"1","pattern":"X","legs":"X"},"bonus":0.9600000000000007},{"rt":16454,"stimulus":"bees-with-color/bee-B1SF.svg","response":1,"trial_type":"image-button-response","trial_index":77,"time_elapsed":1509228,"internal_node_id":"0.0-4.0-0.35","subject_id":"5e983ab90e13cb01177b3ee0","study_id":"6197b3f67c2b5cd3b6d9596a","session_id":"6197b7f490f7a2f452f36cef","condition":"full-information","relevant_dimensions":["antennae","wings"],"bee_group":{"antennae":"B","wings":"1","pattern":"X","legs":"X"},"action":"avoid","summary":"good-avoid","bonus":0.9600000000000007},{"rt":8358.799999952316,"stimulus":"\n                    <p><b>Action: <em>avoid</em></b></p>\n                    <p>This is the bee that you just saw.</p>\n                    <img src=\"bees-with-color/bee-B1SF.svg\" width=\"200\">\n                    <p><span class=\"greenText\">Good choice!</span>  This bee would have stung you.<br>Your bonus pay is unchanged, and remains at $0.84.</p>\n            ","response":0,"trial_type":"html-button-response","trial_index":78,"time_elapsed":1517588,"internal_node_id":"0.0-4.0-1.35","subject_id":"5e983ab90e13cb01177b3ee0","study_id":"6197b3f67c2b5cd3b6d9596a","session_id":"6197b7f490f7a2f452f36cef","condition":"full-information","relevant_dimensions":["antennae","wings"],"bee_group":{"antennae":"B","wings":"1","pattern":"X","legs":"X"},"bonus":0.9600000000000007},{"rt":33101.799999952316,"stimulus":"bees-with-color/bee-A1SF.svg","response":0,"trial_type":"image-button-response","trial_index":79,"time_elapsed":1550692,"internal_node_id":"0.0-4.0-0.36","subject_id":"5e983ab90e13cb01177b3ee0","study_id":"6197b3f67c2b5cd3b6d9596a","session_id":"6197b7f490f7a2f452f36cef","condition":"full-information","relevant_dimensions":["antennae","wings"],"bee_group":{"antennae":"B","wings":"1","pattern":"X","legs":"X"},"action":"harvest","summary":"good-harvest","bonus":0.9600000000000007},{"rt":846.8999999761581,"stimulus":"\n                    <p><b>Action: <em>harvest</em></b></p>\n                    <p>This is the bee that you just saw.</p>\n                    <img src=\"bees-with-color/bee-A1SF.svg\" width=\"200\">\n                    <p><span class=\"greenText\"><b>Successful harvest!</b></span><br>Your pay has increased by $0.02. Your bonus pay is now $0.86.</p>\n            ","response":0,"trial_type":"html-button-response","trial_index":80,"time_elapsed":1551540,"internal_node_id":"0.0-4.0-1.36","subject_id":"5e983ab90e13cb01177b3ee0","study_id":"6197b3f67c2b5cd3b6d9596a","session_id":"6197b7f490f7a2f452f36cef","condition":"full-information","relevant_dimensions":["antennae","wings"],"bee_group":{"antennae":"B","wings":"1","pattern":"X","legs":"X"},"bonus":0.9600000000000007},{"rt":11341.399999976158,"stimulus":"bees-with-color/bee-A2SF.svg","response":0,"trial_type":"image-button-response","trial_index":81,"time_elapsed":1562884,"internal_node_id":"0.0-4.0-0.37","subject_id":"5e983ab90e13cb01177b3ee0","study_id":"6197b3f67c2b5cd3b6d9596a","session_id":"6197b7f490f7a2f452f36cef","condition":"full-information","relevant_dimensions":["antennae","wings"],"bee_group":{"antennae":"B","wings":"1","pattern":"X","legs":"X"},"action":"harvest","summary":"good-harvest","bonus":0.9600000000000007},{"rt":926.2000000476837,"stimulus":"\n                    <p><b>Action: <em>harvest</em></b></p>\n                    <p>This is the bee that you just saw.</p>\n                    <img src=\"bees-with-color/bee-A2SF.svg\" width=\"200\">\n                    <p><span class=\"greenText\"><b>Successful harvest!</b></span><br>Your pay has increased by $0.02. Your bonus pay is now $0.88.</p>\n            ","response":0,"trial_type":"html-button-response","trial_index":82,"time_elapsed":1563812,"internal_node_id":"0.0-4.0-1.37","subject_id":"5e983ab90e13cb01177b3ee0","study_id":"6197b3f67c2b5cd3b6d9596a","session_id":"6197b7f490f7a2f452f36cef","condition":"full-information","relevant_dimensions":["antennae","wings"],"bee_group":{"antennae":"B","wings":"1","pattern":"X","legs":"X"},"bonus":0.9600000000000007},{"rt":15126.100000023842,"stimulus":"bees-with-color/bee-B1DF.svg","response":1,"trial_type":"image-button-response","trial_index":83,"time_elapsed":1578940,"internal_node_id":"0.0-4.0-0.38","subject_id":"5e983ab90e13cb01177b3ee0","study_id":"6197b3f67c2b5cd3b6d9596a","session_id":"6197b7f490f7a2f452f36cef","condition":"full-information","relevant_dimensions":["antennae","wings"],"bee_group":{"antennae":"B","wings":"1","pattern":"X","legs":"X"},"action":"avoid","summary":"good-avoid","bonus":0.9600000000000007},{"rt":1638.2000000476837,"stimulus":"\n                    <p><b>Action: <em>avoid</em></b></p>\n                    <p>This is the bee that you just saw.</p>\n                    <img src=\"bees-with-color/bee-B1DF.svg\" width=\"200\">\n                    <p><span class=\"greenText\">Good choice!</span>  This bee would have stung you.<br>Your bonus pay is unchanged, and remains at $0.88.</p>\n            ","response":0,"trial_type":"html-button-response","trial_index":84,"time_elapsed":1580580,"internal_node_id":"0.0-4.0-1.38","subject_id":"5e983ab90e13cb01177b3ee0","study_id":"6197b3f67c2b5cd3b6d9596a","session_id":"6197b7f490f7a2f452f36cef","condition":"full-information","relevant_dimensions":["antennae","wings"],"bee_group":{"antennae":"B","wings":"1","pattern":"X","legs":"X"},"bonus":0.9600000000000007},{"rt":7790.100000023842,"stimulus":"bees-with-color/bee-B2SM.svg","response":0,"trial_type":"image-button-response","trial_index":85,"time_elapsed":1588372,"internal_node_id":"0.0-4.0-0.39","subject_id":"5e983ab90e13cb01177b3ee0","study_id":"6197b3f67c2b5cd3b6d9596a","session_id":"6197b7f490f7a2f452f36cef","condition":"full-information","relevant_dimensions":["antennae","wings"],"bee_group":{"antennae":"B","wings":"1","pattern":"X","legs":"X"},"action":"harvest","summary":"good-harvest","bonus":0.9600000000000007},{"rt":990,"stimulus":"\n                    <p><b>Action: <em>harvest</em></b></p>\n                    <p>This is the bee that you just saw.</p>\n                    <img src=\"bees-with-color/bee-B2SM.svg\" width=\"200\">\n                    <p><span class=\"greenText\"><b>Successful harvest!</b></span><br>Your pay has increased by $0.02. Your bonus pay is now $0.90.</p>\n            ","response":0,"trial_type":"html-button-response","trial_index":86,"time_elapsed":1589364,"internal_node_id":"0.0-4.0-1.39","subject_id":"5e983ab90e13cb01177b3ee0","study_id":"6197b3f67c2b5cd3b6d9596a","session_id":"6197b7f490f7a2f452f36cef","condition":"full-information","relevant_dimensions":["antennae","wings"],"bee_group":{"antennae":"B","wings":"1","pattern":"X","legs":"X"},"bonus":0.9600000000000007},{"rt":35654.799999952316,"stimulus":"bees-with-color/bee-A2DM.svg","response":0,"trial_type":"image-button-response","trial_index":87,"time_elapsed":1625020,"internal_node_id":"0.0-4.0-0.40","subject_id":"5e983ab90e13cb01177b3ee0","study_id":"6197b3f67c2b5cd3b6d9596a","session_id":"6197b7f490f7a2f452f36cef","condition":"full-information","relevant_dimensions":["antennae","wings"],"bee_group":{"antennae":"B","wings":"1","pattern":"X","legs":"X"},"action":"harvest","summary":"good-harvest","bonus":0.9600000000000007},{"rt":821.1999999284744,"stimulus":"\n                    <p><b>Action: <em>harvest</em></b></p>\n                    <p>This is the bee that you just saw.</p>\n                    <img src=\"bees-with-color/bee-A2DM.svg\" width=\"200\">\n                    <p><span class=\"greenText\"><b>Successful harvest!</b></span><br>Your pay has increased by $0.02. Your bonus pay is now $0.92.</p>\n            ","response":0,"trial_type":"html-button-response","trial_index":88,"time_elapsed":1625844,"internal_node_id":"0.0-4.0-1.40","subject_id":"5e983ab90e13cb01177b3ee0","study_id":"6197b3f67c2b5cd3b6d9596a","session_id":"6197b7f490f7a2f452f36cef","condition":"full-information","relevant_dimensions":["antennae","wings"],"bee_group":{"antennae":"B","wings":"1","pattern":"X","legs":"X"},"bonus":0.9600000000000007},{"rt":5894.399999976158,"stimulus":"bees-with-color/bee-A2SM.svg","response":0,"trial_type":"image-button-response","trial_index":89,"time_elapsed":1631740,"internal_node_id":"0.0-4.0-0.41","subject_id":"5e983ab90e13cb01177b3ee0","study_id":"6197b3f67c2b5cd3b6d9596a","session_id":"6197b7f490f7a2f452f36cef","condition":"full-information","relevant_dimensions":["antennae","wings"],"bee_group":{"antennae":"B","wings":"1","pattern":"X","legs":"X"},"action":"harvest","summary":"good-harvest","bonus":0.9600000000000007},{"rt":837.7000000476837,"stimulus":"\n                    <p><b>Action: <em>harvest</em></b></p>\n                    <p>This is the bee that you just saw.</p>\n                    <img src=\"bees-with-color/bee-A2SM.svg\" width=\"200\">\n                    <p><span class=\"greenText\"><b>Successful harvest!</b></span><br>Your pay has increased by $0.02. Your bonus pay is now $0.94.</p>\n            ","response":0,"trial_type":"html-button-response","trial_index":90,"time_elapsed":1632580,"internal_node_id":"0.0-4.0-1.41","subject_id":"5e983ab90e13cb01177b3ee0","study_id":"6197b3f67c2b5cd3b6d9596a","session_id":"6197b7f490f7a2f452f36cef","condition":"full-information","relevant_dimensions":["antennae","wings"],"bee_group":{"antennae":"B","wings":"1","pattern":"X","legs":"X"},"bonus":0.9600000000000007},{"rt":24046.100000023842,"stimulus":"bees-with-color/bee-B2DM.svg","response":0,"trial_type":"image-button-response","trial_index":91,"time_elapsed":1656628,"internal_node_id":"0.0-4.0-0.42","subject_id":"5e983ab90e13cb01177b3ee0","study_id":"6197b3f67c2b5cd3b6d9596a","session_id":"6197b7f490f7a2f452f36cef","condition":"full-information","relevant_dimensions":["antennae","wings"],"bee_group":{"antennae":"B","wings":"1","pattern":"X","legs":"X"},"action":"harvest","summary":"good-harvest","bonus":0.9600000000000007},{"rt":998.5,"stimulus":"\n                    <p><b>Action: <em>harvest</em></b></p>\n                    <p>This is the bee that you just saw.</p>\n                    <img src=\"bees-with-color/bee-B2DM.svg\" width=\"200\">\n                    <p><span class=\"greenText\"><b>Successful harvest!</b></span><br>Your pay has increased by $0.02. Your bonus pay is now $0.96.</p>\n            ","response":0,"trial_type":"html-button-response","trial_index":92,"time_elapsed":1657628,"internal_node_id":"0.0-4.0-1.42","subject_id":"5e983ab90e13cb01177b3ee0","study_id":"6197b3f67c2b5cd3b6d9596a","session_id":"6197b7f490f7a2f452f36cef","condition":"full-information","relevant_dimensions":["antennae","wings"],"bee_group":{"antennae":"B","wings":"1","pattern":"X","legs":"X"},"bonus":0.9600000000000007},{"rt":4893.399999976158,"stimulus":"bees-with-color/bee-B1SM.svg","response":0,"trial_type":"image-button-response","trial_index":93,"time_elapsed":1662524,"internal_node_id":"0.0-4.0-0.43","subject_id":"5e983ab90e13cb01177b3ee0","study_id":"6197b3f67c2b5cd3b6d9596a","session_id":"6197b7f490f7a2f452f36cef","condition":"full-information","relevant_dimensions":["antennae","wings"],"bee_group":{"antennae":"B","wings":"1","pattern":"X","legs":"X"},"action":"harvest","summary":"bad-harvest","bonus":0.9600000000000007},{"rt":7638.200000047684,"stimulus":"\n                    <p><b>Action: <em>harvest</em></b></p>\n                    <p>This is the bee that you just saw.</p>\n                    <img src=\"bees-with-color/bee-B1SM.svg\" width=\"200\">\n                    <p><span class=\"redText\">Bad choice, the bee was angry.</span><br><b>You have been stung!</b><br>Your pay has been decreased by $0.10. Your bonus pay is now $0.86.</p>\n            ","response":0,"trial_type":"html-button-response","trial_index":94,"time_elapsed":1670164,"internal_node_id":"0.0-4.0-1.43","subject_id":"5e983ab90e13cb01177b3ee0","study_id":"6197b3f67c2b5cd3b6d9596a","session_id":"6197b7f490f7a2f452f36cef","condition":"full-information","relevant_dimensions":["antennae","wings"],"bee_group":{"antennae":"B","wings":"1","pattern":"X","legs":"X"},"bonus":0.9600000000000007},{"rt":4349.700000047684,"stimulus":"bees-with-color/bee-B2SF.svg","response":0,"trial_type":"image-button-response","trial_index":95,"time_elapsed":1674516,"internal_node_id":"0.0-4.0-0.44","subject_id":"5e983ab90e13cb01177b3ee0","study_id":"6197b3f67c2b5cd3b6d9596a","session_id":"6197b7f490f7a2f452f36cef","condition":"full-information","relevant_dimensions":["antennae","wings"],"bee_group":{"antennae":"B","wings":"1","pattern":"X","legs":"X"},"action":"harvest","summary":"good-harvest","bonus":0.9600000000000007},{"rt":1190.5,"stimulus":"\n                    <p><b>Action: <em>harvest</em></b></p>\n                    <p>This is the bee that you just saw.</p>\n                    <img src=\"bees-with-color/bee-B2SF.svg\" width=\"200\">\n                    <p><span class=\"greenText\"><b>Successful harvest!</b></span><br>Your pay has increased by $0.02. Your bonus pay is now $0.88.</p>\n            ","response":0,"trial_type":"html-button-response","trial_index":96,"time_elapsed":1675707,"internal_node_id":"0.0-4.0-1.44","subject_id":"5e983ab90e13cb01177b3ee0","study_id":"6197b3f67c2b5cd3b6d9596a","session_id":"6197b7f490f7a2f452f36cef","condition":"full-information","relevant_dimensions":["antennae","wings"],"bee_group":{"antennae":"B","wings":"1","pattern":"X","legs":"X"},"bonus":0.9600000000000007},{"rt":11422.399999976158,"stimulus":"bees-with-color/bee-B1DM.svg","response":1,"trial_type":"image-button-response","trial_index":97,"time_elapsed":1687132,"internal_node_id":"0.0-4.0-0.45","subject_id":"5e983ab90e13cb01177b3ee0","study_id":"6197b3f67c2b5cd3b6d9596a","session_id":"6197b7f490f7a2f452f36cef","condition":"full-information","relevant_dimensions":["antennae","wings"],"bee_group":{"antennae":"B","wings":"1","pattern":"X","legs":"X"},"action":"avoid","summary":"good-avoid","bonus":0.9600000000000007},{"rt":974.5,"stimulus":"\n                    <p><b>Action: <em>avoid</em></b></p>\n                    <p>This is the bee that you just saw.</p>\n                    <img src=\"bees-with-color/bee-B1DM.svg\" width=\"200\">\n                    <p><span class=\"greenText\">Good choice!</span>  This bee would have stung you.<br>Your bonus pay is unchanged, and remains at $0.88.</p>\n            ","response":0,"trial_type":"html-button-response","trial_index":98,"time_elapsed":1688108,"internal_node_id":"0.0-4.0-1.45","subject_id":"5e983ab90e13cb01177b3ee0","study_id":"6197b3f67c2b5cd3b6d9596a","session_id":"6197b7f490f7a2f452f36cef","condition":"full-information","relevant_dimensions":["antennae","wings"],"bee_group":{"antennae":"B","wings":"1","pattern":"X","legs":"X"},"bonus":0.9600000000000007},{"rt":10334.300000071526,"stimulus":"bees-with-color/bee-A1DM.svg","response":1,"trial_type":"image-button-response","trial_index":99,"time_elapsed":1698444,"internal_node_id":"0.0-4.0-0.46","subject_id":"5e983ab90e13cb01177b3ee0","study_id":"6197b3f67c2b5cd3b6d9596a","session_id":"6197b7f490f7a2f452f36cef","condition":"full-information","relevant_dimensions":["antennae","wings"],"bee_group":{"antennae":"B","wings":"1","pattern":"X","legs":"X"},"action":"avoid","summary":"bad-avoid","bonus":0.9600000000000007},{"rt":3102.600000023842,"stimulus":"\n                    <p><b>Action: <em>avoid</em></b></p>\n                    <p>This is the bee that you just saw.</p>\n                    <img src=\"bees-with-color/bee-A1DM.svg\" width=\"200\">\n                    <p><span class=\"redText\">Bad choice,</span> the bee was friendly.<br>Your bonus pay is unchanged, and remains at $0.88.</p>\n            ","response":0,"trial_type":"html-button-response","trial_index":100,"time_elapsed":1701548,"internal_node_id":"0.0-4.0-1.46","subject_id":"5e983ab90e13cb01177b3ee0","study_id":"6197b3f67c2b5cd3b6d9596a","session_id":"6197b7f490f7a2f452f36cef","condition":"full-information","relevant_dimensions":["antennae","wings"],"bee_group":{"antennae":"B","wings":"1","pattern":"X","legs":"X"},"bonus":0.9600000000000007},{"rt":17606.100000023842,"stimulus":"bees-with-color/bee-A1SM.svg","response":0,"trial_type":"image-button-response","trial_index":101,"time_elapsed":1719156,"internal_node_id":"0.0-4.0-0.47","subject_id":"5e983ab90e13cb01177b3ee0","study_id":"6197b3f67c2b5cd3b6d9596a","session_id":"6197b7f490f7a2f452f36cef","condition":"full-information","relevant_dimensions":["antennae","wings"],"bee_group":{"antennae":"B","wings":"1","pattern":"X","legs":"X"},"action":"harvest","summary":"good-harvest","bonus":0.9600000000000007},{"rt":814.7000000476837,"stimulus":"\n                    <p><b>Action: <em>harvest</em></b></p>\n                    <p>This is the bee that you just saw.</p>\n                    <img src=\"bees-with-color/bee-A1SM.svg\" width=\"200\">\n                    <p><span class=\"greenText\"><b>Successful harvest!</b></span><br>Your pay has increased by $0.02. Your bonus pay is now $0.90.</p>\n            ","response":0,"trial_type":"html-button-response","trial_index":102,"time_elapsed":1719972,"internal_node_id":"0.0-4.0-1.47","subject_id":"5e983ab90e13cb01177b3ee0","study_id":"6197b3f67c2b5cd3b6d9596a","session_id":"6197b7f490f7a2f452f36cef","condition":"full-information","relevant_dimensions":["antennae","wings"],"bee_group":{"antennae":"B","wings":"1","pattern":"X","legs":"X"},"bonus":0.9600000000000007},{"rt":12734.5,"stimulus":"bees-with-color/bee-A1DM.svg","response":0,"trial_type":"image-button-response","trial_index":103,"time_elapsed":1732708,"internal_node_id":"0.0-4.0-0.48","subject_id":"5e983ab90e13cb01177b3ee0","study_id":"6197b3f67c2b5cd3b6d9596a","session_id":"6197b7f490f7a2f452f36cef","condition":"full-information","relevant_dimensions":["antennae","wings"],"bee_group":{"antennae":"B","wings":"1","pattern":"X","legs":"X"},"action":"harvest","summary":"good-harvest","bonus":0.9600000000000007},{"rt":790.2000000476837,"stimulus":"\n                    <p><b>Action: <em>harvest</em></b></p>\n                    <p>This is the bee that you just saw.</p>\n                    <img src=\"bees-with-color/bee-A1DM.svg\" width=\"200\">\n                    <p><span class=\"greenText\"><b>Successful harvest!</b></span><br>Your pay has increased by $0.02. Your bonus pay is now $0.92.</p>\n            ","response":0,"trial_type":"html-button-response","trial_index":104,"time_elapsed":1733500,"internal_node_id":"0.0-4.0-1.48","subject_id":"5e983ab90e13cb01177b3ee0","study_id":"6197b3f67c2b5cd3b6d9596a","session_id":"6197b7f490f7a2f452f36cef","condition":"full-information","relevant_dimensions":["antennae","wings"],"bee_group":{"antennae":"B","wings":"1","pattern":"X","legs":"X"},"bonus":0.9600000000000007},{"rt":21662.200000047684,"stimulus":"bees-with-color/bee-B1SF.svg","response":1,"trial_type":"image-button-response","trial_index":105,"time_elapsed":1755164,"internal_node_id":"0.0-4.0-0.49","subject_id":"5e983ab90e13cb01177b3ee0","study_id":"6197b3f67c2b5cd3b6d9596a","session_id":"6197b7f490f7a2f452f36cef","condition":"full-information","relevant_dimensions":["antennae","wings"],"bee_group":{"antennae":"B","wings":"1","pattern":"X","legs":"X"},"action":"avoid","summary":"good-avoid","bonus":0.9600000000000007},{"rt":830.3999999761581,"stimulus":"\n                    <p><b>Action: <em>avoid</em></b></p>\n                    <p>This is the bee that you just saw.</p>\n                    <img src=\"bees-with-color/bee-B1SF.svg\" width=\"200\">\n                    <p><span class=\"greenText\">Good choice!</span>  This bee would have stung you.<br>Your bonus pay is unchanged, and remains at $0.92.</p>\n            ","response":0,"trial_type":"html-button-response","trial_index":106,"time_elapsed":1755996,"internal_node_id":"0.0-4.0-1.49","subject_id":"5e983ab90e13cb01177b3ee0","study_id":"6197b3f67c2b5cd3b6d9596a","session_id":"6197b7f490f7a2f452f36cef","condition":"full-information","relevant_dimensions":["antennae","wings"],"bee_group":{"antennae":"B","wings":"1","pattern":"X","legs":"X"},"bonus":0.9600000000000007},{"rt":10854.800000071526,"stimulus":"bees-with-color/bee-B2DM.svg","response":0,"trial_type":"image-button-response","trial_index":107,"time_elapsed":1766852,"internal_node_id":"0.0-4.0-0.50","subject_id":"5e983ab90e13cb01177b3ee0","study_id":"6197b3f67c2b5cd3b6d9596a","session_id":"6197b7f490f7a2f452f36cef","condition":"full-information","relevant_dimensions":["antennae","wings"],"bee_group":{"antennae":"B","wings":"1","pattern":"X","legs":"X"},"action":"harvest","summary":"good-harvest","bonus":0.9600000000000007},{"rt":1445.8000000715256,"stimulus":"\n                    <p><b>Action: <em>harvest</em></b></p>\n                    <p>This is the bee that you just saw.</p>\n                    <img src=\"bees-with-color/bee-B2DM.svg\" width=\"200\">\n                    <p><span class=\"greenText\"><b>Successful harvest!</b></span><br>Your pay has increased by $0.02. Your bonus pay is now $0.94.</p>\n            ","response":0,"trial_type":"html-button-response","trial_index":108,"time_elapsed":1768300,"internal_node_id":"0.0-4.0-1.50","subject_id":"5e983ab90e13cb01177b3ee0","study_id":"6197b3f67c2b5cd3b6d9596a","session_id":"6197b7f490f7a2f452f36cef","condition":"full-information","relevant_dimensions":["antennae","wings"],"bee_group":{"antennae":"B","wings":"1","pattern":"X","legs":"X"},"bonus":0.9600000000000007},{"rt":25894.100000023842,"stimulus":"bees-with-color/bee-B1DM.svg","response":0,"trial_type":"image-button-response","trial_index":109,"time_elapsed":1794196,"internal_node_id":"0.0-4.0-0.51","subject_id":"5e983ab90e13cb01177b3ee0","study_id":"6197b3f67c2b5cd3b6d9596a","session_id":"6197b7f490f7a2f452f36cef","condition":"full-information","relevant_dimensions":["antennae","wings"],"bee_group":{"antennae":"B","wings":"1","pattern":"X","legs":"X"},"action":"harvest","summary":"bad-harvest","bonus":0.9600000000000007},{"rt":2694.2000000476837,"stimulus":"\n                    <p><b>Action: <em>harvest</em></b></p>\n                    <p>This is the bee that you just saw.</p>\n                    <img src=\"bees-with-color/bee-B1DM.svg\" width=\"200\">\n                    <p><span class=\"redText\">Bad choice, the bee was angry.</span><br><b>You have been stung!</b><br>Your pay has been decreased by $0.10. Your bonus pay is now $0.84.</p>\n            ","response":0,"trial_type":"html-button-response","trial_index":110,"time_elapsed":1796892,"internal_node_id":"0.0-4.0-1.51","subject_id":"5e983ab90e13cb01177b3ee0","study_id":"6197b3f67c2b5cd3b6d9596a","session_id":"6197b7f490f7a2f452f36cef","condition":"full-information","relevant_dimensions":["antennae","wings"],"bee_group":{"antennae":"B","wings":"1","pattern":"X","legs":"X"},"bonus":0.9600000000000007},{"rt":12526.200000047684,"stimulus":"bees-with-color/bee-A2DF.svg","response":0,"trial_type":"image-button-response","trial_index":111,"time_elapsed":1809420,"internal_node_id":"0.0-4.0-0.52","subject_id":"5e983ab90e13cb01177b3ee0","study_id":"6197b3f67c2b5cd3b6d9596a","session_id":"6197b7f490f7a2f452f36cef","condition":"full-information","relevant_dimensions":["antennae","wings"],"bee_group":{"antennae":"B","wings":"1","pattern":"X","legs":"X"},"action":"harvest","summary":"good-harvest","bonus":0.9600000000000007},{"rt":934,"stimulus":"\n                    <p><b>Action: <em>harvest</em></b></p>\n                    <p>This is the bee that you just saw.</p>\n                    <img src=\"bees-with-color/bee-A2DF.svg\" width=\"200\">\n                    <p><span class=\"greenText\"><b>Successful harvest!</b></span><br>Your pay has increased by $0.02. Your bonus pay is now $0.86.</p>\n            ","response":0,"trial_type":"html-button-response","trial_index":112,"time_elapsed":1810356,"internal_node_id":"0.0-4.0-1.52","subject_id":"5e983ab90e13cb01177b3ee0","study_id":"6197b3f67c2b5cd3b6d9596a","session_id":"6197b7f490f7a2f452f36cef","condition":"full-information","relevant_dimensions":["antennae","wings"],"bee_group":{"antennae":"B","wings":"1","pattern":"X","legs":"X"},"bonus":0.9600000000000007},{"rt":7822.299999952316,"stimulus":"bees-with-color/bee-B2SF.svg","response":0,"trial_type":"image-button-response","trial_index":113,"time_elapsed":1818180,"internal_node_id":"0.0-4.0-0.53","subject_id":"5e983ab90e13cb01177b3ee0","study_id":"6197b3f67c2b5cd3b6d9596a","session_id":"6197b7f490f7a2f452f36cef","condition":"full-information","relevant_dimensions":["antennae","wings"],"bee_group":{"antennae":"B","wings":"1","pattern":"X","legs":"X"},"action":"harvest","summary":"good-harvest","bonus":0.9600000000000007},{"rt":854.7000000476837,"stimulus":"\n                    <p><b>Action: <em>harvest</em></b></p>\n                    <p>This is the bee that you just saw.</p>\n                    <img src=\"bees-with-color/bee-B2SF.svg\" width=\"200\">\n                    <p><span class=\"greenText\"><b>Successful harvest!</b></span><br>Your pay has increased by $0.02. Your bonus pay is now $0.88.</p>\n            ","response":0,"trial_type":"html-button-response","trial_index":114,"time_elapsed":1819036,"internal_node_id":"0.0-4.0-1.53","subject_id":"5e983ab90e13cb01177b3ee0","study_id":"6197b3f67c2b5cd3b6d9596a","session_id":"6197b7f490f7a2f452f36cef","condition":"full-information","relevant_dimensions":["antennae","wings"],"bee_group":{"antennae":"B","wings":"1","pattern":"X","legs":"X"},"bonus":0.9600000000000007},{"rt":32189.699999928474,"stimulus":"bees-with-color/bee-A1DF.svg","response":1,"trial_type":"image-button-response","trial_index":115,"time_elapsed":1851228,"internal_node_id":"0.0-4.0-0.54","subject_id":"5e983ab90e13cb01177b3ee0","study_id":"6197b3f67c2b5cd3b6d9596a","session_id":"6197b7f490f7a2f452f36cef","condition":"full-information","relevant_dimensions":["antennae","wings"],"bee_group":{"antennae":"B","wings":"1","pattern":"X","legs":"X"},"action":"avoid","summary":"bad-avoid","bonus":0.9600000000000007},{"rt":5038.299999952316,"stimulus":"\n                    <p><b>Action: <em>avoid</em></b></p>\n                    <p>This is the bee that you just saw.</p>\n                    <img src=\"bees-with-color/bee-A1DF.svg\" width=\"200\">\n                    <p><span class=\"redText\">Bad choice,</span> the bee was friendly.<br>Your bonus pay is unchanged, and remains at $0.88.</p>\n            ","response":0,"trial_type":"html-button-response","trial_index":116,"time_elapsed":1856268,"internal_node_id":"0.0-4.0-1.54","subject_id":"5e983ab90e13cb01177b3ee0","study_id":"6197b3f67c2b5cd3b6d9596a","session_id":"6197b7f490f7a2f452f36cef","condition":"full-information","relevant_dimensions":["antennae","wings"],"bee_group":{"antennae":"B","wings":"1","pattern":"X","legs":"X"},"bonus":0.9600000000000007},{"rt":7046.199999928474,"stimulus":"bees-with-color/bee-A1SF.svg","response":0,"trial_type":"image-button-response","trial_index":117,"time_elapsed":1863316,"internal_node_id":"0.0-4.0-0.55","subject_id":"5e983ab90e13cb01177b3ee0","study_id":"6197b3f67c2b5cd3b6d9596a","session_id":"6197b7f490f7a2f452f36cef","condition":"full-information","relevant_dimensions":["antennae","wings"],"bee_group":{"antennae":"B","wings":"1","pattern":"X","legs":"X"},"action":"harvest","summary":"good-harvest","bonus":0.9600000000000007},{"rt":798.1000000238419,"stimulus":"\n                    <p><b>Action: <em>harvest</em></b></p>\n                    <p>This is the bee that you just saw.</p>\n                    <img src=\"bees-with-color/bee-A1SF.svg\" width=\"200\">\n                    <p><span class=\"greenText\"><b>Successful harvest!</b></span><br>Your pay has increased by $0.02. Your bonus pay is now $0.90.</p>\n            ","response":0,"trial_type":"html-button-response","trial_index":118,"time_elapsed":1864116,"internal_node_id":"0.0-4.0-1.55","subject_id":"5e983ab90e13cb01177b3ee0","study_id":"6197b3f67c2b5cd3b6d9596a","session_id":"6197b7f490f7a2f452f36cef","condition":"full-information","relevant_dimensions":["antennae","wings"],"bee_group":{"antennae":"B","wings":"1","pattern":"X","legs":"X"},"bonus":0.9600000000000007},{"rt":8254.100000023842,"stimulus":"bees-with-color/bee-A2SF.svg","response":1,"trial_type":"image-button-response","trial_index":119,"time_elapsed":1872372,"internal_node_id":"0.0-4.0-0.56","subject_id":"5e983ab90e13cb01177b3ee0","study_id":"6197b3f67c2b5cd3b6d9596a","session_id":"6197b7f490f7a2f452f36cef","condition":"full-information","relevant_dimensions":["antennae","wings"],"bee_group":{"antennae":"B","wings":"1","pattern":"X","legs":"X"},"action":"avoid","summary":"bad-avoid","bonus":0.9600000000000007},{"rt":1598.3000000715256,"stimulus":"\n                    <p><b>Action: <em>avoid</em></b></p>\n                    <p>This is the bee that you just saw.</p>\n                    <img src=\"bees-with-color/bee-A2SF.svg\" width=\"200\">\n                    <p><span class=\"redText\">Bad choice,</span> the bee was friendly.<br>Your bonus pay is unchanged, and remains at $0.90.</p>\n            ","response":0,"trial_type":"html-button-response","trial_index":120,"time_elapsed":1873972,"internal_node_id":"0.0-4.0-1.56","subject_id":"5e983ab90e13cb01177b3ee0","study_id":"6197b3f67c2b5cd3b6d9596a","session_id":"6197b7f490f7a2f452f36cef","condition":"full-information","relevant_dimensions":["antennae","wings"],"bee_group":{"antennae":"B","wings":"1","pattern":"X","legs":"X"},"bonus":0.9600000000000007},{"rt":15462,"stimulus":"bees-with-color/bee-B2DF.svg","response":0,"trial_type":"image-button-response","trial_index":121,"time_elapsed":1889436,"internal_node_id":"0.0-4.0-0.57","subject_id":"5e983ab90e13cb01177b3ee0","study_id":"6197b3f67c2b5cd3b6d9596a","session_id":"6197b7f490f7a2f452f36cef","condition":"full-information","relevant_dimensions":["antennae","wings"],"bee_group":{"antennae":"B","wings":"1","pattern":"X","legs":"X"},"action":"harvest","summary":"good-harvest","bonus":0.9600000000000007},{"rt":774,"stimulus":"\n                    <p><b>Action: <em>harvest</em></b></p>\n                    <p>This is the bee that you just saw.</p>\n                    <img src=\"bees-with-color/bee-B2DF.svg\" width=\"200\">\n                    <p><span class=\"greenText\"><b>Successful harvest!</b></span><br>Your pay has increased by $0.02. Your bonus pay is now $0.92.</p>\n            ","response":0,"trial_type":"html-button-response","trial_index":122,"time_elapsed":1890212,"internal_node_id":"0.0-4.0-1.57","subject_id":"5e983ab90e13cb01177b3ee0","study_id":"6197b3f67c2b5cd3b6d9596a","session_id":"6197b7f490f7a2f452f36cef","condition":"full-information","relevant_dimensions":["antennae","wings"],"bee_group":{"antennae":"B","wings":"1","pattern":"X","legs":"X"},"bonus":0.9600000000000007},{"rt":10742,"stimulus":"bees-with-color/bee-B1SM.svg","response":1,"trial_type":"image-button-response","trial_index":123,"time_elapsed":1900956,"internal_node_id":"0.0-4.0-0.58","subject_id":"5e983ab90e13cb01177b3ee0","study_id":"6197b3f67c2b5cd3b6d9596a","session_id":"6197b7f490f7a2f452f36cef","condition":"full-information","relevant_dimensions":["antennae","wings"],"bee_group":{"antennae":"B","wings":"1","pattern":"X","legs":"X"},"action":"avoid","summary":"good-avoid","bonus":0.9600000000000007},{"rt":966.1000000238419,"stimulus":"\n                    <p><b>Action: <em>avoid</em></b></p>\n                    <p>This is the bee that you just saw.</p>\n                    <img src=\"bees-with-color/bee-B1SM.svg\" width=\"200\">\n                    <p><span class=\"greenText\">Good choice!</span>  This bee would have stung you.<br>Your bonus pay is unchanged, and remains at $0.92.</p>\n            ","response":0,"trial_type":"html-button-response","trial_index":124,"time_elapsed":1901924,"internal_node_id":"0.0-4.0-1.58","subject_id":"5e983ab90e13cb01177b3ee0","study_id":"6197b3f67c2b5cd3b6d9596a","session_id":"6197b7f490f7a2f452f36cef","condition":"full-information","relevant_dimensions":["antennae","wings"],"bee_group":{"antennae":"B","wings":"1","pattern":"X","legs":"X"},"bonus":0.9600000000000007},{"rt":9197.799999952316,"stimulus":"bees-with-color/bee-B1DF.svg","response":1,"trial_type":"image-button-response","trial_index":125,"time_elapsed":1911124,"internal_node_id":"0.0-4.0-0.59","subject_id":"5e983ab90e13cb01177b3ee0","study_id":"6197b3f67c2b5cd3b6d9596a","session_id":"6197b7f490f7a2f452f36cef","condition":"full-information","relevant_dimensions":["antennae","wings"],"bee_group":{"antennae":"B","wings":"1","pattern":"X","legs":"X"},"action":"avoid","summary":"good-avoid","bonus":0.9600000000000007},{"rt":966.2000000476837,"stimulus":"\n                    <p><b>Action: <em>avoid</em></b></p>\n                    <p>This is the bee that you just saw.</p>\n                    <img src=\"bees-with-color/bee-B1DF.svg\" width=\"200\">\n                    <p><span class=\"greenText\">Good choice!</span>  This bee would have stung you.<br>Your bonus pay is unchanged, and remains at $0.92.</p>\n            ","response":0,"trial_type":"html-button-response","trial_index":126,"time_elapsed":1912092,"internal_node_id":"0.0-4.0-1.59","subject_id":"5e983ab90e13cb01177b3ee0","study_id":"6197b3f67c2b5cd3b6d9596a","session_id":"6197b7f490f7a2f452f36cef","condition":"full-information","relevant_dimensions":["antennae","wings"],"bee_group":{"antennae":"B","wings":"1","pattern":"X","legs":"X"},"bonus":0.9600000000000007},{"rt":17214,"stimulus":"bees-with-color/bee-A1SM.svg","response":0,"trial_type":"image-button-response","trial_index":127,"time_elapsed":1929308,"internal_node_id":"0.0-4.0-0.60","subject_id":"5e983ab90e13cb01177b3ee0","study_id":"6197b3f67c2b5cd3b6d9596a","session_id":"6197b7f490f7a2f452f36cef","condition":"full-information","relevant_dimensions":["antennae","wings"],"bee_group":{"antennae":"B","wings":"1","pattern":"X","legs":"X"},"action":"harvest","summary":"good-harvest","bonus":0.9600000000000007},{"rt":1030.2000000476837,"stimulus":"\n                    <p><b>Action: <em>harvest</em></b></p>\n                    <p>This is the bee that you just saw.</p>\n                    <img src=\"bees-with-color/bee-A1SM.svg\" width=\"200\">\n                    <p><span class=\"greenText\"><b>Successful harvest!</b></span><br>Your pay has increased by $0.02. Your bonus pay is now $0.94.</p>\n            ","response":0,"trial_type":"html-button-response","trial_index":128,"time_elapsed":1930340,"internal_node_id":"0.0-4.0-1.60","subject_id":"5e983ab90e13cb01177b3ee0","study_id":"6197b3f67c2b5cd3b6d9596a","session_id":"6197b7f490f7a2f452f36cef","condition":"full-information","relevant_dimensions":["antennae","wings"],"bee_group":{"antennae":"B","wings":"1","pattern":"X","legs":"X"},"bonus":0.9600000000000007},{"rt":7525.800000071526,"stimulus":"bees-with-color/bee-A2DM.svg","response":0,"trial_type":"image-button-response","trial_index":129,"time_elapsed":1937868,"internal_node_id":"0.0-4.0-0.61","subject_id":"5e983ab90e13cb01177b3ee0","study_id":"6197b3f67c2b5cd3b6d9596a","session_id":"6197b7f490f7a2f452f36cef","condition":"full-information","relevant_dimensions":["antennae","wings"],"bee_group":{"antennae":"B","wings":"1","pattern":"X","legs":"X"},"action":"harvest","summary":"good-harvest","bonus":0.9600000000000007},{"rt":1102.1000000238419,"stimulus":"\n                    <p><b>Action: <em>harvest</em></b></p>\n                    <p>This is the bee that you just saw.</p>\n                    <img src=\"bees-with-color/bee-A2DM.svg\" width=\"200\">\n                    <p><span class=\"greenText\"><b>Successful harvest!</b></span><br>Your pay has increased by $0.02. Your bonus pay is now $0.96.</p>\n            ","response":0,"trial_type":"html-button-response","trial_index":130,"time_elapsed":1938972,"internal_node_id":"0.0-4.0-1.61","subject_id":"5e983ab90e13cb01177b3ee0","study_id":"6197b3f67c2b5cd3b6d9596a","session_id":"6197b7f490f7a2f452f36cef","condition":"full-information","relevant_dimensions":["antennae","wings"],"bee_group":{"antennae":"B","wings":"1","pattern":"X","legs":"X"},"bonus":0.9600000000000007},{"rt":9549.700000047684,"stimulus":"bees-with-color/bee-A2SM.svg","response":0,"trial_type":"image-button-response","trial_index":131,"time_elapsed":1948524,"internal_node_id":"0.0-4.0-0.62","subject_id":"5e983ab90e13cb01177b3ee0","study_id":"6197b3f67c2b5cd3b6d9596a","session_id":"6197b7f490f7a2f452f36cef","condition":"full-information","relevant_dimensions":["antennae","wings"],"bee_group":{"antennae":"B","wings":"1","pattern":"X","legs":"X"},"action":"harvest","summary":"good-harvest","bonus":0.9600000000000007},{"rt":1382.1000000238419,"stimulus":"\n                    <p><b>Action: <em>harvest</em></b></p>\n                    <p>This is the bee that you just saw.</p>\n                    <img src=\"bees-with-color/bee-A2SM.svg\" width=\"200\">\n                    <p><span class=\"greenText\"><b>Successful harvest!</b></span><br>Your pay has increased by $0.02. Your bonus pay is now $0.98.</p>\n            ","response":0,"trial_type":"html-button-response","trial_index":132,"time_elapsed":1949908,"internal_node_id":"0.0-4.0-1.62","subject_id":"5e983ab90e13cb01177b3ee0","study_id":"6197b3f67c2b5cd3b6d9596a","session_id":"6197b7f490f7a2f452f36cef","condition":"full-information","relevant_dimensions":["antennae","wings"],"bee_group":{"antennae":"B","wings":"1","pattern":"X","legs":"X"},"bonus":0.9600000000000007},{"rt":5518.300000071526,"stimulus":"bees-with-color/bee-B2SM.svg","response":1,"trial_type":"image-button-response","trial_index":133,"time_elapsed":1955428,"internal_node_id":"0.0-4.0-0.63","subject_id":"5e983ab90e13cb01177b3ee0","study_id":"6197b3f67c2b5cd3b6d9596a","session_id":"6197b7f490f7a2f452f36cef","condition":"full-information","relevant_dimensions":["antennae","wings"],"bee_group":{"antennae":"B","wings":"1","pattern":"X","legs":"X"},"action":"avoid","summary":"bad-avoid","bonus":0.9600000000000007},{"rt":1566.5,"stimulus":"\n                    <p><b>Action: <em>avoid</em></b></p>\n                    <p>This is the bee that you just saw.</p>\n                    <img src=\"bees-with-color/bee-B2SM.svg\" width=\"200\">\n                    <p><span class=\"redText\">Bad choice,</span> the bee was friendly.<br>Your bonus pay is unchanged, and remains at $0.98.</p>\n            ","response":0,"trial_type":"html-button-response","trial_index":134,"time_elapsed":1956996,"internal_node_id":"0.0-4.0-1.63","subject_id":"5e983ab90e13cb01177b3ee0","study_id":"6197b3f67c2b5cd3b6d9596a","session_id":"6197b7f490f7a2f452f36cef","condition":"full-information","relevant_dimensions":["antennae","wings"],"bee_group":{"antennae":"B","wings":"1","pattern":"X","legs":"X"},"bonus":0.9600000000000007},{"rt":3732.1999999284744,"stimulus":"You have completed the first part of this experiment.<br><br>You will now begin a shorter second part, in which you will receive no feedback.<br>The same rules regarding bonus pay apply.<br><br>Press any key to begin.","response":"enter","trial_type":"html-keyboard-response","trial_index":135,"time_elapsed":1960731,"internal_node_id":"0.0-5.0","subject_id":"5e983ab90e13cb01177b3ee0","study_id":"6197b3f67c2b5cd3b6d9596a","session_id":"6197b7f490f7a2f452f36cef","condition":"full-information","relevant_dimensions":["antennae","wings"],"bee_group":{"antennae":"B","wings":"1","pattern":"X","legs":"X"},"bonus":0.9600000000000007},{"rt":11430.5,"stimulus":"bees-with-color/bee-A2SF.svg","response":0,"trial_type":"image-button-response","trial_index":136,"time_elapsed":1972172,"internal_node_id":"0.0-6.0-0.0","subject_id":"5e983ab90e13cb01177b3ee0","study_id":"6197b3f67c2b5cd3b6d9596a","session_id":"6197b7f490f7a2f452f36cef","condition":"full-information","relevant_dimensions":["antennae","wings"],"bee_group":{"antennae":"B","wings":"1","pattern":"X","legs":"X"},"bonus":0.9600000000000007},{"rt":7229.200000047684,"stimulus":"bees-with-color/bee-A1DM.svg","response":0,"trial_type":"image-button-response","trial_index":137,"time_elapsed":1979404,"internal_node_id":"0.0-6.0-0.1","subject_id":"5e983ab90e13cb01177b3ee0","study_id":"6197b3f67c2b5cd3b6d9596a","session_id":"6197b7f490f7a2f452f36cef","condition":"full-information","relevant_dimensions":["antennae","wings"],"bee_group":{"antennae":"B","wings":"1","pattern":"X","legs":"X"},"bonus":0.9600000000000007},{"rt":7813.200000047684,"stimulus":"bees-with-color/bee-B2SM.svg","response":0,"trial_type":"image-button-response","trial_index":138,"time_elapsed":1987220,"internal_node_id":"0.0-6.0-0.2","subject_id":"5e983ab90e13cb01177b3ee0","study_id":"6197b3f67c2b5cd3b6d9596a","session_id":"6197b7f490f7a2f452f36cef","condition":"full-information","relevant_dimensions":["antennae","wings"],"bee_group":{"antennae":"B","wings":"1","pattern":"X","legs":"X"},"bonus":0.9600000000000007},{"rt":14237.200000047684,"stimulus":"bees-with-color/bee-A1DF.svg","response":0,"trial_type":"image-button-response","trial_index":139,"time_elapsed":2001460,"internal_node_id":"0.0-6.0-0.3","subject_id":"5e983ab90e13cb01177b3ee0","study_id":"6197b3f67c2b5cd3b6d9596a","session_id":"6197b7f490f7a2f452f36cef","condition":"full-information","relevant_dimensions":["antennae","wings"],"bee_group":{"antennae":"B","wings":"1","pattern":"X","legs":"X"},"bonus":0.9600000000000007},{"rt":8485.200000047684,"stimulus":"bees-with-color/bee-B1SM.svg","response":1,"trial_type":"image-button-response","trial_index":140,"time_elapsed":2009948,"internal_node_id":"0.0-6.0-0.4","subject_id":"5e983ab90e13cb01177b3ee0","study_id":"6197b3f67c2b5cd3b6d9596a","session_id":"6197b7f490f7a2f452f36cef","condition":"full-information","relevant_dimensions":["antennae","wings"],"bee_group":{"antennae":"B","wings":"1","pattern":"X","legs":"X"},"bonus":0.9600000000000007},{"rt":25501.299999952316,"stimulus":"bees-with-color/bee-A2DM.svg","response":0,"trial_type":"image-button-response","trial_index":141,"time_elapsed":2035452,"internal_node_id":"0.0-6.0-0.5","subject_id":"5e983ab90e13cb01177b3ee0","study_id":"6197b3f67c2b5cd3b6d9596a","session_id":"6197b7f490f7a2f452f36cef","condition":"full-information","relevant_dimensions":["antennae","wings"],"bee_group":{"antennae":"B","wings":"1","pattern":"X","legs":"X"},"bonus":0.9600000000000007},{"rt":7141.100000023842,"stimulus":"bees-with-color/bee-A1SF.svg","response":0,"trial_type":"image-button-response","trial_index":142,"time_elapsed":2042596,"internal_node_id":"0.0-6.0-0.6","subject_id":"5e983ab90e13cb01177b3ee0","study_id":"6197b3f67c2b5cd3b6d9596a","session_id":"6197b7f490f7a2f452f36cef","condition":"full-information","relevant_dimensions":["antennae","wings"],"bee_group":{"antennae":"B","wings":"1","pattern":"X","legs":"X"},"bonus":0.9600000000000007},{"rt":2677.5,"stimulus":"bees-with-color/bee-B1SF.svg","response":0,"trial_type":"image-button-response","trial_index":143,"time_elapsed":2045276,"internal_node_id":"0.0-6.0-0.7","subject_id":"5e983ab90e13cb01177b3ee0","study_id":"6197b3f67c2b5cd3b6d9596a","session_id":"6197b7f490f7a2f452f36cef","condition":"full-information","relevant_dimensions":["antennae","wings"],"bee_group":{"antennae":"B","wings":"1","pattern":"X","legs":"X"},"bonus":0.9600000000000007},{"rt":29109.800000071526,"stimulus":"bees-with-color/bee-B1DF.svg","response":1,"trial_type":"image-button-response","trial_index":144,"time_elapsed":2074388,"internal_node_id":"0.0-6.0-0.8","subject_id":"5e983ab90e13cb01177b3ee0","study_id":"6197b3f67c2b5cd3b6d9596a","session_id":"6197b7f490f7a2f452f36cef","condition":"full-information","relevant_dimensions":["antennae","wings"],"bee_group":{"antennae":"B","wings":"1","pattern":"X","legs":"X"},"bonus":0.9600000000000007},{"rt":4997.099999904633,"stimulus":"bees-with-color/bee-B2DF.svg","response":0,"trial_type":"image-button-response","trial_index":145,"time_elapsed":2079388,"internal_node_id":"0.0-6.0-0.9","subject_id":"5e983ab90e13cb01177b3ee0","study_id":"6197b3f67c2b5cd3b6d9596a","session_id":"6197b7f490f7a2f452f36cef","condition":"full-information","relevant_dimensions":["antennae","wings"],"bee_group":{"antennae":"B","wings":"1","pattern":"X","legs":"X"},"bonus":0.9600000000000007},{"rt":3029.3000000715256,"stimulus":"bees-with-color/bee-A2DF.svg","response":0,"trial_type":"image-button-response","trial_index":146,"time_elapsed":2082420,"internal_node_id":"0.0-6.0-0.10","subject_id":"5e983ab90e13cb01177b3ee0","study_id":"6197b3f67c2b5cd3b6d9596a","session_id":"6197b7f490f7a2f452f36cef","condition":"full-information","relevant_dimensions":["antennae","wings"],"bee_group":{"antennae":"B","wings":"1","pattern":"X","legs":"X"},"bonus":0.9600000000000007},{"rt":13021.299999952316,"stimulus":"bees-with-color/bee-A2SM.svg","response":0,"trial_type":"image-button-response","trial_index":147,"time_elapsed":2095444,"internal_node_id":"0.0-6.0-0.11","subject_id":"5e983ab90e13cb01177b3ee0","study_id":"6197b3f67c2b5cd3b6d9596a","session_id":"6197b7f490f7a2f452f36cef","condition":"full-information","relevant_dimensions":["antennae","wings"],"bee_group":{"antennae":"B","wings":"1","pattern":"X","legs":"X"},"bonus":0.9600000000000007},{"rt":8917.299999952316,"stimulus":"bees-with-color/bee-A1SM.svg","response":0,"trial_type":"image-button-response","trial_index":148,"time_elapsed":2104364,"internal_node_id":"0.0-6.0-0.12","subject_id":"5e983ab90e13cb01177b3ee0","study_id":"6197b3f67c2b5cd3b6d9596a","session_id":"6197b7f490f7a2f452f36cef","condition":"full-information","relevant_dimensions":["antennae","wings"],"bee_group":{"antennae":"B","wings":"1","pattern":"X","legs":"X"},"bonus":0.9600000000000007},{"rt":20949.199999928474,"stimulus":"bees-with-color/bee-B1DM.svg","response":0,"trial_type":"image-button-response","trial_index":149,"time_elapsed":2125316,"internal_node_id":"0.0-6.0-0.13","subject_id":"5e983ab90e13cb01177b3ee0","study_id":"6197b3f67c2b5cd3b6d9596a","session_id":"6197b7f490f7a2f452f36cef","condition":"full-information","relevant_dimensions":["antennae","wings"],"bee_group":{"antennae":"B","wings":"1","pattern":"X","legs":"X"},"bonus":0.9600000000000007},{"rt":6436.599999904633,"stimulus":"bees-with-color/bee-B2SF.svg","response":0,"trial_type":"image-button-response","trial_index":150,"time_elapsed":2131756,"internal_node_id":"0.0-6.0-0.14","subject_id":"5e983ab90e13cb01177b3ee0","study_id":"6197b3f67c2b5cd3b6d9596a","session_id":"6197b7f490f7a2f452f36cef","condition":"full-information","relevant_dimensions":["antennae","wings"],"bee_group":{"antennae":"B","wings":"1","pattern":"X","legs":"X"},"bonus":0.9600000000000007},{"rt":14661.5,"stimulus":"bees-with-color/bee-B2DM.svg","response":0,"trial_type":"image-button-response","trial_index":151,"time_elapsed":2146420,"internal_node_id":"0.0-6.0-0.15","subject_id":"5e983ab90e13cb01177b3ee0","study_id":"6197b3f67c2b5cd3b6d9596a","session_id":"6197b7f490f7a2f452f36cef","condition":"full-information","relevant_dimensions":["antennae","wings"],"bee_group":{"antennae":"B","wings":"1","pattern":"X","legs":"X"},"bonus":0.9600000000000007},{"rt":51917.09999990463,"stimulus":"bees-with-color/bee-A2SM.svg","response":0,"trial_type":"image-button-response","trial_index":152,"time_elapsed":2198340,"internal_node_id":"0.0-6.0-0.16","subject_id":"5e983ab90e13cb01177b3ee0","study_id":"6197b3f67c2b5cd3b6d9596a","session_id":"6197b7f490f7a2f452f36cef","condition":"full-information","relevant_dimensions":["antennae","wings"],"bee_group":{"antennae":"B","wings":"1","pattern":"X","legs":"X"},"bonus":0.9600000000000007},{"rt":17197.299999952316,"stimulus":"bees-with-color/bee-B1SF.svg","response":1,"trial_type":"image-button-response","trial_index":153,"time_elapsed":2215540,"internal_node_id":"0.0-6.0-0.17","subject_id":"5e983ab90e13cb01177b3ee0","study_id":"6197b3f67c2b5cd3b6d9596a","session_id":"6197b7f490f7a2f452f36cef","condition":"full-information","relevant_dimensions":["antennae","wings"],"bee_group":{"antennae":"B","wings":"1","pattern":"X","legs":"X"},"bonus":0.9600000000000007},{"rt":37549.60000002384,"stimulus":"bees-with-color/bee-A1DF.svg","response":1,"trial_type":"image-button-response","trial_index":154,"time_elapsed":2253092,"internal_node_id":"0.0-6.0-0.18","subject_id":"5e983ab90e13cb01177b3ee0","study_id":"6197b3f67c2b5cd3b6d9596a","session_id":"6197b7f490f7a2f452f36cef","condition":"full-information","relevant_dimensions":["antennae","wings"],"bee_group":{"antennae":"B","wings":"1","pattern":"X","legs":"X"},"bonus":0.9600000000000007},{"rt":5685.299999952316,"stimulus":"bees-with-color/bee-A2DF.svg","response":0,"trial_type":"image-button-response","trial_index":155,"time_elapsed":2258780,"internal_node_id":"0.0-6.0-0.19","subject_id":"5e983ab90e13cb01177b3ee0","study_id":"6197b3f67c2b5cd3b6d9596a","session_id":"6197b7f490f7a2f452f36cef","condition":"full-information","relevant_dimensions":["antennae","wings"],"bee_group":{"antennae":"B","wings":"1","pattern":"X","legs":"X"},"bonus":0.9600000000000007},{"rt":9556,"stimulus":"bees-with-color/bee-A2SF.svg","response":1,"trial_type":"image-button-response","trial_index":156,"time_elapsed":2268340,"internal_node_id":"0.0-6.0-0.20","subject_id":"5e983ab90e13cb01177b3ee0","study_id":"6197b3f67c2b5cd3b6d9596a","session_id":"6197b7f490f7a2f452f36cef","condition":"full-information","relevant_dimensions":["antennae","wings"],"bee_group":{"antennae":"B","wings":"1","pattern":"X","legs":"X"},"bonus":0.9600000000000007},{"rt":24421.799999952316,"stimulus":"bees-with-color/bee-A1DM.svg","response":0,"trial_type":"image-button-response","trial_index":157,"time_elapsed":2292764,"internal_node_id":"0.0-6.0-0