[{"success":true,"trial_type":"fullscreen","trial_index":0,"time_elapsed":3940,"internal_node_id":"0.0-0.0","subject_id":"60f092724d04989ff200cd63","study_id":"60edd13110225f80f9f3709b","session_id":"6196c4a75c2a084d086803dd","condition":"full-information","relevant_dimensions":["pattern","legs"],"bee_group":{"antennae":"X","wings":"X","pattern":"S","legs":"M"},"bonus":0},{"success":true,"timeout":false,"failed_images":[],"failed_audio":[],"failed_video":[],"trial_type":"preload","trial_index":1,"time_elapsed":4056,"internal_node_id":"0.0-1.0","subject_id":"60f092724d04989ff200cd63","study_id":"60edd13110225f80f9f3709b","session_id":"6196c4a75c2a084d086803dd","condition":"full-information","relevant_dimensions":["pattern","legs"],"bee_group":{"antennae":"X","wings":"X","pattern":"S","legs":"M"},"bonus":0},{"rt":2693.699999988079,"stimulus":"Welcome! Press any key to begin.","response":"m","trial_type":"html-keyboard-response","trial_index":2,"time_elapsed":6750,"internal_node_id":"0.0-2.0","subject_id":"60f092724d04989ff200cd63","study_id":"60edd13110225f80f9f3709b","session_id":"6196c4a75c2a084d086803dd","condition":"full-information","relevant_dimensions":["pattern","legs"],"bee_group":{"antennae":"X","wings":"X","pattern":"S","legs":"M"},"bonus":0},{"view_history":[{"page_index":0,"viewing_time":1802.5999999642372},{"page_index":1,"viewing_time":19589.5},{"page_index":2,"viewing_time":4107.5},{"page_index":3,"viewing_time":3405.400000035763},{"page_index":4,"viewing_time":3200.399999976158},{"page_index":5,"viewing_time":2887.600000023842},{"page_index":6,"viewing_time":3248.199999988079},{"page_index":7,"viewing_time":3483.300000011921},{"page_index":8,"viewing_time":2234},{"page_index":9,"viewing_time":2262.699999988079},{"page_index":10,"viewing_time":1853.699999988079},{"page_index":11,"viewing_time":4087.199999988079},{"page_index":12,"viewing_time":4096.800000011921},{"page_index":13,"viewing_time":4798.5},{"page_index":14,"viewing_time":3052.800000011921}],"rt":64110.39999997616,"trial_type":"instructions","trial_index":3,"time_elapsed":70861,"internal_node_id":"0.0-3.0-0.0","subject_id":"60f092724d04989ff200cd63","study_id":"60edd13110225f80f9f3709b","session_id":"6196c4a75c2a084d086803dd","condition":"full-information","relevant_dimensions":["pattern","legs"],"bee_group":{"antennae":"X","wings":"X","pattern":"S","legs":"M"},"bonus":0},{"rt":63774.200000047684,"response":{"Q0":["Two or six legs","Stripes or spots on body","Single or double wings","Antennae or no antennae"]},"question_order":[0],"trial_type":"survey-multi-select","trial_index":4,"time_elapsed":134639,"internal_node_id":"0.0-3.0-1.0","subject_id":"60f092724d04989ff200cd63","study_id":"60edd13110225f80f9f3709b","session_id":"6196c4a75c2a084d086803dd","condition":"full-information","relevant_dimensions":["pattern","legs"],"bee_group":{"antennae":"X","wings":"X","pattern":"S","legs":"M"},"correct":true,"bonus":0},{"rt":296092.1999999881,"response":{"Q1":"No.","Q2":"Based on the four features of the bee.","Q3":"You learn if it was friendly or dangerous, but do not alter your bonus."},"question_order":[0,1,2],"trial_type":"survey-multi-choice","trial_index":5,"time_elapsed":430733,"internal_node_id":"0.0-3.0-2.0","subject_id":"60f092724d04989ff200cd63","study_id":"60edd13110225f80f9f3709b","session_id":"6196c4a75c2a084d086803dd","condition":"full-information","relevant_dimensions":["pattern","legs"],"bee_group":{"antennae":"X","wings":"X","pattern":"S","legs":"M"},"correct":true,"bonus":0},{"rt":2506.199999988079,"stimulus":"<p>Congrats, you got everything right<br>When you're ready, click the button below to continue to the experiment.</p>","response":0,"trial_type":"html-button-response","trial_index":6,"time_elapsed":433241,"internal_node_id":"0.0-3.0-3.0","subject_id":"60f092724d04989ff200cd63","study_id":"60edd13110225f80f9f3709b","session_id":"6196c4a75c2a084d086803dd","condition":"full-information","relevant_dimensions":["pattern","legs"],"bee_group":{"antennae":"X","wings":"X","pattern":"S","legs":"M"},"bonus":0},{"rt":4677.699999988079,"stimulus":"bees-with-color/bee-A1SF.svg","response":0,"trial_type":"image-button-response","trial_index":7,"time_elapsed":437921,"internal_node_id":"0.0-4.0-0.0","subject_id":"60f092724d04989ff200cd63","study_id":"60edd13110225f80f9f3709b","session_id":"6196c4a75c2a084d086803dd","condition":"full-information","relevant_dimensions":["pattern","legs"],"bee_group":{"antennae":"X","wings":"X","pattern":"S","legs":"M"},"action":"harvest","summary":"good-harvest","bonus":0},{"rt":15595.699999988079,"stimulus":"\n                    <p><b>Action: <em>harvest</em></b></p>\n                    <p>This is the bee that you just saw.</p>\n                    <img src=\"bees-with-color/bee-A1SF.svg\" width=\"200\">\n                    <p><span class=\"greenText\"><b>Successful harvest!</b></span><br>Your pay has increased by $0.02. Your bonus pay is now $0.56.</p>\n            ","response":0,"trial_type":"html-button-response","trial_index":8,"time_elapsed":453520,"internal_node_id":"0.0-4.0-1.0","subject_id":"60f092724d04989ff200cd63","study_id":"60edd13110225f80f9f3709b","session_id":"6196c4a75c2a084d086803dd","condition":"full-information","relevant_dimensions":["pattern","legs"],"bee_group":{"antennae":"X","wings":"X","pattern":"S","legs":"M"},"bonus":0},{"rt":2606,"stimulus":"bees-with-color/bee-A1DF.svg","response":0,"trial_type":"image-button-response","trial_index":9,"time_elapsed":456128,"internal_node_id":"0.0-4.0-0.1","subject_id":"60f092724d04989ff200cd63","study_id":"60edd13110225f80f9f3709b","session_id":"6196c4a75c2a084d086803dd","condition":"full-information","relevant_dimensions":["pattern","legs"],"bee_group":{"antennae":"X","wings":"X","pattern":"S","legs":"M"},"action":"harvest","summary":"good-harvest","bonus":0},{"rt":6144,"stimulus":"\n                    <p><b>Action: <em>harvest</em></b></p>\n                    <p>This is the bee that you just saw.</p>\n                    <img src=\"bees-with-color/bee-A1DF.svg\" width=\"200\">\n                    <p><span class=\"greenText\"><b>Successful harvest!</b></span><br>Your pay has increased by $0.02. Your bonus pay is now $0.58.</p>\n            ","response":0,"trial_type":"html-button-response","trial_index":10,"time_elapsed":462275,"internal_node_id":"0.0-4.0-1.1","subject_id":"60f092724d04989ff200cd63","study_id":"60edd13110225f80f9f3709b","session_id":"6196c4a75c2a084d086803dd","condition":"full-information","relevant_dimensions":["pattern","legs"],"bee_group":{"antennae":"X","wings":"X","pattern":"S","legs":"M"},"bonus":0},{"rt":1499.800000011921,"stimulus":"bees-with-color/bee-B1SF.svg","response":1,"trial_type":"image-button-response","trial_index":11,"time_elapsed":463776,"internal_node_id":"0.0-4.0-0.2","subject_id":"60f092724d04989ff200cd63","study_id":"60edd13110225f80f9f3709b","session_id":"6196c4a75c2a084d086803dd","condition":"full-information","relevant_dimensions":["pattern","legs"],"bee_group":{"antennae":"X","wings":"X","pattern":"S","legs":"M"},"action":"avoid","summary":"bad-avoid","bonus":0},{"rt":5184.5,"stimulus":"\n                    <p><b>Action: <em>avoid</em></b></p>\n                    <p>This is the bee that you just saw.</p>\n                    <img src=\"bees-with-color/bee-B1SF.svg\" width=\"200\">\n                    <p><span class=\"redText\">Bad choice,</span> the bee was friendly.<br>Your bonus pay is unchanged, and remains at $0.58.</p>\n            ","response":0,"trial_type":"html-button-response","trial_index":12,"time_elapsed":468963,"internal_node_id":"0.0-4.0-1.2","subject_id":"60f092724d04989ff200cd63","study_id":"60edd13110225f80f9f3709b","session_id":"6196c4a75c2a084d086803dd","condition":"full-information","relevant_dimensions":["pattern","legs"],"bee_group":{"antennae":"X","wings":"X","pattern":"S","legs":"M"},"bonus":0},{"rt":11578.199999988079,"stimulus":"bees-with-color/bee-A1DM.svg","response":0,"trial_type":"image-button-response","trial_index":13,"time_elapsed":480542,"internal_node_id":"0.0-4.0-0.3","subject_id":"60f092724d04989ff200cd63","study_id":"60edd13110225f80f9f3709b","session_id":"6196c4a75c2a084d086803dd","condition":"full-information","relevant_dimensions":["pattern","legs"],"bee_group":{"antennae":"X","wings":"X","pattern":"S","legs":"M"},"action":"harvest","summary":"good-harvest","bonus":0},{"rt":7710.300000011921,"stimulus":"\n                    <p><b>Action: <em>harvest</em></b></p>\n                    <p>This is the bee that you just saw.</p>\n                    <img src=\"bees-with-color/bee-A1DM.svg\" width=\"200\">\n                    <p><span class=\"greenText\"><b>Successful harvest!</b></span><br>Your pay has increased by $0.02. Your bonus pay is now $0.60.</p>\n            ","response":0,"trial_type":"html-button-response","trial_index":14,"time_elapsed":488255,"internal_node_id":"0.0-4.0-1.3","subject_id":"60f092724d04989ff200cd63","study_id":"60edd13110225f80f9f3709b","session_id":"6196c4a75c2a084d086803dd","condition":"full-information","relevant_dimensions":["pattern","legs"],"bee_group":{"antennae":"X","wings":"X","pattern":"S","legs":"M"},"bonus":0},{"rt":5693.899999976158,"stimulus":"bees-with-color/bee-B2DM.svg","response":0,"trial_type":"image-button-response","trial_index":15,"time_elapsed":493951,"internal_node_id":"0.0-4.0-0.4","subject_id":"60f092724d04989ff200cd63","study_id":"60edd13110225f80f9f3709b","session_id":"6196c4a75c2a084d086803dd","condition":"full-information","relevant_dimensions":["pattern","legs"],"bee_group":{"antennae":"X","wings":"X","pattern":"S","legs":"M"},"action":"harvest","summary":"good-harvest","bonus":0},{"rt":2919.099999964237,"stimulus":"\n                    <p><b>Action: <em>harvest</em></b></p>\n                    <p>This is the bee that you just saw.</p>\n                    <img src=\"bees-with-color/bee-B2DM.svg\" width=\"200\">\n                    <p><span class=\"greenText\"><b>Successful harvest!</b></span><br>Your pay has increased by $0.02. Your bonus pay is now $0.62.</p>\n            ","response":0,"trial_type":"html-button-response","trial_index":16,"time_elapsed":496872,"internal_node_id":"0.0-4.0-1.4","subject_id":"60f092724d04989ff200cd63","study_id":"60edd13110225f80f9f3709b","session_id":"6196c4a75c2a084d086803dd","condition":"full-information","relevant_dimensions":["pattern","legs"],"bee_group":{"antennae":"X","wings":"X","pattern":"S","legs":"M"},"bonus":0},{"rt":3443.300000011921,"stimulus":"bees-with-color/bee-B2SM.svg","response":0,"trial_type":"image-button-response","trial_index":17,"time_elapsed":500317,"internal_node_id":"0.0-4.0-0.5","subject_id":"60f092724d04989ff200cd63","study_id":"60edd13110225f80f9f3709b","session_id":"6196c4a75c2a084d086803dd","condition":"full-information","relevant_dimensions":["pattern","legs"],"bee_group":{"antennae":"X","wings":"X","pattern":"S","legs":"M"},"action":"harvest","summary":"bad-harvest","bonus":0},{"rt":4269,"stimulus":"\n                    <p><b>Action: <em>harvest</em></b></p>\n                    <p>This is the bee that you just saw.</p>\n                    <img src=\"bees-with-color/bee-B2SM.svg\" width=\"200\">\n                    <p><span class=\"redText\">Bad choice, the bee was angry.</span><br><b>You have been stung!</b><br>Your pay has been decreased by $0.10. Your bonus pay is now $0.52.</p>\n            ","response":0,"trial_type":"html-button-response","trial_index":18,"time_elapsed":504588,"internal_node_id":"0.0-4.0-1.5","subject_id":"60f092724d04989ff200cd63","study_id":"60edd13110225f80f9f3709b","session_id":"6196c4a75c2a084d086803dd","condition":"full-information","relevant_dimensions":["pattern","legs"],"bee_group":{"antennae":"X","wings":"X","pattern":"S","legs":"M"},"bonus":0},{"rt":9629.199999988079,"stimulus":"bees-with-color/bee-B1SM.svg","response":1,"trial_type":"image-button-response","trial_index":19,"time_elapsed":514219,"internal_node_id":"0.0-4.0-0.6","subject_id":"60f092724d04989ff200cd63","study_id":"60edd13110225f80f9f3709b","session_id":"6196c4a75c2a084d086803dd","condition":"full-information","relevant_dimensions":["pattern","legs"],"bee_group":{"antennae":"X","wings":"X","pattern":"S","legs":"M"},"action":"avoid","summary":"good-avoid","bonus":0},{"rt":2312,"stimulus":"\n                    <p><b>Action: <em>avoid</em></b></p>\n                    <p>This is the bee that you just saw.</p>\n                    <img src=\"bees-with-color/bee-B1SM.svg\" width=\"200\">\n                    <p><span class=\"greenText\">Good choice!</span>  This bee would have stung you.<br>Your bonus pay is unchanged, and remains at $0.52.</p>\n            ","response":0,"trial_type":"html-button-response","trial_index":20,"time_elapsed":516533,"internal_node_id":"0.0-4.0-1.6","subject_id":"60f092724d04989ff200cd63","study_id":"60edd13110225f80f9f3709b","session_id":"6196c4a75c2a084d086803dd","condition":"full-information","relevant_dimensions":["pattern","legs"],"bee_group":{"antennae":"X","wings":"X","pattern":"S","legs":"M"},"bonus":0},{"rt":2088.199999988079,"stimulus":"bees-with-color/bee-A2DM.svg","response":0,"trial_type":"image-button-response","trial_index":21,"time_elapsed":518623,"internal_node_id":"0.0-4.0-0.7","subject_id":"60f092724d04989ff200cd63","study_id":"60edd13110225f80f9f3709b","session_id":"6196c4a75c2a084d086803dd","condition":"full-information","relevant_dimensions":["pattern","legs"],"bee_group":{"antennae":"X","wings":"X","pattern":"S","legs":"M"},"action":"harvest","summary":"good-harvest","bonus":0},{"rt":648.1000000238419,"stimulus":"\n                    <p><b>Action: <em>harvest</em></b></p>\n                    <p>This is the bee that you just saw.</p>\n                    <img src=\"bees-with-color/bee-A2DM.svg\" width=\"200\">\n                    <p><span class=\"greenText\"><b>Successful harvest!</b></span><br>Your pay has increased by $0.02. Your bonus pay is now $0.54.</p>\n            ","response":0,"trial_type":"html-button-response","trial_index":22,"time_elapsed":519273,"internal_node_id":"0.0-4.0-1.7","subject_id":"60f092724d04989ff200cd63","study_id":"60edd13110225f80f9f3709b","session_id":"6196c4a75c2a084d086803dd","condition":"full-information","relevant_dimensions":["pattern","legs"],"bee_group":{"antennae":"X","wings":"X","pattern":"S","legs":"M"},"bonus":0},{"rt":415.2000000476837,"stimulus":"bees-with-color/bee-A1SM.svg","response":1,"trial_type":"image-button-response","trial_index":23,"time_elapsed":519690,"internal_node_id":"0.0-4.0-0.8","subject_id":"60f092724d04989ff200cd63","study_id":"60edd13110225f80f9f3709b","session_id":"6196c4a75c2a084d086803dd","condition":"full-information","relevant_dimensions":["pattern","legs"],"bee_group":{"antennae":"X","wings":"X","pattern":"S","legs":"M"},"action":"avoid","summary":"good-avoid","bonus":0},{"rt":2847.300000011921,"stimulus":"\n                    <p><b>Action: <em>avoid</em></b></p>\n                    <p>This is the bee that you just saw.</p>\n                    <img src=\"bees-with-color/bee-A1SM.svg\" width=\"200\">\n                    <p><span class=\"greenText\">Good choice!</span>  This bee would have stung you.<br>Your bonus pay is unchanged, and remains at $0.54.</p>\n            ","response":0,"trial_type":"html-button-response","trial_index":24,"time_elapsed":522539,"internal_node_id":"0.0-4.0-1.8","subject_id":"60f092724d04989ff200cd63","study_id":"60edd13110225f80f9f3709b","session_id":"6196c4a75c2a084d086803dd","condition":"full-information","relevant_dimensions":["pattern","legs"],"bee_group":{"antennae":"X","wings":"X","pattern":"S","legs":"M"},"bonus":0},{"rt":805.6999999880791,"stimulus":"bees-with-color/bee-B2SF.svg","response":0,"trial_type":"image-button-response","trial_index":25,"time_elapsed":523346,"internal_node_id":"0.0-4.0-0.9","subject_id":"60f092724d04989ff200cd63","study_id":"60edd13110225f80f9f3709b","session_id":"6196c4a75c2a084d086803dd","condition":"full-information","relevant_dimensions":["pattern","legs"],"bee_group":{"antennae":"X","wings":"X","pattern":"S","legs":"M"},"action":"harvest","summary":"good-harvest","bonus":0},{"rt":6663.199999988079,"stimulus":"\n                    <p><b>Action: <em>harvest</em></b></p>\n                    <p>This is the bee that you just saw.</p>\n                    <img src=\"bees-with-color/bee-B2SF.svg\" width=\"200\">\n                    <p><span class=\"greenText\"><b>Successful harvest!</b></span><br>Your pay has increased by $0.02. Your bonus pay is now $0.56.</p>\n            ","response":0,"trial_type":"html-button-response","trial_index":26,"time_elapsed":530012,"internal_node_id":"0.0-4.0-1.9","subject_id":"60f092724d04989ff200cd63","study_id":"60edd13110225f80f9f3709b","session_id":"6196c4a75c2a084d086803dd","condition":"full-information","relevant_dimensions":["pattern","legs"],"bee_group":{"antennae":"X","wings":"X","pattern":"S","legs":"M"},"bonus":0},{"rt":18052.19999998808,"stimulus":"bees-with-color/bee-B2DF.svg","response":0,"trial_type":"image-button-response","trial_index":27,"time_elapsed":548065,"internal_node_id":"0.0-4.0-0.10","subject_id":"60f092724d04989ff200cd63","study_id":"60edd13110225f80f9f3709b","session_id":"6196c4a75c2a084d086803dd","condition":"full-information","relevant_dimensions":["pattern","legs"],"bee_group":{"antennae":"X","wings":"X","pattern":"S","legs":"M"},"action":"harvest","summary":"good-harvest","bonus":0},{"rt":3020.699999988079,"stimulus":"\n                    <p><b>Action: <em>harvest</em></b></p>\n                    <p>This is the bee that you just saw.</p>\n                    <img src=\"bees-with-color/bee-B2DF.svg\" width=\"200\">\n                    <p><span class=\"greenText\"><b>Successful harvest!</b></span><br>Your pay has increased by $0.02. Your bonus pay is now $0.58.</p>\n            ","response":0,"trial_type":"html-button-response","trial_index":28,"time_elapsed":551087,"internal_node_id":"0.0-4.0-1.10","subject_id":"60f092724d04989ff200cd63","study_id":"60edd13110225f80f9f3709b","session_id":"6196c4a75c2a084d086803dd","condition":"full-information","relevant_dimensions":["pattern","legs"],"bee_group":{"antennae":"X","wings":"X","pattern":"S","legs":"M"},"bonus":0},{"rt":923.6000000238419,"stimulus":"bees-with-color/bee-B1DF.svg","response":1,"trial_type":"image-button-response","trial_index":29,"time_elapsed":552012,"internal_node_id":"0.0-4.0-0.11","subject_id":"60f092724d04989ff200cd63","study_id":"60edd13110225f80f9f3709b","session_id":"6196c4a75c2a084d086803dd","condition":"full-information","relevant_dimensions":["pattern","legs"],"bee_group":{"antennae":"X","wings":"X","pattern":"S","legs":"M"},"action":"avoid","summary":"bad-avoid","bonus":0},{"rt":829.3000000119209,"stimulus":"\n                    <p><b>Action: <em>avoid</em></b></p>\n                    <p>This is the bee that you just saw.</p>\n                    <img src=\"bees-with-color/bee-B1DF.svg\" width=\"200\">\n                    <p><span class=\"redText\">Bad choice,</span> the bee was friendly.<br>Your bonus pay is unchanged, and remains at $0.58.</p>\n            ","response":0,"trial_type":"html-button-response","trial_index":30,"time_elapsed":552843,"internal_node_id":"0.0-4.0-1.11","subject_id":"60f092724d04989ff200cd63","study_id":"60edd13110225f80f9f3709b","session_id":"6196c4a75c2a084d086803dd","condition":"full-information","relevant_dimensions":["pattern","legs"],"bee_group":{"antennae":"X","wings":"X","pattern":"S","legs":"M"},"bonus":0},{"rt":385.9000000357628,"stimulus":"bees-with-color/bee-A2SF.svg","response":0,"trial_type":"image-button-response","trial_index":31,"time_elapsed":553230,"internal_node_id":"0.0-4.0-0.12","subject_id":"60f092724d04989ff200cd63","study_id":"60edd13110225f80f9f3709b","session_id":"6196c4a75c2a084d086803dd","condition":"full-information","relevant_dimensions":["pattern","legs"],"bee_group":{"antennae":"X","wings":"X","pattern":"S","legs":"M"},"action":"harvest","summary":"good-harvest","bonus":0},{"rt":434.30000001192093,"stimulus":"\n                    <p><b>Action: <em>harvest</em></b></p>\n                    <p>This is the bee that you just saw.</p>\n                    <img src=\"bees-with-color/bee-A2SF.svg\" width=\"200\">\n                    <p><span class=\"greenText\"><b>Successful harvest!</b></span><br>Your pay has increased by $0.02. Your bonus pay is now $0.60.</p>\n            ","response":0,"trial_type":"html-button-response","trial_index":32,"time_elapsed":553666,"internal_node_id":"0.0-4.0-1.12","subject_id":"60f092724d04989ff200cd63","study_id":"60edd13110225f80f9f3709b","session_id":"6196c4a75c2a084d086803dd","condition":"full-information","relevant_dimensions":["pattern","legs"],"bee_group":{"antennae":"X","wings":"X","pattern":"S","legs":"M"},"bonus":0},{"rt":377,"stimulus":"bees-with-color/bee-B1DM.svg","response":1,"trial_type":"image-button-response","trial_index":33,"time_elapsed":554044,"internal_node_id":"0.0-4.0-0.13","subject_id":"60f092724d04989ff200cd63","study_id":"60edd13110225f80f9f3709b","session_id":"6196c4a75c2a084d086803dd","condition":"full-information","relevant_dimensions":["pattern","legs"],"bee_group":{"antennae":"X","wings":"X","pattern":"S","legs":"M"},"action":"avoid","summary":"bad-avoid","bonus":0},{"rt":467.30000001192093,"stimulus":"\n                    <p><b>Action: <em>avoid</em></b></p>\n                    <p>This is the bee that you just saw.</p>\n                    <img src=\"bees-with-color/bee-B1DM.svg\" width=\"200\">\n                    <p><span class=\"redText\">Bad choice,</span> the bee was friendly.<br>Your bonus pay is unchanged, and remains at $0.60.</p>\n            ","response":0,"trial_type":"html-button-response","trial_index":34,"time_elapsed":554513,"internal_node_id":"0.0-4.0-1.13","subject_id":"60f092724d04989ff200cd63","study_id":"60edd13110225f80f9f3709b","session_id":"6196c4a75c2a084d086803dd","condition":"full-information","relevant_dimensions":["pattern","legs"],"bee_group":{"antennae":"X","wings":"X","pattern":"S","legs":"M"},"bonus":0},{"rt":463,"stimulus":"bees-with-color/bee-A2SM.svg","response":0,"trial_type":"image-button-response","trial_index":35,"time_elapsed":554977,"internal_node_id":"0.0-4.0-0.14","subject_id":"60f092724d04989ff200cd63","study_id":"60edd13110225f80f9f3709b","session_id":"6196c4a75c2a084d086803dd","condition":"full-information","relevant_dimensions":["pattern","legs"],"bee_group":{"antennae":"X","wings":"X","pattern":"S","legs":"M"},"action":"harvest","summary":"bad-harvest","bonus":0},{"rt":554.3999999761581,"stimulus":"\n                    <p><b>Action: <em>harvest</em></b></p>\n                    <p>This is the bee that you just saw.</p>\n                    <img src=\"bees-with-color/bee-A2SM.svg\" width=\"200\">\n                    <p><span class=\"redText\">Bad choice, the bee was angry.</span><br><b>You have been stung!</b><br>Your pay has been decreased by $0.10. Your bonus pay is now $0.50.</p>\n            ","response":0,"trial_type":"html-button-response","trial_index":36,"time_elapsed":555533,"internal_node_id":"0.0-4.0-1.14","subject_id":"60f092724d04989ff200cd63","study_id":"60edd13110225f80f9f3709b","session_id":"6196c4a75c2a084d086803dd","condition":"full-information","relevant_dimensions":["pattern","legs"],"bee_group":{"antennae":"X","wings":"X","pattern":"S","legs":"M"},"bonus":0},{"rt":322.19999998807907,"stimulus":"bees-with-color/bee-A2DF.svg","response":1,"trial_type":"image-button-response","trial_index":37,"time_elapsed":555857,"internal_node_id":"0.0-4.0-0.15","subject_id":"60f092724d04989ff200cd63","study_id":"60edd13110225f80f9f3709b","session_id":"6196c4a75c2a084d086803dd","condition":"full-information","relevant_dimensions":["pattern","legs"],"bee_group":{"antennae":"X","wings":"X","pattern":"S","legs":"M"},"action":"avoid","summary":"bad-avoid","bonus":0},{"rt":535.1000000238419,"stimulus":"\n                    <p><b>Action: <em>avoid</em></b></p>\n                    <p>This is the bee that you just saw.</p>\n                    <img src=\"bees-with-color/bee-A2DF.svg\" width=\"200\">\n                    <p><span class=\"redText\">Bad choice,</span> the bee was friendly.<br>Your bonus pay is unchanged, and remains at $0.50.</p>\n            ","response":0,"trial_type":"html-button-response","trial_index":38,"time_elapsed":556393,"internal_node_id":"0.0-4.0-1.15","subject_id":"60f092724d04989ff200cd63","study_id":"60edd13110225f80f9f3709b","session_id":"6196c4a75c2a084d086803dd","condition":"full-information","relevant_dimensions":["pattern","legs"],"bee_group":{"antennae":"X","wings":"X","pattern":"S","legs":"M"},"bonus":0},{"rt":403.9000000357628,"stimulus":"bees-with-color/bee-B2DF.svg","response":0,"trial_type":"image-button-response","trial_index":39,"time_elapsed":556799,"internal_node_id":"0.0-4.0-0.16","subject_id":"60f092724d04989ff200cd63","study_id":"60edd13110225f80f9f3709b","session_id":"6196c4a75c2a084d086803dd","condition":"full-information","relevant_dimensions":["pattern","legs"],"bee_group":{"antennae":"X","wings":"X","pattern":"S","legs":"M"},"action":"harvest","summary":"good-harvest","bonus":0},{"rt":578,"stimulus":"\n                    <p><b>Action: <em>harvest</em></b></p>\n                    <p>This is the bee that you just saw.</p>\n                    <img src=\"bees-with-color/bee-B2DF.svg\" width=\"200\">\n                    <p><span class=\"greenText\"><b>Successful harvest!</b></span><br>Your pay has increased by $0.02. Your bonus pay is now $0.52.</p>\n            ","response":0,"trial_type":"html-button-response","trial_index":40,"time_elapsed":557378,"internal_node_id":"0.0-4.0-1.16","subject_id":"60f092724d04989ff200cd63","study_id":"60edd13110225f80f9f3709b","session_id":"6196c4a75c2a084d086803dd","condition":"full-information","relevant_dimensions":["pattern","legs"],"bee_group":{"antennae":"X","wings":"X","pattern":"S","legs":"M"},"bonus":0},{"rt":327,"stimulus":"bees-with-color/bee-B2SF.svg","response":0,"trial_type":"image-button-response","trial_index":41,"time_elapsed":557707,"internal_node_id":"0.0-4.0-0.17","subject_id":"60f092724d04989ff200cd63","study_id":"60edd13110225f80f9f3709b","session_id":"6196c4a75c2a084d086803dd","condition":"full-information","relevant_dimensions":["pattern","legs"],"bee_group":{"antennae":"X","wings":"X","pattern":"S","legs":"M"},"action":"harvest","summary":"good-harvest","bonus":0},{"rt":705.3000000119209,"stimulus":"\n                    <p><b>Action: <em>harvest</em></b></p>\n                    <p>This is the bee that you just saw.</p>\n                    <img src=\"bees-with-color/bee-B2SF.svg\" width=\"200\">\n                    <p><span class=\"greenText\"><b>Successful harvest!</b></span><br>Your pay has increased by $0.02. Your bonus pay is now $0.54.</p>\n            ","response":0,"trial_type":"html-button-response","trial_index":42,"time_elapsed":558413,"internal_node_id":"0.0-4.0-1.17","subject_id":"60f092724d04989ff200cd63","study_id":"60edd13110225f80f9f3709b","session_id":"6196c4a75c2a084d086803dd","condition":"full-information","relevant_dimensions":["pattern","legs"],"bee_group":{"antennae":"X","wings":"X","pattern":"S","legs":"M"},"bonus":0},{"rt":6918.699999988079,"stimulus":"bees-with-color/bee-A1SF.svg","response":0,"trial_type":"image-button-response","trial_index":43,"time_elapsed":565333,"internal_node_id":"0.0-4.0-0.18","subject_id":"60f092724d04989ff200cd63","study_id":"60edd13110225f80f9f3709b","session_id":"6196c4a75c2a084d086803dd","condition":"full-information","relevant_dimensions":["pattern","legs"],"bee_group":{"antennae":"X","wings":"X","pattern":"S","legs":"M"},"action":"harvest","summary":"good-harvest","bonus":0},{"rt":851.3999999761581,"stimulus":"\n                    <p><b>Action: <em>harvest</em></b></p>\n                    <p>This is the bee that you just saw.</p>\n                    <img src=\"bees-with-color/bee-A1SF.svg\" width=\"200\">\n                    <p><span class=\"greenText\"><b>Successful harvest!</b></span><br>Your pay has increased by $0.02. Your bonus pay is now $0.56.</p>\n            ","response":0,"trial_type":"html-button-response","trial_index":44,"time_elapsed":566187,"internal_node_id":"0.0-4.0-1.18","subject_id":"60f092724d04989ff200cd63","study_id":"60edd13110225f80f9f3709b","session_id":"6196c4a75c2a084d086803dd","condition":"full-information","relevant_dimensions":["pattern","legs"],"bee_group":{"antennae":"X","wings":"X","pattern":"S","legs":"M"},"bonus":0},{"rt":5852.100000023842,"stimulus":"bees-with-color/bee-A1DF.svg","response":0,"trial_type":"image-button-response","trial_index":45,"time_elapsed":572041,"internal_node_id":"0.0-4.0-0.19","subject_id":"60f092724d04989ff200cd63","study_id":"60edd13110225f80f9f3709b","session_id":"6196c4a75c2a084d086803dd","condition":"full-information","relevant_dimensions":["pattern","legs"],"bee_group":{"antennae":"X","wings":"X","pattern":"S","legs":"M"},"action":"harvest","summary":"good-harvest","bonus":0},{"rt":3596.100000023842,"stimulus":"\n                    <p><b>Action: <em>harvest</em></b></p>\n                    <p>This is the bee that you just saw.</p>\n                    <img src=\"bees-with-color/bee-A1DF.svg\" width=\"200\">\n                    <p><span class=\"greenText\"><b>Successful harvest!</b></span><br>Your pay has increased by $0.02. Your bonus pay is now $0.58.</p>\n            ","response":0,"trial_type":"html-button-response","trial_index":46,"time_elapsed":575639,"internal_node_id":"0.0-4.0-1.19","subject_id":"60f092724d04989ff200cd63","study_id":"60edd13110225f80f9f3709b","session_id":"6196c4a75c2a084d086803dd","condition":"full-information","relevant_dimensions":["pattern","legs"],"bee_group":{"antennae":"X","wings":"X","pattern":"S","legs":"M"},"bonus":0},{"rt":7107.399999976158,"stimulus":"bees-with-color/bee-B2SM.svg","response":1,"trial_type":"image-button-response","trial_index":47,"time_elapsed":582748,"internal_node_id":"0.0-4.0-0.20","subject_id":"60f092724d04989ff200cd63","study_id":"60edd13110225f80f9f3709b","session_id":"6196c4a75c2a084d086803dd","condition":"full-information","relevant_dimensions":["pattern","legs"],"bee_group":{"antennae":"X","wings":"X","pattern":"S","legs":"M"},"action":"avoid","summary":"good-avoid","bonus":0},{"rt":2475.199999988079,"stimulus":"\n                    <p><b>Action: <em>avoid</em></b></p>\n                    <p>This is the bee that you just saw.</p>\n                    <img src=\"bees-with-color/bee-B2SM.svg\" width=\"200\">\n                    <p><span class=\"greenText\">Good choice!</span>  This bee would have stung you.<br>Your bonus pay is unchanged, and remains at $0.58.</p>\n            ","response":0,"trial_type":"html-button-response","trial_index":48,"time_elapsed":585225,"internal_node_id":"0.0-4.0-1.20","subject_id":"60f092724d04989ff200cd63","study_id":"60edd13110225f80f9f3709b","session_id":"6196c4a75c2a084d086803dd","condition":"full-information","relevant_dimensions":["pattern","legs"],"bee_group":{"antennae":"X","wings":"X","pattern":"S","legs":"M"},"bonus":0},{"rt":7926.199999988079,"stimulus":"bees-with-color/bee-A1SM.svg","response":0,"trial_type":"image-button-response","trial_index":49,"time_elapsed":593153,"internal_node_id":"0.0-4.0-0.21","subject_id":"60f092724d04989ff200cd63","study_id":"60edd13110225f80f9f3709b","session_id":"6196c4a75c2a084d086803dd","condition":"full-information","relevant_dimensions":["pattern","legs"],"bee_group":{"antennae":"X","wings":"X","pattern":"S","legs":"M"},"action":"harvest","summary":"bad-harvest","bonus":0},{"rt":14555.100000023842,"stimulus":"\n                    <p><b>Action: <em>harvest</em></b></p>\n                    <p>This is the bee that you just saw.</p>\n                    <img src=\"bees-with-color/bee-A1SM.svg\" width=\"200\">\n                    <p><span class=\"redText\">Bad choice, the bee was angry.</span><br><b>You have been stung!</b><br>Your pay has been decreased by $0.10. Your bonus pay is now $0.48.</p>\n            ","response":0,"trial_type":"html-button-response","trial_index":50,"time_elapsed":607710,"internal_node_id":"0.0-4.0-1.21","subject_id":"60f092724d04989ff200cd63","study_id":"60edd13110225f80f9f3709b","session_id":"6196c4a75c2a084d086803dd","condition":"full-information","relevant_dimensions":["pattern","legs"],"bee_group":{"antennae":"X","wings":"X","pattern":"S","legs":"M"},"bonus":0},{"rt":9318.799999952316,"stimulus":"bees-with-color/bee-A2SF.svg","response":0,"trial_type":"image-button-response","trial_index":51,"time_elapsed":617032,"internal_node_id":"0.0-4.0-0.22","subject_id":"60f092724d04989ff200cd63","study_id":"60edd13110225f80f9f3709b","session_id":"6196c4a75c2a084d086803dd","condition":"full-information","relevant_dimensions":["pattern","legs"],"bee_group":{"antennae":"X","wings":"X","pattern":"S","legs":"M"},"action":"harvest","summary":"good-harvest","bonus":0},{"rt":4817.599999964237,"stimulus":"\n                    <p><b>Action: <em>harvest</em></b></p>\n                    <p>This is the bee that you just saw.</p>\n                    <img src=\"bees-with-color/bee-A2SF.svg\" width=\"200\">\n                    <p><span class=\"greenText\"><b>Successful harvest!</b></span><br>Your pay has increased by $0.02. Your bonus pay is now $0.50.</p>\n            ","response":0,"trial_type":"html-button-response","trial_index":52,"time_elapsed":621852,"internal_node_id":"0.0-4.0-1.22","subject_id":"60f092724d04989ff200cd63","study_id":"60edd13110225f80f9f3709b","session_id":"6196c4a75c2a084d086803dd","condition":"full-information","relevant_dimensions":["pattern","legs"],"bee_group":{"antennae":"X","wings":"X","pattern":"S","legs":"M"},"bonus":0},{"rt":7845.199999988079,"stimulus":"bees-with-color/bee-B2DM.svg","response":1,"trial_type":"image-button-response","trial_index":53,"time_elapsed":629699,"internal_node_id":"0.0-4.0-0.23","subject_id":"60f092724d04989ff200cd63","study_id":"60edd13110225f80f9f3709b","session_id":"6196c4a75c2a084d086803dd","condition":"full-information","relevant_dimensions":["pattern","legs"],"bee_group":{"antennae":"X","wings":"X","pattern":"S","legs":"M"},"action":"avoid","summary":"bad-avoid","bonus":0},{"rt":822.3999999761581,"stimulus":"\n                    <p><b>Action: <em>avoid</em></b></p>\n                    <p>This is the bee that you just saw.</p>\n                    <img src=\"bees-with-color/bee-B2DM.svg\" width=\"200\">\n                    <p><span class=\"redText\">Bad choice,</span> the bee was friendly.<br>Your bonus pay is unchanged, and remains at $0.50.</p>\n            ","response":0,"trial_type":"html-button-response","trial_index":54,"time_elapsed":630523,"internal_node_id":"0.0-4.0-1.23","subject_id":"60f092724d04989ff200cd63","study_id":"60edd13110225f80f9f3709b","session_id":"6196c4a75c2a084d086803dd","condition":"full-information","relevant_dimensions":["pattern","legs"],"bee_group":{"antennae":"X","wings":"X","pattern":"S","legs":"M"},"bonus":0},{"rt":447.0999999642372,"stimulus":"bees-with-color/bee-B1SF.svg","response":0,"trial_type":"image-button-response","trial_index":55,"time_elapsed":630972,"internal_node_id":"0.0-4.0-0.24","subject_id":"60f092724d04989ff200cd63","study_id":"60edd13110225f80f9f3709b","session_id":"6196c4a75c2a084d086803dd","condition":"full-information","relevant_dimensions":["pattern","legs"],"bee_group":{"antennae":"X","wings":"X","pattern":"S","legs":"M"},"action":"harvest","summary":"good-harvest","bonus":0},{"rt":2122.399999976158,"stimulus":"\n                    <p><b>Action: <em>harvest</em></b></p>\n                    <p>This is the bee that you just saw.</p>\n                    <img src=\"bees-with-color/bee-B1SF.svg\" width=\"200\">\n                    <p><span class=\"greenText\"><b>Successful harvest!</b></span><br>Your pay has increased by $0.02. Your bonus pay is now $0.52.</p>\n            ","response":0,"trial_type":"html-button-response","trial_index":56,"time_elapsed":633096,"internal_node_id":"0.0-4.0-1.24","subject_id":"60f092724d04989ff200cd63","study_id":"60edd13110225f80f9f3709b","session_id":"6196c4a75c2a084d086803dd","condition":"full-information","relevant_dimensions":["pattern","legs"],"bee_group":{"antennae":"X","wings":"X","pattern":"S","legs":"M"},"bonus":0},{"rt":1003.9000000357628,"stimulus":"bees-with-color/bee-A2DF.svg","response":1,"trial_type":"image-button-response","trial_index":57,"time_elapsed":634101,"internal_node_id":"0.0-4.0-0.25","subject_id":"60f092724d04989ff200cd63","study_id":"60edd13110225f80f9f3709b","session_id":"6196c4a75c2a084d086803dd","condition":"full-information","relevant_dimensions":["pattern","legs"],"bee_group":{"antennae":"X","wings":"X","pattern":"S","legs":"M"},"action":"avoid","summary":"bad-avoid","bonus":0},{"rt":3535.2999999523163,"stimulus":"\n                    <p><b>Action: <em>avoid</em></b></p>\n                    <p>This is the bee that you just saw.</p>\n                    <img src=\"bees-with-color/bee-A2DF.svg\" width=\"200\">\n                    <p><span class=\"redText\">Bad choice,</span> the bee was friendly.<br>Your bonus pay is unchanged, and remains at $0.52.</p>\n            ","response":0,"trial_type":"html-button-response","trial_index":58,"time_elapsed":637639,"internal_node_id":"0.0-4.0-1.25","subject_id":"60f092724d04989ff200cd63","study_id":"60edd13110225f80f9f3709b","session_id":"6196c4a75c2a084d086803dd","condition":"full-information","relevant_dimensions":["pattern","legs"],"bee_group":{"antennae":"X","wings":"X","pattern":"S","legs":"M"},"bonus":0},{"rt":1177.5,"stimulus":"bees-with-color/bee-A1DM.svg","response":0,"trial_type":"image-button-response","trial_index":59,"time_elapsed":638818,"internal_node_id":"0.0-4.0-0.26","subject_id":"60f092724d04989ff200cd63","study_id":"60edd13110225f80f9f3709b","session_id":"6196c4a75c2a084d086803dd","condition":"full-information","relevant_dimensions":["pattern","legs"],"bee_group":{"antennae":"X","wings":"X","pattern":"S","legs":"M"},"action":"harvest","summary":"good-harvest","bonus":0},{"rt":1168.5,"stimulus":"\n                    <p><b>Action: <em>harvest</em></b></p>\n                    <p>This is the bee that you just saw.</p>\n                    <img src=\"bees-with-color/bee-A1DM.svg\" width=\"200\">\n                    <p><span class=\"greenText\"><b>Successful harvest!</b></span><br>Your pay has increased by $0.02. Your bonus pay is now $0.54.</p>\n            ","response":0,"trial_type":"html-button-response","trial_index":60,"time_elapsed":639989,"internal_node_id":"0.0-4.0-1.26","subject_id":"60f092724d04989ff200cd63","study_id":"60edd13110225f80f9f3709b","session_id":"6196c4a75c2a084d086803dd","condition":"full-information","relevant_dimensions":["pattern","legs"],"bee_group":{"antennae":"X","wings":"X","pattern":"S","legs":"M"},"bonus":0},{"rt":693.2999999523163,"stimulus":"bees-with-color/bee-B1DF.svg","response":1,"trial_type":"image-button-response","trial_index":61,"time_elapsed":640684,"internal_node_id":"0.0-4.0-0.27","subject_id":"60f092724d04989ff200cd63","study_id":"60edd13110225f80f9f3709b","session_id":"6196c4a75c2a084d086803dd","condition":"full-information","relevant_dimensions":["pattern","legs"],"bee_group":{"antennae":"X","wings":"X","pattern":"S","legs":"M"},"action":"avoid","summary":"bad-avoid","bonus":0},{"rt":835.0999999642372,"stimulus":"\n                    <p><b>Action: <em>avoid</em></b></p>\n                    <p>This is the bee that you just saw.</p>\n                    <img src=\"bees-with-color/bee-B1DF.svg\" width=\"200\">\n                    <p><span class=\"redText\">Bad choice,</span> the bee was friendly.<br>Your bonus pay is unchanged, and remains at $0.54.</p>\n            ","response":0,"trial_type":"html-button-response","trial_index":62,"time_elapsed":641521,"internal_node_id":"0.0-4.0-1.27","subject_id":"60f092724d04989ff200cd63","study_id":"60edd13110225f80f9f3709b","session_id":"6196c4a75c2a084d086803dd","condition":"full-information","relevant_dimensions":["pattern","legs"],"bee_group":{"antennae":"X","wings":"X","pattern":"S","legs":"M"},"bonus":0},{"rt":379.89999997615814,"stimulus":"bees-with-color/bee-B1DM.svg","response":0,"trial_type":"image-button-response","trial_index":63,"time_elapsed":641902,"internal_node_id":"0.0-4.0-0.28","subject_id":"60f092724d04989ff200cd63","study_id":"60edd13110225f80f9f3709b","session_id":"6196c4a75c2a084d086803dd","condition":"full-information","relevant_dimensions":["pattern","legs"],"bee_group":{"antennae":"X","wings":"X","pattern":"S","legs":"M"},"action":"harvest","summary":"good-harvest","bonus":0},{"rt":642.1999999880791,"stimulus":"\n                    <p><b>Action: <em>harvest</em></b></p>\n                    <p>This is the bee that you just saw.</p>\n                    <img src=\"bees-with-color/bee-B1DM.svg\" width=\"200\">\n                    <p><span class=\"greenText\"><b>Successful harvest!</b></span><br>Your pay has increased by $0.02. Your bonus pay is now $0.56.</p>\n            ","response":0,"trial_type":"html-button-response","trial_index":64,"time_elapsed":642546,"internal_node_id":"0.0-4.0-1.28","subject_id":"60f092724d04989ff200cd63","study_id":"60edd13110225f80f9f3709b","session_id":"6196c4a75c2a084d086803dd","condition":"full-information","relevant_dimensions":["pattern","legs"],"bee_group":{"antennae":"X","wings":"X","pattern":"S","legs":"M"},"bonus":0},{"rt":292.5999999642372,"stimulus":"bees-with-color/bee-B1SM.svg","response":0,"trial_type":"image-button-response","trial_index":65,"time_elapsed":642840,"internal_node_id":"0.0-4.0-0.29","subject_id":"60f092724d04989ff200cd63","study_id":"60edd13110225f80f9f3709b","session_id":"6196c4a75c2a084d086803dd","condition":"full-information","relevant_dimensions":["pattern","legs"],"bee_group":{"antennae":"X","wings":"X","pattern":"S","legs":"M"},"action":"harvest","summary":"bad-harvest","bonus":0},{"rt":476.19999998807907,"stimulus":"\n                    <p><b>Action: <em>harvest</em></b></p>\n                    <p>This is the bee that you just saw.</p>\n                    <img src=\"bees-with-color/bee-B1SM.svg\" width=\"200\">\n                    <p><span class=\"redText\">Bad choice, the bee was angry.</span><br><b>You have been stung!</b><br>Your pay has been decreased by $0.10. Your bonus pay is now $0.46.</p>\n            ","response":0,"trial_type":"html-button-response","trial_index":66,"time_elapsed":643318,"internal_node_id":"0.0-4.0-1.29","subject_id":"60f092724d04989ff200cd63","study_id":"60edd13110225f80f9f3709b","session_id":"6196c4a75c2a084d086803dd","condition":"full-information","relevant_dimensions":["pattern","legs"],"bee_group":{"antennae":"X","wings":"X","pattern":"S","legs":"M"},"bonus":0},{"rt":563.8000000119209,"stimulus":"bees-with-color/bee-A2DM.svg","response":1,"trial_type":"image-button-response","trial_index":67,"time_elapsed":643883,"internal_node_id":"0.0-4.0-0.30","subject_id":"60f092724d04989ff200cd63","study_id":"60edd13110225f80f9f3709b","session_id":"6196c4a75c2a084d086803dd","condition":"full-information","relevant_dimensions":["pattern","legs"],"bee_group":{"antennae":"X","wings":"X","pattern":"S","legs":"M"},"action":"avoid","summary":"bad-avoid","bonus":0},{"rt":2029.0999999642372,"stimulus":"\n                    <p><b>Action: <em>avoid</em></b></p>\n                    <p>This is the bee that you just saw.</p>\n                    <img src=\"bees-with-color/bee-A2DM.svg\" width=\"200\">\n                    <p><span class=\"redText\">Bad choice,</span> the bee was friendly.<br>Your bonus pay is unchanged, and remains at $0.46.</p>\n            ","response":0,"trial_type":"html-button-response","trial_index":68,"time_elapsed":645914,"internal_node_id":"0.0-4.0-1.30","subject_id":"60f092724d04989ff200cd63","study_id":"60edd13110225f80f9f3709b","session_id":"6196c4a75c2a084d086803dd","condition":"full-information","relevant_dimensions":["pattern","legs"],"bee_group":{"antennae":"X","wings":"X","pattern":"S","legs":"M"},"bonus":0},{"rt":1668.699999988079,"stimulus":"bees-with-color/bee-A2SM.svg","response":0,"trial_type":"image-button-response","trial_index":69,"time_elapsed":647584,"internal_node_id":"0.0-4.0-0.31","subject_id":"60f092724d04989ff200cd63","study_id":"60edd13110225f80f9f3709b","session_id":"6196c4a75c2a084d086803dd","condition":"full-information","relevant_dimensions":["pattern","legs"],"bee_group":{"antennae":"X","wings":"X","pattern":"S","legs":"M"},"action":"harvest","summary":"bad-harvest","bonus":0},{"rt":1362.5,"stimulus":"\n                    <p><b>Action: <em>harvest</em></b></p>\n                    <p>This is the bee that you just saw.</p>\n                    <img src=\"bees-with-color/bee-A2SM.svg\" width=\"200\">\n                    <p><span class=\"redText\">Bad choice, the bee was angry.</span><br><b>You have been stung!</b><br>Your pay has been decreased by $0.10. Your bonus pay is now $0.36.</p>\n            ","response":0,"trial_type":"html-button-response","trial_index":70,"time_elapsed":648949,"internal_node_id":"0.0-4.0-1.31","subject_id":"60f092724d04989ff200cd63","study_id":"60edd13110225f80f9f3709b","session_id":"6196c4a75c2a084d086803dd","condition":"full-information","relevant_dimensions":["pattern","legs"],"bee_group":{"antennae":"X","wings":"X","pattern":"S","legs":"M"},"bonus":0},{"rt":9101.799999952316,"stimulus":"bees-with-color/bee-B1SM.svg","response":1,"trial_type":"image-button-response","trial_index":71,"time_elapsed":658052,"internal_node_id":"0.0-4.0-0.32","subject_id":"60f092724d04989ff200cd63","study_id":"60edd13110225f80f9f3709b","session_id":"6196c4a75c2a084d086803dd","condition":"full-information","relevant_dimensions":["pattern","legs"],"bee_group":{"antennae":"X","wings":"X","pattern":"S","legs":"M"},"action":"avoid","summary":"good-avoid","bonus":0},{"rt":899.1999999880791,"stimulus":"\n                    <p><b>Action: <em>avoid</em></b></p>\n                    <p>This is the bee that you just saw.</p>\n                    <img src=\"bees-with-color/bee-B1SM.svg\" width=\"200\">\n                    <p><span class=\"greenText\">Good choice!</span>  This bee would have stung you.<br>Your bonus pay is unchanged, and remains at $0.36.</p>\n            ","response":0,"trial_type":"html-button-response","trial_index":72,"time_elapsed":658953,"internal_node_id":"0.0-4.0-1.32","subject_id":"60f092724d04989ff200cd63","study_id":"60edd13110225f80f9f3709b","session_id":"6196c4a75c2a084d086803dd","condition":"full-information","relevant_dimensions":["pattern","legs"],"bee_group":{"antennae":"X","wings":"X","pattern":"S","legs":"M"},"bonus":0},{"rt":368.19999998807907,"stimulus":"bees-with-color/bee-A2SF.svg","response":0,"trial_type":"image-button-response","trial_index":73,"time_elapsed":659323,"internal_node_id":"0.0-4.0-0.33","subject_id":"60f092724d04989ff200cd63","study_id":"60edd13110225f80f9f3709b","session_id":"6196c4a75c2a084d086803dd","condition":"full-information","relevant_dimensions":["pattern","legs"],"bee_group":{"antennae":"X","wings":"X","pattern":"S","legs":"M"},"action":"harvest","summary":"good-harvest","bonus":0},{"rt":617.1999999880791,"stimulus":"\n                    <p><b>Action: <em>harvest</em></b></p>\n                    <p>This is the bee that you just saw.</p>\n                    <img src=\"bees-with-color/bee-A2SF.svg\" width=\"200\">\n                    <p><span class=\"greenText\"><b>Successful harvest!</b></span><br>Your pay has increased by $0.02. Your bonus pay is now $0.38.</p>\n            ","response":0,"trial_type":"html-button-response","trial_index":74,"time_elapsed":659942,"internal_node_id":"0.0-4.0-1.33","subject_id":"60f092724d04989ff200cd63","study_id":"60edd13110225f80f9f3709b","session_id":"6196c4a75c2a084d086803dd","condition":"full-information","relevant_dimensions":["pattern","legs"],"bee_group":{"antennae":"X","wings":"X","pattern":"S","legs":"M"},"bonus":0},{"rt":962.6999999880791,"stimulus":"bees-with-color/bee-B1DF.svg","response":1,"trial_type":"image-button-response","trial_index":75,"time_elapsed":660906,"internal_node_id":"0.0-4.0-0.34","subject_id":"60f092724d04989ff200cd63","study_id":"60edd13110225f80f9f3709b","session_id":"6196c4a75c2a084d086803dd","condition":"full-information","relevant_dimensions":["pattern","legs"],"bee_group":{"antennae":"X","wings":"X","pattern":"S","legs":"M"},"action":"avoid","summary":"bad-avoid","bonus":0},{"rt":595.5,"stimulus":"\n                    <p><b>Action: <em>avoid</em></b></p>\n                    <p>This is the bee that you just saw.</p>\n                    <img src=\"bees-with-color/bee-B1DF.svg\" width=\"200\">\n                    <p><span class=\"redText\">Bad choice,</span> the bee was friendly.<br>Your bonus pay is unchanged, and remains at $0.38.</p>\n            ","response":0,"trial_type":"html-button-response","trial_index":76,"time_elapsed":661503,"internal_node_id":"0.0-4.0-1.34","subject_id":"60f092724d04989ff200cd63","study_id":"60edd13110225f80f9f3709b","session_id":"6196c4a75c2a084d086803dd","condition":"full-information","relevant_dimensions":["pattern","legs"],"bee_group":{"antennae":"X","wings":"X","pattern":"S","legs":"M"},"bonus":0},{"rt":381.80000001192093,"stimulus":"bees-with-color/bee-B2SM.svg","response":0,"trial_type":"image-button-response","trial_index":77,"time_elapsed":661886,"internal_node_id":"0.0-4.0-0.35","subject_id":"60f092724d04989ff200cd63","study_id":"60edd13110225f80f9f3709b","session_id":"6196c4a75c2a084d086803dd","condition":"full-information","relevant_dimensions":["pattern","legs"],"bee_group":{"antennae":"X","wings":"X","pattern":"S","legs":"M"},"action":"harvest","summary":"bad-harvest","bonus":0},{"rt":642.3000000119209,"stimulus":"\n                    <p><b>Action: <em>harvest</em></b></p>\n                    <p>This is the bee that you just saw.</p>\n                    <img src=\"bees-with-color/bee-B2SM.svg\" width=\"200\">\n                    <p><span class=\"redText\">Bad choice, the bee was angry.</span><br><b>You have been stung!</b><br>Your pay has been decreased by $0.10. Your bonus pay is now $0.28.</p>\n            ","response":0,"trial_type":"html-button-response","trial_index":78,"time_elapsed":662530,"internal_node_id":"0.0-4.0-1.35","subject_id":"60f092724d04989ff200cd63","study_id":"60edd13110225f80f9f3709b","session_id":"6196c4a75c2a084d086803dd","condition":"full-information","relevant_dimensions":["pattern","legs"],"bee_group":{"antennae":"X","wings":"X","pattern":"S","legs":"M"},"bonus":0},{"rt":423.5999999642372,"stimulus":"bees-with-color/bee-B1SF.svg","response":0,"trial_type":"image-button-response","trial_index":79,"time_elapsed":662955,"internal_node_id":"0.0-4.0-0.36","subject_id":"60f092724d04989ff200cd63","study_id":"60edd13110225f80f9f3709b","session_id":"6196c4a75c2a084d086803dd","condition":"full-information","relevant_dimensions":["pattern","legs"],"bee_group":{"antennae":"X","wings":"X","pattern":"S","legs":"M"},"action":"harvest","summary":"good-harvest","bonus":0},{"rt":530.1999999880791,"stimulus":"\n                    <p><b>Action: <em>harvest</em></b></p>\n                    <p>This is the bee that you just saw.</p>\n                    <img src=\"bees-with-color/bee-B1SF.svg\" width=\"200\">\n                    <p><span class=\"greenText\"><b>Successful harvest!</b></span><br>Your pay has increased by $0.02. Your bonus pay is now $0.30.</p>\n            ","response":0,"trial_type":"html-button-response","trial_index":80,"time_elapsed":663487,"internal_node_id":"0.0-4.0-1.36","subject_id":"60f092724d04989ff200cd63","study_id":"60edd13110225f80f9f3709b","session_id":"6196c4a75c2a084d086803dd","condition":"full-information","relevant_dimensions":["pattern","legs"],"bee_group":{"antennae":"X","wings":"X","pattern":"S","legs":"M"},"bonus":0},{"rt":284.80000001192093,"stimulus":"bees-with-color/bee-A2DF.svg","response":0,"trial_type":"image-button-response","trial_index":81,"time_elapsed":663773,"internal_node_id":"0.0-4.0-0.37","subject_id":"60f092724d04989ff200cd63","study_id":"60edd13110225f80f9f3709b","session_id":"6196c4a75c2a084d086803dd","condition":"full-information","relevant_dimensions":["pattern","legs"],"bee_group":{"antennae":"X","wings":"X","pattern":"S","legs":"M"},"action":"harvest","summary":"good-harvest","bonus":0},{"rt":399.30000001192093,"stimulus":"\n                    <p><b>Action: <em>harvest</em></b></p>\n                    <p>This is the bee that you just saw.</p>\n                    <img src=\"bees-with-color/bee-A2DF.svg\" width=\"200\">\n                    <p><span class=\"greenText\"><b>Successful harvest!</b></span><br>Your pay has increased by $0.02. Your bonus pay is now $0.32.</p>\n            ","response":0,"trial_type":"html-button-response","trial_index":82,"time_elapsed":664174,"internal_node_id":"0.0-4.0-1.37","subject_id":"60f092724d04989ff200cd63","study_id":"60edd13110225f80f9f3709b","session_id":"6196c4a75c2a084d086803dd","condition":"full-information","relevant_dimensions":["pattern","legs"],"bee_group":{"antennae":"X","wings":"X","pattern":"S","legs":"M"},"bonus":0},{"rt":1275,"stimulus":"bees-with-color/bee-B2DM.svg","response":0,"trial_type":"image-button-response","trial_index":83,"time_elapsed":665450,"internal_node_id":"0.0-4.0-0.38","subject_id":"60f092724d04989ff200cd63","study_id":"60edd13110225f80f9f3709b","session_id":"6196c4a75c2a084d086803dd","condition":"full-information","relevant_dimensions":["pattern","legs"],"bee_group":{"antennae":"X","wings":"X","pattern":"S","legs":"M"},"action":"harvest","summary":"good-harvest","bonus":0},{"rt":2603.300000011921,"stimulus":"\n                    <p><b>Action: <em>harvest</em></b></p>\n                    <p>This is the bee that you just saw.</p>\n                    <img src=\"bees-with-color/bee-B2DM.svg\" width=\"200\">\n                    <p><span class=\"greenText\"><b>Successful harvest!</b></span><br>Your pay has increased by $0.02. Your bonus pay is now $0.34.</p>\n            ","response":0,"trial_type":"html-button-response","trial_index":84,"time_elapsed":668055,"internal_node_id":"0.0-4.0-1.38","subject_id":"60f092724d04989ff200cd63","study_id":"60edd13110225f80f9f3709b","session_id":"6196c4a75c2a084d086803dd","condition":"full-information","relevant_dimensions":["pattern","legs"],"bee_group":{"antennae":"X","wings":"X","pattern":"S","legs":"M"},"bonus":0},{"rt":11963.400000035763,"stimulus":"bees-with-color/bee-B2SF.svg","response":0,"trial_type":"image-button-response","trial_index":85,"time_elapsed":680019,"internal_node_id":"0.0-4.0-0.39","subject_id":"60f092724d04989ff200cd63","study_id":"60edd13110225f80f9f3709b","session_id":"6196c4a75c2a084d086803dd","condition":"full-information","relevant_dimensions":["pattern","legs"],"bee_group":{"antennae":"X","wings":"X","pattern":"S","legs":"M"},"action":"harvest","summary":"good-harvest","bonus":0},{"rt":945.5,"stimulus":"\n                    <p><b>Action: <em>harvest</em></b></p>\n                    <p>This is the bee that you just saw.</p>\n                    <img src=\"bees-with-color/bee-B2SF.svg\" width=\"200\">\n                    <p><span class=\"greenText\"><b>Successful harvest!</b></span><br>Your pay has increased by $0.02. Your bonus pay is now $0.36.</p>\n            ","response":0,"trial_type":"html-button-response","trial_index":86,"time_elapsed":680966,"internal_node_id":"0.0-4.0-1.39","subject_id":"60f092724d04989ff200cd63","study_id":"60edd13110225f80f9f3709b","session_id":"6196c4a75c2a084d086803dd","condition":"full-information","relevant_dimensions":["pattern","legs"],"bee_group":{"antennae":"X","wings":"X","pattern":"S","legs":"M"},"bonus":0},{"rt":7212.5,"stimulus":"bees-with-color/bee-A1DF.svg","response":1,"trial_type":"image-button-response","trial_index":87,"time_elapsed":688180,"internal_node_id":"0.0-4.0-0.40","subject_id":"60f092724d04989ff200cd63","study_id":"60edd13110225f80f9f3709b","session_id":"6196c4a75c2a084d086803dd","condition":"full-information","relevant_dimensions":["pattern","legs"],"bee_group":{"antennae":"X","wings":"X","pattern":"S","legs":"M"},"action":"avoid","summary":"bad-avoid","bonus":0},{"rt":8253.399999976158,"stimulus":"\n                    <p><b>Action: <em>avoid</em></b></p>\n                    <p>This is the bee that you just saw.</p>\n                    <img src=\"bees-with-color/bee-A1DF.svg\" width=\"200\">\n                    <p><span class=\"redText\">Bad choice,</span> the bee was friendly.<br>Your bonus pay is unchanged, and remains at $0.36.</p>\n            ","response":0,"trial_type":"html-button-response","trial_index":88,"time_elapsed":696436,"internal_node_id":"0.0-4.0-1.40","subject_id":"60f092724d04989ff200cd63","study_id":"60edd13110225f80f9f3709b","session_id":"6196c4a75c2a084d086803dd","condition":"full-information","relevant_dimensions":["pattern","legs"],"bee_group":{"antennae":"X","wings":"X","pattern":"S","legs":"M"},"bonus":0},{"rt":14738.300000011921,"stimulus":"bees-with-color/bee-A1SF.svg","response":0,"trial_type":"image-button-response","trial_index":89,"time_elapsed":711175,"internal_node_id":"0.0-4.0-0.41","subject_id":"60f092724d04989ff200cd63","study_id":"60edd13110225f80f9f3709b","session_id":"6196c4a75c2a084d086803dd","condition":"full-information","relevant_dimensions":["pattern","legs"],"bee_group":{"antennae":"X","wings":"X","pattern":"S","legs":"M"},"action":"harvest","summary":"good-harvest","bonus":0},{"rt":1352.699999988079,"stimulus":"\n                    <p><b>Action: <em>harvest</em></b></p>\n                    <p>This is the bee that you just saw.</p>\n                    <img src=\"bees-with-color/bee-A1SF.svg\" width=\"200\">\n                    <p><span class=\"greenText\"><b>Successful harvest!</b></span><br>Your pay has increased by $0.02. Your bonus pay is now $0.38.</p>\n            ","response":0,"trial_type":"html-button-response","trial_index":90,"time_elapsed":712530,"internal_node_id":"0.0-4.0-1.41","subject_id":"60f092724d04989ff200cd63","study_id":"60edd13110225f80f9f3709b","session_id":"6196c4a75c2a084d086803dd","condition":"full-information","relevant_dimensions":["pattern","legs"],"bee_group":{"antennae":"X","wings":"X","pattern":"S","legs":"M"},"bonus":0},{"rt":14168.5,"stimulus":"bees-with-color/bee-B2DF.svg","response":1,"trial_type":"image-button-response","trial_index":91,"time_elapsed":726700,"internal_node_id":"0.0-4.0-0.42","subject_id":"60f092724d04989ff200cd63","study_id":"60edd13110225f80f9f3709b","session_id":"6196c4a75c2a084d086803dd","condition":"full-information","relevant_dimensions":["pattern","legs"],"bee_group":{"antennae":"X","wings":"X","pattern":"S","legs":"M"},"action":"avoid","summary":"bad-avoid","bonus":0},{"rt":1878.699999988079,"stimulus":"\n                    <p><b>Action: <em>avoid</em></b></p>\n                    <p>This is the bee that you just saw.</p>\n                    <img src=\"bees-with-color/bee-B2DF.svg\" width=\"200\">\n                    <p><span class=\"redText\">Bad choice,</span> the bee was friendly.<br>Your bonus pay is unchanged, and remains at $0.38.</p>\n            ","response":0,"trial_type":"html-button-response","trial_index":92,"time_elapsed":728581,"internal_node_id":"0.0-4.0-1.42","subject_id":"60f092724d04989ff200cd63","study_id":"60edd13110225f80f9f3709b","session_id":"6196c4a75c2a084d086803dd","condition":"full-information","relevant_dimensions":["pattern","legs"],"bee_group":{"antennae":"X","wings":"X","pattern":"S","legs":"M"},"bonus":0},{"rt":420.39999997615814,"stimulus":"bees-with-color/bee-A1SM.svg","response":0,"trial_type":"image-button-response","trial_index":93,"time_elapsed":729003,"internal_node_id":"0.0-4.0-0.43","subject_id":"60f092724d04989ff200cd63","study_id":"60edd13110225f80f9f3709b","session_id":"6196c4a75c2a084d086803dd","condition":"full-information","relevant_dimensions":["pattern","legs"],"bee_group":{"antennae":"X","wings":"X","pattern":"S","legs":"M"},"action":"harvest","summary":"bad-harvest","bonus":0},{"rt":513.3999999761581,"stimulus":"\n                    <p><b>Action: <em>harvest</em></b></p>\n                    <p>This is the bee that you just saw.</p>\n                    <img src=\"bees-with-color/bee-A1SM.svg\" width=\"200\">\n                    <p><span class=\"redText\">Bad choice, the bee was angry.</span><br><b>You have been stung!</b><br>Your pay has been decreased by $0.10. Your bonus pay is now $0.28.</p>\n            ","response":0,"trial_type":"html-button-response","trial_index":94,"time_elapsed":729518,"internal_node_id":"0.0-4.0-1.43","subject_id":"60f092724d04989ff200cd63","study_id":"60edd13110225f80f9f3709b","session_id":"6196c4a75c2a084d086803dd","condition":"full-information","relevant_dimensions":["pattern","legs"],"bee_group":{"antennae":"X","wings":"X","pattern":"S","legs":"M"},"bonus":0},{"rt":356.69999998807907,"stimulus":"bees-with-color/bee-A2SM.svg","response":1,"trial_type":"image-button-response","trial_index":95,"time_elapsed":729876,"internal_node_id":"0.0-4.0-0.44","subject_id":"60f092724d04989ff200cd63","study_id":"60edd13110225f80f9f3709b","session_id":"6196c4a75c2a084d086803dd","condition":"full-information","relevant_dimensions":["pattern","legs"],"bee_group":{"antennae":"X","wings":"X","pattern":"S","legs":"M"},"action":"avoid","summary":"good-avoid","bonus":0},{"rt":548.3000000119209,"stimulus":"\n                    <p><b>Action: <em>avoid</em></b></p>\n                    <p>This is the bee that you just saw.</p>\n                    <img src=\"bees-with-color/bee-A2SM.svg\" width=\"200\">\n                    <p><span class=\"greenText\">Good choice!</span>  This bee would have stung you.<br>Your bonus pay is unchanged, and remains at $0.28.</p>\n            ","response":0,"trial_type":"html-button-response","trial_index":96,"time_elapsed":730426,"internal_node_id":"0.0-4.0-1.44","subject_id":"60f092724d04989ff200cd63","study_id":"60edd13110225f80f9f3709b","session_id":"6196c4a75c2a084d086803dd","condition":"full-information","relevant_dimensions":["pattern","legs"],"bee_group":{"antennae":"X","wings":"X","pattern":"S","legs":"M"},"bonus":0},{"rt":492.60000002384186,"stimulus":"bees-with-color/bee-A2DM.svg","response":1,"trial_type":"image-button-response","trial_index":97,"time_elapsed":730920,"internal_node_id":"0.0-4.0-0.45","subject_id":"60f092724d04989ff200cd63","study_id":"60edd13110225f80f9f3709b","session_id":"6196c4a75c2a084d086803dd","condition":"full-information","relevant_dimensions":["pattern","legs"],"bee_group":{"antennae":"X","wings":"X","pattern":"S","legs":"M"},"action":"avoid","summary":"bad-avoid","bonus":0},{"rt":460.5,"stimulus":"\n                    <p><b>Action: <em>avoid</em></b></p>\n                    <p>This is the bee that you just saw.</p>\n                    <img src=\"bees-with-color/bee-A2DM.svg\" width=\"200\">\n                    <p><span class=\"redText\">Bad choice,</span> the bee was friendly.<br>Your bonus pay is unchanged, and remains at $0.28.</p>\n            ","response":0,"trial_type":"html-button-response","trial_index":98,"time_elapsed":731382,"internal_node_id":"0.0-4.0-1.45","subject_id":"60f092724d04989ff200cd63","study_id":"60edd13110225f80f9f3709b","session_id":"6196c4a75c2a084d086803dd","condition":"full-information","relevant_dimensions":["pattern","legs"],"bee_group":{"antennae":"X","wings":"X","pattern":"S","legs":"M"},"bonus":0},{"rt":331.5,"stimulus":"bees-with-color/bee-A1DM.svg","response":0,"trial_type":"image-button-response","trial_index":99,"time_elapsed":731715,"internal_node_id":"0.0-4.0-0.46","subject_id":"60f092724d04989ff200cd63","study_id":"60edd13110225f80f9f3709b","session_id":"6196c4a75c2a084d086803dd","condition":"full-information","relevant_dimensions":["pattern","legs"],"bee_group":{"antennae":"X","wings":"X","pattern":"S","legs":"M"},"action":"harvest","summary":"good-harvest","bonus":0},{"rt":416.39999997615814,"stimulus":"\n                    <p><b>Action: <em>harvest</em></b></p>\n                    <p>This is the bee that you just saw.</p>\n                    <img src=\"bees-with-color/bee-A1DM.svg\" width=\"200\">\n                    <p><span class=\"greenText\"><b>Successful harvest!</b></span><br>Your pay has increased by $0.02. Your bonus pay is now $0.30.</p>\n            ","response":0,"trial_type":"html-button-response","trial_index":100,"time_elapsed":732133,"internal_node_id":"0.0-4.0-1.46","subject_id":"60f092724d04989ff200cd63","study_id":"60edd13110225f80f9f3709b","session_id":"6196c4a75c2a084d086803dd","condition":"full-information","relevant_dimensions":["pattern","legs"],"bee_group":{"antennae":"X","wings":"X","pattern":"S","legs":"M"},"bonus":0},{"rt":373.39999997615814,"stimulus":"bees-with-color/bee-B1DM.svg","response":0,"trial_type":"image-button-response","trial_index":101,"time_elapsed":732508,"internal_node_id":"0.0-4.0-0.47","subject_id":"60f092724d04989ff200cd63","study_id":"60edd13110225f80f9f3709b","session_id":"6196c4a75c2a084d086803dd","condition":"full-information","relevant_dimensions":["pattern","legs"],"bee_group":{"antennae":"X","wings":"X","pattern":"S","legs":"M"},"action":"harvest","summary":"good-harvest","bonus":0},{"rt":451.19999998807907,"stimulus":"\n                    <p><b>Action: <em>harvest</em></b></p>\n                    <p>This is the bee that you just saw.</p>\n                    <img src=\"bees-with-color/bee-B1DM.svg\" width=\"200\">\n                    <p><span class=\"greenText\"><b>Successful harvest!</b></span><br>Your pay has increased by $0.02. Your bonus pay is now $0.32.</p>\n            ","response":0,"trial_type":"html-button-response","trial_index":102,"time_elapsed":732961,"internal_node_id":"0.0-4.0-1.47","subject_id":"60f092724d04989ff200cd63","study_id":"60edd13110225f80f9f3709b","session_id":"6196c4a75c2a084d086803dd","condition":"full-information","relevant_dimensions":["pattern","legs"],"bee_group":{"antennae":"X","wings":"X","pattern":"S","legs":"M"},"bonus":0},{"rt":3853,"stimulus":"bees-with-color/bee-B1DM.svg","response":1,"trial_type":"image-button-response","trial_index":103,"time_elapsed":736815,"internal_node_id":"0.0-4.0-0.48","subject_id":"60f092724d04989ff200cd63","study_id":"60edd13110225f80f9f3709b","session_id":"6196c4a75c2a084d086803dd","condition":"full-information","relevant_dimensions":["pattern","legs"],"bee_group":{"antennae":"X","wings":"X","pattern":"S","legs":"M"},"action":"avoid","summary":"bad-avoid","bonus":0},{"rt":544.9000000357628,"stimulus":"\n                    <p><b>Action: <em>avoid</em></b></p>\n                    <p>This is the bee that you just saw.</p>\n                    <img src=\"bees-with-color/bee-B1DM.svg\" width=\"200\">\n                    <p><span class=\"redText\">Bad choice,</span> the bee was friendly.<br>Your bonus pay is unchanged, and remains at $0.32.</p>\n            ","response":0,"trial_type":"html-button-response","trial_index":104,"time_elapsed":737362,"internal_node_id":"0.0-4.0-1.48","subject_id":"60f092724d04989ff200cd63","study_id":"60edd13110225f80f9f3709b","session_id":"6196c4a75c2a084d086803dd","condition":"full-information","relevant_dimensions":["pattern","legs"],"bee_group":{"antennae":"X","wings":"X","pattern":"S","legs":"M"},"bonus":0},{"rt":304.5999999642372,"stimulus":"bees-with-color/bee-B1DF.svg","response":0,"trial_type":"image-button-response","trial_index":105,"time_elapsed":737668,"internal_node_id":"0.0-4.0-0.49","subject_id":"60f092724d04989ff200cd63","study_id":"60edd13110225f80f9f3709b","session_id":"6196c4a75c2a084d086803dd","condition":"full-information","relevant_dimensions":["pattern","legs"],"bee_group":{"antennae":"X","wings":"X","pattern":"S","legs":"M"},"action":"harvest","summary":"good-harvest","bonus":0},{"rt":448.5,"stimulus":"\n                    <p><b>Action: <em>harvest</em></b></p>\n                    <p>This is the bee that you just saw.</p>\n                    <img src=\"bees-with-color/bee-B1DF.svg\" width=\"200\">\n                    <p><span class=\"greenText\"><b>Successful harvest!</b></span><br>Your pay has increased by $0.02. Your bonus pay is now $0.34.</p>\n            ","response":0,"trial_type":"html-button-response","trial_index":106,"time_elapsed":738118,"internal_node_id":"0.0-4.0-1.49","subject_id":"60f092724d04989ff200cd63","study_id":"60edd13110225f80f9f3709b","session_id":"6196c4a75c2a084d086803dd","condition":"full-information","relevant_dimensions":["pattern","legs"],"bee_group":{"antennae":"X","wings":"X","pattern":"S","legs":"M"},"bonus":0},{"rt":328.19999998807907,"stimulus":"bees-with-color/bee-A1DM.svg","response":0,"trial_type":"image-button-response","trial_index":107,"time_elapsed":738447,"internal_node_id":"0.0-4.0-0.50","subject_id":"60f092724d04989ff200cd63","study_id":"60edd13110225f80f9f3709b","session_id":"6196c4a75c2a084d086803dd","condition":"full-information","relevant_dimensions":["pattern","legs"],"bee_group":{"antennae":"X","wings":"X","pattern":"S","legs":"M"},"action":"harvest","summary":"good-harvest","bonus":0},{"rt":411.2000000476837,"stimulus":"\n                    <p><b>Action: <em>harvest</em></b></p>\n                    <p>This is the bee that you just saw.</p>\n                    <img src=\"bees-with-color/bee-A1DM.svg\" width=\"200\">\n                    <p><span class=\"greenText\"><b>Successful harvest!</b></span><br>Your pay has increased by $0.02. Your bonus pay is now $0.36.</p>\n            ","response":0,"trial_type":"html-button-response","trial_index":108,"time_elapsed":738861,"internal_node_id":"0.0-4.0-1.50","subject_id":"60f092724d04989ff200cd63","study_id":"60edd13110225f80f9f3709b","session_id":"6196c4a75c2a084d086803dd","condition":"full-information","relevant_dimensions":["pattern","legs"],"bee_group":{"antennae":"X","wings":"X","pattern":"S","legs":"M"},"bonus":0},{"rt":387.89999997615814,"stimulus":"bees-with-color/bee-B2DF.svg","response":1,"trial_type":"image-button-response","trial_index":109,"time_elapsed":739250,"internal_node_id":"0.0-4.0-0.51","subject_id":"60f092724d04989ff200cd63","study_id":"60edd13110225f80f9f3709b","session_id":"6196c4a75c2a084d086803dd","condition":"full-information","relevant_dimensions":["pattern","legs"],"bee_group":{"antennae":"X","wings":"X","pattern":"S","legs":"M"},"action":"avoid","summary":"bad-avoid","bonus":0},{"rt":562,"stimulus":"\n                    <p><b>Action: <em>avoid</em></b></p>\n                    <p>This is the bee that you just saw.</p>\n                    <img src=\"bees-with-color/bee-B2DF.svg\" width=\"200\">\n                    <p><span class=\"redText\">Bad choice,</span> the bee was friendly.<br>Your bonus pay is unchanged, and remains at $0.36.</p>\n            ","response":0,"trial_type":"html-button-response","trial_index":110,"time_elapsed":739814,"internal_node_id":"0.0-4.0-1.51","subject_id":"60f092724d04989ff200cd63","study_id":"60edd13110225f80f9f3709b","session_id":"6196c4a75c2a084d086803dd","condition":"full-information","relevant_dimensions":["pattern","legs"],"bee_group":{"antennae":"X","wings":"X","pattern":"S","legs":"M"},"bonus":0},{"rt":294.10000002384186,"stimulus":"bees-with-color/bee-A2SF.svg","response":0,"trial_type":"image-button-response","trial_index":111,"time_elapsed":740109,"internal_node_id":"0.0-4.0-0.52","subject_id":"60f092724d04989ff200cd63","study_id":"60edd13110225f80f9f3709b","session_id":"6196c4a75c2a084d086803dd","condition":"full-information","relevant_dimensions":["pattern","legs"],"bee_group":{"antennae":"X","wings":"X","pattern":"S","legs":"M"},"action":"harvest","summary":"good-harvest","bonus":0},{"rt":351.10000002384186,"stimulus":"\n                    <p><b>Action: <em>harvest</em></b></p>\n                    <p>This is the bee that you just saw.</p>\n                    <img src=\"bees-with-color/bee-A2SF.svg\" width=\"200\">\n                    <p><span class=\"greenText\"><b>Successful harvest!</b></span><br>Your pay has increased by $0.02. Your bonus pay is now $0.38.</p>\n            ","response":0,"trial_type":"html-button-response","trial_index":112,"time_elapsed":740462,"internal_node_id":"0.0-4.0-1.52","subject_id":"60f092724d04989ff200cd63","study_id":"60edd13110225f80f9f3709b","session_id":"6196c4a75c2a084d086803dd","condition":"full-information","relevant_dimensions":["pattern","legs"],"bee_group":{"antennae":"X","wings":"X","pattern":"S","legs":"M"},"bonus":0},{"rt":462.4000000357628,"stimulus":"bees-with-color/bee-A1SM.svg","response":1,"trial_type":"image-button-response","trial_index":113,"time_elapsed":740926,"internal_node_id":"0.0-4.0-0.53","subject_id":"60f092724d04989ff200cd63","study_id":"60edd13110225f80f9f3709b","session_id":"6196c4a75c2a084d086803dd","condition":"full-information","relevant_dimensions":["pattern","legs"],"bee_group":{"antennae":"X","wings":"X","pattern":"S","legs":"M"},"action":"avoid","summary":"good-avoid","bonus":0},{"rt":428.39999997615814,"stimulus":"\n                    <p><b>Action: <em>avoid</em></b></p>\n                    <p>This is the bee that you just saw.</p>\n                    <img src=\"bees-with-color/bee-A1SM.svg\" width=\"200\">\n                    <p><span class=\"greenText\">Good choice!</span>  This bee would have stung you.<br>Your bonus pay is unchanged, and remains at $0.38.</p>\n            ","response":0,"trial_type":"html-button-response","trial_index":114,"time_elapsed":741356,"internal_node_id":"0.0-4.0-1.53","subject_id":"60f092724d04989ff200cd63","study_id":"60edd13110225f80f9f3709b","session_id":"6196c4a75c2a084d086803dd","condition":"full-information","relevant_dimensions":["pattern","legs"],"bee_group":{"antennae":"X","wings":"X","pattern":"S","legs":"M"},"bonus":0},{"rt":748.8999999761581,"stimulus":"bees-with-color/bee-A2SM.svg","response":0,"trial_type":"image-button-response","trial_index":115,"time_elapsed":742106,"internal_node_id":"0.0-4.0-0.54","subject_id":"60f092724d04989ff200cd63","study_id":"60edd13110225f80f9f3709b","session_id":"6196c4a75c2a084d086803dd","condition":"full-information","relevant_dimensions":["pattern","legs"],"bee_group":{"antennae":"X","wings":"X","pattern":"S","legs":"M"},"action":"harvest","summary":"bad-harvest","bonus":0},{"rt":653.2000000476837,"stimulus":"\n                    <p><b>Action: <em>harvest</em></b></p>\n                    <p>This is the bee that you just saw.</p>\n                    <img src=\"bees-with-color/bee-A2SM.svg\" width=\"200\">\n                    <p><span class=\"redText\">Bad choice, the bee was angry.</span><br><b>You have been stung!</b><br>Your pay has been decreased by $0.10. Your bonus pay is now $0.28.</p>\n            ","response":0,"trial_type":"html-button-response","trial_index":116,"time_elapsed":742761,"internal_node_id":"0.0-4.0-1.54","subject_id":"60f092724d04989ff200cd63","study_id":"60edd13110225f80f9f3709b","session_id":"6196c4a75c2a084d086803dd","condition":"full-information","relevant_dimensions":["pattern","legs"],"bee_group":{"antennae":"X","wings":"X","pattern":"S","legs":"M"},"bonus":0},{"rt":310,"stimulus":"bees-with-color/bee-B1SF.svg","response":0,"trial_type":"image-button-response","trial_index":117,"time_elapsed":743072,"internal_node_id":"0.0-4.0-0.55","subject_id":"60f092724d04989ff200cd63","study_id":"60edd13110225f80f9f3709b","session_id":"6196c4a75c2a084d086803dd","condition":"full-information","relevant_dimensions":["pattern","legs"],"bee_group":{"antennae":"X","wings":"X","pattern":"S","legs":"M"},"action":"harvest","summary":"good-harvest","bonus":0},{"rt":358.2000000476837,"stimulus":"\n                    <p><b>Action: <em>harvest</em></b></p>\n                    <p>This is the bee that you just saw.</p>\n                    <img src=\"bees-with-color/bee-B1SF.svg\" width=\"200\">\n                    <p><span class=\"greenText\"><b>Successful harvest!</b></span><br>Your pay has increased by $0.02. Your bonus pay is now $0.30.</p>\n            ","response":0,"trial_type":"html-button-response","trial_index":118,"time_elapsed":743432,"internal_node_id":"0.0-4.0-1.55","subject_id":"60f092724d04989ff200cd63","study_id":"60edd13110225f80f9f3709b","session_id":"6196c4a75c2a084d086803dd","condition":"full-information","relevant_dimensions":["pattern","legs"],"bee_group":{"antennae":"X","wings":"X","pattern":"S","legs":"M"},"bonus":0},{"rt":762.8000000119209,"stimulus":"bees-with-color/bee-B2SF.svg","response":0,"trial_type":"image-button-response","trial_index":119,"time_elapsed":744196,"internal_node_id":"0.0-4.0-0.56","subject_id":"60f092724d04989ff200cd63","study_id":"60edd13110225f80f9f3709b","session_id":"6196c4a75c2a084d086803dd","condition":"full-information","relevant_dimensions":["pattern","legs"],"bee_group":{"antennae":"X","wings":"X","pattern":"S","legs":"M"},"action":"harvest","summary":"good-harvest","bonus":0},{"rt":341.2000000476837,"stimulus":"\n                    <p><b>Action: <em>harvest</em></b></p>\n                    <p>This is the bee that you just saw.</p>\n                    <img src=\"bees-with-color/bee-B2SF.svg\" width=\"200\">\n                    <p><span class=\"greenText\"><b>Successful harvest!</b></span><br>Your pay has increased by $0.02. Your bonus pay is now $0.32.</p>\n            ","response":0,"trial_type":"html-button-response","trial_index":120,"time_elapsed":744539,"internal_node_id":"0.0-4.0-1.56","subject_id":"60f092724d04989ff200cd63","study_id":"60edd13110225f80f9f3709b","session_id":"6196c4a75c2a084d086803dd","condition":"full-information","relevant_dimensions":["pattern","legs"],"bee_group":{"antennae":"X","wings":"X","pattern":"S","legs":"M"},"bonus":0},{"rt":798.6999999880791,"stimulus":"bees-with-color/bee-A1SF.svg","response":1,"trial_type":"image-button-response","trial_index":121,"time_elapsed":745339,"internal_node_id":"0.0-4.0-0.57","subject_id":"60f092724d04989ff200cd63","study_id":"60edd13110225f80f9f3709b","session_id":"6196c4a75c2a084d086803dd","condition":"full-information","relevant_dimensions":["pattern","legs"],"bee_group":{"antennae":"X","wings":"X","pattern":"S","legs":"M"},"action":"avoid","summary":"bad-avoid","bonus":0},{"rt":460.5,"stimulus":"\n                    <p><b>Action: <em>avoid</em></b></p>\n                    <p>This is the bee that you just saw.</p>\n                    <img src=\"bees-with-color/bee-A1SF.svg\" width=\"200\">\n                    <p><span class=\"redText\">Bad choice,</span> the bee was friendly.<br>Your bonus pay is unchanged, and remains at $0.32.</p>\n            ","response":0,"trial_type":"html-button-response","trial_index":122,"time_elapsed":745801,"internal_node_id":"0.0-4.0-1.57","subject_id":"60f092724d04989ff200cd63","study_id":"60edd13110225f80f9f3709b","session_id":"6196c4a75c2a084d086803dd","condition":"full-information","relevant_dimensions":["pattern","legs"],"bee_group":{"antennae":"X","wings":"X","pattern":"S","legs":"M"},"bonus":0},{"rt":481.10000002384186,"stimulus":"bees-with-color/bee-A2DF.svg","response":0,"trial_type":"image-button-response","trial_index":123,"time_elapsed":746283,"internal_node_id":"0.0-4.0-0.58","subject_id":"60f092724d04989ff200cd63","study_id":"60edd13110225f80f9f3709b","session_id":"6196c4a75c2a084d086803dd","condition":"full-information","relevant_dimensions":["pattern","legs"],"bee_group":{"antennae":"X","wings":"X","pattern":"S","legs":"M"},"action":"harvest","summary":"good-harvest","bonus":0},{"rt":621,"stimulus":"\n                    <p><b>Action: <em>harvest</em></b></p>\n                    <p>This is the bee that you just saw.</p>\n                    <img src=\"bees-with-color/bee-A2DF.svg\" width=\"200\">\n                    <p><span class=\"greenText\"><b>Successful harvest!</b></span><br>Your pay has increased by $0.02. Your bonus pay is now $0.34.</p>\n            ","response":0,"trial_type":"html-button-response","trial_index":124,"time_elapsed":746906,"internal_node_id":"0.0-4.0-1.58","subject_id":"60f092724d04989ff200cd63","study_id":"60edd13110225f80f9f3709b","session_id":"6196c4a75c2a084d086803dd","condition":"full-information","relevant_dimensions":["pattern","legs"],"bee_group":{"antennae":"X","wings":"X","pattern":"S","legs":"M"},"bonus":0},{"rt":2698.800000011921,"stimulus":"bees-with-color/bee-A2DM.svg","response":1,"trial_type":"image-button-response","trial_index":125,"time_elapsed":749606,"internal_node_id":"0.0-4.0-0.59","subject_id":"60f092724d04989ff200cd63","study_id":"60edd13110225f80f9f3709b","session_id":"6196c4a75c2a084d086803dd","condition":"full-information","relevant_dimensions":["pattern","legs"],"bee_group":{"antennae":"X","wings":"X","pattern":"S","legs":"M"},"action":"avoid","summary":"bad-avoid","bonus":0},{"rt":487.2000000476837,"stimulus":"\n                    <p><b>Action: <em>avoid</em></b></p>\n                    <p>This is the bee that you just saw.</p>\n                    <img src=\"bees-with-color/bee-A2DM.svg\" width=\"200\">\n                    <p><span class=\"redText\">Bad choice,</span> the bee was friendly.<br>Your bonus pay is unchanged, and remains at $0.34.</p>\n            ","response":0,"trial_type":"html-button-response","trial_index":126,"time_elapsed":750095,"internal_node_id":"0.0-4.0-1.59","subject_id":"60f092724d04989ff200cd63","study_id":"60edd13110225f80f9f3709b","session_id":"6196c4a75c2a084d086803dd","condition":"full-information","relevant_dimensions":["pattern","legs"],"bee_group":{"antennae":"X","wings":"X","pattern":"S","legs":"M"},"bonus":0},{"rt":383.80000001192093,"stimulus":"bees-with-color/bee-B2SM.svg","response":0,"trial_type":"image-button-response","trial_index":127,"time_elapsed":750480,"internal_node_id":"0.0-4.0-0.60","subject_id":"60f092724d04989ff200cd63","study_id":"60edd13110225f80f9f3709b","session_id":"6196c4a75c2a084d086803dd","condition":"full-information","relevant_dimensions":["pattern","legs"],"bee_group":{"antennae":"X","wings":"X","pattern":"S","legs":"M"},"action":"harvest","summary":"bad-harvest","bonus":0},{"rt":436.2000000476837,"stimulus":"\n                    <p><b>Action: <em>harvest</em></b></p>\n                    <p>This is the bee that you just saw.</p>\n                    <img src=\"bees-with-color/bee-B2SM.svg\" width=\"200\">\n                    <p><span class=\"redText\">Bad choice, the bee was angry.</span><br><b>You have been stung!</b><br>Your pay has been decreased by $0.10. Your bonus pay is now $0.24.</p>\n            ","response":0,"trial_type":"html-button-response","trial_index":128,"time_elapsed":750919,"internal_node_id":"0.0-4.0-1.60","subject_id":"60f092724d04989ff200cd63","study_id":"60edd13110225f80f9f3709b","session_id":"6196c4a75c2a084d086803dd","condition":"full-information","relevant_dimensions":["pattern","legs"],"bee_group":{"antennae":"X","wings":"X","pattern":"S","legs":"M"},"bonus":0},{"rt":257.5999999642372,"stimulus":"bees-with-color/bee-A1DF.svg","response":0,"trial_type":"image-button-response","trial_index":129,"time_elapsed":751177,"internal_node_id":"0.0-4.0-0.61","subject_id":"60f092724d04989ff200cd63","study_id":"60edd13110225f80f9f3709b","session_id":"6196c4a75c2a084d086803dd","condition":"full-information","relevant_dimensions":["pattern","legs"],"bee_group":{"antennae":"X","wings":"X","pattern":"S","legs":"M"},"action":"harvest","summary":"good-harvest","bonus":0},{"rt":261.5999999642372,"stimulus":"\n                    <p><b>Action: <em>harvest</em></b></p>\n                    <p>This is the bee that you just saw.</p>\n                    <img src=\"bees-with-color/bee-A1DF.svg\" width=\"200\">\n                    <p><span class=\"greenText\"><b>Successful harvest!</b></span><br>Your pay has increased by $0.02. Your bonus pay is now $0.26.</p>\n            ","response":0,"trial_type":"html-button-response","trial_index":130,"time_elapsed":751441,"internal_node_id":"0.0-4.0-1.61","subject_id":"60f092724d04989ff200cd63","study_id":"60edd13110225f80f9f3709b","session_id":"6196c4a75c2a084d086803dd","condition":"full-information","relevant_dimensions":["pattern","legs"],"bee_group":{"antennae":"X","wings":"X","pattern":"S","legs":"M"},"bonus":0},{"rt":643.6000000238419,"stimulus":"bees-with-color/bee-B2DM.svg","response":0,"trial_type":"image-button-response","trial_index":131,"time_elapsed":752086,"internal_node_id":"0.0-4.0-0.62","subject_id":"60f092724d04989ff200cd63","study_id":"60edd13110225f80f9f3709b","session_id":"6196c4a75c2a084d086803dd","condition":"full-information","relevant_dimensions":["pattern","legs"],"bee_group":{"antennae":"X","wings":"X","pattern":"S","legs":"M"},"action":"harvest","summary":"good-harvest","bonus":0},{"rt":251.19999998807907,"stimulus":"\n                    <p><b>Action: <em>harvest</em></b></p>\n                    <p>This is the bee that you just saw.</p>\n                    <img src=\"bees-with-color/bee-B2DM.svg\" width=\"200\">\n                    <p><span class=\"greenText\"><b>Successful harvest!</b></span><br>Your pay has increased by $0.02. Your bonus pay is now $0.28.</p>\n            ","response":0,"trial_type":"html-button-response","trial_index":132,"time_elapsed":752339,"internal_node_id":"0.0-4.0-1.62","subject_id":"60f092724d04989ff200cd63","study_id":"60edd13110225f80f9f3709b","session_id":"6196c4a75c2a084d086803dd","condition":"full-information","relevant_dimensions":["pattern","legs"],"bee_group":{"antennae":"X","wings":"X","pattern":"S","legs":"M"},"bonus":0},{"rt":7500.200000047684,"stimulus":"bees-with-color/bee-B1SM.svg","response":1,"trial_type":"image-button-response","trial_index":133,"time_elapsed":759841,"internal_node_id":"0.0-4.0-0.63","subject_id":"60f092724d04989ff200cd63","study_id":"60edd13110225f80f9f3709b","session_id":"6196c4a75c2a084d086803dd","condition":"full-information","relevant_dimensions":["pattern","legs"],"bee_group":{"antennae":"X","wings":"X","pattern":"S","legs":"M"},"action":"avoid","summary":"good-avoid","bonus":0},{"rt":878.5,"stimulus":"\n                    <p><b>Action: <em>avoid</em></b></p>\n                    <p>This is the bee that you just saw.</p>\n                    <img src=\"bees-with-color/bee-B1SM.svg\" width=\"200\">\n                    <p><span class=\"greenText\">Good choice!</span>  This bee would have stung you.<br>Your bonus pay is unchanged, and remains at $0.28.</p>\n            ","response":0,"trial_type":"html-button-response","trial_index":134,"time_elapsed":760721,"internal_node_id":"0.0-4.0-1.63","subject_id":"60f092724d04989ff200cd63","study_id":"60edd13110225f80f9f3709b","session_id":"6196c4a75c2a084d086803dd","condition":"full-information","relevant_dimensions":["pattern","legs"],"bee_group":{"antennae":"X","wings":"X","pattern":"S","legs":"M"},"bonus":0},{"rt":7348.399999976158,"stimulus":"You have completed the first part of this experiment.<br><br>You will now begin a shorter second part, in which you will receive no feedback.<br>The same rules regarding bonus pay apply.<br><br>Press any key to begin.","response":"m","trial_type":"html-keyboard-response","trial_index":135,"time_elapsed":768071,"internal_node_id":"0.0-5.0","subject_id":"60f092724d04989ff200cd63","study_id":"60edd13110225f80f9f3709b","session_id":"6196c4a75c2a084d086803dd","condition":"full-information","relevant_dimensions":["pattern","legs"],"bee_group":{"antennae":"X","wings":"X","pattern":"S","legs":"M"},"bonus":0},{"rt":6909.599999964237,"stimulus":"bees-with-color/bee-B2SF.svg","response":0,"trial_type":"image-button-response","trial_index":136,"time_elapsed":774987,"internal_node_id":"0.0-6.0-0.0","subject_id":"60f092724d04989ff200cd63","study_id":"60edd13110225f80f9f3709b","session_id":"6196c4a75c2a084d086803dd","condition":"full-information","relevant_dimensions":["pattern","legs"],"bee_group":{"antennae":"X","wings":"X","pattern":"S","legs":"M"},"bonus":0},{"rt":3162.7000000476837,"stimulus":"bees-with-color/bee-B1DF.svg","response":1,"trial_type":"image-button-response","trial_index":137,"time_elapsed":778152,"internal_node_id":"0.0-6.0-0.1","subject_id":"60f092724d04989ff200cd63","study_id":"60edd13110225f80f9f3709b","session_id":"6196c4a75c2a084d086803dd","condition":"full-information","relevant_dimensions":["pattern","legs"],"bee_group":{"antennae":"X","wings":"X","pattern":"S","legs":"M"},"bonus":0},{"rt":287.19999998807907,"stimulus":"bees-with-color/bee-B1SF.svg","response":1,"trial_type":"image-button-response","trial_index":138,"time_elapsed":778441,"internal_node_id":"0.0-6.0-0.2","subject_id":"60f092724d04989ff200cd63","study_id":"60edd13110225f80f9f3709b","session_id":"6196c4a75c2a084d086803dd","condition":"full-information","relevant_dimensions":["pattern","legs"],"bee_group":{"antennae":"X","wings":"X","pattern":"S","legs":"M"},"bonus":0},{"rt":716.1000000238419,"stimulus":"bees-with-color/bee-A2SM.svg","response":0,"trial_type":"image-button-response","trial_index":139,"time_elapsed":779159,"internal_node_id":"0.0-6.0-0.3","subject_id":"60f092724d04989ff200cd63","study_id":"60edd13110225f80f9f3709b","session_id":"6196c4a75c2a084d086803dd","condition":"full-information","relevant_dimensions":["pattern","legs"],"bee_group":{"antennae":"X","wings":"X","pattern":"S","legs":"M"},"bonus":0},{"rt":272.10000002384186,"stimulus":"bees-with-color/bee-A2DF.svg","response":0,"trial_type":"image-button-response","trial_index":140,"time_elapsed":779433,"internal_node_id":"0.0-6.0-0.4","subject_id":"60f092724d04989ff200cd63","study_id":"60edd13110225f80f9f3709b","session_id":"6196c4a75c2a084d086803dd","condition":"full-information","relevant_dimensions":["pattern","legs"],"bee_group":{"antennae":"X","wings":"X","pattern":"S","legs":"M"},"bonus":0},{"rt":319,"stimulus":"bees-with-color/bee-B2SM.svg","response":1,"trial_type":"image-button-response","trial_index":141,"time_elapsed":779754,"internal_node_id":"0.0-6.0-0.5","subject_id":"60f092724d04989ff200cd63","study_id":"60edd13110225f80f9f3709b","session_id":"6196c4a75c2a084d086803dd","condition":"full-information","relevant_dimensions":["pattern","legs"],"bee_group":{"antennae":"X","wings":"X","pattern":"S","legs":"M"},"bonus":0},{"rt":262.19999998807907,"stimulus":"bees-with-color/bee-A2SF.svg","response":0,"trial_type":"image-button-response","trial_index":142,"time_elapsed":780018,"internal_node_id":"0.0-6.0-0.6","subject_id":"60f092724d04989ff200cd63","study_id":"60edd13110225f80f9f3709b","session_id":"6196c4a75c2a084d086803dd","condition":"full-information","relevant_dimensions":["pattern","legs"],"bee_group":{"antennae":"X","wings":"X","pattern":"S","legs":"M"},"bonus":0},{"rt":615.1000000238419,"stimulus":"bees-with-color/bee-A2DM.svg","response":1,"trial_type":"image-button-response","trial_index":143,"time_elapsed":780635,"internal_node_id":"0.0-6.0-0.7","subject_id":"60f092724d04989ff200cd63","study_id":"60edd13110225f80f9f3709b","session_id":"6196c4a75c2a084d086803dd","condition":"full-information","relevant_dimensions":["pattern","legs"],"bee_group":{"antennae":"X","wings":"X","pattern":"S","legs":"M"},"bonus":0},{"rt":447,"stimulus":"bees-with-color/bee-B2DM.svg","response":1,"trial_type":"image-button-response","trial_index":144,"time_elapsed":781084,"internal_node_id":"0.0-6.0-0.8","subject_id":"60f092724d04989ff200cd63","study_id":"60edd13110225f80f9f3709b","session_id":"6196c4a75c2a084d086803dd","condition":"full-information","relevant_dimensions":["pattern","legs"],"bee_group":{"antennae":"X","wings":"X","pattern":"S","legs":"M"},"bonus":0},{"rt":308.89999997615814,"stimulus":"bees-with-color/bee-B2DF.svg","response":0,"trial_type":"image-button-response","trial_index":145,"time_elapsed":781395,"internal_node_id":"0.0-6.0-0.9","subject_id":"60f092724d04989ff200cd63","study_id":"60edd13110225f80f9f3709b","session_id":"6196c4a75c2a084d086803dd","condition":"full-information","relevant_dimensions":["pattern","legs"],"bee_group":{"antennae":"X","wings":"X","pattern":"S","legs":"M"},"bonus":0},{"rt":363,"stimulus":"bees-with-color/bee-A1DF.svg","response":1,"trial_type":"image-button-response","trial_index":146,"time_elapsed":781760,"internal_node_id":"0.0-6.0-0.10","subject_id":"60f092724d04989ff200cd63","study_id":"60edd13110225f80f9f3709b","session_id":"6196c4a75c2a084d086803dd","condition":"full-information","relevant_dimensions":["pattern","legs"],"bee_group":{"antennae":"X","wings":"X","pattern":"S","legs":"M"},"bonus":0},{"rt":243.5,"stimulus":"bees-with-color/bee-B1SM.svg","response":0,"trial_type":"image-button-response","trial_index":147,"time_elapsed":782006,"internal_node_id":"0.0-6.0-0.11","subject_id":"60f092724d04989ff200cd63","study_id":"60edd13110225f80f9f3709b","session_id":"6196c4a75c2a084d086803dd","condition":"full-information","relevant_dimensions":["pattern","legs"],"bee_group":{"antennae":"X","wings":"X","pattern":"S","legs":"M"},"bonus":0},{"rt":271.30000001192093,"stimulus":"bees-with-color/bee-A1SF.svg","response":0,"trial_type":"image-button-response","trial_index":148,"time_elapsed":782279,"internal_node_id":"0.0-6.0-0.12","subject_id":"60f092724d04989ff200cd63","study_id":"60edd13110225f80f9f3709b","session_id":"6196c4a75c2a084d086803dd","condition":"full-information","relevant_dimensions":["pattern","legs"],"bee_group":{"antennae":"X","wings":"X","pattern":"S","legs":"M"},"bonus":0},{"rt":283,"stimulus":"bees-with-color/bee-A1SM.svg","response":0,"trial_type":"image-button-response","trial_index":149,"time_elapsed":782564,"internal_node_id":"0.0-6.0-0.13","subject_id":"60f092724d04989ff200cd63","study_id":"60edd13110225f80f9f3709b","session_id":"6196c4a75c2a084d086803dd","condition":"full-information","relevant_dimensions":["pattern","legs"],"bee_group":{"antennae":"X","wings":"X","pattern":"S","legs":"M"},"bonus":0},{"rt":294.80000001192093,"stimulus":"bees-with-color/bee-B1DM.svg","response":1,"trial_type":"image-button-response","trial_index":150,"time_elapsed":782861,"internal_node_id":"0.0-6.0-0.14","subject_id":"60f092724d04989ff200cd63","study_id":"60edd13110225f80f9f3709b","session_id":"6196c4a75c2a084d086803dd","condition":"full-information","relevant_dimensions":["pattern","legs"],"bee_group":{"antennae":"X","wings":"X","pattern":"S","legs":"M"},"bonus":0},{"rt":264.7000000476837,"stimulus":"bees-with-color/bee-A1DM.svg","response":0,"trial_type":"image-button-response","trial_index":151,"time_elapsed":783128,"internal_node_id":"0.0-6.0-0.15","subject_id":"60f092724d04989ff200cd63","study_id":"60edd13110225f80f9f3709b","session_id":"6196c4a75c2a084d086803dd","condition":"full-information","relevant_dimensions":["pattern","legs"],"bee_group":{"antennae":"X","wings":"X","pattern":"S","legs":"M"},"bonus":0},{"rt":266.89999997615814,"stimulus":"bees-with-color/bee-B2DM.svg","response":0,"trial_type":"image-button-response","trial_index":152,"time_elapsed":783397,"internal_node_id":"0.0-6.0-0.16","subject_id":"60f092724d04989ff200cd63","study_id":"60edd13110225f80f9f3709b","session_id":"6196c4a75c2a084d086803dd","condition":"full-information","relevant_dimensions":["pattern","legs"],"bee_group":{"antennae":"X","wings":"X","pattern":"S","legs":"M"},"bonus":0},{"rt":304.39999997615814,"stimulus":"bees-with-color/bee-A2DM.svg","response":1,"trial_type":"image-button-response","trial_index":153,"time_elapsed":783703,"internal_node_id":"0.0-6.0-0.17","subject_id":"60f092724d04989ff200cd63","study_id":"60edd13110225f80f9f3709b","session_id":"6196c4a75c2a084d086803dd","condition":"full-information","relevant_dimensions":["pattern","legs"],"bee_group":{"antennae":"X","wings":"X","pattern":"S","legs":"M"},"bonus":0},{"rt":344.89999997615814,"stimulus":"bees-with-color/bee-A2SM.svg","response":0,"trial_type":"image-button-response","trial_index":154,"time_elapsed":784050,"internal_node_id":"0.0-6.0-0.18","subject_id":"60f092724d04989ff200cd63","study_id":"60edd13110225f80f9f3709b","session_id":"6196c4a75c2a084d086803dd","condition":"full-information","relevant_dimensions":["pattern","legs"],"bee_group":{"antennae":"X","wings":"X","pattern":"S","legs":"M"},"bonus":0},{"rt":508.2000000476837,"stimulus":"bees-with-color/bee-B2SF.svg","response":1,"trial_type":"image-button-response","trial_index":155,"time_elapsed":784560,"internal_node_id":"0.0-6.0-0.19","subject_id":"60f092724d04989ff200cd63","study_id":"60edd13110225f80f9f3709b","session_id":"6196c4a75c2a084d086803dd","condition":"full-information","relevant_dimensions":["pattern","legs"],"bee_group":{"antennae":"X","wings":"X","pattern":"S","legs":"M"},"bonus":0},{"rt":290.9000000357628,"stimulus":"bees-with-color/bee-B2SM.svg","response":0,"trial_type":"image-button-response","trial_index":156,"time_elapsed":784852,"internal_node_id":"0.0-6.0-0.20","subject_id":"60f092724d04989ff200cd63","study_id":"60edd13110225f80f9f3709b","session_id":"6196c4a75c2a084d086803dd","condition":"full-information","relevant_dimensions":["pattern","legs"],"bee_group":{"antennae":"X","wings":"X","pattern":"S","legs":"M"},"bonus":0},{"rt":298,"stimulus":"bees-with-color/bee-B1DF.svg","response":0,"trial_type":"image-button-response","trial_index":157,"time_elapsed":785153,"internal_node_id":"0.0-6.0-0.21","subject_id":"60f092724d04989ff200cd63","study_id":"60edd13110225f80f9f3709b","session_id":"6196c4a75c2a084d086803dd","condition":"full-information","relevant_dimensions":["pattern","legs"],"bee_group":{"antennae":"X","wings":"X","pattern":"S","legs":"M"},"bonus":0},{"rt":272.60000002384186,"stimulus":"bees-with-color/bee-B1SF.svg","response":1,"trial_type":"image-button-response","trial_index":158,"time_elapsed":785427,"internal_node_id":"0.0-6.0-0.22","subject_id":"60f092724d04989ff200cd63","study_id":"60edd13110225f80f9f3709b","session_id":"6196c4a75c2a084d086803dd","condition":"full-information","relevant_dimensions":["pattern","legs"],"bee_group":{"antennae":"X","wings":"X","pattern":"S","legs":"M"},"bonus":0},{"rt":569.1999999880791,"stimulus":"bees-with-color/bee-A2SF.svg","response":0,"trial_type":"image-button-response","trial_index":159,"time_elapsed":785998,"internal_node_id":"0.0-6.0-0.23","subject_id":"60f092724d04989ff200cd63","study_id":"60edd13110225f80f9f3709b","session_id":"6196c4a75c2a084d086803dd","condition":"full-information","relevant_dimensions":["pattern","legs"],"bee_group":{"antennae":"X","wings":"X","pattern":"S","legs":"M"},"bonus":0},{"rt":297.2000000476837,"stimulus":"bees-with-color/bee-B1SM.svg","response":0,"trial_type":"image-button-response","trial_index":160,"time_elapsed":786297,"internal_node_id":"0.0-6.0-0.24","subject_id":"60f092724d04989ff200cd63","study_id":"60edd13110225f80f9f3709b","session_id":"6196c4a75c2a084d086803dd","condition":"full-information","relevant_dimensions":["pattern","legs"],"bee_group":{"antennae":"X","wings":"X","pattern":"S","legs":"M"},"bonus":0},{"rt":303.5,"stimulus":"bees-with-color/bee-A1SF.svg","response":1,"trial_type":"image-button-response","trial_index":161,"time_elapsed":786602,"internal_node_id":"0.0-6.0-0.25","subject_id":"60f092724d04989ff200cd63","study_id":"60edd13110225f80f9f3709b","session_id":"6196c4a75c2a084d086803dd","condition":"full-information","relevant_dimensions":["pattern","legs"],"bee_group":{"antennae":"X","wings":"X","pattern":"S","legs":"M"},"bonus":0},{"rt":308.4000000357628,"stimulus":"bees-with-color/bee-A2DF.svg","response":0,"trial_type":"image-button-response","trial_index":162,"time_elapsed":786912,"internal_node_id":"0.0-6.0-0.26","subject_id":"60f092724d04989ff200cd63","study_id":"60edd13110225f80f9f3709b","session_id":"6196c4a75c2a084d086803dd","condition":"full-information","relevant_dimensions":["pattern","legs"],"bee_group":{"antennae":"X","wings":"X","pattern":"S","legs":"M"},"bonus":0},{"rt":283.30000001192093,"stimulus":"bees-with-color/bee-A1DM.svg","response":0,"trial_type":"image-button-response","trial_index":163,"time_elapsed":787197,"internal_node_id":"0.0-6.0-0.27","subject_id":"60f092724d04989ff200cd63","study_id":"60edd13110225f80f9f3709b","session_id":"6196c4a75c2a084d086803dd","con