[{"success":true,"trial_type":"fullscreen","trial_index":0,"time_elapsed":40957,"internal_node_id":"0.0-0.0","subject_id":"5c6400cbcb937d00012d8866","study_id":"6197b3f67c2b5cd3b6d9596a","session_id":"619bf508bad81787a9d9c03f","condition":"full-information","relevant_dimensions":["antennae","wings"],"bee_group":{"antennae":"A","wings":"1","pattern":"X","legs":"X"},"bonus":0.7800000000000006},{"success":true,"timeout":false,"failed_images":[],"failed_audio":[],"failed_video":[],"trial_type":"preload","trial_index":1,"time_elapsed":43013,"internal_node_id":"0.0-1.0","subject_id":"5c6400cbcb937d00012d8866","study_id":"6197b3f67c2b5cd3b6d9596a","session_id":"619bf508bad81787a9d9c03f","condition":"full-information","relevant_dimensions":["antennae","wings"],"bee_group":{"antennae":"A","wings":"1","pattern":"X","legs":"X"},"bonus":0.7800000000000006},{"rt":14413.099999997765,"stimulus":"Welcome! Press any key to begin.","response":" ","trial_type":"html-keyboard-response","trial_index":2,"time_elapsed":57429,"internal_node_id":"0.0-2.0","subject_id":"5c6400cbcb937d00012d8866","study_id":"6197b3f67c2b5cd3b6d9596a","session_id":"619bf508bad81787a9d9c03f","condition":"full-information","relevant_dimensions":["antennae","wings"],"bee_group":{"antennae":"A","wings":"1","pattern":"X","legs":"X"},"bonus":0.7800000000000006},{"view_history":[{"page_index":0,"viewing_time":9262.300000000745},{"page_index":1,"viewing_time":64764.900000002235},{"page_index":2,"viewing_time":65019.89999999851},{"page_index":3,"viewing_time":56432.800000000745},{"page_index":4,"viewing_time":19153.800000000745},{"page_index":5,"viewing_time":27569.89999999851},{"page_index":6,"viewing_time":70442.5},{"page_index":7,"viewing_time":16971.300000000745},{"page_index":8,"viewing_time":35357.39999999851},{"page_index":7,"viewing_time":1793},{"page_index":8,"viewing_time":1121.800000000745},{"page_index":7,"viewing_time":1000.1000000014901},{"page_index":8,"viewing_time":1135},{"page_index":7,"viewing_time":1218.8999999985099},{"page_index":8,"viewing_time":1146.1000000014901},{"page_index":7,"viewing_time":804.1999999992549},{"page_index":8,"viewing_time":1097},{"page_index":7,"viewing_time":1268.800000000745},{"page_index":8,"viewing_time":9977.5},{"page_index":9,"viewing_time":25992.79999999702},{"page_index":10,"viewing_time":13546},{"page_index":11,"viewing_time":18906.20000000298},{"page_index":12,"viewing_time":22282},{"page_index":13,"viewing_time":1817.7999999970198},{"page_index":14,"viewing_time":3865.5}],"rt":471948,"trial_type":"instructions","trial_index":3,"time_elapsed":529393,"internal_node_id":"0.0-3.0-0.0","subject_id":"5c6400cbcb937d00012d8866","study_id":"6197b3f67c2b5cd3b6d9596a","session_id":"619bf508bad81787a9d9c03f","condition":"full-information","relevant_dimensions":["antennae","wings"],"bee_group":{"antennae":"A","wings":"1","pattern":"X","legs":"X"},"bonus":0.7800000000000006},{"rt":30907.199999999255,"response":{"Q0":["Two or six legs","Stripes or spots on body","Single or double wings","Antennae or no antennae"]},"question_order":[0],"trial_type":"survey-multi-select","trial_index":4,"time_elapsed":560308,"internal_node_id":"0.0-3.0-1.0","subject_id":"5c6400cbcb937d00012d8866","study_id":"6197b3f67c2b5cd3b6d9596a","session_id":"619bf508bad81787a9d9c03f","condition":"full-information","relevant_dimensions":["antennae","wings"],"bee_group":{"antennae":"A","wings":"1","pattern":"X","legs":"X"},"correct":true,"bonus":0.7800000000000006},{"rt":143933.3999999985,"response":{"Q1":"No.","Q2":"Based on the four features of the bee.","Q3":"You learn if it was friendly or dangerous, but do not alter your bonus."},"question_order":[0,1,2],"trial_type":"survey-multi-choice","trial_index":5,"time_elapsed":704249,"internal_node_id":"0.0-3.0-2.0","subject_id":"5c6400cbcb937d00012d8866","study_id":"6197b3f67c2b5cd3b6d9596a","session_id":"619bf508bad81787a9d9c03f","condition":"full-information","relevant_dimensions":["antennae","wings"],"bee_group":{"antennae":"A","wings":"1","pattern":"X","legs":"X"},"correct":true,"bonus":0.7800000000000006},{"rt":8914.60000000149,"stimulus":"<p>Congrats, you got everything right<br>When you're ready, click the button below to continue to the experiment.</p>","response":0,"trial_type":"html-button-response","trial_index":6,"time_elapsed":713166,"internal_node_id":"0.0-3.0-3.0","subject_id":"5c6400cbcb937d00012d8866","study_id":"6197b3f67c2b5cd3b6d9596a","session_id":"619bf508bad81787a9d9c03f","condition":"full-information","relevant_dimensions":["antennae","wings"],"bee_group":{"antennae":"A","wings":"1","pattern":"X","legs":"X"},"bonus":0.7800000000000006},{"rt":5010.300000000745,"stimulus":"bees-with-color/bee-A1SM.svg","response":0,"trial_type":"image-button-response","trial_index":7,"time_elapsed":718180,"internal_node_id":"0.0-4.0-0.0","subject_id":"5c6400cbcb937d00012d8866","study_id":"6197b3f67c2b5cd3b6d9596a","session_id":"619bf508bad81787a9d9c03f","condition":"full-information","relevant_dimensions":["antennae","wings"],"bee_group":{"antennae":"A","wings":"1","pattern":"X","legs":"X"},"action":"harvest","summary":"bad-harvest","bonus":0.7800000000000006},{"rt":15485.60000000149,"stimulus":"\n                    <p><b>Action: <em>harvest</em></b></p>\n                    <p>This is the bee that you just saw.</p>\n                    <img src=\"bees-with-color/bee-A1SM.svg\" width=\"200\">\n                    <p><span class=\"redText\">Bad choice, the bee was angry.</span><br><b>You have been stung!</b><br>Your pay has been decreased by $0.10. Your bonus pay is now $0.44.</p>\n            ","response":0,"trial_type":"html-button-response","trial_index":8,"time_elapsed":733670,"internal_node_id":"0.0-4.0-1.0","subject_id":"5c6400cbcb937d00012d8866","study_id":"6197b3f67c2b5cd3b6d9596a","session_id":"619bf508bad81787a9d9c03f","condition":"full-information","relevant_dimensions":["antennae","wings"],"bee_group":{"antennae":"A","wings":"1","pattern":"X","legs":"X"},"bonus":0.7800000000000006},{"rt":16355.199999999255,"stimulus":"bees-with-color/bee-B2SF.svg","response":0,"trial_type":"image-button-response","trial_index":9,"time_elapsed":750030,"internal_node_id":"0.0-4.0-0.1","subject_id":"5c6400cbcb937d00012d8866","study_id":"6197b3f67c2b5cd3b6d9596a","session_id":"619bf508bad81787a9d9c03f","condition":"full-information","relevant_dimensions":["antennae","wings"],"bee_group":{"antennae":"A","wings":"1","pattern":"X","legs":"X"},"action":"harvest","summary":"good-harvest","bonus":0.7800000000000006},{"rt":14537.60000000149,"stimulus":"\n                    <p><b>Action: <em>harvest</em></b></p>\n                    <p>This is the bee that you just saw.</p>\n                    <img src=\"bees-with-color/bee-B2SF.svg\" width=\"200\">\n                    <p><span class=\"greenText\"><b>Successful harvest!</b></span><br>Your pay has increased by $0.02. Your bonus pay is now $0.46.</p>\n            ","response":0,"trial_type":"html-button-response","trial_index":10,"time_elapsed":764570,"internal_node_id":"0.0-4.0-1.1","subject_id":"5c6400cbcb937d00012d8866","study_id":"6197b3f67c2b5cd3b6d9596a","session_id":"619bf508bad81787a9d9c03f","condition":"full-information","relevant_dimensions":["antennae","wings"],"bee_group":{"antennae":"A","wings":"1","pattern":"X","legs":"X"},"bonus":0.7800000000000006},{"rt":8011.199999999255,"stimulus":"bees-with-color/bee-B2DM.svg","response":1,"trial_type":"image-button-response","trial_index":11,"time_elapsed":772584,"internal_node_id":"0.0-4.0-0.2","subject_id":"5c6400cbcb937d00012d8866","study_id":"6197b3f67c2b5cd3b6d9596a","session_id":"619bf508bad81787a9d9c03f","condition":"full-information","relevant_dimensions":["antennae","wings"],"bee_group":{"antennae":"A","wings":"1","pattern":"X","legs":"X"},"action":"avoid","summary":"bad-avoid","bonus":0.7800000000000006},{"rt":11935.699999999255,"stimulus":"\n                    <p><b>Action: <em>avoid</em></b></p>\n                    <p>This is the bee that you just saw.</p>\n                    <img src=\"bees-with-color/bee-B2DM.svg\" width=\"200\">\n                    <p><span class=\"redText\">Bad choice,</span> the bee was friendly.<br>Your bonus pay is unchanged, and remains at $0.46.</p>\n            ","response":0,"trial_type":"html-button-response","trial_index":12,"time_elapsed":784522,"internal_node_id":"0.0-4.0-1.2","subject_id":"5c6400cbcb937d00012d8866","study_id":"6197b3f67c2b5cd3b6d9596a","session_id":"619bf508bad81787a9d9c03f","condition":"full-information","relevant_dimensions":["antennae","wings"],"bee_group":{"antennae":"A","wings":"1","pattern":"X","legs":"X"},"bonus":0.7800000000000006},{"rt":3828.60000000149,"stimulus":"bees-with-color/bee-A2DF.svg","response":1,"trial_type":"image-button-response","trial_index":13,"time_elapsed":788354,"internal_node_id":"0.0-4.0-0.3","subject_id":"5c6400cbcb937d00012d8866","study_id":"6197b3f67c2b5cd3b6d9596a","session_id":"619bf508bad81787a9d9c03f","condition":"full-information","relevant_dimensions":["antennae","wings"],"bee_group":{"antennae":"A","wings":"1","pattern":"X","legs":"X"},"action":"avoid","summary":"bad-avoid","bonus":0.7800000000000006},{"rt":6264,"stimulus":"\n                    <p><b>Action: <em>avoid</em></b></p>\n                    <p>This is the bee that you just saw.</p>\n                    <img src=\"bees-with-color/bee-A2DF.svg\" width=\"200\">\n                    <p><span class=\"redText\">Bad choice,</span> the bee was friendly.<br>Your bonus pay is unchanged, and remains at $0.46.</p>\n            ","response":0,"trial_type":"html-button-response","trial_index":14,"time_elapsed":794620,"internal_node_id":"0.0-4.0-1.3","subject_id":"5c6400cbcb937d00012d8866","study_id":"6197b3f67c2b5cd3b6d9596a","session_id":"619bf508bad81787a9d9c03f","condition":"full-information","relevant_dimensions":["antennae","wings"],"bee_group":{"antennae":"A","wings":"1","pattern":"X","legs":"X"},"bonus":0.7800000000000006},{"rt":3826.7999999970198,"stimulus":"bees-with-color/bee-A2DM.svg","response":1,"trial_type":"image-button-response","trial_index":15,"time_elapsed":798450,"internal_node_id":"0.0-4.0-0.4","subject_id":"5c6400cbcb937d00012d8866","study_id":"6197b3f67c2b5cd3b6d9596a","session_id":"619bf508bad81787a9d9c03f","condition":"full-information","relevant_dimensions":["antennae","wings"],"bee_group":{"antennae":"A","wings":"1","pattern":"X","legs":"X"},"action":"avoid","summary":"bad-avoid","bonus":0.7800000000000006},{"rt":8954.5,"stimulus":"\n                    <p><b>Action: <em>avoid</em></b></p>\n                    <p>This is the bee that you just saw.</p>\n                    <img src=\"bees-with-color/bee-A2DM.svg\" width=\"200\">\n                    <p><span class=\"redText\">Bad choice,</span> the bee was friendly.<br>Your bonus pay is unchanged, and remains at $0.46.</p>\n            ","response":0,"trial_type":"html-button-response","trial_index":16,"time_elapsed":807409,"internal_node_id":"0.0-4.0-1.4","subject_id":"5c6400cbcb937d00012d8866","study_id":"6197b3f67c2b5cd3b6d9596a","session_id":"619bf508bad81787a9d9c03f","condition":"full-information","relevant_dimensions":["antennae","wings"],"bee_group":{"antennae":"A","wings":"1","pattern":"X","legs":"X"},"bonus":0.7800000000000006},{"rt":5351.400000002235,"stimulus":"bees-with-color/bee-B2SM.svg","response":1,"trial_type":"image-button-response","trial_index":17,"time_elapsed":812763,"internal_node_id":"0.0-4.0-0.5","subject_id":"5c6400cbcb937d00012d8866","study_id":"6197b3f67c2b5cd3b6d9596a","session_id":"619bf508bad81787a9d9c03f","condition":"full-information","relevant_dimensions":["antennae","wings"],"bee_group":{"antennae":"A","wings":"1","pattern":"X","legs":"X"},"action":"avoid","summary":"bad-avoid","bonus":0.7800000000000006},{"rt":8157.60000000149,"stimulus":"\n                    <p><b>Action: <em>avoid</em></b></p>\n                    <p>This is the bee that you just saw.</p>\n                    <img src=\"bees-with-color/bee-B2SM.svg\" width=\"200\">\n                    <p><span class=\"redText\">Bad choice,</span> the bee was friendly.<br>Your bonus pay is unchanged, and remains at $0.46.</p>\n            ","response":0,"trial_type":"html-button-response","trial_index":18,"time_elapsed":820923,"internal_node_id":"0.0-4.0-1.5","subject_id":"5c6400cbcb937d00012d8866","study_id":"6197b3f67c2b5cd3b6d9596a","session_id":"619bf508bad81787a9d9c03f","condition":"full-information","relevant_dimensions":["antennae","wings"],"bee_group":{"antennae":"A","wings":"1","pattern":"X","legs":"X"},"bonus":0.7800000000000006},{"rt":3287.900000002235,"stimulus":"bees-with-color/bee-B1DM.svg","response":1,"trial_type":"image-button-response","trial_index":19,"time_elapsed":824214,"internal_node_id":"0.0-4.0-0.6","subject_id":"5c6400cbcb937d00012d8866","study_id":"6197b3f67c2b5cd3b6d9596a","session_id":"619bf508bad81787a9d9c03f","condition":"full-information","relevant_dimensions":["antennae","wings"],"bee_group":{"antennae":"A","wings":"1","pattern":"X","legs":"X"},"action":"avoid","summary":"bad-avoid","bonus":0.7800000000000006},{"rt":1570,"stimulus":"\n                    <p><b>Action: <em>avoid</em></b></p>\n                    <p>This is the bee that you just saw.</p>\n                    <img src=\"bees-with-color/bee-B1DM.svg\" width=\"200\">\n                    <p><span class=\"redText\">Bad choice,</span> the bee was friendly.<br>Your bonus pay is unchanged, and remains at $0.46.</p>\n            ","response":0,"trial_type":"html-button-response","trial_index":20,"time_elapsed":825787,"internal_node_id":"0.0-4.0-1.6","subject_id":"5c6400cbcb937d00012d8866","study_id":"6197b3f67c2b5cd3b6d9596a","session_id":"619bf508bad81787a9d9c03f","condition":"full-information","relevant_dimensions":["antennae","wings"],"bee_group":{"antennae":"A","wings":"1","pattern":"X","legs":"X"},"bonus":0.7800000000000006},{"rt":2692,"stimulus":"bees-with-color/bee-A1DM.svg","response":0,"trial_type":"image-button-response","trial_index":21,"time_elapsed":828482,"internal_node_id":"0.0-4.0-0.7","subject_id":"5c6400cbcb937d00012d8866","study_id":"6197b3f67c2b5cd3b6d9596a","session_id":"619bf508bad81787a9d9c03f","condition":"full-information","relevant_dimensions":["antennae","wings"],"bee_group":{"antennae":"A","wings":"1","pattern":"X","legs":"X"},"action":"harvest","summary":"bad-harvest","bonus":0.7800000000000006},{"rt":3592.5,"stimulus":"\n                    <p><b>Action: <em>harvest</em></b></p>\n                    <p>This is the bee that you just saw.</p>\n                    <img src=\"bees-with-color/bee-A1DM.svg\" width=\"200\">\n                    <p><span class=\"redText\">Bad choice, the bee was angry.</span><br><b>You have been stung!</b><br>Your pay has been decreased by $0.10. Your bonus pay is now $0.36.</p>\n            ","response":0,"trial_type":"html-button-response","trial_index":22,"time_elapsed":832077,"internal_node_id":"0.0-4.0-1.7","subject_id":"5c6400cbcb937d00012d8866","study_id":"6197b3f67c2b5cd3b6d9596a","session_id":"619bf508bad81787a9d9c03f","condition":"full-information","relevant_dimensions":["antennae","wings"],"bee_group":{"antennae":"A","wings":"1","pattern":"X","legs":"X"},"bonus":0.7800000000000006},{"rt":2752.400000002235,"stimulus":"bees-with-color/bee-B2DF.svg","response":0,"trial_type":"image-button-response","trial_index":23,"time_elapsed":834833,"internal_node_id":"0.0-4.0-0.8","subject_id":"5c6400cbcb937d00012d8866","study_id":"6197b3f67c2b5cd3b6d9596a","session_id":"619bf508bad81787a9d9c03f","condition":"full-information","relevant_dimensions":["antennae","wings"],"bee_group":{"antennae":"A","wings":"1","pattern":"X","legs":"X"},"action":"harvest","summary":"good-harvest","bonus":0.7800000000000006},{"rt":19849.099999997765,"stimulus":"\n                    <p><b>Action: <em>harvest</em></b></p>\n                    <p>This is the bee that you just saw.</p>\n                    <img src=\"bees-with-color/bee-B2DF.svg\" width=\"200\">\n                    <p><span class=\"greenText\"><b>Successful harvest!</b></span><br>Your pay has increased by $0.02. Your bonus pay is now $0.38.</p>\n            ","response":0,"trial_type":"html-button-response","trial_index":24,"time_elapsed":854684,"internal_node_id":"0.0-4.0-1.8","subject_id":"5c6400cbcb937d00012d8866","study_id":"6197b3f67c2b5cd3b6d9596a","session_id":"619bf508bad81787a9d9c03f","condition":"full-information","relevant_dimensions":["antennae","wings"],"bee_group":{"antennae":"A","wings":"1","pattern":"X","legs":"X"},"bonus":0.7800000000000006},{"rt":5873.099999997765,"stimulus":"bees-with-color/bee-A1SF.svg","response":1,"trial_type":"image-button-response","trial_index":25,"time_elapsed":860561,"internal_node_id":"0.0-4.0-0.9","subject_id":"5c6400cbcb937d00012d8866","study_id":"6197b3f67c2b5cd3b6d9596a","session_id":"619bf508bad81787a9d9c03f","condition":"full-information","relevant_dimensions":["antennae","wings"],"bee_group":{"antennae":"A","wings":"1","pattern":"X","legs":"X"},"action":"avoid","summary":"good-avoid","bonus":0.7800000000000006},{"rt":20197.400000002235,"stimulus":"\n                    <p><b>Action: <em>avoid</em></b></p>\n                    <p>This is the bee that you just saw.</p>\n                    <img src=\"bees-with-color/bee-A1SF.svg\" width=\"200\">\n                    <p><span class=\"greenText\">Good choice!</span>  This bee would have stung you.<br>Your bonus pay is unchanged, and remains at $0.38.</p>\n            ","response":0,"trial_type":"html-button-response","trial_index":26,"time_elapsed":880763,"internal_node_id":"0.0-4.0-1.9","subject_id":"5c6400cbcb937d00012d8866","study_id":"6197b3f67c2b5cd3b6d9596a","session_id":"619bf508bad81787a9d9c03f","condition":"full-information","relevant_dimensions":["antennae","wings"],"bee_group":{"antennae":"A","wings":"1","pattern":"X","legs":"X"},"bonus":0.7800000000000006},{"rt":1958.800000000745,"stimulus":"bees-with-color/bee-B1SF.svg","response":1,"trial_type":"image-button-response","trial_index":27,"time_elapsed":882726,"internal_node_id":"0.0-4.0-0.10","subject_id":"5c6400cbcb937d00012d8866","study_id":"6197b3f67c2b5cd3b6d9596a","session_id":"619bf508bad81787a9d9c03f","condition":"full-information","relevant_dimensions":["antennae","wings"],"bee_group":{"antennae":"A","wings":"1","pattern":"X","legs":"X"},"action":"avoid","summary":"bad-avoid","bonus":0.7800000000000006},{"rt":3238.60000000149,"stimulus":"\n                    <p><b>Action: <em>avoid</em></b></p>\n                    <p>This is the bee that you just saw.</p>\n                    <img src=\"bees-with-color/bee-B1SF.svg\" width=\"200\">\n                    <p><span class=\"redText\">Bad choice,</span> the bee was friendly.<br>Your bonus pay is unchanged, and remains at $0.38.</p>\n            ","response":0,"trial_type":"html-button-response","trial_index":28,"time_elapsed":885967,"internal_node_id":"0.0-4.0-1.10","subject_id":"5c6400cbcb937d00012d8866","study_id":"6197b3f67c2b5cd3b6d9596a","session_id":"619bf508bad81787a9d9c03f","condition":"full-information","relevant_dimensions":["antennae","wings"],"bee_group":{"antennae":"A","wings":"1","pattern":"X","legs":"X"},"bonus":0.7800000000000006},{"rt":2461.39999999851,"stimulus":"bees-with-color/bee-A2SF.svg","response":0,"trial_type":"image-button-response","trial_index":29,"time_elapsed":888432,"internal_node_id":"0.0-4.0-0.11","subject_id":"5c6400cbcb937d00012d8866","study_id":"6197b3f67c2b5cd3b6d9596a","session_id":"619bf508bad81787a9d9c03f","condition":"full-information","relevant_dimensions":["antennae","wings"],"bee_group":{"antennae":"A","wings":"1","pattern":"X","legs":"X"},"action":"harvest","summary":"good-harvest","bonus":0.7800000000000006},{"rt":2179.10000000149,"stimulus":"\n                    <p><b>Action: <em>harvest</em></b></p>\n                    <p>This is the bee that you just saw.</p>\n                    <img src=\"bees-with-color/bee-A2SF.svg\" width=\"200\">\n                    <p><span class=\"greenText\"><b>Successful harvest!</b></span><br>Your pay has increased by $0.02. Your bonus pay is now $0.40.</p>\n            ","response":0,"trial_type":"html-button-response","trial_index":30,"time_elapsed":890613,"internal_node_id":"0.0-4.0-1.11","subject_id":"5c6400cbcb937d00012d8866","study_id":"6197b3f67c2b5cd3b6d9596a","session_id":"619bf508bad81787a9d9c03f","condition":"full-information","relevant_dimensions":["antennae","wings"],"bee_group":{"antennae":"A","wings":"1","pattern":"X","legs":"X"},"bonus":0.7800000000000006},{"rt":1828.199999999255,"stimulus":"bees-with-color/bee-B1SM.svg","response":1,"trial_type":"image-button-response","trial_index":31,"time_elapsed":892445,"internal_node_id":"0.0-4.0-0.12","subject_id":"5c6400cbcb937d00012d8866","study_id":"6197b3f67c2b5cd3b6d9596a","session_id":"619bf508bad81787a9d9c03f","condition":"full-information","relevant_dimensions":["antennae","wings"],"bee_group":{"antennae":"A","wings":"1","pattern":"X","legs":"X"},"action":"avoid","summary":"bad-avoid","bonus":0.7800000000000006},{"rt":2570.900000002235,"stimulus":"\n                    <p><b>Action: <em>avoid</em></b></p>\n                    <p>This is the bee that you just saw.</p>\n                    <img src=\"bees-with-color/bee-B1SM.svg\" width=\"200\">\n                    <p><span class=\"redText\">Bad choice,</span> the bee was friendly.<br>Your bonus pay is unchanged, and remains at $0.40.</p>\n            ","response":0,"trial_type":"html-button-response","trial_index":32,"time_elapsed":895018,"internal_node_id":"0.0-4.0-1.12","subject_id":"5c6400cbcb937d00012d8866","study_id":"6197b3f67c2b5cd3b6d9596a","session_id":"619bf508bad81787a9d9c03f","condition":"full-information","relevant_dimensions":["antennae","wings"],"bee_group":{"antennae":"A","wings":"1","pattern":"X","legs":"X"},"bonus":0.7800000000000006},{"rt":9853.29999999702,"stimulus":"bees-with-color/bee-B1DF.svg","response":0,"trial_type":"image-button-response","trial_index":33,"time_elapsed":904875,"internal_node_id":"0.0-4.0-0.13","subject_id":"5c6400cbcb937d00012d8866","study_id":"6197b3f67c2b5cd3b6d9596a","session_id":"619bf508bad81787a9d9c03f","condition":"full-information","relevant_dimensions":["antennae","wings"],"bee_group":{"antennae":"A","wings":"1","pattern":"X","legs":"X"},"action":"harvest","summary":"good-harvest","bonus":0.7800000000000006},{"rt":1680.699999999255,"stimulus":"\n                    <p><b>Action: <em>harvest</em></b></p>\n                    <p>This is the bee that you just saw.</p>\n                    <img src=\"bees-with-color/bee-B1DF.svg\" width=\"200\">\n                    <p><span class=\"greenText\"><b>Successful harvest!</b></span><br>Your pay has increased by $0.02. Your bonus pay is now $0.42.</p>\n            ","response":0,"trial_type":"html-button-response","trial_index":34,"time_elapsed":906559,"internal_node_id":"0.0-4.0-1.13","subject_id":"5c6400cbcb937d00012d8866","study_id":"6197b3f67c2b5cd3b6d9596a","session_id":"619bf508bad81787a9d9c03f","condition":"full-information","relevant_dimensions":["antennae","wings"],"bee_group":{"antennae":"A","wings":"1","pattern":"X","legs":"X"},"bonus":0.7800000000000006},{"rt":3619.400000002235,"stimulus":"bees-with-color/bee-A1DF.svg","response":0,"trial_type":"image-button-response","trial_index":35,"time_elapsed":910182,"internal_node_id":"0.0-4.0-0.14","subject_id":"5c6400cbcb937d00012d8866","study_id":"6197b3f67c2b5cd3b6d9596a","session_id":"619bf508bad81787a9d9c03f","condition":"full-information","relevant_dimensions":["antennae","wings"],"bee_group":{"antennae":"A","wings":"1","pattern":"X","legs":"X"},"action":"harvest","summary":"bad-harvest","bonus":0.7800000000000006},{"rt":2315.699999999255,"stimulus":"\n                    <p><b>Action: <em>harvest</em></b></p>\n                    <p>This is the bee that you just saw.</p>\n                    <img src=\"bees-with-color/bee-A1DF.svg\" width=\"200\">\n                    <p><span class=\"redText\">Bad choice, the bee was angry.</span><br><b>You have been stung!</b><br>Your pay has been decreased by $0.10. Your bonus pay is now $0.32.</p>\n            ","response":0,"trial_type":"html-button-response","trial_index":36,"time_elapsed":912500,"internal_node_id":"0.0-4.0-1.14","subject_id":"5c6400cbcb937d00012d8866","study_id":"6197b3f67c2b5cd3b6d9596a","session_id":"619bf508bad81787a9d9c03f","condition":"full-information","relevant_dimensions":["antennae","wings"],"bee_group":{"antennae":"A","wings":"1","pattern":"X","legs":"X"},"bonus":0.7800000000000006},{"rt":3726.699999999255,"stimulus":"bees-with-color/bee-A2SM.svg","response":0,"trial_type":"image-button-response","trial_index":37,"time_elapsed":916230,"internal_node_id":"0.0-4.0-0.15","subject_id":"5c6400cbcb937d00012d8866","study_id":"6197b3f67c2b5cd3b6d9596a","session_id":"619bf508bad81787a9d9c03f","condition":"full-information","relevant_dimensions":["antennae","wings"],"bee_group":{"antennae":"A","wings":"1","pattern":"X","legs":"X"},"action":"harvest","summary":"good-harvest","bonus":0.7800000000000006},{"rt":6780.800000000745,"stimulus":"\n                    <p><b>Action: <em>harvest</em></b></p>\n                    <p>This is the bee that you just saw.</p>\n                    <img src=\"bees-with-color/bee-A2SM.svg\" width=\"200\">\n                    <p><span class=\"greenText\"><b>Successful harvest!</b></span><br>Your pay has increased by $0.02. Your bonus pay is now $0.34.</p>\n            ","response":0,"trial_type":"html-button-response","trial_index":38,"time_elapsed":923014,"internal_node_id":"0.0-4.0-1.15","subject_id":"5c6400cbcb937d00012d8866","study_id":"6197b3f67c2b5cd3b6d9596a","session_id":"619bf508bad81787a9d9c03f","condition":"full-information","relevant_dimensions":["antennae","wings"],"bee_group":{"antennae":"A","wings":"1","pattern":"X","legs":"X"},"bonus":0.7800000000000006},{"rt":2800.699999999255,"stimulus":"bees-with-color/bee-A2SF.svg","response":1,"trial_type":"image-button-response","trial_index":39,"time_elapsed":925818,"internal_node_id":"0.0-4.0-0.16","subject_id":"5c6400cbcb937d00012d8866","study_id":"6197b3f67c2b5cd3b6d9596a","session_id":"619bf508bad81787a9d9c03f","condition":"full-information","relevant_dimensions":["antennae","wings"],"bee_group":{"antennae":"A","wings":"1","pattern":"X","legs":"X"},"action":"avoid","summary":"bad-avoid","bonus":0.7800000000000006},{"rt":3023.300000000745,"stimulus":"\n                    <p><b>Action: <em>avoid</em></b></p>\n                    <p>This is the bee that you just saw.</p>\n                    <img src=\"bees-with-color/bee-A2SF.svg\" width=\"200\">\n                    <p><span class=\"redText\">Bad choice,</span> the bee was friendly.<br>Your bonus pay is unchanged, and remains at $0.34.</p>\n            ","response":0,"trial_type":"html-button-response","trial_index":40,"time_elapsed":928844,"internal_node_id":"0.0-4.0-1.16","subject_id":"5c6400cbcb937d00012d8866","study_id":"6197b3f67c2b5cd3b6d9596a","session_id":"619bf508bad81787a9d9c03f","condition":"full-information","relevant_dimensions":["antennae","wings"],"bee_group":{"antennae":"A","wings":"1","pattern":"X","legs":"X"},"bonus":0.7800000000000006},{"rt":4215.60000000149,"stimulus":"bees-with-color/bee-A1DM.svg","response":1,"trial_type":"image-button-response","trial_index":41,"time_elapsed":933062,"internal_node_id":"0.0-4.0-0.17","subject_id":"5c6400cbcb937d00012d8866","study_id":"6197b3f67c2b5cd3b6d9596a","session_id":"619bf508bad81787a9d9c03f","condition":"full-information","relevant_dimensions":["antennae","wings"],"bee_group":{"antennae":"A","wings":"1","pattern":"X","legs":"X"},"action":"avoid","summary":"good-avoid","bonus":0.7800000000000006},{"rt":2046.9000000022352,"stimulus":"\n                    <p><b>Action: <em>avoid</em></b></p>\n                    <p>This is the bee that you just saw.</p>\n                    <img src=\"bees-with-color/bee-A1DM.svg\" width=\"200\">\n                    <p><span class=\"greenText\">Good choice!</span>  This bee would have stung you.<br>Your bonus pay is unchanged, and remains at $0.34.</p>\n            ","response":0,"trial_type":"html-button-response","trial_index":42,"time_elapsed":935111,"internal_node_id":"0.0-4.0-1.17","subject_id":"5c6400cbcb937d00012d8866","study_id":"6197b3f67c2b5cd3b6d9596a","session_id":"619bf508bad81787a9d9c03f","condition":"full-information","relevant_dimensions":["antennae","wings"],"bee_group":{"antennae":"A","wings":"1","pattern":"X","legs":"X"},"bonus":0.7800000000000006},{"rt":1973.5999999977648,"stimulus":"bees-with-color/bee-B2SM.svg","response":1,"trial_type":"image-button-response","trial_index":43,"time_elapsed":937087,"internal_node_id":"0.0-4.0-0.18","subject_id":"5c6400cbcb937d00012d8866","study_id":"6197b3f67c2b5cd3b6d9596a","session_id":"619bf508bad81787a9d9c03f","condition":"full-information","relevant_dimensions":["antennae","wings"],"bee_group":{"antennae":"A","wings":"1","pattern":"X","legs":"X"},"action":"avoid","summary":"bad-avoid","bonus":0.7800000000000006},{"rt":1717.199999999255,"stimulus":"\n                    <p><b>Action: <em>avoid</em></b></p>\n                    <p>This is the bee that you just saw.</p>\n                    <img src=\"bees-with-color/bee-B2SM.svg\" width=\"200\">\n                    <p><span class=\"redText\">Bad choice,</span> the bee was friendly.<br>Your bonus pay is unchanged, and remains at $0.34.</p>\n            ","response":0,"trial_type":"html-button-response","trial_index":44,"time_elapsed":938808,"internal_node_id":"0.0-4.0-1.18","subject_id":"5c6400cbcb937d00012d8866","study_id":"6197b3f67c2b5cd3b6d9596a","session_id":"619bf508bad81787a9d9c03f","condition":"full-information","relevant_dimensions":["antennae","wings"],"bee_group":{"antennae":"A","wings":"1","pattern":"X","legs":"X"},"bonus":0.7800000000000006},{"rt":9270,"stimulus":"bees-with-color/bee-A2DM.svg","response":1,"trial_type":"image-button-response","trial_index":45,"time_elapsed":948080,"internal_node_id":"0.0-4.0-0.19","subject_id":"5c6400cbcb937d00012d8866","study_id":"6197b3f67c2b5cd3b6d9596a","session_id":"619bf508bad81787a9d9c03f","condition":"full-information","relevant_dimensions":["antennae","wings"],"bee_group":{"antennae":"A","wings":"1","pattern":"X","legs":"X"},"action":"avoid","summary":"bad-avoid","bonus":0.7800000000000006},{"rt":1094.5999999977648,"stimulus":"\n                    <p><b>Action: <em>avoid</em></b></p>\n                    <p>This is the bee that you just saw.</p>\n                    <img src=\"bees-with-color/bee-A2DM.svg\" width=\"200\">\n                    <p><span class=\"redText\">Bad choice,</span> the bee was friendly.<br>Your bonus pay is unchanged, and remains at $0.34.</p>\n            ","response":0,"trial_type":"html-button-response","trial_index":46,"time_elapsed":949177,"internal_node_id":"0.0-4.0-1.19","subject_id":"5c6400cbcb937d00012d8866","study_id":"6197b3f67c2b5cd3b6d9596a","session_id":"619bf508bad81787a9d9c03f","condition":"full-information","relevant_dimensions":["antennae","wings"],"bee_group":{"antennae":"A","wings":"1","pattern":"X","legs":"X"},"bonus":0.7800000000000006},{"rt":8223.60000000149,"stimulus":"bees-with-color/bee-B2SF.svg","response":0,"trial_type":"image-button-response","trial_index":47,"time_elapsed":957403,"internal_node_id":"0.0-4.0-0.20","subject_id":"5c6400cbcb937d00012d8866","study_id":"6197b3f67c2b5cd3b6d9596a","session_id":"619bf508bad81787a9d9c03f","condition":"full-information","relevant_dimensions":["antennae","wings"],"bee_group":{"antennae":"A","wings":"1","pattern":"X","legs":"X"},"action":"harvest","summary":"good-harvest","bonus":0.7800000000000006},{"rt":2731,"stimulus":"\n                    <p><b>Action: <em>harvest</em></b></p>\n                    <p>This is the bee that you just saw.</p>\n                    <img src=\"bees-with-color/bee-B2SF.svg\" width=\"200\">\n                    <p><span class=\"greenText\"><b>Successful harvest!</b></span><br>Your pay has increased by $0.02. Your bonus pay is now $0.36.</p>\n            ","response":0,"trial_type":"html-button-response","trial_index":48,"time_elapsed":960137,"internal_node_id":"0.0-4.0-1.20","subject_id":"5c6400cbcb937d00012d8866","study_id":"6197b3f67c2b5cd3b6d9596a","session_id":"619bf508bad81787a9d9c03f","condition":"full-information","relevant_dimensions":["antennae","wings"],"bee_group":{"antennae":"A","wings":"1","pattern":"X","legs":"X"},"bonus":0.7800000000000006},{"rt":1706.199999999255,"stimulus":"bees-with-color/bee-B1DM.svg","response":1,"trial_type":"image-button-response","trial_index":49,"time_elapsed":961845,"internal_node_id":"0.0-4.0-0.21","subject_id":"5c6400cbcb937d00012d8866","study_id":"6197b3f67c2b5cd3b6d9596a","session_id":"619bf508bad81787a9d9c03f","condition":"full-information","relevant_dimensions":["antennae","wings"],"bee_group":{"antennae":"A","wings":"1","pattern":"X","legs":"X"},"action":"avoid","summary":"bad-avoid","bonus":0.7800000000000006},{"rt":1082.6000000014901,"stimulus":"\n                    <p><b>Action: <em>avoid</em></b></p>\n                    <p>This is the bee that you just saw.</p>\n                    <img src=\"bees-with-color/bee-B1DM.svg\" width=\"200\">\n                    <p><span class=\"redText\">Bad choice,</span> the bee was friendly.<br>Your bonus pay is unchanged, and remains at $0.36.</p>\n            ","response":0,"trial_type":"html-button-response","trial_index":50,"time_elapsed":962930,"internal_node_id":"0.0-4.0-1.21","subject_id":"5c6400cbcb937d00012d8866","study_id":"6197b3f67c2b5cd3b6d9596a","session_id":"619bf508bad81787a9d9c03f","condition":"full-information","relevant_dimensions":["antennae","wings"],"bee_group":{"antennae":"A","wings":"1","pattern":"X","legs":"X"},"bonus":0.7800000000000006},{"rt":6871,"stimulus":"bees-with-color/bee-A1SM.svg","response":1,"trial_type":"image-button-response","trial_index":51,"time_elapsed":969803,"internal_node_id":"0.0-4.0-0.22","subject_id":"5c6400cbcb937d00012d8866","study_id":"6197b3f67c2b5cd3b6d9596a","session_id":"619bf508bad81787a9d9c03f","condition":"full-information","relevant_dimensions":["antennae","wings"],"bee_group":{"antennae":"A","wings":"1","pattern":"X","legs":"X"},"action":"avoid","summary":"good-avoid","bonus":0.7800000000000006},{"rt":2789.199999999255,"stimulus":"\n                    <p><b>Action: <em>avoid</em></b></p>\n                    <p>This is the bee that you just saw.</p>\n                    <img src=\"bees-with-color/bee-A1SM.svg\" width=\"200\">\n                    <p><span class=\"greenText\">Good choice!</span>  This bee would have stung you.<br>Your bonus pay is unchanged, and remains at $0.36.</p>\n            ","response":0,"trial_type":"html-button-response","trial_index":52,"time_elapsed":972595,"internal_node_id":"0.0-4.0-1.22","subject_id":"5c6400cbcb937d00012d8866","study_id":"6197b3f67c2b5cd3b6d9596a","session_id":"619bf508bad81787a9d9c03f","condition":"full-information","relevant_dimensions":["antennae","wings"],"bee_group":{"antennae":"A","wings":"1","pattern":"X","legs":"X"},"bonus":0.7800000000000006},{"rt":2166.900000002235,"stimulus":"bees-with-color/bee-A2SM.svg","response":0,"trial_type":"image-button-response","trial_index":53,"time_elapsed":974764,"internal_node_id":"0.0-4.0-0.23","subject_id":"5c6400cbcb937d00012d8866","study_id":"6197b3f67c2b5cd3b6d9596a","session_id":"619bf508bad81787a9d9c03f","condition":"full-information","relevant_dimensions":["antennae","wings"],"bee_group":{"antennae":"A","wings":"1","pattern":"X","legs":"X"},"action":"harvest","summary":"good-harvest","bonus":0.7800000000000006},{"rt":1485,"stimulus":"\n                    <p><b>Action: <em>harvest</em></b></p>\n                    <p>This is the bee that you just saw.</p>\n                    <img src=\"bees-with-color/bee-A2SM.svg\" width=\"200\">\n                    <p><span class=\"greenText\"><b>Successful harvest!</b></span><br>Your pay has increased by $0.02. Your bonus pay is now $0.38.</p>\n            ","response":0,"trial_type":"html-button-response","trial_index":54,"time_elapsed":976252,"internal_node_id":"0.0-4.0-1.23","subject_id":"5c6400cbcb937d00012d8866","study_id":"6197b3f67c2b5cd3b6d9596a","session_id":"619bf508bad81787a9d9c03f","condition":"full-information","relevant_dimensions":["antennae","wings"],"bee_group":{"antennae":"A","wings":"1","pattern":"X","legs":"X"},"bonus":0.7800000000000006},{"rt":3046.699999999255,"stimulus":"bees-with-color/bee-A1DF.svg","response":1,"trial_type":"image-button-response","trial_index":55,"time_elapsed":979300,"internal_node_id":"0.0-4.0-0.24","subject_id":"5c6400cbcb937d00012d8866","study_id":"6197b3f67c2b5cd3b6d9596a","session_id":"619bf508bad81787a9d9c03f","condition":"full-information","relevant_dimensions":["antennae","wings"],"bee_group":{"antennae":"A","wings":"1","pattern":"X","legs":"X"},"action":"avoid","summary":"good-avoid","bonus":0.7800000000000006},{"rt":1363,"stimulus":"\n                    <p><b>Action: <em>avoid</em></b></p>\n                    <p>This is the bee that you just saw.</p>\n                    <img src=\"bees-with-color/bee-A1DF.svg\" width=\"200\">\n                    <p><span class=\"greenText\">Good choice!</span>  This bee would have stung you.<br>Your bonus pay is unchanged, and remains at $0.38.</p>\n            ","response":0,"trial_type":"html-button-response","trial_index":56,"time_elapsed":980666,"internal_node_id":"0.0-4.0-1.24","subject_id":"5c6400cbcb937d00012d8866","study_id":"6197b3f67c2b5cd3b6d9596a","session_id":"619bf508bad81787a9d9c03f","condition":"full-information","relevant_dimensions":["antennae","wings"],"bee_group":{"antennae":"A","wings":"1","pattern":"X","legs":"X"},"bonus":0.7800000000000006},{"rt":1984.8999999985099,"stimulus":"bees-with-color/bee-B1SF.svg","response":1,"trial_type":"image-button-response","trial_index":57,"time_elapsed":982654,"internal_node_id":"0.0-4.0-0.25","subject_id":"5c6400cbcb937d00012d8866","study_id":"6197b3f67c2b5cd3b6d9596a","session_id":"619bf508bad81787a9d9c03f","condition":"full-information","relevant_dimensions":["antennae","wings"],"bee_group":{"antennae":"A","wings":"1","pattern":"X","legs":"X"},"action":"avoid","summary":"bad-avoid","bonus":0.7800000000000006},{"rt":1180.300000000745,"stimulus":"\n                    <p><b>Action: <em>avoid</em></b></p>\n                    <p>This is the bee that you just saw.</p>\n                    <img src=\"bees-with-color/bee-B1SF.svg\" width=\"200\">\n                    <p><span class=\"redText\">Bad choice,</span> the bee was friendly.<br>Your bonus pay is unchanged, and remains at $0.38.</p>\n            ","response":0,"trial_type":"html-button-response","trial_index":58,"time_elapsed":983836,"internal_node_id":"0.0-4.0-1.25","subject_id":"5c6400cbcb937d00012d8866","study_id":"6197b3f67c2b5cd3b6d9596a","session_id":"619bf508bad81787a9d9c03f","condition":"full-information","relevant_dimensions":["antennae","wings"],"bee_group":{"antennae":"A","wings":"1","pattern":"X","legs":"X"},"bonus":0.7800000000000006},{"rt":2168.5,"stimulus":"bees-with-color/bee-B1DF.svg","response":1,"trial_type":"image-button-response","trial_index":59,"time_elapsed":986007,"internal_node_id":"0.0-4.0-0.26","subject_id":"5c6400cbcb937d00012d8866","study_id":"6197b3f67c2b5cd3b6d9596a","session_id":"619bf508bad81787a9d9c03f","condition":"full-information","relevant_dimensions":["antennae","wings"],"bee_group":{"antennae":"A","wings":"1","pattern":"X","legs":"X"},"action":"avoid","summary":"bad-avoid","bonus":0.7800000000000006},{"rt":1655.5999999977648,"stimulus":"\n                    <p><b>Action: <em>avoid</em></b></p>\n                    <p>This is the bee that you just saw.</p>\n                    <img src=\"bees-with-color/bee-B1DF.svg\" width=\"200\">\n                    <p><span class=\"redText\">Bad choice,</span> the bee was friendly.<br>Your bonus pay is unchanged, and remains at $0.38.</p>\n            ","response":0,"trial_type":"html-button-response","trial_index":60,"time_elapsed":987665,"internal_node_id":"0.0-4.0-1.26","subject_id":"5c6400cbcb937d00012d8866","study_id":"6197b3f67c2b5cd3b6d9596a","session_id":"619bf508bad81787a9d9c03f","condition":"full-information","relevant_dimensions":["antennae","wings"],"bee_group":{"antennae":"A","wings":"1","pattern":"X","legs":"X"},"bonus":0.7800000000000006},{"rt":1791.1000000014901,"stimulus":"bees-with-color/bee-B1SM.svg","response":1,"trial_type":"image-button-response","trial_index":61,"time_elapsed":989459,"internal_node_id":"0.0-4.0-0.27","subject_id":"5c6400cbcb937d00012d8866","study_id":"6197b3f67c2b5cd3b6d9596a","session_id":"619bf508bad81787a9d9c03f","condition":"full-information","relevant_dimensions":["antennae","wings"],"bee_group":{"antennae":"A","wings":"1","pattern":"X","legs":"X"},"action":"avoid","summary":"bad-avoid","bonus":0.7800000000000006},{"rt":1071.5,"stimulus":"\n                    <p><b>Action: <em>avoid</em></b></p>\n                    <p>This is the bee that you just saw.</p>\n                    <img src=\"bees-with-color/bee-B1SM.svg\" width=\"200\">\n                    <p><span class=\"redText\">Bad choice,</span> the bee was friendly.<br>Your bonus pay is unchanged, and remains at $0.38.</p>\n            ","response":0,"trial_type":"html-button-response","trial_index":62,"time_elapsed":990533,"internal_node_id":"0.0-4.0-1.27","subject_id":"5c6400cbcb937d00012d8866","study_id":"6197b3f67c2b5cd3b6d9596a","session_id":"619bf508bad81787a9d9c03f","condition":"full-information","relevant_dimensions":["antennae","wings"],"bee_group":{"antennae":"A","wings":"1","pattern":"X","legs":"X"},"bonus":0.7800000000000006},{"rt":7685.39999999851,"stimulus":"bees-with-color/bee-B2DM.svg","response":0,"trial_type":"image-button-response","trial_index":63,"time_elapsed":998220,"internal_node_id":"0.0-4.0-0.28","subject_id":"5c6400cbcb937d00012d8866","study_id":"6197b3f67c2b5cd3b6d9596a","session_id":"619bf508bad81787a9d9c03f","condition":"full-information","relevant_dimensions":["antennae","wings"],"bee_group":{"antennae":"A","wings":"1","pattern":"X","legs":"X"},"action":"harvest","summary":"good-harvest","bonus":0.7800000000000006},{"rt":1253.2999999970198,"stimulus":"\n                    <p><b>Action: <em>harvest</em></b></p>\n                    <p>This is the bee that you just saw.</p>\n                    <img src=\"bees-with-color/bee-B2DM.svg\" width=\"200\">\n                    <p><span class=\"greenText\"><b>Successful harvest!</b></span><br>Your pay has increased by $0.02. Your bonus pay is now $0.40.</p>\n            ","response":0,"trial_type":"html-button-response","trial_index":64,"time_elapsed":999477,"internal_node_id":"0.0-4.0-1.28","subject_id":"5c6400cbcb937d00012d8866","study_id":"6197b3f67c2b5cd3b6d9596a","session_id":"619bf508bad81787a9d9c03f","condition":"full-information","relevant_dimensions":["antennae","wings"],"bee_group":{"antennae":"A","wings":"1","pattern":"X","legs":"X"},"bonus":0.7800000000000006},{"rt":7872.10000000149,"stimulus":"bees-with-color/bee-A2DF.svg","response":0,"trial_type":"image-button-response","trial_index":65,"time_elapsed":1007352,"internal_node_id":"0.0-4.0-0.29","subject_id":"5c6400cbcb937d00012d8866","study_id":"6197b3f67c2b5cd3b6d9596a","session_id":"619bf508bad81787a9d9c03f","condition":"full-information","relevant_dimensions":["antennae","wings"],"bee_group":{"antennae":"A","wings":"1","pattern":"X","legs":"X"},"action":"harvest","summary":"good-harvest","bonus":0.7800000000000006},{"rt":1192.1000000014901,"stimulus":"\n                    <p><b>Action: <em>harvest</em></b></p>\n                    <p>This is the bee that you just saw.</p>\n                    <img src=\"bees-with-color/bee-A2DF.svg\" width=\"200\">\n                    <p><span class=\"greenText\"><b>Successful harvest!</b></span><br>Your pay has increased by $0.02. Your bonus pay is now $0.42.</p>\n            ","response":0,"trial_type":"html-button-response","trial_index":66,"time_elapsed":1008547,"internal_node_id":"0.0-4.0-1.29","subject_id":"5c6400cbcb937d00012d8866","study_id":"6197b3f67c2b5cd3b6d9596a","session_id":"619bf508bad81787a9d9c03f","condition":"full-information","relevant_dimensions":["antennae","wings"],"bee_group":{"antennae":"A","wings":"1","pattern":"X","legs":"X"},"bonus":0.7800000000000006},{"rt":3720.39999999851,"stimulus":"bees-with-color/bee-B2DF.svg","response":1,"trial_type":"image-button-response","trial_index":67,"time_elapsed":1012271,"internal_node_id":"0.0-4.0-0.30","subject_id":"5c6400cbcb937d00012d8866","study_id":"6197b3f67c2b5cd3b6d9596a","session_id":"619bf508bad81787a9d9c03f","condition":"full-information","relevant_dimensions":["antennae","wings"],"bee_group":{"antennae":"A","wings":"1","pattern":"X","legs":"X"},"action":"avoid","summary":"bad-avoid","bonus":0.7800000000000006},{"rt":1009,"stimulus":"\n                    <p><b>Action: <em>avoid</em></b></p>\n                    <p>This is the bee that you just saw.</p>\n                    <img src=\"bees-with-color/bee-B2DF.svg\" width=\"200\">\n                    <p><span class=\"redText\">Bad choice,</span> the bee was friendly.<br>Your bonus pay is unchanged, and remains at $0.42.</p>\n            ","response":0,"trial_type":"html-button-response","trial_index":68,"time_elapsed":1013282,"internal_node_id":"0.0-4.0-1.30","subject_id":"5c6400cbcb937d00012d8866","study_id":"6197b3f67c2b5cd3b6d9596a","session_id":"619bf508bad81787a9d9c03f","condition":"full-information","relevant_dimensions":["antennae","wings"],"bee_group":{"antennae":"A","wings":"1","pattern":"X","legs":"X"},"bonus":0.7800000000000006},{"rt":1778,"stimulus":"bees-with-color/bee-A1SF.svg","response":1,"trial_type":"image-button-response","trial_index":69,"time_elapsed":1015064,"internal_node_id":"0.0-4.0-0.31","subject_id":"5c6400cbcb937d00012d8866","study_id":"6197b3f67c2b5cd3b6d9596a","session_id":"619bf508bad81787a9d9c03f","condition":"full-information","relevant_dimensions":["antennae","wings"],"bee_group":{"antennae":"A","wings":"1","pattern":"X","legs":"X"},"action":"avoid","summary":"good-avoid","bonus":0.7800000000000006},{"rt":1070.7999999970198,"stimulus":"\n                    <p><b>Action: <em>avoid</em></b></p>\n                    <p>This is the bee that you just saw.</p>\n                    <img src=\"bees-with-color/bee-A1SF.svg\" width=\"200\">\n                    <p><span class=\"greenText\">Good choice!</span>  This bee would have stung you.<br>Your bonus pay is unchanged, and remains at $0.42.</p>\n            ","response":0,"trial_type":"html-button-response","trial_index":70,"time_elapsed":1016137,"internal_node_id":"0.0-4.0-1.31","subject_id":"5c6400cbcb937d00012d8866","study_id":"6197b3f67c2b5cd3b6d9596a","session_id":"619bf508bad81787a9d9c03f","condition":"full-information","relevant_dimensions":["antennae","wings"],"bee_group":{"antennae":"A","wings":"1","pattern":"X","legs":"X"},"bonus":0.7800000000000006},{"rt":3181.89999999851,"stimulus":"bees-with-color/bee-B2SM.svg","response":1,"trial_type":"image-button-response","trial_index":71,"time_elapsed":1019321,"internal_node_id":"0.0-4.0-0.32","subject_id":"5c6400cbcb937d00012d8866","study_id":"6197b3f67c2b5cd3b6d9596a","session_id":"619bf508bad81787a9d9c03f","condition":"full-information","relevant_dimensions":["antennae","wings"],"bee_group":{"antennae":"A","wings":"1","pattern":"X","legs":"X"},"action":"avoid","summary":"bad-avoid","bonus":0.7800000000000006},{"rt":975.2999999970198,"stimulus":"\n                    <p><b>Action: <em>avoid</em></b></p>\n                    <p>This is the bee that you just saw.</p>\n                    <img src=\"bees-with-color/bee-B2SM.svg\" width=\"200\">\n                    <p><span class=\"redText\">Bad choice,</span> the bee was friendly.<br>Your bonus pay is unchanged, and remains at $0.42.</p>\n            ","response":0,"trial_type":"html-button-response","trial_index":72,"time_elapsed":1020299,"internal_node_id":"0.0-4.0-1.32","subject_id":"5c6400cbcb937d00012d8866","study_id":"6197b3f67c2b5cd3b6d9596a","session_id":"619bf508bad81787a9d9c03f","condition":"full-information","relevant_dimensions":["antennae","wings"],"bee_group":{"antennae":"A","wings":"1","pattern":"X","legs":"X"},"bonus":0.7800000000000006},{"rt":2045,"stimulus":"bees-with-color/bee-A1SM.svg","response":1,"trial_type":"image-button-response","trial_index":73,"time_elapsed":1022347,"internal_node_id":"0.0-4.0-0.33","subject_id":"5c6400cbcb937d00012d8866","study_id":"6197b3f67c2b5cd3b6d9596a","session_id":"619bf508bad81787a9d9c03f","condition":"full-information","relevant_dimensions":["antennae","wings"],"bee_group":{"antennae":"A","wings":"1","pattern":"X","legs":"X"},"action":"avoid","summary":"good-avoid","bonus":0.7800000000000006},{"rt":2739.5,"stimulus":"\n                    <p><b>Action: <em>avoid</em></b></p>\n                    <p>This is the bee that you just saw.</p>\n                    <img src=\"bees-with-color/bee-A1SM.svg\" width=\"200\">\n                    <p><span class=\"greenText\">Good choice!</span>  This bee would have stung you.<br>Your bonus pay is unchanged, and remains at $0.42.</p>\n            ","response":0,"trial_type":"html-button-response","trial_index":74,"time_elapsed":1025089,"internal_node_id":"0.0-4.0-1.33","subject_id":"5c6400cbcb937d00012d8866","study_id":"6197b3f67c2b5cd3b6d9596a","session_id":"619bf508bad81787a9d9c03f","condition":"full-information","relevant_dimensions":["antennae","wings"],"bee_group":{"antennae":"A","wings":"1","pattern":"X","legs":"X"},"bonus":0.7800000000000006},{"rt":2678.39999999851,"stimulus":"bees-with-color/bee-A2DM.svg","response":0,"trial_type":"image-button-response","trial_index":75,"time_elapsed":1027771,"internal_node_id":"0.0-4.0-0.34","subject_id":"5c6400cbcb937d00012d8866","study_id":"6197b3f67c2b5cd3b6d9596a","session_id":"619bf508bad81787a9d9c03f","condition":"full-information","relevant_dimensions":["antennae","wings"],"bee_group":{"antennae":"A","wings":"1","pattern":"X","legs":"X"},"action":"harvest","summary":"good-harvest","bonus":0.7800000000000006},{"rt":1254.7000000029802,"stimulus":"\n                    <p><b>Action: <em>harvest</em></b></p>\n                    <p>This is the bee that you just saw.</p>\n                    <img src=\"bees-with-color/bee-A2DM.svg\" width=\"200\">\n                    <p><span class=\"greenText\"><b>Successful harvest!</b></span><br>Your pay has increased by $0.02. Your bonus pay is now $0.44.</p>\n            ","response":0,"trial_type":"html-button-response","trial_index":76,"time_elapsed":1029028,"internal_node_id":"0.0-4.0-1.34","subject_id":"5c6400cbcb937d00012d8866","study_id":"6197b3f67c2b5cd3b6d9596a","session_id":"619bf508bad81787a9d9c03f","condition":"full-information","relevant_dimensions":["antennae","wings"],"bee_group":{"antennae":"A","wings":"1","pattern":"X","legs":"X"},"bonus":0.7800000000000006},{"rt":2668.699999999255,"stimulus":"bees-with-color/bee-A1DF.svg","response":1,"trial_type":"image-button-response","trial_index":77,"time_elapsed":1031700,"internal_node_id":"0.0-4.0-0.35","subject_id":"5c6400cbcb937d00012d8866","study_id":"6197b3f67c2b5cd3b6d9596a","session_id":"619bf508bad81787a9d9c03f","condition":"full-information","relevant_dimensions":["antennae","wings"],"bee_group":{"antennae":"A","wings":"1","pattern":"X","legs":"X"},"action":"avoid","summary":"good-avoid","bonus":0.7800000000000006},{"rt":1046,"stimulus":"\n                    <p><b>Action: <em>avoid</em></b></p>\n                    <p>This is the bee that you just saw.</p>\n                    <img src=\"bees-with-color/bee-A1DF.svg\" width=\"200\">\n                    <p><span class=\"greenText\">Good choice!</span>  This bee would have stung you.<br>Your bonus pay is unchanged, and remains at $0.44.</p>\n            ","response":0,"trial_type":"html-button-response","trial_index":78,"time_elapsed":1032749,"internal_node_id":"0.0-4.0-1.35","subject_id":"5c6400cbcb937d00012d8866","study_id":"6197b3f67c2b5cd3b6d9596a","session_id":"619bf508bad81787a9d9c03f","condition":"full-information","relevant_dimensions":["antennae","wings"],"bee_group":{"antennae":"A","wings":"1","pattern":"X","legs":"X"},"bonus":0.7800000000000006},{"rt":2205.7000000029802,"stimulus":"bees-with-color/bee-B1SF.svg","response":1,"trial_type":"image-button-response","trial_index":79,"time_elapsed":1034958,"internal_node_id":"0.0-4.0-0.36","subject_id":"5c6400cbcb937d00012d8866","study_id":"6197b3f67c2b5cd3b6d9596a","session_id":"619bf508bad81787a9d9c03f","condition":"full-information","relevant_dimensions":["antennae","wings"],"bee_group":{"antennae":"A","wings":"1","pattern":"X","legs":"X"},"action":"avoid","summary":"bad-avoid","bonus":0.7800000000000006},{"rt":974.1000000014901,"stimulus":"\n                    <p><b>Action: <em>avoid</em></b></p>\n                    <p>This is the bee that you just saw.</p>\n                    <img src=\"bees-with-color/bee-B1SF.svg\" width=\"200\">\n                    <p><span class=\"redText\">Bad choice,</span> the bee was friendly.<br>Your bonus pay is unchanged, and remains at $0.44.</p>\n            ","response":0,"trial_type":"html-button-response","trial_index":80,"time_elapsed":1035935,"internal_node_id":"0.0-4.0-1.36","subject_id":"5c6400cbcb937d00012d8866","study_id":"6197b3f67c2b5cd3b6d9596a","session_id":"619bf508bad81787a9d9c03f","condition":"full-information","relevant_dimensions":["antennae","wings"],"bee_group":{"antennae":"A","wings":"1","pattern":"X","legs":"X"},"bonus":0.7800000000000006},{"rt":1558.5999999977648,"stimulus":"bees-with-color/bee-A2SF.svg","response":0,"trial_type":"image-button-response","trial_index":81,"time_elapsed":1037496,"internal_node_id":"0.0-4.0-0.37","subject_id":"5c6400cbcb937d00012d8866","study_id":"6197b3f67c2b5cd3b6d9596a","session_id":"619bf508bad81787a9d9c03f","condition":"full-information","relevant_dimensions":["antennae","wings"],"bee_group":{"antennae":"A","wings":"1","pattern":"X","legs":"X"},"action":"harvest","summary":"good-harvest","bonus":0.7800000000000006},{"rt":1203.199999999255,"stimulus":"\n                    <p><b>Action: <em>harvest</em></b></p>\n                    <p>This is the bee that you just saw.</p>\n                    <img src=\"bees-with-color/bee-A2SF.svg\" width=\"200\">\n                    <p><span class=\"greenText\"><b>Successful harvest!</b></span><br>Your pay has increased by $0.02. Your bonus pay is now $0.46.</p>\n            ","response":0,"trial_type":"html-button-response","trial_index":82,"time_elapsed":1038702,"internal_node_id":"0.0-4.0-1.37","subject_id":"5c6400cbcb937d00012d8866","study_id":"6197b3f67c2b5cd3b6d9596a","session_id":"619bf508bad81787a9d9c03f","condition":"full-information","relevant_dimensions":["antennae","wings"],"bee_group":{"antennae":"A","wings":"1","pattern":"X","legs":"X"},"bonus":0.7800000000000006},{"rt":5571,"stimulus":"bees-with-color/bee-B1DF.svg","response":1,"trial_type":"image-button-response","trial_index":83,"time_elapsed":1044276,"internal_node_id":"0.0-4.0-0.38","subject_id":"5c6400cbcb937d00012d8866","study_id":"6197b3f67c2b5cd3b6d9596a","session_id":"619bf508bad81787a9d9c03f","condition":"full-information","relevant_dimensions":["antennae","wings"],"bee_group":{"antennae":"A","wings":"1","pattern":"X","legs":"X"},"action":"avoid","summary":"bad-avoid","bonus":0.7800000000000006},{"rt":912.2999999970198,"stimulus":"\n                    <p><b>Action: <em>avoid</em></b></p>\n                    <p>This is the bee that you just saw.</p>\n                    <img src=\"bees-with-color/bee-B1DF.svg\" width=\"200\">\n                    <p><span class=\"redText\">Bad choice,</span> the bee was friendly.<br>Your bonus pay is unchanged, and remains at $0.46.</p>\n            ","response":0,"trial_type":"html-button-response","trial_index":84,"time_elapsed":1045190,"internal_node_id":"0.0-4.0-1.38","subject_id":"5c6400cbcb937d00012d8866","study_id":"6197b3f67c2b5cd3b6d9596a","session_id":"619bf508bad81787a9d9c03f","condition":"full-information","relevant_dimensions":["antennae","wings"],"bee_group":{"antennae":"A","wings":"1","pattern":"X","legs":"X"},"bonus":0.7800000000000006},{"rt":2717.89999999851,"stimulus":"bees-with-color/bee-A2SM.svg","response":0,"trial_type":"image-button-response","trial_index":85,"time_elapsed":1047910,"internal_node_id":"0.0-4.0-0.39","subject_id":"5c6400cbcb937d00012d8866","study_id":"6197b3f67c2b5cd3b6d9596a","session_id":"619bf508bad81787a9d9c03f","condition":"full-information","relevant_dimensions":["antennae","wings"],"bee_group":{"antennae":"A","wings":"1","pattern":"X","legs":"X"},"action":"harvest","summary":"good-harvest","bonus":0.7800000000000006},{"rt":1144.699999999255,"stimulus":"\n                    <p><b>Action: <em>harvest</em></b></p>\n                    <p>This is the bee that you just saw.</p>\n                    <img src=\"bees-with-color/bee-A2SM.svg\" width=\"200\">\n                    <p><span class=\"greenText\"><b>Successful harvest!</b></span><br>Your pay has increased by $0.02. Your bonus pay is now $0.48.</p>\n            ","response":0,"trial_type":"html-button-response","trial_index":86,"time_elapsed":1049057,"internal_node_id":"0.0-4.0-1.39","subject_id":"5c6400cbcb937d00012d8866","study_id":"6197b3f67c2b5cd3b6d9596a","session_id":"619bf508bad81787a9d9c03f","condition":"full-information","relevant_dimensions":["antennae","wings"],"bee_group":{"antennae":"A","wings":"1","pattern":"X","legs":"X"},"bonus":0.7800000000000006},{"rt":3402.199999999255,"stimulus":"bees-with-color/bee-A1SF.svg","response":1,"trial_type":"image-button-response","trial_index":87,"time_elapsed":1052462,"internal_node_id":"0.0-4.0-0.40","subject_id":"5c6400cbcb937d00012d8866","study_id":"6197b3f67c2b5cd3b6d9596a","session_id":"619bf508bad81787a9d9c03f","condition":"full-information","relevant_dimensions":["antennae","wings"],"bee_group":{"antennae":"A","wings":"1","pattern":"X","legs":"X"},"action":"avoid","summary":"good-avoid","bonus":0.7800000000000006},{"rt":961.1000000014901,"stimulus":"\n                    <p><b>Action: <em>avoid</em></b></p>\n                    <p>This is the bee that you just saw.</p>\n                    <img src=\"bees-with-color/bee-A1SF.svg\" width=\"200\">\n                    <p><span class=\"greenText\">Good choice!</span>  This bee would have stung you.<br>Your bonus pay is unchanged, and remains at $0.48.</p>\n            ","response":0,"trial_type":"html-button-response","trial_index":88,"time_elapsed":1053425,"internal_node_id":"0.0-4.0-1.40","subject_id":"5c6400cbcb937d00012d8866","study_id":"6197b3f67c2b5cd3b6d9596a","session_id":"619bf508bad81787a9d9c03f","condition":"full-information","relevant_dimensions":["antennae","wings"],"bee_group":{"antennae":"A","wings":"1","pattern":"X","legs":"X"},"bonus":0.7800000000000006},{"rt":5242.599999997765,"stimulus":"bees-with-color/bee-A1DM.svg","response":1,"trial_type":"image-button-response","trial_index":89,"time_elapsed":1058670,"internal_node_id":"0.0-4.0-0.41","subject_id":"5c6400cbcb937d00012d8866","study_id":"6197b3f67c2b5cd3b6d9596a","session_id":"619bf508bad81787a9d9c03f","condition":"full-information","relevant_dimensions":["antennae","wings"],"bee_group":{"antennae":"A","wings":"1","pattern":"X","legs":"X"},"action":"avoid","summary":"good-avoid","bonus":0.7800000000000006},{"rt":2861.2000000029802,"stimulus":"\n                    <p><b>Action: <em>avoid</em></b></p>\n                    <p>This is the bee that you just saw.</p>\n                    <img src=\"bees-with-color/bee-A1DM.svg\" width=\"200\">\n                    <p><span class=\"greenText\">Good choice!</span>  This bee would have stung you.<br>Your bonus pay is unchanged, and remains at $0.48.</p>\n            ","response":0,"trial_type":"html-button-response","trial_index":90,"time_elapsed":1061536,"internal_node_id":"0.0-4.0-1.41","subject_id":"5c6400cbcb937d00012d8866","study_id":"6197b3f67c2b5cd3b6d9596a","session_id":"619bf508bad81787a9d9c03f","condition":"full-information","relevant_dimensions":["antennae","wings"],"bee_group":{"antennae":"A","wings":"1","pattern":"X","legs":"X"},"bonus":0.7800000000000006},{"rt":2839.099999997765,"stimulus":"bees-with-color/bee-B2DM.svg","response":0,"trial_type":"image-button-response","trial_index":91,"time_elapsed":1064378,"internal_node_id":"0.0-4.0-0.42","subject_id":"5c6400cbcb937d00012d8866","study_id":"6197b3f67c2b5cd3b6d9596a","session_id":"619bf508bad81787a9d9c03f","condition":"full-information","relevant_dimensions":["antennae","wings"],"bee_group":{"antennae":"A","wings":"1","pattern":"X","legs":"X"},"action":"harvest","summary":"good-harvest","bonus":0.7800000000000006},{"rt":1303.199999999255,"stimulus":"\n                    <p><b>Action: <em>harvest</em></b></p>\n                    <p>This is the bee that you just saw.</p>\n                    <img src=\"bees-with-color/bee-B2DM.svg\" width=\"200\">\n                    <p><span class=\"greenText\"><b>Successful harvest!</b></span><br>Your pay has increased by $0.02. Your bonus pay is now $0.50.</p>\n            ","response":0,"trial_type":"html-button-response","trial_index":92,"time_elapsed":1065683,"internal_node_id":"0.0-4.0-1.42","subject_id":"5c6400cbcb937d00012d8866","study_id":"6197b3f67c2b5cd3b6d9596a","session_id":"619bf508bad81787a9d9c03f","condition":"full-information","relevant_dimensions":["antennae","wings"],"bee_group":{"antennae":"A","wings":"1","pattern":"X","legs":"X"},"bonus":0.7800000000000006},{"rt":2790.60000000149,"stimulus":"bees-with-color/bee-B2DF.svg","response":1,"trial_type":"image-button-response","trial_index":93,"time_elapsed":1068476,"internal_node_id":"0.0-4.0-0.43","subject_id":"5c6400cbcb937d00012d8866","study_id":"6197b3f67c2b5cd3b6d9596a","session_id":"619bf508bad81787a9d9c03f","condition":"full-information","relevant_dimensions":["antennae","wings"],"bee_group":{"antennae":"A","wings":"1","pattern":"X","legs":"X"},"action":"avoid","summary":"bad-avoid","bonus":0.7800000000000006},{"rt":1021.6999999992549,"stimulus":"\n                    <p><b>Action: <em>avoid</em></b></p>\n                    <p>This is the bee that you just saw.</p>\n                    <img src=\"bees-with-color/bee-B2DF.svg\" width=\"200\">\n                    <p><span class=\"redText\">Bad choice,</span> the bee was friendly.<br>Your bonus pay is unchanged, and remains at $0.50.</p>\n            ","response":0,"trial_type":"html-button-response","trial_index":94,"time_elapsed":1069500,"internal_node_id":"0.0-4.0-1.43","subject_id":"5c6400cbcb937d00012d8866","study_id":"6197b3f67c2b5cd3b6d9596a","session_id":"619bf508bad81787a9d9c03f","condition":"full-information","relevant_dimensions":["antennae","wings"],"bee_group":{"antennae":"A","wings":"1","pattern":"X","legs":"X"},"bonus":0.7800000000000006},{"rt":1730.800000000745,"stimulus":"bees-with-color/bee-B1SM.svg","response":1,"trial_type":"image-button-response","trial_index":95,"time_elapsed":1071233,"internal_node_id":"0.0-4.0-0.44","subject_id":"5c6400cbcb937d00012d8866","study_id":"6197b3f67c2b5cd3b6d9596a","session_id":"619bf508bad81787a9d9c03f","condition":"full-information","relevant_dimensions":["antennae","wings"],"bee_group":{"antennae":"A","wings":"1","pattern":"X","legs":"X"},"action":"avoid","summary":"bad-avoid","bonus":0.7800000000000006},{"rt":912.6999999992549,"stimulus":"\n                    <p><b>Action: <em>avoid</em></b></p>\n                    <p>This is the bee that you just saw.</p>\n                    <img src=\"bees-with-color/bee-B1SM.svg\" width=\"200\">\n                    <p><span class=\"redText\">Bad choice,</span> the bee was friendly.<br>Your bonus pay is unchanged, and remains at $0.50.</p>\n            ","response":0,"trial_type":"html-button-response","trial_index":96,"time_elapsed":1072148,"internal_node_id":"0.0-4.0-1.44","subject_id":"5c6400cbcb937d00012d8866","study_id":"6197b3f67c2b5cd3b6d9596a","session_id":"619bf508bad81787a9d9c03f","condition":"full-information","relevant_dimensions":["antennae","wings"],"bee_group":{"antennae":"A","wings":"1","pattern":"X","legs":"X"},"bonus":0.7800000000000006},{"rt":2778.900000002235,"stimulus":"bees-with-color/bee-B1DM.svg","response":1,"trial_type":"image-button-response","trial_index":97,"time_elapsed":1074929,"internal_node_id":"0.0-4.0-0.45","subject_id":"5c6400cbcb937d00012d8866","study_id":"6197b3f67c2b5cd3b6d9596a","session_id":"619bf508bad81787a9d9c03f","condition":"full-information","relevant_dimensions":["antennae","wings"],"bee_group":{"antennae":"A","wings":"1","pattern":"X","legs":"X"},"action":"avoid","summary":"bad-avoid","bonus":0.7800000000000006},{"rt":1058.300000000745,"stimulus":"\n                    <p><b>Action: <em>avoid</em></b></p>\n                    <p>This is the bee that you just saw.</p>\n                    <img src=\"bees-with-color/bee-B1DM.svg\" width=\"200\">\n                    <p><span class=\"redText\">Bad choice,</span> the bee was friendly.<br>Your bonus pay is unchanged, and remains at $0.50.</p>\n            ","response":0,"trial_type":"html-button-response","trial_index":98,"time_elapsed":1075990,"internal_node_id":"0.0-4.0-1.45","subject_id":"5c6400cbcb937d00012d8866","study_id":"6197b3f67c2b5cd3b6d9596a","session_id":"619bf508bad81787a9d9c03f","condition":"full-information","relevant_dimensions":["antennae","wings"],"bee_group":{"antennae":"A","wings":"1","pattern":"X","legs":"X"},"bonus":0.7800000000000006},{"rt":3292.699999999255,"stimulus":"bees-with-color/bee-A2DF.svg","response":1,"trial_type":"image-button-response","trial_index":99,"time_elapsed":1079285,"internal_node_id":"0.0-4.0-0.46","subject_id":"5c6400cbcb937d00012d8866","study_id":"6197b3f67c2b5cd3b6d9596a","session_id":"619bf508bad81787a9d9c03f","condition":"full-information","relevant_dimensions":["antennae","wings"],"bee_group":{"antennae":"A","wings":"1","pattern":"X","legs":"X"},"action":"avoid","summary":"bad-avoid","bonus":0.7800000000000006},{"rt":911.9000000022352,"stimulus":"\n                    <p><b>Action: <em>avoid</em></b></p>\n                    <p>This is the bee that you just saw.</p>\n                    <img src=\"bees-with-color/bee-A2DF.svg\" width=\"200\">\n                    <p><span class=\"redText\">Bad choice,</span> the bee was friendly.<br>Your bonus pay is unchanged, and remains at $0.50.</p>\n            ","response":0,"trial_type":"html-button-response","trial_index":100,"time_elapsed":1080199,"internal_node_id":"0.0-4.0-1.46","subject_id":"5c6400cbcb937d00012d8866","study_id":"6197b3f67c2b5cd3b6d9596a","session_id":"619bf508bad81787a9d9c03f","condition":"full-information","relevant_dimensions":["antennae","wings"],"bee_group":{"antennae":"A","wings":"1","pattern":"X","legs":"X"},"bonus":0.7800000000000006},{"rt":1290.5999999977648,"stimulus":"bees-with-color/bee-B2SF.svg","response":1,"trial_type":"image-button-response","trial_index":101,"time_elapsed":1081493,"internal_node_id":"0.0-4.0-0.47","subject_id":"5c6400cbcb937d00012d8866","study_id":"6197b3f67c2b5cd3b6d9596a","session_id":"619bf508bad81787a9d9c03f","condition":"full-information","relevant_dimensions":["antennae","wings"],"bee_group":{"antennae":"A","wings":"1","pattern":"X","legs":"X"},"action":"avoid","summary":"bad-avoid","bonus":0.7800000000000006},{"rt":850.9000000022352,"stimulus":"\n                    <p><b>Action: <em>avoid</em></b></p>\n                    <p>This is the bee that you just saw.</p>\n                    <img src=\"bees-with-color/bee-B2SF.svg\" width=\"200\">\n                    <p><span class=\"redText\">Bad choice,</span> the bee was friendly.<br>Your bonus pay is unchanged, and remains at $0.50.</p>\n            ","response":0,"trial_type":"html-button-response","trial_index":102,"time_elapsed":1082346,"internal_node_id":"0.0-4.0-1.47","subject_id":"5c6400cbcb937d00012d8866","study_id":"6197b3f67c2b5cd3b6d9596a","session_id":"619bf508bad81787a9d9c03f","condition":"full-information","relevant_dimensions":["antennae","wings"],"bee_group":{"antennae":"A","wings":"1","pattern":"X","legs":"X"},"bonus":0.7800000000000006},{"rt":5079.39999999851,"stimulus":"bees-with-color/bee-B2DF.svg","response":0,"trial_type":"image-button-response","trial_index":103,"time_elapsed":1087427,"internal_node_id":"0.0-4.0-0.48","subject_id":"5c6400cbcb937d00012d8866","study_id":"6197b3f67c2b5cd3b6d9596a","session_id":"619bf508bad81787a9d9c03f","condition":"full-information","relevant_dimensions":["antennae","wings"],"bee_group":{"antennae":"A","wings":"1","pattern":"X","legs":"X"},"action":"harvest","summary":"good-harvest","bonus":0.7800000000000006},{"rt":1023,"stimulus":"\n                    <p><b>Action: <em>harvest</em></b></p>\n                    <p>This is the bee that you just saw.</p>\n                    <img src=\"bees-with-color/bee-B2DF.svg\" width=\"200\">\n                    <p><span class=\"greenText\"><b>Successful harvest!</b></span><br>Your pay has increased by $0.02. Your bonus pay is now $0.52.</p>\n            ","response":0,"trial_type":"html-button-response","trial_index":104,"time_elapsed":1088453,"internal_node_id":"0.0-4.0-1.48","subject_id":"5c6400cbcb937d00012d8866","study_id":"6197b3f67c2b5cd3b6d9596a","session_id":"619bf508bad81787a9d9c03f","condition":"full-information","relevant_dimensions":["antennae","wings"],"bee_group":{"antennae":"A","wings":"1","pattern":"X","legs":"X"},"bonus":0.7800000000000006},{"rt":2229.199999999255,"stimulus":"bees-with-color/bee-A1SM.svg","response":1,"trial_type":"image-button-response","trial_index":105,"time_elapsed":1090685,"internal_node_id":"0.0-4.0-0.49","subject_id":"5c6400cbcb937d00012d8866","study_id":"6197b3f67c2b5cd3b6d9596a","session_id":"619bf508bad81787a9d9c03f","condition":"full-information","relevant_dimensions":["antennae","wings"],"bee_group":{"antennae":"A","wings":"1","pattern":"X","legs":"X"},"action":"avoid","summary":"good-avoid","bonus":0.7800000000000006},{"rt":998.5,"stimulus":"\n                    <p><b>Action: <em>avoid</em></b></p>\n                    <p>This is the bee that you just saw.</p>\n                    <img src=\"bees-with-color/bee-A1SM.svg\" width=\"200\">\n                    <p><span class=\"greenText\">Good choice!</span>  This bee would have stung you.<br>Your bonus pay is unchanged, and remains at $0.52.</p>\n            ","response":0,"trial_type":"html-button-response","trial_index":106,"time_elapsed":1091686,"internal_node_id":"0.0-4.0-1.49","subject_id":"5c6400cbcb937d00012d8866","study_id":"6197b3f67c2b5cd3b6d9596a","session_id":"619bf508bad81787a9d9c03f","condition":"full-information","relevant_dimensions":["antennae","wings"],"bee_group":{"antennae":"A","wings":"1","pattern":"X","legs":"X"},"bonus":0.7800000000000006},{"rt":1279.0999999977648,"stimulus":"bees-with-color/bee-A2SF.svg","response":0,"trial_type":"image-button-response","trial_index":107,"time_elapsed":1092967,"internal_node_id":"0.0-4.0-0.50","subject_id":"5c6400cbcb937d00012d8866","study_id":"6197b3f67c2b5cd3b6d9596a","session_id":"619bf508bad81787a9d9c03f","condition":"full-information","relevant_dimensions":["antennae","wings"],"bee_group":{"antennae":"A","wings":"1","pattern":"X","legs":"X"},"action":"harvest","summary":"good-harvest","bonus":0.7800000000000006},{"rt":985,"stimulus":"\n                    <p><b>Action: <em>harvest</em></b></p>\n                    <p>This is the bee that you just saw.</p>\n                    <img src=\"bees-with-color/bee-A2SF.svg\" width=\"200\">\n                    <p><span class=\"greenText\"><b>Successful harvest!</b></span><br>Your pay has increased by $0.02. Your bonus pay is now $0.54.</p>\n            ","response":0,"trial_type":"html-button-response","trial_index":108,"time_elapsed":1093955,"internal_node_id":"0.0-4.0-1.50","subject_id":"5c6400cbcb937d00012d8866","study_id":"6197b3f67c2b5cd3b6d9596a","session_id":"619bf508bad81787a9d9c03f","condition":"full-information","relevant_dimensions":["antennae","wings"],"bee_group":{"antennae":"A","wings":"1","pattern":"X","legs":"X"},"bonus":0.7800000000000006},{"rt":2143.2999999970198,"stimulus":"bees-with-color/bee-A2SM.svg","response":0,"trial_type":"image-button-response","trial_index":109,"time_elapsed":1096101,"internal_node_id":"0.0-4.0-0.51","subject_id":"5c6400cbcb937d00012d8866","study_id":"6197b3f67c2b5cd3b6d9596a","session_id":"619bf508bad81787a9d9c03f","condition":"full-information","relevant_dimensions":["antennae","wings"],"bee_group":{"antennae":"A","wings":"1","pattern":"X","legs":"X"},"action":"harvest","summary":"good-harvest","bonus":0.7800000000000006},{"rt":1924.699999999255,"stimulus":"\n                    <p><b>Action: <em>harvest</em></b></p>\n                    <p>This is the bee that you just saw.</p>\n                    <img src=\"bees-with-color/bee-A2SM.svg\" width=\"200\">\n                    <p><span class=\"greenText\"><b>Successful harvest!</b></span><br>Your pay has increased by $0.02. Your bonus pay is now $0.56.</p>\n            ","response":0,"trial_type":"html-button-response","trial_index":110,"time_elapsed":1098028,"internal_node_id":"0.0-4.0-1.51","subject_id":"5c6400cbcb937d00012d8866","study_id":"6197b3f67c2b5cd3b6d9596a","session_id":"619bf508bad81787a9d9c03f","condition":"full-information","relevant_dimensions":["antennae","wings"],"bee_group":{"antennae":"A","wings":"1","pattern":"X","legs":"X"},"bonus":0.7800000000000006},{"rt":1571.699999999255,"stimulus":"bees-with-color/bee-A1SF.svg","response":1,"trial_type":"image-button-response","trial_index":111,"time_elapsed":1099603,"internal_node_id":"0.0-4.0-0.52","subject_id":"5c6400cbcb937d00012d8866","study_id":"6197b3f67c2b5cd3b6d9596a","session_id":"619bf508bad81787a9d9c03f","condition":"full-information","relevant_dimensions":["antennae","wings"],"bee_group":{"antennae":"A","wings":"1","pattern":"X","legs":"X"},"action":"avoid","summary":"good-avoid","bonus":0.7800000000000006},{"rt":997.5,"stimulus":"\n                    <p><b>Action: <em>avoid</em></b></p>\n                    <p>This is the bee that you just saw.</p>\n                    <img src=\"bees-with-color/bee-A1SF.svg\" width=\"200\">\n                    <p><span class=\"greenText\">Good choice!</span>  This bee would have stung you.<br>Your bonus pay is unchanged, and remains at $0.56.</p>\n            ","response":0,"trial_type":"html-button-response","trial_index":112,"time_elapsed":1100603,"internal_node_id":"0.0-4.0-1.52","subject_id":"5c6400cbcb937d00012d8866","study_id":"6197b3f67c2b5cd3b6d9596a","session_id":"619bf508bad81787a9d9c03f","condition":"full-information","relevant_dimensions":["antennae","wings"],"bee_group":{"antennae":"A","wings":"1","pattern":"X","legs":"X"},"bonus":0.7800000000000006},{"rt":1815.5,"stimulus":"bees-with-color/bee-B1SM.svg","response":1,"trial_type":"image-button-response","trial_index":113,"time_elapsed":1102421,"internal_node_id":"0.0-4.0-0.53","subject_id":"5c6400cbcb937d00012d8866","study_id":"6197b3f67c2b5cd3b6d9596a","session_id":"619bf508bad81787a9d9c03f","condition":"full-information","relevant_dimensions":["antennae","wings"],"bee_group":{"antennae":"A","wings":"1","pattern":"X","legs":"X"},"action":"avoid","summary":"bad-avoid","bonus":0.7800000000000006},{"rt":875.6000000014901,"stimulus":"\n                    <p><b>Action: <em>avoid</em></b></p>\n                    <p>This is the bee that you just saw.</p>\n                    <img src=\"bees-with-color/bee-B1SM.svg\" width=\"200\">\n                    <p><span class=\"redText\">Bad choice,</span> the bee was friendly.<br>Your bonus pay is unchanged, and remains at $0.56.</p>\n            ","response":0,"trial_type":"html-button-response","trial_index":114,"time_elapsed":1103299,"internal_node_id":"0.0-4.0-1.53","subject_id":"5c6400cbcb937d00012d8866","study_id":"6197b3f67c2b5cd3b6d9596a","session_id":"619bf508bad81787a9d9c03f","condition":"full-information","relevant_dimensions":["antennae","wings"],"bee_group":{"antennae":"A","wings":"1","pattern":"X","legs":"X"},"bonus":0.7800000000000006},{"rt":1998.300000000745,"stimulus":"bees-with-color/bee-B1SF.svg","response":1,"trial_type":"image-button-response","trial_index":115,"time_elapsed":1105300,"internal_node_id":"0.0-4.0-0.54","subject_id":"5c6400cbcb937d00012d8866","study_id":"6197b3f67c2b5cd3b6d9596a","session_id":"619bf508bad81787a9d9c03f","condition":"full-information","relevant_dimensions":["antennae","wings"],"bee_group":{"antennae":"A","wings":"1","pattern":"X","legs":"X"},"action":"avoid","summary":"bad-avoid","bonus":0.7800000000000006},{"rt":1010,"stimulus":"\n                    <p><b>Action: <em>avoid</em></b></p>\n                    <p>This is the bee that you just saw.</p>\n                    <img src=\"bees-with-color/bee-B1SF.svg\" width=\"200\">\n                    <p><span class=\"redText\">Bad choice,</span> the bee was friendly.<br>Your bonus pay is unchanged, and remains at $0.56.</p>\n            ","response":0,"trial_type":"html-button-response","trial_index":116,"time_elapsed":1106312,"internal_node_id":"0.0-4.0-1.54","subject_id":"5c6400cbcb937d00012d8866","study_id":"6197b3f67c2b5cd3b6d9596a","session_id":"619bf508bad81787a9d9c03f","condition":"full-information","relevant_dimensions":["antennae","wings"],"bee_group":{"antennae":"A","wings":"1","pattern":"X","legs":"X"},"bonus":0.7800000000000006},{"rt":3546.5,"stimulus":"bees-with-color/bee-A2DF.svg","response":1,"trial_type":"image-button-response","trial_index":117,"time_elapsed":1109862,"internal_node_id":"0.0-4.0-0.55","subject_id":"5c6400cbcb937d00012d8866","study_id":"6197b3f67c2b5cd3b6d9596a","session_id":"619bf508bad81787a9d9c03f","condition":"full-information","relevant_dimensions":["antennae","wings"],"bee_group":{"antennae":"A","wings":"1","pattern":"X","legs":"X"},"action":"avoid","summary":"bad-avoid","bonus":0.7800000000000006},{"rt":974.3000000007451,"stimulus":"\n                    <p><b>Action: <em>avoid</em></b></p>\n                    <p>This is the bee that you just saw.</p>\n                    <img src=\"bees-with-color/bee-A2DF.svg\" width=\"200\">\n                    <p><span class=\"redText\">Bad choice,</span> the bee was friendly.<br>Your bonus pay is unchanged, and remains at $0.56.</p>\n            ","response":0,"trial_type":"html-button-response","trial_index":118,"time_elapsed":1110839,"internal_node_id":"0.0-4.0-1.55","subject_id":"5c6400cbcb937d00012d8866","study_id":"6197b3f67c2b5cd3b6d9596a","session_id":"619bf508bad81787a9d9c03f","condition":"full-information","relevant_dimensions":["antennae","wings"],"bee_group":{"antennae":"A","wings":"1","pattern":"X","legs":"X"},"bonus":0.7800000000000006},{"rt":1682.699999999255,"stimulus":"bees-with-color/bee-B2SF.svg","response":1,"trial_type":"image-button-response","trial_index":119,"time_elapsed":1112525,"internal_node_id":"0.0-4.0-0.56","subject_id":"5c6400cbcb937d00012d8866","study_id":"6197b3f67c2b5cd3b6d9596a","session_id":"619bf508bad81787a9d9c03f","condition":"full-information","relevant_dimensions":["antennae","wings"],"bee_group":{"antennae":"A","wings":"1","pattern":"X","legs":"X"},"action":"avoid","summary":"bad-avoid","bonus":0.7800000000000006},{"rt":924.3999999985099,"stimulus":"\n                    <p><b>Action: <em>avoid</em></b></p>\n                    <p>This is the bee that you just saw.</p>\n                    <img src=\"bees-with-color/bee-B2SF.svg\" width=\"200\">\n                    <p><span class=\"redText\">Bad choice,</span> the bee was friendly.<br>Your bonus pay is unchanged, and remains at $0.56.</p>\n            ","response":0,"trial_type":"html-button-response","trial_index":120,"time_elapsed":1113452,"internal_node_id":"0.0-4.0-1.56","subject_id":"5c6400cbcb937d00012d8866","study_id":"6197b3f67c2b5cd3b6d9596a","session_id":"619bf508bad81787a9d9c03f","condition":"full-information","relevant_dimensions":["antennae","wings"],"bee_group":{"antennae":"A","wings":"1","pattern":"X","legs":"X"},"bonus":0.7800000000000006},{"rt":1718.5,"stimulus":"bees-with-color/bee-B2DM.svg","response":1,"trial_type":"image-button-response","trial_index":121,"time_elapsed":1115173,"internal_node_id":"0.0-4.0-0.57","subject_id":"5c6400cbcb937d00012d8866","study_id":"6197b3f67c2b5cd3b6d9596a","session_id":"619bf508bad81787a9d9c03f","condition":"full-information","relevant_dimensions":["antennae","wings"],"bee_group":{"antennae":"A","wings":"1","pattern":"X","legs":"X"},"action":"avoid","summary":"bad-avoid","bonus":0.7800000000000006},{"rt":960.8999999985099,"stimulus":"\n                    <p><b>Action: <em>avoid</em></b></p>\n                    <p>This is the bee that you just saw.</p>\n                    <img src=\"bees-with-color/bee-B2DM.svg\" width=\"200\">\n                    <p><span class=\"redText\">Bad choice,</span> the bee was friendly.<br>Your bonus pay is unchanged, and remains at $0.56.</p>\n            ","response":0,"trial_type":"html-button-response","trial_index":122,"time_elapsed":1116136,"internal_node_id":"0.0-4.0-1.57","subject_id":"5c6400cbcb937d00012d8866","study_id":"6197b3f67c2b5cd3b6d9596a","session_id":"619bf508bad81787a9d9c03f","condition":"full-information","relevant_dimensions":["antennae","wings"],"bee_group":{"antennae":"A","wings":"1","pattern":"X","legs":"X"},"bonus":0.7800000000000006},{"rt":4739.800000000745,"stimulus":"bees-with-color/bee-A2DM.svg","response":0,"trial_type":"image-button-response","trial_index":123,"time_elapsed":1120881,"internal_node_id":"0.0-4.0-0.58","subject_id":"5c6400cbcb937d00012d8866","study_id":"6197b3f67c2b5cd3b6d9596a","session_id":"619bf508bad81787a9d9c03f","condition":"full-information","relevant_dimensions":["antennae","wings"],"bee_group":{"antennae":"A","wings":"1","pattern":"X","legs":"X"},"action":"harvest","summary":"good-harvest","bonus":0.7800000000000006},{"rt":1168.9000000022352,"stimulus":"\n                    <p><b>Action: <em>harvest</em></b></p>\n                    <p>This is the bee that you just saw.</p>\n                    <img src=\"bees-with-color/bee-A2DM.svg\" width=\"200\">\n                    <p><span class=\"greenText\"><b>Successful harvest!</b></span><br>Your pay has increased by $0.02. Your bonus pay is now $0.58.</p>\n            ","response":0,"trial_type":"html-button-response","trial_index":124,"time_elapsed":1122053,"internal_node_id":"0.0-4.0-1.58","subject_id":"5c6400cbcb937d00012d8866","study_id":"6197b3f67c2b5cd3b6d9596a","session_id":"619bf508bad81787a9d9c03f","condition":"full-information","relevant_dimensions":["antennae","wings"],"bee_group":{"antennae":"A","wings":"1","pattern":"X","legs":"X"},"bonus":0.7800000000000006},{"rt":2983.699999999255,"stimulus":"bees-with-color/bee-A1DM.svg","response":1,"trial_type":"image-button-response","trial_index":125,"time_elapsed":1125040,"internal_node_id":"0.0-4.0-0.59","subject_id":"5c6400cbcb937d00012d8866","study_id":"6197b3f67c2b5cd3b6d9596a","session_id":"619bf508bad81787a9d9c03f","condition":"full-information","relevant_dimensions":["antennae","wings"],"bee_group":{"antennae":"A","wings":"1","pattern":"X","legs":"X"},"action":"avoid","summary":"good-avoid","bonus":0.7800000000000006},{"rt":923.1000000014901,"stimulus":"\n                    <p><b>Action: <em>avoid</em></b></p>\n                    <p>This is the bee that you just saw.</p>\n                    <img src=\"bees-with-color/bee-A1DM.svg\" width=\"200\">\n                    <p><span class=\"greenText\">Good choice!</span>  This bee would have stung you.<br>Your bonus pay is unchanged, and remains at $0.58.</p>\n            ","response":0,"trial_type":"html-button-response","trial_index":126,"time_elapsed":1125966,"internal_node_id":"0.0-4.0-1.59","subject_id":"5c6400cbcb937d00012d8866","study_id":"6197b3f67c2b5cd3b6d9596a","session_id":"619bf508bad81787a9d9c03f","condition":"full-information","relevant_dimensions":["antennae","wings"],"bee_group":{"antennae":"A","wings":"1","pattern":"X","legs":"X"},"bonus":0.7800000000000006},{"rt":1631.3999999985099,"stimulus":"bees-with-color/bee-B2SM.svg","response":0,"trial_type":"image-button-response","trial_index":127,"time_elapsed":1127600,"internal_node_id":"0.0-4.0-0.60","subject_id":"5c6400cbcb937d00012d8866","study_id":"6197b3f67c2b5cd3b6d9596a","session_id":"619bf508bad81787a9d9c03f","condition":"full-information","relevant_dimensions":["antennae","wings"],"bee_group":{"antennae":"A","wings":"1","pattern":"X","legs":"X"},"action":"harvest","summary":"good-harvest","bonus":0.7800000000000006},{"rt":877.4000000022352,"stimulus":"\n                    <p><b>Action: <em>harvest</em></b></p>\n                    <p>This is the bee that you just saw.</p>\n                    <img src=\"bees-with-color/bee-B2SM.svg\" width=\"200\">\n                    <p><span class=\"greenText\"><b>Successful harvest!</b></span><br>Your pay has increased by $0.02. Your bonus pay is now $0.60.</p>\n            ","response":0,"trial_type":"html-button-response","trial_index":128,"time_elapsed":1128480,"internal_node_id":"0.0-4.0-1.60","subject_id":"5c6400cbcb937d00012d8866","study_id":"6197b3f67c2b5cd3b6d9596a","session_id":"619bf508bad81787a9d9c03f","condition":"full-information","relevant_dimensions":["antennae","wings"],"bee_group":{"antennae":"A","wings":"1","pattern":"X","legs":"X"},"bonus":0.7800000000000006},{"rt":1766.5,"stimulus":"bees-with-color/bee-B1DM.svg","response":1,"trial_type":"image-button-response","trial_index":129,"time_elapsed":1130248,"internal_node_id":"0.0-4.0-0.61","subject_id":"5c6400cbcb937d00012d8866","study_id":"6197b3f67c2b5cd3b6d9596a","session_id":"619bf508bad81787a9d9c03f","condition":"full-information","relevant_dimensions":["antennae","wings"],"bee_group":{"antennae":"A","wings":"1","pattern":"X","legs":"X"},"action":"avoid","summary":"bad-avoid","bonus":0.7800000000000006},{"rt":950.0999999977648,"stimulus":"\n                    <p><b>Action: <em>avoid</em></b></p>\n                    <p>This is the bee that you just saw.</p>\n                    <img src=\"bees-with-color/bee-B1DM.svg\" width=\"200\">\n                    <p><span class=\"redText\">Bad choice,</span> the bee was friendly.<br>Your bonus pay is unchanged, and remains at $0.60.</p>\n            ","response":0,"trial_type":"html-button-response","trial_index":130,"time_elapsed":1131200,"internal_node_id":"0.0-4.0-1.61","subject_id":"5c6400cbcb937d00012d8866","study_id":"6197b3f67c2b5cd3b6d9596a","session_id":"619bf508bad81787a9d9c03f","condition":"full-information","relevant_dimensions":["antennae","wings"],"bee_group":{"antennae":"A","wings":"1","pattern":"X","legs":"X"},"bonus":0.7800000000000006},{"rt":3387.300000000745,"stimulus":"bees-with-color/bee-B1DF.svg","response":1,"trial_type":"image-button-response","trial_index":131,"time_elapsed":1134589,"internal_node_id":"0.0-4.0-0.62","subject_id":"5c6400cbcb937d00012d8866","study_id":"6197b3f67c2b5cd3b6d9596a","session_id":"619bf508bad81787a9d9c03f","condition":"full-information","relevant_dimensions":["antennae","wings"],"bee_group":{"antennae":"A","wings":"1","pattern":"X","legs":"X"},"action":"avoid","summary":"bad-avoid","bonus":0.7800000000000006},{"rt":973.3000000007451,"stimulus":"\n                    <p><b>Action: <em>avoid</em></b></p>\n                    <p>This is the bee that you just saw.</p>\n                    <img src=\"bees-with-color/bee-B1DF.svg\" width=\"200\">\n                    <p><span class=\"redText\">Bad choice,</span> the bee was friendly.<br>Your bonus pay is unchanged, and remains at $0.60.</p>\n            ","response":0,"trial_type":"html-button-response","trial_index":132,"time_elapsed":1135564,"internal_node_id":"0.0-4.0-1.62","subject_id":"5c6400cbcb937d00012d8866","study_id":"6197b3f67c2b5cd3b6d9596a","session_id":"619bf508bad81787a9d9c03f","condition":"full-information","relevant_dimensions":["antennae","wings"],"bee_group":{"antennae":"A","wings":"1","pattern":"X","legs":"X"},"bonus":0.7800000000000006},{"rt":1887.5,"stimulus":"bees-with-color/bee-A1DF.svg","response":1,"trial_type":"image-button-response","trial_index":133,"time_elapsed":1137454,"internal_node_id":"0.0-4.0-0.63","subject_id":"5c6400cbcb937d00012d8866","study_id":"6197b3f67c2b5cd3b6d9596a","session_id":"619bf508bad81787a9d9c03f","condition":"full-information","relevant_dimensions":["antennae","wings"],"bee_group":{"antennae":"A","wings":"1","pattern":"X","legs":"X"},"action":"avoid","summary":"good-avoid","bonus":0.7800000000000006},{"rt":1328,"stimulus":"\n                    <p><b>Action: <em>avoid</em></b></p>\n                    <p>This is the bee that you just saw.</p>\n                    <img src=\"bees-with-color/bee-A1DF.svg\" width=\"200\">\n                    <p><span class=\"greenText\">Good choice!</span>  This bee would have stung you.<br>Your bonus pay is unchanged, and remains at $0.60.</p>\n            ","response":0,"trial_type":"html-button-response","trial_index":134,"time_elapsed":1138784,"internal_node_id":"0.0-4.0-1.63","subject_id":"5c6400cbcb937d00012d8866","study_id":"6197b3f67c2b5cd3b6d9596a","session_id":"619bf508bad81787a9d9c03f","condition":"full-information","relevant_dimensions":["antennae","wings"],"bee_group":{"antennae":"A","wings":"1","pattern":"X","legs":"X"},"bonus":0.7800000000000006},{"rt":7165.89999999851,"stimulus":"You have completed the first part of this experiment.<br><br>You will now begin a shorter second part, in which you will receive no feedback.<br>The same rules regarding bonus pay apply.<br><br>Press any key to begin.","response":" ","trial_type":"html-keyboard-response","trial_index":135,"time_elapsed":1145952,"internal_node_id":"0.0-5.0","subject_id":"5c6400cbcb937d00012d8866","study_id":"6197b3f67c2b5cd3b6d9596a","session_id":"619bf508bad81787a9d9c03f","condition":"full-information","relevant_dimensions":["antennae","wings"],"bee_group":{"antennae":"A","wings":"1","pattern":"X","legs":"X"},"bonus":0.7800000000000006},{"rt":13177.20000000298,"stimulus":"bees-with-color/bee-A2SM.svg","response":0,"trial_type":"image-button-response","trial_index":136,"time_elapsed":1159140,"internal_node_id":"0.0-6.0-0.0","subject_id":"5c6400cbcb937d00012d8866","study_id":"6197b3f67c2b5cd3b6d9596a","session_id":"619bf508bad81787a9d9c03f","condition":"full-information","relevant_dimensions":["antennae","wings"],"bee_group":{"antennae":"A","wings":"1","pattern":"X","legs":"X"},"bonus":0.7800000000000006},{"rt":3253.7999999970198,"stimulus":"bees-with-color/bee-B2DM.svg","response":1,"trial_type":"image-button-response","trial_index":137,"time_elapsed":1162397,"internal_node_id":"0.0-6.0-0.1","subject_id":"5c6400cbcb937d00012d8866","study_id":"6197b3f67c2b5cd3b6d9596a","session_id":"619bf508bad81787a9d9c03f","condition":"full-information","relevant_dimensions":["antennae","wings"],"bee_group":{"antennae":"A","wings":"1","pattern":"X","legs":"X"},"bonus":0.7800000000000006},{"rt":4422,"stimulus":"bees-with-color/bee-B2SM.svg","response":0,"trial_type":"image-button-response","trial_index":138,"time_elapsed":1166823,"internal_node_id":"0.0-6.0-0.2","subject_id":"5c6400cbcb937d00012d8866","study_id":"6197b3f67c2b5cd3b6d9596a","session_id":"619bf508bad81787a9d9c03f","condition":"full-information","relevant_dimensions":["antennae","wings"],"bee_group":{"antennae":"A","wings":"1","pattern":"X","legs":"X"},"bonus":0.7800000000000006},{"rt":1703.6000000014901,"stimulus":"bees-with-color/bee-A1SM.svg","response":1,"trial_type":"image-button-response","trial_index":139,"time_elapsed":1168530,"internal_node_id":"0.0-6.0-0.3","subject_id":"5c6400cbcb937d00012d8866","study_id":"6197b3f67c2b5cd3b6d9596a","session_id":"619bf508bad81787a9d9c03f","condition":"full-information","relevant_dimensions":["antennae","wings"],"bee_group":{"antennae":"A","wings":"1","pattern":"X","legs":"X"},"bonus":0.7800000000000006},{"rt":5399.60000000149,"stimulus":"bees-with-color/bee-A2SF.svg","response":0,"trial_type":"image-button-response","trial_index":140,"time_elapsed":1173933,"internal_node_id":"0.0-6.0-0.4","subject_id":"5c6400cbcb937d00012d8866","study_id":"6197b3f67c2b5cd3b6d9596a","session_id":"619bf508bad81787a9d9c03f","condition":"full-information","relevant_dimensions":["antennae","wings"],"bee_group":{"antennae":"A","wings":"1","pattern":"X","legs":"X"},"bonus":0.7800000000000006},{"rt":3388.300000000745,"stimulus":"bees-with-color/bee-B1DF.svg","response":1,"trial_type":"image-button-response","trial_index":141,"time_elapsed":1177325,"internal_node_id":"0.0-6.0-0.5","subject_id":"5c6400cbcb937d00012d8866","study_id":"6197b3f67c2b5cd3b6d9596a","session_id":"619bf508bad81787a9d9c03f","condition":"full-information","relevant_dimensions":["antennae","wings"],"bee_group":{"antennae":"A","wings":"1","pattern":"X","legs":"X"},"bonus":0.7800000000000006},{"rt":1814.5999999977648,"stimulus":"bees-with-color/bee-A1DF.svg","response":1,"trial_type":"image-button-response","trial_index":142,"time_elapsed":1179146,"internal_node_id":"0.0-6.0-0.6","subject_id":"5c6400cbcb937d00012d8866","study_id":"6197b3f67c2b5cd3b6d9596a","session_id":"619bf508bad81787a9d9c03f","condition":"full-information","relevant_dimensions":["antennae","wings"],"bee_group":{"antennae":"A","wings":"1","pattern":"X","legs":"X"},"bonus":0.7800000000000006},{"rt":16116.60000000149,"stimulus":"bees-with-color/bee-A2DM.svg","response":1,"trial_type":"image-button-response","trial_index":143,"time_elapsed":1195266,"internal_node_id":"0.0-6.0-0.7","subject_id":"5c6400cbcb937d00012d8866","study_id":"6197b3f67c2b5cd3b6d9596a","session_id":"619bf508bad81787a9d9c03f","condition":"full-information","relevant_dimensions":["antennae","wings"],"bee_group":{"antennae":"A","wings":"1","pattern":"X","legs":"X"},"bonus":0.7800000000000006},{"rt":2253.699999999255,"stimulus":"bees-with-color/bee-B2SF.svg","response":0,"trial_type":"image-button-response","trial_index":144,"time_elapsed":1197523,"internal_node_id":"0.0-6.0-0.8","subject_id":"5c6400cbcb937d00012d8866","study_id":"6197b3f67c2b5cd3b6d9596a","session_id":"619bf508bad81787a9d9c03f","condition":"full-information","relevant_dimensions":["antennae","wings"],"bee_group":{"antennae":"A","wings":"1","pattern":"X","legs":"X"},"bonus":0.7800000000000006},{"rt":1571.199999999255,"stimulus":"bees-with-color/bee-A1SF.svg","response":1,"trial_type":"image-button-response","trial_index":145,"time_elapsed":1199098,"internal_node_id":"0.0-6.0-0.9","subject_id":"5c6400cbcb937d00012d8866","study_id":"6197b3f67c2b5cd3b6d9596a","session_id":"619bf508bad81787a9d9c03f","condition":"full-information","relevant_dimensions":["antennae","wings"],"bee_group":{"antennae":"A","wings":"1","pattern":"X","legs":"X"},"bonus":0.7800000000000006},{"rt":2424.699999999255,"stimulus":"bees-with-color/bee-B2DF.svg","response":1,"trial_type":"image-button-response","trial_index":146,"time_elapsed":1201526,"internal_node_id":"0.0-6.0-0.10","subject_id":"5c6400cbcb937d00012d8866","study_id":"6197b3f67c2b5cd3b6d9596a","session_id":"619bf508bad81787a9d9c03f","condition":"full-information","relevant_dimensions":["antennae","wings"],"bee_group":{"antennae":"A","wings":"1","pattern":"X","legs":"X"},"bonus":0.7800000000000006},{"rt":3325.39999999851,"stimulus":"bees-with-color/bee-A1DM.svg","response":1,"trial_type":"image-button-response","trial_index":147,"time_elapsed":1204855,"internal_node_id":"0.0-6.0-0.11","subject_id":"5c6400cbcb937d00012d8866","study_id":"6197b3f67c2b5cd3b6d9596a","session_id":"619bf508bad81787a9d9c03f","condition":"full-information","relevant_dimensions":["antennae","wings"],"bee_group":{"antennae":"A","wings":"1","pattern":"X","legs":"X"},"bonus":0.7800000000000006},{"rt":1609.4000000022352,"stimulus":"bees-with-color/bee-B1SM.svg","response":1,"trial_type":"image-button-response","trial_index":148,"time_elapsed":1206467,"internal_node_id":"0.0-6.0-0.12","subject_id":"5c6400cbcb937d00012d8866","study_id":"6197b3f67c2b5cd3b6d9596a","session_id":"619bf508bad81787a9d9c03f","condition":"full-information","relevant_dimensions":["antennae","wings"],"bee_group":{"antennae":"A","wings":"1","pattern":"X","legs":"X"},"bonus":0.7800000000000006},{"rt":1631.5,"stimulus":"bees-with-color/bee-B1DM.svg","response":1,"trial_type":"image-button-response","trial_index":149,"time_elapsed":1208101,"internal_node_id":"0.0-6.0-0.13","subject_id":"5c6400cbcb937d00012d8866","study_id":"6197b3f67c2b5cd3b6d9596a","session_id":"619bf508bad81787a9d9c03f","condition":"full-information","relevant_dimensions":["antennae","wings"],"bee_group":{"antennae":"A","wings":"1","pattern":"X","legs":"X"},"bonus":0.7800000000000006},{"rt":7381.599999997765,"stimulus":"bees-with-color/bee-A2DF.svg","response":1,"trial_type":"image-button-response","trial_index":150,"time_elapsed":1215486,"internal_node_id":"0.0-6.0-0.14","subject_id":"5c6400cbcb937d00012d8866","study_id":"6197b3f67c2b5cd3b6d9596a","session_id":"619bf508bad81787a9d9c03f","condition":"full-information","relevant_dimensions":["antennae","wings"],"bee_group":{"antennae":"A","wings":"1","pattern":"X","legs":"X"},"bonus":0.7800000000000006},{"rt":1412.8999999985099,"stimulus":"bees-with-color/bee-B1SF.svg","response":1,"trial_type":"image-button-response","trial_index":151,"time_elapsed":1216903,"internal_node_id":"0.0-6.0-0.15","subject_id":"5c6400cbcb937d00012d8866","study_id":"6197b3f67c2b5cd3b6d9596a","session_id":"619bf508bad81787a9d9c03f","condition":"full-information","relevant_dimensions":["antennae","wings"],"bee_group":{"antennae":"A","wings":"1","pattern":"X","legs":"X"},"bonus":0.7800000000000006},{"rt":7614.400000002235,"stimulus":"bees-with-color/bee-B2DM.svg","response":1,"trial_type":"image-button-response","trial_index":152,"time_elapsed":1224519,"internal_node_id":"0.0-6.0-0.16","subject_id":"5c6400cbcb937d00012d8866","study_id":"6197b3f67c2b5cd3b6d9596a","session_id":"619bf508bad81787a9d9c03f","condition":"full-information","relevant_dimensions":["antennae","wings"],"bee_group":{"antennae":"A","wings":"1","pattern":"X","legs":"X"},"bonus":0.7800000000000006},{"rt":2729.599999997765,"stimulus":"bees-with-color/bee-B1SM.svg","response":1,"trial_type":"image-button-response","trial_index":153,"time_elapsed":1227252,"internal_node_id":"0.0-6.0-0.17","subject_id":"5c6400cbcb937d00012d8866","study_id":"6197b3f67c2b5cd3b6d9596a","session_id":"619bf508bad81787a9d9c03f","condition":"full-information","relevant_dimensions":["antennae","wings"],"bee_group":{"antennae":"A","wings":"1","pattern":"X","legs":"X"},"bonus":0.7800000000000006},{"rt":1766.1000000014901,"stimulus":"bees-with-color/bee-B2SM.svg","response":0,"trial_type":"image-button-response","trial_index":154,"time_elapsed":1229021,"internal_node_id":"0.0-6.0-0.18","subject_id":"5c6400cbcb937d00012d8866","study_id":"6197b3f67c2b5cd3b6d9596a","session_id":"619bf508bad81787a9d9c03f","condition":"full-information","relevant_dimensions":["antennae","wings"],"bee_group":{"antennae":"A","wings":"1","pattern":"X","legs":"X"},"bonus":0.7800000000000006},{"rt":1961.8999999985099,"stimulus":"bees-with-color/bee-B1DF.svg","response":1,"trial_type":"image-button-response","trial_index":155,"time_elapsed":1230985,"internal_node_id":"0.0-6.0-0.19","subject_id":"5c6400cbcb937d00012d8866","study_id":"6197b3f67c2b5cd3b6d9596a","session_id":"619bf508bad81787a9d9c03f","condition":"full-information","relevant_dimensions":["antennae","wings"],"bee_group":{"antennae":"A","wings":"1","pattern":"X","legs":"X"},"bonus":0.7800000000000006},{"rt":1534,"stimulus":"bees-with-color/bee-B2DF.svg","response":1,"trial_type":"image-button-response","trial_index":156,"time_elapsed":1232522,"internal_node_id":"0.0-6.0-0.20","subject_id":"5c6400cbcb937d00012d8866","study_id":"6197b3f67c2b5cd3b6d9596a","session_id":"619bf508bad81787a9d9c03f","condition":"full-information","relevant_dimensions":["antennae","wings"],"bee_group":{"antennae":"