[{"success":true,"trial_type":"fullscreen","trial_index":0,"time_elapsed":4555,"internal_node_id":"0.0-0.0","subject_id":"6158701cde28270a24747a2e","study_id":"6197b3f67c2b5cd3b6d9596a","session_id":"6197b88eeb8b99824089f8cf","condition":"full-information","relevant_dimensions":["wings","legs"],"bee_group":{"antennae":"X","wings":"2","pattern":"X","legs":"F"},"bonus":0.540000000000001},{"success":true,"timeout":false,"failed_images":[],"failed_audio":[],"failed_video":[],"trial_type":"preload","trial_index":1,"time_elapsed":6066,"internal_node_id":"0.0-1.0","subject_id":"6158701cde28270a24747a2e","study_id":"6197b3f67c2b5cd3b6d9596a","session_id":"6197b88eeb8b99824089f8cf","condition":"full-information","relevant_dimensions":["wings","legs"],"bee_group":{"antennae":"X","wings":"2","pattern":"X","legs":"F"},"bonus":0.540000000000001},{"rt":1618.1999999955297,"stimulus":"Welcome! Press any key to begin.","response":" ","trial_type":"html-keyboard-response","trial_index":2,"time_elapsed":7686,"internal_node_id":"0.0-2.0","subject_id":"6158701cde28270a24747a2e","study_id":"6197b3f67c2b5cd3b6d9596a","session_id":"6197b88eeb8b99824089f8cf","condition":"full-information","relevant_dimensions":["wings","legs"],"bee_group":{"antennae":"X","wings":"2","pattern":"X","legs":"F"},"bonus":0.540000000000001},{"view_history":[{"page_index":0,"viewing_time":5208.79999999702},{"page_index":1,"viewing_time":15161.10000000149},{"page_index":2,"viewing_time":13823.10000000149},{"page_index":3,"viewing_time":14059.5},{"page_index":4,"viewing_time":24359.59999999404},{"page_index":5,"viewing_time":6651.10000000149},{"page_index":6,"viewing_time":10946.60000000149},{"page_index":7,"viewing_time":4587.39999999851},{"page_index":8,"viewing_time":4272.10000000149},{"page_index":9,"viewing_time":1904.1000000014901},{"page_index":10,"viewing_time":2192.39999999851},{"page_index":11,"viewing_time":10445.60000000149},{"page_index":12,"viewing_time":12131.29999999702},{"page_index":13,"viewing_time":1203.8999999985099},{"page_index":14,"viewing_time":2329.2000000029802}],"rt":129276.29999999702,"trial_type":"instructions","trial_index":3,"time_elapsed":136967,"internal_node_id":"0.0-3.0-0.0","subject_id":"6158701cde28270a24747a2e","study_id":"6197b3f67c2b5cd3b6d9596a","session_id":"6197b88eeb8b99824089f8cf","condition":"full-information","relevant_dimensions":["wings","legs"],"bee_group":{"antennae":"X","wings":"2","pattern":"X","legs":"F"},"bonus":0.540000000000001},{"rt":14914.39999999851,"response":{"Q0":["Two or six legs","Stripes or spots on body","Single or double wings","Antennae or no antennae"]},"question_order":[0],"trial_type":"survey-multi-select","trial_index":4,"time_elapsed":151889,"internal_node_id":"0.0-3.0-1.0","subject_id":"6158701cde28270a24747a2e","study_id":"6197b3f67c2b5cd3b6d9596a","session_id":"6197b88eeb8b99824089f8cf","condition":"full-information","relevant_dimensions":["wings","legs"],"bee_group":{"antennae":"X","wings":"2","pattern":"X","legs":"F"},"correct":true,"bonus":0.540000000000001},{"rt":22837.39999999851,"response":{"Q1":"No.","Q2":"Based on the four features of the bee.","Q3":"You do not learn if it was friendly or dangerous, and do not alter your bonus."},"question_order":[0,1,2],"trial_type":"survey-multi-choice","trial_index":5,"time_elapsed":174733,"internal_node_id":"0.0-3.0-2.0","subject_id":"6158701cde28270a24747a2e","study_id":"6197b3f67c2b5cd3b6d9596a","session_id":"6197b88eeb8b99824089f8cf","condition":"full-information","relevant_dimensions":["wings","legs"],"bee_group":{"antennae":"X","wings":"2","pattern":"X","legs":"F"},"correct":false,"bonus":0.540000000000001},{"rt":3721.2000000029802,"stimulus":"<p>You did not answer all comprehension questions correctly.<br>Press <b>continue</b> to review the instructions again.</p>","response":0,"trial_type":"html-button-response","trial_index":6,"time_elapsed":178461,"internal_node_id":"0.0-3.0-3.0","subject_id":"6158701cde28270a24747a2e","study_id":"6197b3f67c2b5cd3b6d9596a","session_id":"6197b88eeb8b99824089f8cf","condition":"full-information","relevant_dimensions":["wings","legs"],"bee_group":{"antennae":"X","wings":"2","pattern":"X","legs":"F"},"bonus":0.540000000000001},{"view_history":[{"page_index":0,"viewing_time":2876.60000000149},{"page_index":1,"viewing_time":16085.29999999702},{"page_index":2,"viewing_time":12638.10000000149},{"page_index":3,"viewing_time":19602.89999999851},{"page_index":4,"viewing_time":6374.60000000149},{"page_index":5,"viewing_time":1596.8999999985099},{"page_index":6,"viewing_time":1183},{"page_index":7,"viewing_time":1057.7000000029802},{"page_index":8,"viewing_time":410.1000000014901},{"page_index":9,"viewing_time":328.69999999552965},{"page_index":10,"viewing_time":338.1000000014901},{"page_index":11,"viewing_time":1334.6000000014901},{"page_index":12,"viewing_time":1211},{"page_index":13,"viewing_time":1186.7999999970198},{"page_index":14,"viewing_time":547.4000000059605}],"rt":66772.20000000298,"trial_type":"instructions","trial_index":7,"time_elapsed":245236,"internal_node_id":"0.0-3.0-4.0-0.0","subject_id":"6158701cde28270a24747a2e","study_id":"6197b3f67c2b5cd3b6d9596a","session_id":"6197b88eeb8b99824089f8cf","condition":"full-information","relevant_dimensions":["wings","legs"],"bee_group":{"antennae":"X","wings":"2","pattern":"X","legs":"F"},"bonus":0.540000000000001},{"rt":6249.60000000149,"response":{"Q0":["Two or six legs","Stripes or spots on body","Single or double wings","Antennae or no antennae"]},"question_order":[0],"trial_type":"survey-multi-select","trial_index":8,"time_elapsed":251493,"internal_node_id":"0.0-3.0-4.0-1.0","subject_id":"6158701cde28270a24747a2e","study_id":"6197b3f67c2b5cd3b6d9596a","session_id":"6197b88eeb8b99824089f8cf","condition":"full-information","relevant_dimensions":["wings","legs"],"bee_group":{"antennae":"X","wings":"2","pattern":"X","legs":"F"},"correct":true,"bonus":0.540000000000001},{"rt":11314.89999999851,"response":{"Q1":"No.","Q2":"Based on the four features of the bee.","Q3":"You learn if it was friendly or dangerous, but do not alter your bonus."},"question_order":[0,1,2],"trial_type":"survey-multi-choice","trial_index":9,"time_elapsed":262817,"internal_node_id":"0.0-3.0-4.0-2.0","subject_id":"6158701cde28270a24747a2e","study_id":"6197b3f67c2b5cd3b6d9596a","session_id":"6197b88eeb8b99824089f8cf","condition":"full-information","relevant_dimensions":["wings","legs"],"bee_group":{"antennae":"X","wings":"2","pattern":"X","legs":"F"},"correct":true,"bonus":0.540000000000001},{"rt":3311.39999999851,"stimulus":"<p>Congrats, you got everything right<br>When you're ready, click the button below to continue to the experiment.</p>","response":0,"trial_type":"html-button-response","trial_index":10,"time_elapsed":266136,"internal_node_id":"0.0-3.0-4.0-3.0","subject_id":"6158701cde28270a24747a2e","study_id":"6197b3f67c2b5cd3b6d9596a","session_id":"6197b88eeb8b99824089f8cf","condition":"full-information","relevant_dimensions":["wings","legs"],"bee_group":{"antennae":"X","wings":"2","pattern":"X","legs":"F"},"bonus":0.540000000000001},{"rt":5252.79999999702,"stimulus":"bees-with-color/bee-A1DF.svg","response":0,"trial_type":"image-button-response","trial_index":11,"time_elapsed":271394,"internal_node_id":"0.0-4.0-0.0","subject_id":"6158701cde28270a24747a2e","study_id":"6197b3f67c2b5cd3b6d9596a","session_id":"6197b88eeb8b99824089f8cf","condition":"full-information","relevant_dimensions":["wings","legs"],"bee_group":{"antennae":"X","wings":"2","pattern":"X","legs":"F"},"action":"harvest","summary":"good-harvest","bonus":0.540000000000001},{"rt":10631.69999999553,"stimulus":"\n                    <p><b>Action: <em>harvest</em></b></p>\n                    <p>This is the bee that you just saw.</p>\n                    <img src=\"bees-with-color/bee-A1DF.svg\" width=\"200\">\n                    <p><span class=\"greenText\"><b>Successful harvest!</b></span><br>Your pay has increased by $0.02. Your bonus pay is now $0.56.</p>\n            ","response":0,"trial_type":"html-button-response","trial_index":12,"time_elapsed":282030,"internal_node_id":"0.0-4.0-1.0","subject_id":"6158701cde28270a24747a2e","study_id":"6197b3f67c2b5cd3b6d9596a","session_id":"6197b88eeb8b99824089f8cf","condition":"full-information","relevant_dimensions":["wings","legs"],"bee_group":{"antennae":"X","wings":"2","pattern":"X","legs":"F"},"bonus":0.540000000000001},{"rt":1932.8999999985099,"stimulus":"bees-with-color/bee-A2SF.svg","response":1,"trial_type":"image-button-response","trial_index":13,"time_elapsed":283966,"internal_node_id":"0.0-4.0-0.1","subject_id":"6158701cde28270a24747a2e","study_id":"6197b3f67c2b5cd3b6d9596a","session_id":"6197b88eeb8b99824089f8cf","condition":"full-information","relevant_dimensions":["wings","legs"],"bee_group":{"antennae":"X","wings":"2","pattern":"X","legs":"F"},"action":"avoid","summary":"good-avoid","bonus":0.540000000000001},{"rt":3451.10000000149,"stimulus":"\n                    <p><b>Action: <em>avoid</em></b></p>\n                    <p>This is the bee that you just saw.</p>\n                    <img src=\"bees-with-color/bee-A2SF.svg\" width=\"200\">\n                    <p><span class=\"greenText\">Good choice!</span>  This bee would have stung you.<br>Your bonus pay is unchanged, and remains at $0.56.</p>\n            ","response":0,"trial_type":"html-button-response","trial_index":14,"time_elapsed":287420,"internal_node_id":"0.0-4.0-1.1","subject_id":"6158701cde28270a24747a2e","study_id":"6197b3f67c2b5cd3b6d9596a","session_id":"6197b88eeb8b99824089f8cf","condition":"full-information","relevant_dimensions":["wings","legs"],"bee_group":{"antennae":"X","wings":"2","pattern":"X","legs":"F"},"bonus":0.540000000000001},{"rt":1656.8000000044703,"stimulus":"bees-with-color/bee-A2DM.svg","response":0,"trial_type":"image-button-response","trial_index":15,"time_elapsed":289080,"internal_node_id":"0.0-4.0-0.2","subject_id":"6158701cde28270a24747a2e","study_id":"6197b3f67c2b5cd3b6d9596a","session_id":"6197b88eeb8b99824089f8cf","condition":"full-information","relevant_dimensions":["wings","legs"],"bee_group":{"antennae":"X","wings":"2","pattern":"X","legs":"F"},"action":"harvest","summary":"good-harvest","bonus":0.540000000000001},{"rt":5521.69999999553,"stimulus":"\n                    <p><b>Action: <em>harvest</em></b></p>\n                    <p>This is the bee that you just saw.</p>\n                    <img src=\"bees-with-color/bee-A2DM.svg\" width=\"200\">\n                    <p><span class=\"greenText\"><b>Successful harvest!</b></span><br>Your pay has increased by $0.02. Your bonus pay is now $0.58.</p>\n            ","response":0,"trial_type":"html-button-response","trial_index":16,"time_elapsed":294605,"internal_node_id":"0.0-4.0-1.2","subject_id":"6158701cde28270a24747a2e","study_id":"6197b3f67c2b5cd3b6d9596a","session_id":"6197b88eeb8b99824089f8cf","condition":"full-information","relevant_dimensions":["wings","legs"],"bee_group":{"antennae":"X","wings":"2","pattern":"X","legs":"F"},"bonus":0.540000000000001},{"rt":2045.3999999985099,"stimulus":"bees-with-color/bee-A1SF.svg","response":1,"trial_type":"image-button-response","trial_index":17,"time_elapsed":296654,"internal_node_id":"0.0-4.0-0.3","subject_id":"6158701cde28270a24747a2e","study_id":"6197b3f67c2b5cd3b6d9596a","session_id":"6197b88eeb8b99824089f8cf","condition":"full-information","relevant_dimensions":["wings","legs"],"bee_group":{"antennae":"X","wings":"2","pattern":"X","legs":"F"},"action":"avoid","summary":"bad-avoid","bonus":0.540000000000001},{"rt":4766.89999999851,"stimulus":"\n                    <p><b>Action: <em>avoid</em></b></p>\n                    <p>This is the bee that you just saw.</p>\n                    <img src=\"bees-with-color/bee-A1SF.svg\" width=\"200\">\n                    <p><span class=\"redText\">Bad choice,</span> the bee was friendly.<br>Your bonus pay is unchanged, and remains at $0.58.</p>\n            ","response":0,"trial_type":"html-button-response","trial_index":18,"time_elapsed":301424,"internal_node_id":"0.0-4.0-1.3","subject_id":"6158701cde28270a24747a2e","study_id":"6197b3f67c2b5cd3b6d9596a","session_id":"6197b88eeb8b99824089f8cf","condition":"full-information","relevant_dimensions":["wings","legs"],"bee_group":{"antennae":"X","wings":"2","pattern":"X","legs":"F"},"bonus":0.540000000000001},{"rt":4443.60000000149,"stimulus":"bees-with-color/bee-B1DM.svg","response":1,"trial_type":"image-button-response","trial_index":19,"time_elapsed":305871,"internal_node_id":"0.0-4.0-0.4","subject_id":"6158701cde28270a24747a2e","study_id":"6197b3f67c2b5cd3b6d9596a","session_id":"6197b88eeb8b99824089f8cf","condition":"full-information","relevant_dimensions":["wings","legs"],"bee_group":{"antennae":"X","wings":"2","pattern":"X","legs":"F"},"action":"avoid","summary":"bad-avoid","bonus":0.540000000000001},{"rt":2031.6000000014901,"stimulus":"\n                    <p><b>Action: <em>avoid</em></b></p>\n                    <p>This is the bee that you just saw.</p>\n                    <img src=\"bees-with-color/bee-B1DM.svg\" width=\"200\">\n                    <p><span class=\"redText\">Bad choice,</span> the bee was friendly.<br>Your bonus pay is unchanged, and remains at $0.58.</p>\n            ","response":0,"trial_type":"html-button-response","trial_index":20,"time_elapsed":307906,"internal_node_id":"0.0-4.0-1.4","subject_id":"6158701cde28270a24747a2e","study_id":"6197b3f67c2b5cd3b6d9596a","session_id":"6197b88eeb8b99824089f8cf","condition":"full-information","relevant_dimensions":["wings","legs"],"bee_group":{"antennae":"X","wings":"2","pattern":"X","legs":"F"},"bonus":0.540000000000001},{"rt":2906.4000000059605,"stimulus":"bees-with-color/bee-B2DM.svg","response":0,"trial_type":"image-button-response","trial_index":21,"time_elapsed":310816,"internal_node_id":"0.0-4.0-0.5","subject_id":"6158701cde28270a24747a2e","study_id":"6197b3f67c2b5cd3b6d9596a","session_id":"6197b88eeb8b99824089f8cf","condition":"full-information","relevant_dimensions":["wings","legs"],"bee_group":{"antennae":"X","wings":"2","pattern":"X","legs":"F"},"action":"harvest","summary":"good-harvest","bonus":0.540000000000001},{"rt":2022.3999999985099,"stimulus":"\n                    <p><b>Action: <em>harvest</em></b></p>\n                    <p>This is the bee that you just saw.</p>\n                    <img src=\"bees-with-color/bee-B2DM.svg\" width=\"200\">\n                    <p><span class=\"greenText\"><b>Successful harvest!</b></span><br>Your pay has increased by $0.02. Your bonus pay is now $0.60.</p>\n            ","response":0,"trial_type":"html-button-response","trial_index":22,"time_elapsed":312842,"internal_node_id":"0.0-4.0-1.5","subject_id":"6158701cde28270a24747a2e","study_id":"6197b3f67c2b5cd3b6d9596a","session_id":"6197b88eeb8b99824089f8cf","condition":"full-information","relevant_dimensions":["wings","legs"],"bee_group":{"antennae":"X","wings":"2","pattern":"X","legs":"F"},"bonus":0.540000000000001},{"rt":1664.8000000044703,"stimulus":"bees-with-color/bee-B2SM.svg","response":1,"trial_type":"image-button-response","trial_index":23,"time_elapsed":314510,"internal_node_id":"0.0-4.0-0.6","subject_id":"6158701cde28270a24747a2e","study_id":"6197b3f67c2b5cd3b6d9596a","session_id":"6197b88eeb8b99824089f8cf","condition":"full-information","relevant_dimensions":["wings","legs"],"bee_group":{"antennae":"X","wings":"2","pattern":"X","legs":"F"},"action":"avoid","summary":"bad-avoid","bonus":0.540000000000001},{"rt":2358.8000000044703,"stimulus":"\n                    <p><b>Action: <em>avoid</em></b></p>\n                    <p>This is the bee that you just saw.</p>\n                    <img src=\"bees-with-color/bee-B2SM.svg\" width=\"200\">\n                    <p><span class=\"redText\">Bad choice,</span> the bee was friendly.<br>Your bonus pay is unchanged, and remains at $0.60.</p>\n            ","response":0,"trial_type":"html-button-response","trial_index":24,"time_elapsed":316872,"internal_node_id":"0.0-4.0-1.6","subject_id":"6158701cde28270a24747a2e","study_id":"6197b3f67c2b5cd3b6d9596a","session_id":"6197b88eeb8b99824089f8cf","condition":"full-information","relevant_dimensions":["wings","legs"],"bee_group":{"antennae":"X","wings":"2","pattern":"X","legs":"F"},"bonus":0.540000000000001},{"rt":3666.5,"stimulus":"bees-with-color/bee-B2DF.svg","response":0,"trial_type":"image-button-response","trial_index":25,"time_elapsed":320542,"internal_node_id":"0.0-4.0-0.7","subject_id":"6158701cde28270a24747a2e","study_id":"6197b3f67c2b5cd3b6d9596a","session_id":"6197b88eeb8b99824089f8cf","condition":"full-information","relevant_dimensions":["wings","legs"],"bee_group":{"antennae":"X","wings":"2","pattern":"X","legs":"F"},"action":"harvest","summary":"bad-harvest","bonus":0.540000000000001},{"rt":5688,"stimulus":"\n                    <p><b>Action: <em>harvest</em></b></p>\n                    <p>This is the bee that you just saw.</p>\n                    <img src=\"bees-with-color/bee-B2DF.svg\" width=\"200\">\n                    <p><span class=\"redText\">Bad choice, the bee was angry.</span><br><b>You have been stung!</b><br>Your pay has been decreased by $0.10. Your bonus pay is now $0.50.</p>\n            ","response":0,"trial_type":"html-button-response","trial_index":26,"time_elapsed":326232,"internal_node_id":"0.0-4.0-1.7","subject_id":"6158701cde28270a24747a2e","study_id":"6197b3f67c2b5cd3b6d9596a","session_id":"6197b88eeb8b99824089f8cf","condition":"full-information","relevant_dimensions":["wings","legs"],"bee_group":{"antennae":"X","wings":"2","pattern":"X","legs":"F"},"bonus":0.540000000000001},{"rt":2067.39999999851,"stimulus":"bees-with-color/bee-B1SF.svg","response":1,"trial_type":"image-button-response","trial_index":27,"time_elapsed":328302,"internal_node_id":"0.0-4.0-0.8","subject_id":"6158701cde28270a24747a2e","study_id":"6197b3f67c2b5cd3b6d9596a","session_id":"6197b88eeb8b99824089f8cf","condition":"full-information","relevant_dimensions":["wings","legs"],"bee_group":{"antennae":"X","wings":"2","pattern":"X","legs":"F"},"action":"avoid","summary":"bad-avoid","bonus":0.540000000000001},{"rt":1461.6999999955297,"stimulus":"\n                    <p><b>Action: <em>avoid</em></b></p>\n                    <p>This is the bee that you just saw.</p>\n                    <img src=\"bees-with-color/bee-B1SF.svg\" width=\"200\">\n                    <p><span class=\"redText\">Bad choice,</span> the bee was friendly.<br>Your bonus pay is unchanged, and remains at $0.50.</p>\n            ","response":0,"trial_type":"html-button-response","trial_index":28,"time_elapsed":329766,"internal_node_id":"0.0-4.0-1.8","subject_id":"6158701cde28270a24747a2e","study_id":"6197b3f67c2b5cd3b6d9596a","session_id":"6197b88eeb8b99824089f8cf","condition":"full-information","relevant_dimensions":["wings","legs"],"bee_group":{"antennae":"X","wings":"2","pattern":"X","legs":"F"},"bonus":0.540000000000001},{"rt":3078.60000000149,"stimulus":"bees-with-color/bee-A1DM.svg","response":0,"trial_type":"image-button-response","trial_index":29,"time_elapsed":332847,"internal_node_id":"0.0-4.0-0.9","subject_id":"6158701cde28270a24747a2e","study_id":"6197b3f67c2b5cd3b6d9596a","session_id":"6197b88eeb8b99824089f8cf","condition":"full-information","relevant_dimensions":["wings","legs"],"bee_group":{"antennae":"X","wings":"2","pattern":"X","legs":"F"},"action":"harvest","summary":"good-harvest","bonus":0.540000000000001},{"rt":1830.7999999970198,"stimulus":"\n                    <p><b>Action: <em>harvest</em></b></p>\n                    <p>This is the bee that you just saw.</p>\n                    <img src=\"bees-with-color/bee-A1DM.svg\" width=\"200\">\n                    <p><span class=\"greenText\"><b>Successful harvest!</b></span><br>Your pay has increased by $0.02. Your bonus pay is now $0.52.</p>\n            ","response":0,"trial_type":"html-button-response","trial_index":30,"time_elapsed":334680,"internal_node_id":"0.0-4.0-1.9","subject_id":"6158701cde28270a24747a2e","study_id":"6197b3f67c2b5cd3b6d9596a","session_id":"6197b88eeb8b99824089f8cf","condition":"full-information","relevant_dimensions":["wings","legs"],"bee_group":{"antennae":"X","wings":"2","pattern":"X","legs":"F"},"bonus":0.540000000000001},{"rt":2728.39999999851,"stimulus":"bees-with-color/bee-A2DF.svg","response":1,"trial_type":"image-button-response","trial_index":31,"time_elapsed":337412,"internal_node_id":"0.0-4.0-0.10","subject_id":"6158701cde28270a24747a2e","study_id":"6197b3f67c2b5cd3b6d9596a","session_id":"6197b88eeb8b99824089f8cf","condition":"full-information","relevant_dimensions":["wings","legs"],"bee_group":{"antennae":"X","wings":"2","pattern":"X","legs":"F"},"action":"avoid","summary":"good-avoid","bonus":0.540000000000001},{"rt":2082.39999999851,"stimulus":"\n                    <p><b>Action: <em>avoid</em></b></p>\n                    <p>This is the bee that you just saw.</p>\n                    <img src=\"bees-with-color/bee-A2DF.svg\" width=\"200\">\n                    <p><span class=\"greenText\">Good choice!</span>  This bee would have stung you.<br>Your bonus pay is unchanged, and remains at $0.52.</p>\n            ","response":0,"trial_type":"html-button-response","trial_index":32,"time_elapsed":339496,"internal_node_id":"0.0-4.0-1.10","subject_id":"6158701cde28270a24747a2e","study_id":"6197b3f67c2b5cd3b6d9596a","session_id":"6197b88eeb8b99824089f8cf","condition":"full-information","relevant_dimensions":["wings","legs"],"bee_group":{"antennae":"X","wings":"2","pattern":"X","legs":"F"},"bonus":0.540000000000001},{"rt":5101.5,"stimulus":"bees-with-color/bee-B2SF.svg","response":1,"trial_type":"image-button-response","trial_index":33,"time_elapsed":344601,"internal_node_id":"0.0-4.0-0.11","subject_id":"6158701cde28270a24747a2e","study_id":"6197b3f67c2b5cd3b6d9596a","session_id":"6197b88eeb8b99824089f8cf","condition":"full-information","relevant_dimensions":["wings","legs"],"bee_group":{"antennae":"X","wings":"2","pattern":"X","legs":"F"},"action":"avoid","summary":"good-avoid","bonus":0.540000000000001},{"rt":1814.7000000029802,"stimulus":"\n                    <p><b>Action: <em>avoid</em></b></p>\n                    <p>This is the bee that you just saw.</p>\n                    <img src=\"bees-with-color/bee-B2SF.svg\" width=\"200\">\n                    <p><span class=\"greenText\">Good choice!</span>  This bee would have stung you.<br>Your bonus pay is unchanged, and remains at $0.52.</p>\n            ","response":0,"trial_type":"html-button-response","trial_index":34,"time_elapsed":346418,"internal_node_id":"0.0-4.0-1.11","subject_id":"6158701cde28270a24747a2e","study_id":"6197b3f67c2b5cd3b6d9596a","session_id":"6197b88eeb8b99824089f8cf","condition":"full-information","relevant_dimensions":["wings","legs"],"bee_group":{"antennae":"X","wings":"2","pattern":"X","legs":"F"},"bonus":0.540000000000001},{"rt":2912.39999999851,"stimulus":"bees-with-color/bee-B1DF.svg","response":0,"trial_type":"image-button-response","trial_index":35,"time_elapsed":349334,"internal_node_id":"0.0-4.0-0.12","subject_id":"6158701cde28270a24747a2e","study_id":"6197b3f67c2b5cd3b6d9596a","session_id":"6197b88eeb8b99824089f8cf","condition":"full-information","relevant_dimensions":["wings","legs"],"bee_group":{"antennae":"X","wings":"2","pattern":"X","legs":"F"},"action":"harvest","summary":"good-harvest","bonus":0.540000000000001},{"rt":3062.9000000059605,"stimulus":"\n                    <p><b>Action: <em>harvest</em></b></p>\n                    <p>This is the bee that you just saw.</p>\n                    <img src=\"bees-with-color/bee-B1DF.svg\" width=\"200\">\n                    <p><span class=\"greenText\"><b>Successful harvest!</b></span><br>Your pay has increased by $0.02. Your bonus pay is now $0.54.</p>\n            ","response":0,"trial_type":"html-button-response","trial_index":36,"time_elapsed":352399,"internal_node_id":"0.0-4.0-1.12","subject_id":"6158701cde28270a24747a2e","study_id":"6197b3f67c2b5cd3b6d9596a","session_id":"6197b88eeb8b99824089f8cf","condition":"full-information","relevant_dimensions":["wings","legs"],"bee_group":{"antennae":"X","wings":"2","pattern":"X","legs":"F"},"bonus":0.540000000000001},{"rt":2360.60000000149,"stimulus":"bees-with-color/bee-B1SM.svg","response":1,"trial_type":"image-button-response","trial_index":37,"time_elapsed":354763,"internal_node_id":"0.0-4.0-0.13","subject_id":"6158701cde28270a24747a2e","study_id":"6197b3f67c2b5cd3b6d9596a","session_id":"6197b88eeb8b99824089f8cf","condition":"full-information","relevant_dimensions":["wings","legs"],"bee_group":{"antennae":"X","wings":"2","pattern":"X","legs":"F"},"action":"avoid","summary":"bad-avoid","bonus":0.540000000000001},{"rt":2992.60000000149,"stimulus":"\n                    <p><b>Action: <em>avoid</em></b></p>\n                    <p>This is the bee that you just saw.</p>\n                    <img src=\"bees-with-color/bee-B1SM.svg\" width=\"200\">\n                    <p><span class=\"redText\">Bad choice,</span> the bee was friendly.<br>Your bonus pay is unchanged, and remains at $0.54.</p>\n            ","response":0,"trial_type":"html-button-response","trial_index":38,"time_elapsed":357759,"internal_node_id":"0.0-4.0-1.13","subject_id":"6158701cde28270a24747a2e","study_id":"6197b3f67c2b5cd3b6d9596a","session_id":"6197b88eeb8b99824089f8cf","condition":"full-information","relevant_dimensions":["wings","legs"],"bee_group":{"antennae":"X","wings":"2","pattern":"X","legs":"F"},"bonus":0.540000000000001},{"rt":1970.5,"stimulus":"bees-with-color/bee-A1SM.svg","response":1,"trial_type":"image-button-response","trial_index":39,"time_elapsed":359732,"internal_node_id":"0.0-4.0-0.14","subject_id":"6158701cde28270a24747a2e","study_id":"6197b3f67c2b5cd3b6d9596a","session_id":"6197b88eeb8b99824089f8cf","condition":"full-information","relevant_dimensions":["wings","legs"],"bee_group":{"antennae":"X","wings":"2","pattern":"X","legs":"F"},"action":"avoid","summary":"bad-avoid","bonus":0.540000000000001},{"rt":1247.8000000044703,"stimulus":"\n                    <p><b>Action: <em>avoid</em></b></p>\n                    <p>This is the bee that you just saw.</p>\n                    <img src=\"bees-with-color/bee-A1SM.svg\" width=\"200\">\n                    <p><span class=\"redText\">Bad choice,</span> the bee was friendly.<br>Your bonus pay is unchanged, and remains at $0.54.</p>\n            ","response":0,"trial_type":"html-button-response","trial_index":40,"time_elapsed":360982,"internal_node_id":"0.0-4.0-1.14","subject_id":"6158701cde28270a24747a2e","study_id":"6197b3f67c2b5cd3b6d9596a","session_id":"6197b88eeb8b99824089f8cf","condition":"full-information","relevant_dimensions":["wings","legs"],"bee_group":{"antennae":"X","wings":"2","pattern":"X","legs":"F"},"bonus":0.540000000000001},{"rt":1767.1000000014901,"stimulus":"bees-with-color/bee-A2SM.svg","response":1,"trial_type":"image-button-response","trial_index":41,"time_elapsed":362752,"internal_node_id":"0.0-4.0-0.15","subject_id":"6158701cde28270a24747a2e","study_id":"6197b3f67c2b5cd3b6d9596a","session_id":"6197b88eeb8b99824089f8cf","condition":"full-information","relevant_dimensions":["wings","legs"],"bee_group":{"antennae":"X","wings":"2","pattern":"X","legs":"F"},"action":"avoid","summary":"bad-avoid","bonus":0.540000000000001},{"rt":1304.6999999955297,"stimulus":"\n                    <p><b>Action: <em>avoid</em></b></p>\n                    <p>This is the bee that you just saw.</p>\n                    <img src=\"bees-with-color/bee-A2SM.svg\" width=\"200\">\n                    <p><span class=\"redText\">Bad choice,</span> the bee was friendly.<br>Your bonus pay is unchanged, and remains at $0.54.</p>\n            ","response":0,"trial_type":"html-button-response","trial_index":42,"time_elapsed":364059,"internal_node_id":"0.0-4.0-1.15","subject_id":"6158701cde28270a24747a2e","study_id":"6197b3f67c2b5cd3b6d9596a","session_id":"6197b88eeb8b99824089f8cf","condition":"full-information","relevant_dimensions":["wings","legs"],"bee_group":{"antennae":"X","wings":"2","pattern":"X","legs":"F"},"bonus":0.540000000000001},{"rt":2432,"stimulus":"bees-with-color/bee-A2DF.svg","response":1,"trial_type":"image-button-response","trial_index":43,"time_elapsed":366494,"internal_node_id":"0.0-4.0-0.16","subject_id":"6158701cde28270a24747a2e","study_id":"6197b3f67c2b5cd3b6d9596a","session_id":"6197b88eeb8b99824089f8cf","condition":"full-information","relevant_dimensions":["wings","legs"],"bee_group":{"antennae":"X","wings":"2","pattern":"X","legs":"F"},"action":"avoid","summary":"good-avoid","bonus":0.540000000000001},{"rt":3144.10000000149,"stimulus":"\n                    <p><b>Action: <em>avoid</em></b></p>\n                    <p>This is the bee that you just saw.</p>\n                    <img src=\"bees-with-color/bee-A2DF.svg\" width=\"200\">\n                    <p><span class=\"greenText\">Good choice!</span>  This bee would have stung you.<br>Your bonus pay is unchanged, and remains at $0.54.</p>\n            ","response":0,"trial_type":"html-button-response","trial_index":44,"time_elapsed":369642,"internal_node_id":"0.0-4.0-1.16","subject_id":"6158701cde28270a24747a2e","study_id":"6197b3f67c2b5cd3b6d9596a","session_id":"6197b88eeb8b99824089f8cf","condition":"full-information","relevant_dimensions":["wings","legs"],"bee_group":{"antennae":"X","wings":"2","pattern":"X","legs":"F"},"bonus":0.540000000000001},{"rt":2107,"stimulus":"bees-with-color/bee-B1DM.svg","response":0,"trial_type":"image-button-response","trial_index":45,"time_elapsed":371752,"internal_node_id":"0.0-4.0-0.17","subject_id":"6158701cde28270a24747a2e","study_id":"6197b3f67c2b5cd3b6d9596a","session_id":"6197b88eeb8b99824089f8cf","condition":"full-information","relevant_dimensions":["wings","legs"],"bee_group":{"antennae":"X","wings":"2","pattern":"X","legs":"F"},"action":"harvest","summary":"good-harvest","bonus":0.540000000000001},{"rt":1990.4000000059605,"stimulus":"\n                    <p><b>Action: <em>harvest</em></b></p>\n                    <p>This is the bee that you just saw.</p>\n                    <img src=\"bees-with-color/bee-B1DM.svg\" width=\"200\">\n                    <p><span class=\"greenText\"><b>Successful harvest!</b></span><br>Your pay has increased by $0.02. Your bonus pay is now $0.56.</p>\n            ","response":0,"trial_type":"html-button-response","trial_index":46,"time_elapsed":373745,"internal_node_id":"0.0-4.0-1.17","subject_id":"6158701cde28270a24747a2e","study_id":"6197b3f67c2b5cd3b6d9596a","session_id":"6197b88eeb8b99824089f8cf","condition":"full-information","relevant_dimensions":["wings","legs"],"bee_group":{"antennae":"X","wings":"2","pattern":"X","legs":"F"},"bonus":0.540000000000001},{"rt":2299,"stimulus":"bees-with-color/bee-B2SF.svg","response":0,"trial_type":"image-button-response","trial_index":47,"time_elapsed":376048,"internal_node_id":"0.0-4.0-0.18","subject_id":"6158701cde28270a24747a2e","study_id":"6197b3f67c2b5cd3b6d9596a","session_id":"6197b88eeb8b99824089f8cf","condition":"full-information","relevant_dimensions":["wings","legs"],"bee_group":{"antennae":"X","wings":"2","pattern":"X","legs":"F"},"action":"harvest","summary":"bad-harvest","bonus":0.540000000000001},{"rt":2761.9000000059605,"stimulus":"\n                    <p><b>Action: <em>harvest</em></b></p>\n                    <p>This is the bee that you just saw.</p>\n                    <img src=\"bees-with-color/bee-B2SF.svg\" width=\"200\">\n                    <p><span class=\"redText\">Bad choice, the bee was angry.</span><br><b>You have been stung!</b><br>Your pay has been decreased by $0.10. Your bonus pay is now $0.46.</p>\n            ","response":0,"trial_type":"html-button-response","trial_index":48,"time_elapsed":378813,"internal_node_id":"0.0-4.0-1.18","subject_id":"6158701cde28270a24747a2e","study_id":"6197b3f67c2b5cd3b6d9596a","session_id":"6197b88eeb8b99824089f8cf","condition":"full-information","relevant_dimensions":["wings","legs"],"bee_group":{"antennae":"X","wings":"2","pattern":"X","legs":"F"},"bonus":0.540000000000001},{"rt":1688.8999999985099,"stimulus":"bees-with-color/bee-B2SM.svg","response":1,"trial_type":"image-button-response","trial_index":49,"time_elapsed":380504,"internal_node_id":"0.0-4.0-0.19","subject_id":"6158701cde28270a24747a2e","study_id":"6197b3f67c2b5cd3b6d9596a","session_id":"6197b88eeb8b99824089f8cf","condition":"full-information","relevant_dimensions":["wings","legs"],"bee_group":{"antennae":"X","wings":"2","pattern":"X","legs":"F"},"action":"avoid","summary":"bad-avoid","bonus":0.540000000000001},{"rt":1146.3000000044703,"stimulus":"\n                    <p><b>Action: <em>avoid</em></b></p>\n                    <p>This is the bee that you just saw.</p>\n                    <img src=\"bees-with-color/bee-B2SM.svg\" width=\"200\">\n                    <p><span class=\"redText\">Bad choice,</span> the bee was friendly.<br>Your bonus pay is unchanged, and remains at $0.46.</p>\n            ","response":0,"trial_type":"html-button-response","trial_index":50,"time_elapsed":381653,"internal_node_id":"0.0-4.0-1.19","subject_id":"6158701cde28270a24747a2e","study_id":"6197b3f67c2b5cd3b6d9596a","session_id":"6197b88eeb8b99824089f8cf","condition":"full-information","relevant_dimensions":["wings","legs"],"bee_group":{"antennae":"X","wings":"2","pattern":"X","legs":"F"},"bonus":0.540000000000001},{"rt":3999,"stimulus":"bees-with-color/bee-B2DM.svg","response":0,"trial_type":"image-button-response","trial_index":51,"time_elapsed":385655,"internal_node_id":"0.0-4.0-0.20","subject_id":"6158701cde28270a24747a2e","study_id":"6197b3f67c2b5cd3b6d9596a","session_id":"6197b88eeb8b99824089f8cf","condition":"full-information","relevant_dimensions":["wings","legs"],"bee_group":{"antennae":"X","wings":"2","pattern":"X","legs":"F"},"action":"harvest","summary":"good-harvest","bonus":0.540000000000001},{"rt":3668.6999999955297,"stimulus":"\n                    <p><b>Action: <em>harvest</em></b></p>\n                    <p>This is the bee that you just saw.</p>\n                    <img src=\"bees-with-color/bee-B2DM.svg\" width=\"200\">\n                    <p><span class=\"greenText\"><b>Successful harvest!</b></span><br>Your pay has increased by $0.02. Your bonus pay is now $0.48.</p>\n            ","response":0,"trial_type":"html-button-response","trial_index":52,"time_elapsed":389326,"internal_node_id":"0.0-4.0-1.20","subject_id":"6158701cde28270a24747a2e","study_id":"6197b3f67c2b5cd3b6d9596a","session_id":"6197b88eeb8b99824089f8cf","condition":"full-information","relevant_dimensions":["wings","legs"],"bee_group":{"antennae":"X","wings":"2","pattern":"X","legs":"F"},"bonus":0.540000000000001},{"rt":1867.7999999970198,"stimulus":"bees-with-color/bee-A2DM.svg","response":0,"trial_type":"image-button-response","trial_index":53,"time_elapsed":391198,"internal_node_id":"0.0-4.0-0.21","subject_id":"6158701cde28270a24747a2e","study_id":"6197b3f67c2b5cd3b6d9596a","session_id":"6197b88eeb8b99824089f8cf","condition":"full-information","relevant_dimensions":["wings","legs"],"bee_group":{"antennae":"X","wings":"2","pattern":"X","legs":"F"},"action":"harvest","summary":"good-harvest","bonus":0.540000000000001},{"rt":2594.89999999851,"stimulus":"\n                    <p><b>Action: <em>harvest</em></b></p>\n                    <p>This is the bee that you just saw.</p>\n                    <img src=\"bees-with-color/bee-A2DM.svg\" width=\"200\">\n                    <p><span class=\"greenText\"><b>Successful harvest!</b></span><br>Your pay has increased by $0.02. Your bonus pay is now $0.50.</p>\n            ","response":0,"trial_type":"html-button-response","trial_index":54,"time_elapsed":393796,"internal_node_id":"0.0-4.0-1.21","subject_id":"6158701cde28270a24747a2e","study_id":"6197b3f67c2b5cd3b6d9596a","session_id":"6197b88eeb8b99824089f8cf","condition":"full-information","relevant_dimensions":["wings","legs"],"bee_group":{"antennae":"X","wings":"2","pattern":"X","legs":"F"},"bonus":0.540000000000001},{"rt":3585.7000000029802,"stimulus":"bees-with-color/bee-A1SM.svg","response":0,"trial_type":"image-button-response","trial_index":55,"time_elapsed":397384,"internal_node_id":"0.0-4.0-0.22","subject_id":"6158701cde28270a24747a2e","study_id":"6197b3f67c2b5cd3b6d9596a","session_id":"6197b88eeb8b99824089f8cf","condition":"full-information","relevant_dimensions":["wings","legs"],"bee_group":{"antennae":"X","wings":"2","pattern":"X","legs":"F"},"action":"harvest","summary":"good-harvest","bonus":0.540000000000001},{"rt":2065.60000000149,"stimulus":"\n                    <p><b>Action: <em>harvest</em></b></p>\n                    <p>This is the bee that you just saw.</p>\n                    <img src=\"bees-with-color/bee-A1SM.svg\" width=\"200\">\n                    <p><span class=\"greenText\"><b>Successful harvest!</b></span><br>Your pay has increased by $0.02. Your bonus pay is now $0.52.</p>\n            ","response":0,"trial_type":"html-button-response","trial_index":56,"time_elapsed":399453,"internal_node_id":"0.0-4.0-1.22","subject_id":"6158701cde28270a24747a2e","study_id":"6197b3f67c2b5cd3b6d9596a","session_id":"6197b88eeb8b99824089f8cf","condition":"full-information","relevant_dimensions":["wings","legs"],"bee_group":{"antennae":"X","wings":"2","pattern":"X","legs":"F"},"bonus":0.540000000000001},{"rt":1951.1999999955297,"stimulus":"bees-with-color/bee-B1DF.svg","response":1,"trial_type":"image-button-response","trial_index":57,"time_elapsed":401408,"internal_node_id":"0.0-4.0-0.23","subject_id":"6158701cde28270a24747a2e","study_id":"6197b3f67c2b5cd3b6d9596a","session_id":"6197b88eeb8b99824089f8cf","condition":"full-information","relevant_dimensions":["wings","legs"],"bee_group":{"antennae":"X","wings":"2","pattern":"X","legs":"F"},"action":"avoid","summary":"bad-avoid","bonus":0.540000000000001},{"rt":1934.1000000014901,"stimulus":"\n                    <p><b>Action: <em>avoid</em></b></p>\n                    <p>This is the bee that you just saw.</p>\n                    <img src=\"bees-with-color/bee-B1DF.svg\" width=\"200\">\n                    <p><span class=\"redText\">Bad choice,</span> the bee was friendly.<br>Your bonus pay is unchanged, and remains at $0.52.</p>\n            ","response":0,"trial_type":"html-button-response","trial_index":58,"time_elapsed":403345,"internal_node_id":"0.0-4.0-1.23","subject_id":"6158701cde28270a24747a2e","study_id":"6197b3f67c2b5cd3b6d9596a","session_id":"6197b88eeb8b99824089f8cf","condition":"full-information","relevant_dimensions":["wings","legs"],"bee_group":{"antennae":"X","wings":"2","pattern":"X","legs":"F"},"bonus":0.540000000000001},{"rt":1914.7000000029802,"stimulus":"bees-with-color/bee-B2DF.svg","response":1,"trial_type":"image-button-response","trial_index":59,"time_elapsed":405262,"internal_node_id":"0.0-4.0-0.24","subject_id":"6158701cde28270a24747a2e","study_id":"6197b3f67c2b5cd3b6d9596a","session_id":"6197b88eeb8b99824089f8cf","condition":"full-information","relevant_dimensions":["wings","legs"],"bee_group":{"antennae":"X","wings":"2","pattern":"X","legs":"F"},"action":"avoid","summary":"good-avoid","bonus":0.540000000000001},{"rt":2198.89999999851,"stimulus":"\n                    <p><b>Action: <em>avoid</em></b></p>\n                    <p>This is the bee that you just saw.</p>\n                    <img src=\"bees-with-color/bee-B2DF.svg\" width=\"200\">\n                    <p><span class=\"greenText\">Good choice!</span>  This bee would have stung you.<br>Your bonus pay is unchanged, and remains at $0.52.</p>\n            ","response":0,"trial_type":"html-button-response","trial_index":60,"time_elapsed":407464,"internal_node_id":"0.0-4.0-1.24","subject_id":"6158701cde28270a24747a2e","study_id":"6197b3f67c2b5cd3b6d9596a","session_id":"6197b88eeb8b99824089f8cf","condition":"full-information","relevant_dimensions":["wings","legs"],"bee_group":{"antennae":"X","wings":"2","pattern":"X","legs":"F"},"bonus":0.540000000000001},{"rt":2500.4000000059605,"stimulus":"bees-with-color/bee-B1SM.svg","response":1,"trial_type":"image-button-response","trial_index":61,"time_elapsed":409967,"internal_node_id":"0.0-4.0-0.25","subject_id":"6158701cde28270a24747a2e","study_id":"6197b3f67c2b5cd3b6d9596a","session_id":"6197b88eeb8b99824089f8cf","condition":"full-information","relevant_dimensions":["wings","legs"],"bee_group":{"antennae":"X","wings":"2","pattern":"X","legs":"F"},"action":"avoid","summary":"bad-avoid","bonus":0.540000000000001},{"rt":1261.3000000044703,"stimulus":"\n                    <p><b>Action: <em>avoid</em></b></p>\n                    <p>This is the bee that you just saw.</p>\n                    <img src=\"bees-with-color/bee-B1SM.svg\" width=\"200\">\n                    <p><span class=\"redText\">Bad choice,</span> the bee was friendly.<br>Your bonus pay is unchanged, and remains at $0.52.</p>\n            ","response":0,"trial_type":"html-button-response","trial_index":62,"time_elapsed":411230,"internal_node_id":"0.0-4.0-1.25","subject_id":"6158701cde28270a24747a2e","study_id":"6197b3f67c2b5cd3b6d9596a","session_id":"6197b88eeb8b99824089f8cf","condition":"full-information","relevant_dimensions":["wings","legs"],"bee_group":{"antennae":"X","wings":"2","pattern":"X","legs":"F"},"bonus":0.540000000000001},{"rt":1705.5999999940395,"stimulus":"bees-with-color/bee-A1DF.svg","response":0,"trial_type":"image-button-response","trial_index":63,"time_elapsed":412939,"internal_node_id":"0.0-4.0-0.26","subject_id":"6158701cde28270a24747a2e","study_id":"6197b3f67c2b5cd3b6d9596a","session_id":"6197b88eeb8b99824089f8cf","condition":"full-information","relevant_dimensions":["wings","legs"],"bee_group":{"antennae":"X","wings":"2","pattern":"X","legs":"F"},"action":"harvest","summary":"good-harvest","bonus":0.540000000000001},{"rt":2409.5,"stimulus":"\n                    <p><b>Action: <em>harvest</em></b></p>\n                    <p>This is the bee that you just saw.</p>\n                    <img src=\"bees-with-color/bee-A1DF.svg\" width=\"200\">\n                    <p><span class=\"greenText\"><b>Successful harvest!</b></span><br>Your pay has increased by $0.02. Your bonus pay is now $0.54.</p>\n            ","response":0,"trial_type":"html-button-response","trial_index":64,"time_elapsed":415350,"internal_node_id":"0.0-4.0-1.26","subject_id":"6158701cde28270a24747a2e","study_id":"6197b3f67c2b5cd3b6d9596a","session_id":"6197b88eeb8b99824089f8cf","condition":"full-information","relevant_dimensions":["wings","legs"],"bee_group":{"antennae":"X","wings":"2","pattern":"X","legs":"F"},"bonus":0.540000000000001},{"rt":1921.7000000029802,"stimulus":"bees-with-color/bee-A1SF.svg","response":0,"trial_type":"image-button-response","trial_index":65,"time_elapsed":417275,"internal_node_id":"0.0-4.0-0.27","subject_id":"6158701cde28270a24747a2e","study_id":"6197b3f67c2b5cd3b6d9596a","session_id":"6197b88eeb8b99824089f8cf","condition":"full-information","relevant_dimensions":["wings","legs"],"bee_group":{"antennae":"X","wings":"2","pattern":"X","legs":"F"},"action":"harvest","summary":"good-harvest","bonus":0.540000000000001},{"rt":1846.5,"stimulus":"\n                    <p><b>Action: <em>harvest</em></b></p>\n                    <p>This is the bee that you just saw.</p>\n                    <img src=\"bees-with-color/bee-A1SF.svg\" width=\"200\">\n                    <p><span class=\"greenText\"><b>Successful harvest!</b></span><br>Your pay has increased by $0.02. Your bonus pay is now $0.56.</p>\n            ","response":0,"trial_type":"html-button-response","trial_index":66,"time_elapsed":419123,"internal_node_id":"0.0-4.0-1.27","subject_id":"6158701cde28270a24747a2e","study_id":"6197b3f67c2b5cd3b6d9596a","session_id":"6197b88eeb8b99824089f8cf","condition":"full-information","relevant_dimensions":["wings","legs"],"bee_group":{"antennae":"X","wings":"2","pattern":"X","legs":"F"},"bonus":0.540000000000001},{"rt":1514.3000000044703,"stimulus":"bees-with-color/bee-B1SF.svg","response":1,"trial_type":"image-button-response","trial_index":67,"time_elapsed":420640,"internal_node_id":"0.0-4.0-0.28","subject_id":"6158701cde28270a24747a2e","study_id":"6197b3f67c2b5cd3b6d9596a","session_id":"6197b88eeb8b99824089f8cf","condition":"full-information","relevant_dimensions":["wings","legs"],"bee_group":{"antennae":"X","wings":"2","pattern":"X","legs":"F"},"action":"avoid","summary":"bad-avoid","bonus":0.540000000000001},{"rt":2430.60000000149,"stimulus":"\n                    <p><b>Action: <em>avoid</em></b></p>\n                    <p>This is the bee that you just saw.</p>\n                    <img src=\"bees-with-color/bee-B1SF.svg\" width=\"200\">\n                    <p><span class=\"redText\">Bad choice,</span> the bee was friendly.<br>Your bonus pay is unchanged, and remains at $0.56.</p>\n            ","response":0,"trial_type":"html-button-response","trial_index":68,"time_elapsed":423074,"internal_node_id":"0.0-4.0-1.28","subject_id":"6158701cde28270a24747a2e","study_id":"6197b3f67c2b5cd3b6d9596a","session_id":"6197b88eeb8b99824089f8cf","condition":"full-information","relevant_dimensions":["wings","legs"],"bee_group":{"antennae":"X","wings":"2","pattern":"X","legs":"F"},"bonus":0.540000000000001},{"rt":6896.69999999553,"stimulus":"bees-with-color/bee-A2SF.svg","response":0,"trial_type":"image-button-response","trial_index":69,"time_elapsed":429973,"internal_node_id":"0.0-4.0-0.29","subject_id":"6158701cde28270a24747a2e","study_id":"6197b3f67c2b5cd3b6d9596a","session_id":"6197b88eeb8b99824089f8cf","condition":"full-information","relevant_dimensions":["wings","legs"],"bee_group":{"antennae":"X","wings":"2","pattern":"X","legs":"F"},"action":"harvest","summary":"bad-harvest","bonus":0.540000000000001},{"rt":1864.1000000014901,"stimulus":"\n                    <p><b>Action: <em>harvest</em></b></p>\n                    <p>This is the bee that you just saw.</p>\n                    <img src=\"bees-with-color/bee-A2SF.svg\" width=\"200\">\n                    <p><span class=\"redText\">Bad choice, the bee was angry.</span><br><b>You have been stung!</b><br>Your pay has been decreased by $0.10. Your bonus pay is now $0.46.</p>\n            ","response":0,"trial_type":"html-button-response","trial_index":70,"time_elapsed":431840,"internal_node_id":"0.0-4.0-1.29","subject_id":"6158701cde28270a24747a2e","study_id":"6197b3f67c2b5cd3b6d9596a","session_id":"6197b88eeb8b99824089f8cf","condition":"full-information","relevant_dimensions":["wings","legs"],"bee_group":{"antennae":"X","wings":"2","pattern":"X","legs":"F"},"bonus":0.540000000000001},{"rt":2233.5,"stimulus":"bees-with-color/bee-A2SM.svg","response":0,"trial_type":"image-button-response","trial_index":71,"time_elapsed":434076,"internal_node_id":"0.0-4.0-0.30","subject_id":"6158701cde28270a24747a2e","study_id":"6197b3f67c2b5cd3b6d9596a","session_id":"6197b88eeb8b99824089f8cf","condition":"full-information","relevant_dimensions":["wings","legs"],"bee_group":{"antennae":"X","wings":"2","pattern":"X","legs":"F"},"action":"harvest","summary":"good-harvest","bonus":0.540000000000001},{"rt":1951.1000000014901,"stimulus":"\n                    <p><b>Action: <em>harvest</em></b></p>\n                    <p>This is the bee that you just saw.</p>\n                    <img src=\"bees-with-color/bee-A2SM.svg\" width=\"200\">\n                    <p><span class=\"greenText\"><b>Successful harvest!</b></span><br>Your pay has increased by $0.02. Your bonus pay is now $0.48.</p>\n            ","response":0,"trial_type":"html-button-response","trial_index":72,"time_elapsed":436029,"internal_node_id":"0.0-4.0-1.30","subject_id":"6158701cde28270a24747a2e","study_id":"6197b3f67c2b5cd3b6d9596a","session_id":"6197b88eeb8b99824089f8cf","condition":"full-information","relevant_dimensions":["wings","legs"],"bee_group":{"antennae":"X","wings":"2","pattern":"X","legs":"F"},"bonus":0.540000000000001},{"rt":1216.3000000044703,"stimulus":"bees-with-color/bee-A1DM.svg","response":0,"trial_type":"image-button-response","trial_index":73,"time_elapsed":437249,"internal_node_id":"0.0-4.0-0.31","subject_id":"6158701cde28270a24747a2e","study_id":"6197b3f67c2b5cd3b6d9596a","session_id":"6197b88eeb8b99824089f8cf","condition":"full-information","relevant_dimensions":["wings","legs"],"bee_group":{"antennae":"X","wings":"2","pattern":"X","legs":"F"},"action":"harvest","summary":"good-harvest","bonus":0.540000000000001},{"rt":1216.1999999955297,"stimulus":"\n                    <p><b>Action: <em>harvest</em></b></p>\n                    <p>This is the bee that you just saw.</p>\n                    <img src=\"bees-with-color/bee-A1DM.svg\" width=\"200\">\n                    <p><span class=\"greenText\"><b>Successful harvest!</b></span><br>Your pay has increased by $0.02. Your bonus pay is now $0.50.</p>\n            ","response":0,"trial_type":"html-button-response","trial_index":74,"time_elapsed":438468,"internal_node_id":"0.0-4.0-1.31","subject_id":"6158701cde28270a24747a2e","study_id":"6197b3f67c2b5cd3b6d9596a","session_id":"6197b88eeb8b99824089f8cf","condition":"full-information","relevant_dimensions":["wings","legs"],"bee_group":{"antennae":"X","wings":"2","pattern":"X","legs":"F"},"bonus":0.540000000000001},{"rt":1436.7000000029802,"stimulus":"bees-with-color/bee-A1DM.svg","response":0,"trial_type":"image-button-response","trial_index":75,"time_elapsed":439908,"internal_node_id":"0.0-4.0-0.32","subject_id":"6158701cde28270a24747a2e","study_id":"6197b3f67c2b5cd3b6d9596a","session_id":"6197b88eeb8b99824089f8cf","condition":"full-information","relevant_dimensions":["wings","legs"],"bee_group":{"antennae":"X","wings":"2","pattern":"X","legs":"F"},"action":"harvest","summary":"good-harvest","bonus":0.540000000000001},{"rt":1013.6000000014901,"stimulus":"\n                    <p><b>Action: <em>harvest</em></b></p>\n                    <p>This is the bee that you just saw.</p>\n                    <img src=\"bees-with-color/bee-A1DM.svg\" width=\"200\">\n                    <p><span class=\"greenText\"><b>Successful harvest!</b></span><br>Your pay has increased by $0.02. Your bonus pay is now $0.52.</p>\n            ","response":0,"trial_type":"html-button-response","trial_index":76,"time_elapsed":440926,"internal_node_id":"0.0-4.0-1.32","subject_id":"6158701cde28270a24747a2e","study_id":"6197b3f67c2b5cd3b6d9596a","session_id":"6197b88eeb8b99824089f8cf","condition":"full-information","relevant_dimensions":["wings","legs"],"bee_group":{"antennae":"X","wings":"2","pattern":"X","legs":"F"},"bonus":0.540000000000001},{"rt":1265.1000000014901,"stimulus":"bees-with-color/bee-B1DF.svg","response":1,"trial_type":"image-button-response","trial_index":77,"time_elapsed":442194,"internal_node_id":"0.0-4.0-0.33","subject_id":"6158701cde28270a24747a2e","study_id":"6197b3f67c2b5cd3b6d9596a","session_id":"6197b88eeb8b99824089f8cf","condition":"full-information","relevant_dimensions":["wings","legs"],"bee_group":{"antennae":"X","wings":"2","pattern":"X","legs":"F"},"action":"avoid","summary":"bad-avoid","bonus":0.540000000000001},{"rt":1000.7000000029802,"stimulus":"\n                    <p><b>Action: <em>avoid</em></b></p>\n                    <p>This is the bee that you just saw.</p>\n                    <img src=\"bees-with-color/bee-B1DF.svg\" width=\"200\">\n                    <p><span class=\"redText\">Bad choice,</span> the bee was friendly.<br>Your bonus pay is unchanged, and remains at $0.52.</p>\n            ","response":0,"trial_type":"html-button-response","trial_index":78,"time_elapsed":443197,"internal_node_id":"0.0-4.0-1.33","subject_id":"6158701cde28270a24747a2e","study_id":"6197b3f67c2b5cd3b6d9596a","session_id":"6197b88eeb8b99824089f8cf","condition":"full-information","relevant_dimensions":["wings","legs"],"bee_group":{"antennae":"X","wings":"2","pattern":"X","legs":"F"},"bonus":0.540000000000001},{"rt":1701.7000000029802,"stimulus":"bees-with-color/bee-A1SF.svg","response":0,"trial_type":"image-button-response","trial_index":79,"time_elapsed":444901,"internal_node_id":"0.0-4.0-0.34","subject_id":"6158701cde28270a24747a2e","study_id":"6197b3f67c2b5cd3b6d9596a","session_id":"6197b88eeb8b99824089f8cf","condition":"full-information","relevant_dimensions":["wings","legs"],"bee_group":{"antennae":"X","wings":"2","pattern":"X","legs":"F"},"action":"harvest","summary":"good-harvest","bonus":0.540000000000001},{"rt":1265,"stimulus":"\n                    <p><b>Action: <em>harvest</em></b></p>\n                    <p>This is the bee that you just saw.</p>\n                    <img src=\"bees-with-color/bee-A1SF.svg\" width=\"200\">\n                    <p><span class=\"greenText\"><b>Successful harvest!</b></span><br>Your pay has increased by $0.02. Your bonus pay is now $0.54.</p>\n            ","response":0,"trial_type":"html-button-response","trial_index":80,"time_elapsed":446169,"internal_node_id":"0.0-4.0-1.34","subject_id":"6158701cde28270a24747a2e","study_id":"6197b3f67c2b5cd3b6d9596a","session_id":"6197b88eeb8b99824089f8cf","condition":"full-information","relevant_dimensions":["wings","legs"],"bee_group":{"antennae":"X","wings":"2","pattern":"X","legs":"F"},"bonus":0.540000000000001},{"rt":2215.3000000044703,"stimulus":"bees-with-color/bee-A2DM.svg","response":0,"trial_type":"image-button-response","trial_index":81,"time_elapsed":448387,"internal_node_id":"0.0-4.0-0.35","subject_id":"6158701cde28270a24747a2e","study_id":"6197b3f67c2b5cd3b6d9596a","session_id":"6197b88eeb8b99824089f8cf","condition":"full-information","relevant_dimensions":["wings","legs"],"bee_group":{"antennae":"X","wings":"2","pattern":"X","legs":"F"},"action":"harvest","summary":"good-harvest","bonus":0.540000000000001},{"rt":1014.7999999970198,"stimulus":"\n                    <p><b>Action: <em>harvest</em></b></p>\n                    <p>This is the bee that you just saw.</p>\n                    <img src=\"bees-with-color/bee-A2DM.svg\" width=\"200\">\n                    <p><span class=\"greenText\"><b>Successful harvest!</b></span><br>Your pay has increased by $0.02. Your bonus pay is now $0.56.</p>\n            ","response":0,"trial_type":"html-button-response","trial_index":82,"time_elapsed":449405,"internal_node_id":"0.0-4.0-1.35","subject_id":"6158701cde28270a24747a2e","study_id":"6197b3f67c2b5cd3b6d9596a","session_id":"6197b88eeb8b99824089f8cf","condition":"full-information","relevant_dimensions":["wings","legs"],"bee_group":{"antennae":"X","wings":"2","pattern":"X","legs":"F"},"bonus":0.540000000000001},{"rt":1601.6000000014901,"stimulus":"bees-with-color/bee-A2SF.svg","response":1,"trial_type":"image-button-response","trial_index":83,"time_elapsed":451009,"internal_node_id":"0.0-4.0-0.36","subject_id":"6158701cde28270a24747a2e","study_id":"6197b3f67c2b5cd3b6d9596a","session_id":"6197b88eeb8b99824089f8cf","condition":"full-information","relevant_dimensions":["wings","legs"],"bee_group":{"antennae":"X","wings":"2","pattern":"X","legs":"F"},"action":"avoid","summary":"good-avoid","bonus":0.540000000000001},{"rt":2202.2999999970198,"stimulus":"\n                    <p><b>Action: <em>avoid</em></b></p>\n                    <p>This is the bee that you just saw.</p>\n                    <img src=\"bees-with-color/bee-A2SF.svg\" width=\"200\">\n                    <p><span class=\"greenText\">Good choice!</span>  This bee would have stung you.<br>Your bonus pay is unchanged, and remains at $0.56.</p>\n            ","response":0,"trial_type":"html-button-response","trial_index":84,"time_elapsed":453214,"internal_node_id":"0.0-4.0-1.36","subject_id":"6158701cde28270a24747a2e","study_id":"6197b3f67c2b5cd3b6d9596a","session_id":"6197b88eeb8b99824089f8cf","condition":"full-information","relevant_dimensions":["wings","legs"],"bee_group":{"antennae":"X","wings":"2","pattern":"X","legs":"F"},"bonus":0.540000000000001},{"rt":1437.7000000029802,"stimulus":"bees-with-color/bee-A2DF.svg","response":0,"trial_type":"image-button-response","trial_index":85,"time_elapsed":454655,"internal_node_id":"0.0-4.0-0.37","subject_id":"6158701cde28270a24747a2e","study_id":"6197b3f67c2b5cd3b6d9596a","session_id":"6197b88eeb8b99824089f8cf","condition":"full-information","relevant_dimensions":["wings","legs"],"bee_group":{"antennae":"X","wings":"2","pattern":"X","legs":"F"},"action":"harvest","summary":"bad-harvest","bonus":0.540000000000001},{"rt":2584.8000000044703,"stimulus":"\n                    <p><b>Action: <em>harvest</em></b></p>\n                    <p>This is the bee that you just saw.</p>\n                    <img src=\"bees-with-color/bee-A2DF.svg\" width=\"200\">\n                    <p><span class=\"redText\">Bad choice, the bee was angry.</span><br><b>You have been stung!</b><br>Your pay has been decreased by $0.10. Your bonus pay is now $0.46.</p>\n            ","response":0,"trial_type":"html-button-response","trial_index":86,"time_elapsed":457243,"internal_node_id":"0.0-4.0-1.37","subject_id":"6158701cde28270a24747a2e","study_id":"6197b3f67c2b5cd3b6d9596a","session_id":"6197b88eeb8b99824089f8cf","condition":"full-information","relevant_dimensions":["wings","legs"],"bee_group":{"antennae":"X","wings":"2","pattern":"X","legs":"F"},"bonus":0.540000000000001},{"rt":1536.8000000044703,"stimulus":"bees-with-color/bee-A1SM.svg","response":1,"trial_type":"image-button-response","trial_index":87,"time_elapsed":458783,"internal_node_id":"0.0-4.0-0.38","subject_id":"6158701cde28270a24747a2e","study_id":"6197b3f67c2b5cd3b6d9596a","session_id":"6197b88eeb8b99824089f8cf","condition":"full-information","relevant_dimensions":["wings","legs"],"bee_group":{"antennae":"X","wings":"2","pattern":"X","legs":"F"},"action":"avoid","summary":"bad-avoid","bonus":0.540000000000001},{"rt":1039.5999999940395,"stimulus":"\n                    <p><b>Action: <em>avoid</em></b></p>\n                    <p>This is the bee that you just saw.</p>\n                    <img src=\"bees-with-color/bee-A1SM.svg\" width=\"200\">\n                    <p><span class=\"redText\">Bad choice,</span> the bee was friendly.<br>Your bonus pay is unchanged, and remains at $0.46.</p>\n            ","response":0,"trial_type":"html-button-response","trial_index":88,"time_elapsed":459825,"internal_node_id":"0.0-4.0-1.38","subject_id":"6158701cde28270a24747a2e","study_id":"6197b3f67c2b5cd3b6d9596a","session_id":"6197b88eeb8b99824089f8cf","condition":"full-information","relevant_dimensions":["wings","legs"],"bee_group":{"antennae":"X","wings":"2","pattern":"X","legs":"F"},"bonus":0.540000000000001},{"rt":3746.60000000149,"stimulus":"bees-with-color/bee-B2SM.svg","response":1,"trial_type":"image-button-response","trial_index":89,"time_elapsed":463575,"internal_node_id":"0.0-4.0-0.39","subject_id":"6158701cde28270a24747a2e","study_id":"6197b3f67c2b5cd3b6d9596a","session_id":"6197b88eeb8b99824089f8cf","condition":"full-information","relevant_dimensions":["wings","legs"],"bee_group":{"antennae":"X","wings":"2","pattern":"X","legs":"F"},"action":"avoid","summary":"bad-avoid","bonus":0.540000000000001},{"rt":872.1000000014901,"stimulus":"\n                    <p><b>Action: <em>avoid</em></b></p>\n                    <p>This is the bee that you just saw.</p>\n                    <img src=\"bees-with-color/bee-B2SM.svg\" width=\"200\">\n                    <p><span class=\"redText\">Bad choice,</span> the bee was friendly.<br>Your bonus pay is unchanged, and remains at $0.46.</p>\n            ","response":0,"trial_type":"html-button-response","trial_index":90,"time_elapsed":464450,"internal_node_id":"0.0-4.0-1.39","subject_id":"6158701cde28270a24747a2e","study_id":"6197b3f67c2b5cd3b6d9596a","session_id":"6197b88eeb8b99824089f8cf","condition":"full-information","relevant_dimensions":["wings","legs"],"bee_group":{"antennae":"X","wings":"2","pattern":"X","legs":"F"},"bonus":0.540000000000001},{"rt":1636.3999999985099,"stimulus":"bees-with-color/bee-B2DM.svg","response":0,"trial_type":"image-button-response","trial_index":91,"time_elapsed":466090,"internal_node_id":"0.0-4.0-0.40","subject_id":"6158701cde28270a24747a2e","study_id":"6197b3f67c2b5cd3b6d9596a","session_id":"6197b88eeb8b99824089f8cf","condition":"full-information","relevant_dimensions":["wings","legs"],"bee_group":{"antennae":"X","wings":"2","pattern":"X","legs":"F"},"action":"harvest","summary":"good-harvest","bonus":0.540000000000001},{"rt":926.8000000044703,"stimulus":"\n                    <p><b>Action: <em>harvest</em></b></p>\n                    <p>This is the bee that you just saw.</p>\n                    <img src=\"bees-with-color/bee-B2DM.svg\" width=\"200\">\n                    <p><span class=\"greenText\"><b>Successful harvest!</b></span><br>Your pay has increased by $0.02. Your bonus pay is now $0.48.</p>\n            ","response":0,"trial_type":"html-button-response","trial_index":92,"time_elapsed":467020,"internal_node_id":"0.0-4.0-1.40","subject_id":"6158701cde28270a24747a2e","study_id":"6197b3f67c2b5cd3b6d9596a","session_id":"6197b88eeb8b99824089f8cf","condition":"full-information","relevant_dimensions":["wings","legs"],"bee_group":{"antennae":"X","wings":"2","pattern":"X","legs":"F"},"bonus":0.540000000000001},{"rt":3104.0999999940395,"stimulus":"bees-with-color/bee-B1DM.svg","response":0,"trial_type":"image-button-response","trial_index":93,"time_elapsed":470127,"internal_node_id":"0.0-4.0-0.41","subject_id":"6158701cde28270a24747a2e","study_id":"6197b3f67c2b5cd3b6d9596a","session_id":"6197b88eeb8b99824089f8cf","condition":"full-information","relevant_dimensions":["wings","legs"],"bee_group":{"antennae":"X","wings":"2","pattern":"X","legs":"F"},"action":"harvest","summary":"good-harvest","bonus":0.540000000000001},{"rt":1193.7999999970198,"stimulus":"\n                    <p><b>Action: <em>harvest</em></b></p>\n                    <p>This is the bee that you just saw.</p>\n                    <img src=\"bees-with-color/bee-B1DM.svg\" width=\"200\">\n                    <p><span class=\"greenText\"><b>Successful harvest!</b></span><br>Your pay has increased by $0.02. Your bonus pay is now $0.50.</p>\n            ","response":0,"trial_type":"html-button-response","trial_index":94,"time_elapsed":471324,"internal_node_id":"0.0-4.0-1.41","subject_id":"6158701cde28270a24747a2e","study_id":"6197b3f67c2b5cd3b6d9596a","session_id":"6197b88eeb8b99824089f8cf","condition":"full-information","relevant_dimensions":["wings","legs"],"bee_group":{"antennae":"X","wings":"2","pattern":"X","legs":"F"},"bonus":0.540000000000001},{"rt":1970.2999999970198,"stimulus":"bees-with-color/bee-A1DF.svg","response":0,"trial_type":"image-button-response","trial_index":95,"time_elapsed":473297,"internal_node_id":"0.0-4.0-0.42","subject_id":"6158701cde28270a24747a2e","study_id":"6197b3f67c2b5cd3b6d9596a","session_id":"6197b88eeb8b99824089f8cf","condition":"full-information","relevant_dimensions":["wings","legs"],"bee_group":{"antennae":"X","wings":"2","pattern":"X","legs":"F"},"action":"harvest","summary":"good-harvest","bonus":0.540000000000001},{"rt":1125.2999999970198,"stimulus":"\n                    <p><b>Action: <em>harvest</em></b></p>\n                    <p>This is the bee that you just saw.</p>\n                    <img src=\"bees-with-color/bee-A1DF.svg\" width=\"200\">\n                    <p><span class=\"greenText\"><b>Successful harvest!</b></span><br>Your pay has increased by $0.02. Your bonus pay is now $0.52.</p>\n            ","response":0,"trial_type":"html-button-response","trial_index":96,"time_elapsed":474424,"internal_node_id":"0.0-4.0-1.42","subject_id":"6158701cde28270a24747a2e","study_id":"6197b3f67c2b5cd3b6d9596a","session_id":"6197b88eeb8b99824089f8cf","condition":"full-information","relevant_dimensions":["wings","legs"],"bee_group":{"antennae":"X","wings":"2","pattern":"X","legs":"F"},"bonus":0.540000000000001},{"rt":1362.5,"stimulus":"bees-with-color/bee-B1SM.svg","response":1,"trial_type":"image-button-response","trial_index":97,"time_elapsed":475789,"internal_node_id":"0.0-4.0-0.43","subject_id":"6158701cde28270a24747a2e","study_id":"6197b3f67c2b5cd3b6d9596a","session_id":"6197b88eeb8b99824089f8cf","condition":"full-information","relevant_dimensions":["wings","legs"],"bee_group":{"antennae":"X","wings":"2","pattern":"X","legs":"F"},"action":"avoid","summary":"bad-avoid","bonus":0.540000000000001},{"rt":1185.8999999985099,"stimulus":"\n                    <p><b>Action: <em>avoid</em></b></p>\n                    <p>This is the bee that you just saw.</p>\n                    <img src=\"bees-with-color/bee-B1SM.svg\" width=\"200\">\n                    <p><span class=\"redText\">Bad choice,</span> the bee was friendly.<br>Your bonus pay is unchanged, and remains at $0.52.</p>\n            ","response":0,"trial_type":"html-button-response","trial_index":98,"time_elapsed":476978,"internal_node_id":"0.0-4.0-1.43","subject_id":"6158701cde28270a24747a2e","study_id":"6197b3f67c2b5cd3b6d9596a","session_id":"6197b88eeb8b99824089f8cf","condition":"full-information","relevant_dimensions":["wings","legs"],"bee_group":{"antennae":"X","wings":"2","pattern":"X","legs":"F"},"bonus":0.540000000000001},{"rt":3142,"stimulus":"bees-with-color/bee-B1SF.svg","response":0,"trial_type":"image-button-response","trial_index":99,"time_elapsed":480123,"internal_node_id":"0.0-4.0-0.44","subject_id":"6158701cde28270a24747a2e","study_id":"6197b3f67c2b5cd3b6d9596a","session_id":"6197b88eeb8b99824089f8cf","condition":"full-information","relevant_dimensions":["wings","legs"],"bee_group":{"antennae":"X","wings":"2","pattern":"X","legs":"F"},"action":"harvest","summary":"good-harvest","bonus":0.540000000000001},{"rt":1192.7999999970198,"stimulus":"\n                    <p><b>Action: <em>harvest</em></b></p>\n                    <p>This is the bee that you just saw.</p>\n                    <img src=\"bees-with-color/bee-B1SF.svg\" width=\"200\">\n                    <p><span class=\"greenText\"><b>Successful harvest!</b></span><br>Your pay has increased by $0.02. Your bonus pay is now $0.54.</p>\n            ","response":0,"trial_type":"html-button-response","trial_index":100,"time_elapsed":481318,"internal_node_id":"0.0-4.0-1.44","subject_id":"6158701cde28270a24747a2e","study_id":"6197b3f67c2b5cd3b6d9596a","session_id":"6197b88eeb8b99824089f8cf","condition":"full-information","relevant_dimensions":["wings","legs"],"bee_group":{"antennae":"X","wings":"2","pattern":"X","legs":"F"},"bonus":0.540000000000001},{"rt":1491.7999999970198,"stimulus":"bees-with-color/bee-B2SF.svg","response":1,"trial_type":"image-button-response","trial_index":101,"time_elapsed":482814,"internal_node_id":"0.0-4.0-0.45","subject_id":"6158701cde28270a24747a2e","study_id":"6197b3f67c2b5cd3b6d9596a","session_id":"6197b88eeb8b99824089f8cf","condition":"full-information","relevant_dimensions":["wings","legs"],"bee_group":{"antennae":"X","wings":"2","pattern":"X","legs":"F"},"action":"avoid","summary":"good-avoid","bonus":0.540000000000001},{"rt":2821.2000000029802,"stimulus":"\n                    <p><b>Action: <em>avoid</em></b></p>\n                    <p>This is the bee that you just saw.</p>\n                    <img src=\"bees-with-color/bee-B2SF.svg\" width=\"200\">\n                    <p><span class=\"greenText\">Good choice!</span>  This bee would have stung you.<br>Your bonus pay is unchanged, and remains at $0.54.</p>\n            ","response":0,"trial_type":"html-button-response","trial_index":102,"time_elapsed":485638,"internal_node_id":"0.0-4.0-1.45","subject_id":"6158701cde28270a24747a2e","study_id":"6197b3f67c2b5cd3b6d9596a","session_id":"6197b88eeb8b99824089f8cf","condition":"full-information","relevant_dimensions":["wings","legs"],"bee_group":{"antennae":"X","wings":"2","pattern":"X","legs":"F"},"bonus":0.540000000000001},{"rt":1606.1999999955297,"stimulus":"bees-with-color/bee-B2DF.svg","response":0,"trial_type":"image-button-response","trial_index":103,"time_elapsed":487247,"internal_node_id":"0.0-4.0-0.46","subject_id":"6158701cde28270a24747a2e","study_id":"6197b3f67c2b5cd3b6d9596a","session_id":"6197b88eeb8b99824089f8cf","condition":"full-information","relevant_dimensions":["wings","legs"],"bee_group":{"antennae":"X","wings":"2","pattern":"X","legs":"F"},"action":"harvest","summary":"bad-harvest","bonus":0.540000000000001},{"rt":1529.8999999985099,"stimulus":"\n                    <p><b>Action: <em>harvest</em></b></p>\n                    <p>This is the bee that you just saw.</p>\n                    <img src=\"bees-with-color/bee-B2DF.svg\" width=\"200\">\n                    <p><span class=\"redText\">Bad choice, the bee was angry.</span><br><b>You have been stung!</b><br>Your pay has been decreased by $0.10. Your bonus pay is now $0.44.</p>\n            ","response":0,"trial_type":"html-button-response","trial_index":104,"time_elapsed":488779,"internal_node_id":"0.0-4.0-1.46","subject_id":"6158701cde28270a24747a2e","study_id":"6197b3f67c2b5cd3b6d9596a","session_id":"6197b88eeb8b99824089f8cf","condition":"full-information","relevant_dimensions":["wings","legs"],"bee_group":{"antennae":"X","wings":"2","pattern":"X","legs":"F"},"bonus":0.540000000000001},{"rt":2000.5,"stimulus":"bees-with-color/bee-A2SM.svg","response":1,"trial_type":"image-button-response","trial_index":105,"time_elapsed":490782,"internal_node_id":"0.0-4.0-0.47","subject_id":"6158701cde28270a24747a2e","study_id":"6197b3f67c2b5cd3b6d9596a","session_id":"6197b88eeb8b99824089f8cf","condition":"full-information","relevant_dimensions":["wings","legs"],"bee_group":{"antennae":"X","wings":"2","pattern":"X","legs":"F"},"action":"avoid","summary":"bad-avoid","bonus":0.540000000000001},{"rt":942.4000000059605,"stimulus":"\n                    <p><b>Action: <em>avoid</em></b></p>\n                    <p>This is the bee that you just saw.</p>\n                    <img src=\"bees-with-color/bee-A2SM.svg\" width=\"200\">\n                    <p><span class=\"redText\">Bad choice,</span> the bee was friendly.<br>Your bonus pay is unchanged, and remains at $0.44.</p>\n            ","response":0,"trial_type":"html-button-response","trial_index":106,"time_elapsed":491727,"internal_node_id":"0.0-4.0-1.47","subject_id":"6158701cde28270a24747a2e","study_id":"6197b3f67c2b5cd3b6d9596a","session_id":"6197b88eeb8b99824089f8cf","condition":"full-information","relevant_dimensions":["wings","legs"],"bee_group":{"antennae":"X","wings":"2","pattern":"X","legs":"F"},"bonus":0.540000000000001},{"rt":1265,"stimulus":"bees-with-color/bee-B1DF.svg","response":0,"trial_type":"image-button-response","trial_index":107,"time_elapsed":492994,"internal_node_id":"0.0-4.0-0.48","subject_id":"6158701cde28270a24747a2e","study_id":"6197b3f67c2b5cd3b6d9596a","session_id":"6197b88eeb8b99824089f8cf","condition":"full-information","relevant_dimensions":["wings","legs"],"bee_group":{"antennae":"X","wings":"2","pattern":"X","legs":"F"},"action":"harvest","summary":"good-harvest","bonus":0.540000000000001},{"rt":964.8000000044703,"stimulus":"\n                    <p><b>Action: <em>harvest</em></b></p>\n                    <p>This is the bee that you just saw.</p>\n                    <img src=\"bees-with-color/bee-B1DF.svg\" width=\"200\">\n                    <p><span class=\"greenText\"><b>Successful harvest!</b></span><br>Your pay has increased by $0.02. Your bonus pay is now $0.46.</p>\n            ","response":0,"trial_type":"html-button-response","trial_index":108,"time_elapsed":493962,"internal_node_id":"0.0-4.0-1.48","subject_id":"6158701cde28270a24747a2e","study_id":"6197b3f67c2b5cd3b6d9596a","session_id":"6197b88eeb8b99824089f8cf","condition":"full-information","relevant_dimensions":["wings","legs"],"bee_group":{"antennae":"X","wings":"2","pattern":"X","legs":"F"},"bonus":0.540000000000001},{"rt":2428.6999999955297,"stimulus":"bees-with-color/bee-B1SM.svg","response":0,"trial_type":"image-button-response","trial_index":109,"time_elapsed":496393,"internal_node_id":"0.0-4.0-0.49","subject_id":"6158701cde28270a24747a2e","study_id":"6197b3f67c2b5cd3b6d9596a","session_id":"6197b88eeb8b99824089f8cf","condition":"full-information","relevant_dimensions":["wings","legs"],"bee_group":{"antennae":"X","wings":"2","pattern":"X","legs":"F"},"action":"harvest","summary":"good-harvest","bonus":0.540000000000001},{"rt":999.6999999955297,"stimulus":"\n                    <p><b>Action: <em>harvest</em></b></p>\n                    <p>This is the bee that you just saw.</p>\n                    <img src=\"bees-with-color/bee-B1SM.svg\" width=\"200\">\n                    <p><span class=\"greenText\"><b>Successful harvest!</b></span><br>Your pay has increased by $0.02. Your bonus pay is now $0.48.</p>\n            ","response":0,"trial_type":"html-button-response","trial_index":110,"time_elapsed":497395,"internal_node_id":"0.0-4.0-1.49","subject_id":"6158701cde28270a24747a2e","study_id":"6197b3f67c2b5cd3b6d9596a","session_id":"6197b88eeb8b99824089f8cf","condition":"full-information","relevant_dimensions":["wings","legs"],"bee_group":{"antennae":"X","wings":"2","pattern":"X","legs":"F"},"bonus":0.540000000000001},{"rt":1444.6000000014901,"stimulus":"bees-with-color/bee-B2SF.svg","response":1,"trial_type":"image-button-response","trial_index":111,"time_elapsed":498843,"internal_node_id":"0.0-4.0-0.50","subject_id":"6158701cde28270a24747a2e","study_id":"6197b3f67c2b5cd3b6d9596a","session_id":"6197b88eeb8b99824089f8cf","condition":"full-information","relevant_dimensions":["wings","legs"],"bee_group":{"antennae":"X","wings":"2","pattern":"X","legs":"F"},"action":"avoid","summary":"good-avoid","bonus":0.540000000000001},{"rt":1023.5,"stimulus":"\n                    <p><b>Action: <em>avoid</em></b></p>\n                    <p>This is the bee that you just saw.</p>\n                    <img src=\"bees-with-color/bee-B2SF.svg\" width=\"200\">\n                    <p><span class=\"greenText\">Good choice!</span>  This bee would have stung you.<br>Your bonus pay is unchanged, and remains at $0.48.</p>\n            ","response":0,"trial_type":"html-button-response","trial_index":112,"time_elapsed":499869,"internal_node_id":"0.0-4.0-1.50","subject_id":"6158701cde28270a24747a2e","study_id":"6197b3f67c2b5cd3b6d9596a","session_id":"6197b88eeb8b99824089f8cf","condition":"full-information","relevant_dimensions":["wings","legs"],"bee_group":{"antennae":"X","wings":"2","pattern":"X","legs":"F"},"bonus":0.540000000000001},{"rt":2334.7999999970198,"stimulus":"bees-with-color/bee-A2SM.svg","response":0,"trial_type":"image-button-response","trial_index":113,"time_elapsed":502207,"internal_node_id":"0.0-4.0-0.51","subject_id":"6158701cde28270a24747a2e","study_id":"6197b3f67c2b5cd3b6d9596a","session_id":"6197b88eeb8b99824089f8cf","condition":"full-information","relevant_dimensions":["wings","legs"],"bee_group":{"antennae":"X","wings":"2","pattern":"X","legs":"F"},"action":"harvest","summary":"good-harvest","bonus":0.540000000000001},{"rt":1119.0999999940395,"stimulus":"\n                    <p><b>Action: <em>harvest</em></b></p>\n                    <p>This is the bee that you just saw.</p>\n                    <img src=\"bees-with-color/bee-A2SM.svg\" width=\"200\">\n                    <p><span class=\"greenText\"><b>Successful harvest!</b></span><br>Your pay has increased by $0.02. Your bonus pay is now $0.50.</p>\n            ","response":0,"trial_type":"html-button-response","trial_index":114,"time_elapsed":503330,"internal_node_id":"0.0-4.0-1.51","subject_id":"6158701cde28270a24747a2e","study_id":"6197b3f67c2b5cd3b6d9596a","session_id":"6197b88eeb8b99824089f8cf","condition":"full-information","relevant_dimensions":["wings","legs"],"bee_group":{"antennae":"X","wings":"2","pattern":"X","legs":"F"},"bonus":0.540000000000001},{"rt":1971.6000000014901,"stimulus":"bees-with-color/bee-B1SF.svg","response":0,"trial_type":"image-button-response","trial_index":115,"time_elapsed":505305,"internal_node_id":"0.0-4.0-0.52","subject_id":"6158701cde28270a24747a2e","study_id":"6197b3f67c2b5cd3b6d9596a","session_id":"6197b88eeb8b99824089f8cf","condition":"full-information","relevant_dimensions":["wings","legs"],"bee_group":{"antennae":"X","wings":"2","pattern":"X","legs":"F"},"action":"harvest","summary":"good-harvest","bonus":0.540000000000001},{"rt":1000.2999999970198,"stimulus":"\n                    <p><b>Action: <em>harvest</em></b></p>\n                    <p>This is the bee that you just saw.</p>\n                    <img src=\"bees-with-color/bee-B1SF.svg\" width=\"200\">\n                    <p><span class=\"greenText\"><b>Successful harvest!</b></span><br>Your pay has increased by $0.02. Your bonus pay is now $0.52.</p>\n            ","response":0,"trial_type":"html-button-response","trial_index":116,"time_elapsed":506309,"internal_node_id":"0.0-4.0-1.52","subject_id":"6158701cde28270a24747a2e","study_id":"6197b3f67c2b5cd3b6d9596a","session_id":"6197b88eeb8b99824089f8cf","condition":"full-information","relevant_dimensions":["wings","legs"],"bee_group":{"antennae":"X","wings":"2","pattern":"X","legs":"F"},"bonus":0.540000000000001},{"rt":2189.10000000149,"stimulus":"bees-with-color/bee-A1DM.svg","response":0,"trial_type":"image-button-response","trial_index":117,"time_elapsed":508499,"internal_node_id":"0.0-4.0-0.53","subject_id":"6158701cde28270a24747a2e","study_id":"6197b3f67c2b5cd3b6d9596a","session_id":"6197b88eeb8b99824089f8cf","condition":"full-information","relevant_dimensions":["wings","legs"],"bee_group":{"antennae":"X","wings":"2","pattern":"X","legs":"F"},"action":"harvest","summary":"good-harvest","bonus":0.540000000000001},{"rt":1000.8000000044703,"stimulus":"\n                    <p><b>Action: <em>harvest</em></b></p>\n                    <p>This is the bee that you just saw.</p>\n                    <img src=\"bees-with-color/bee-A1DM.svg\" width=\"200\">\n                    <p><span class=\"greenText\"><b>Successful harvest!</b></span><br>Your pay has increased by $0.02. Your bonus pay is now $0.54.</p>\n            ","response":0,"trial_type":"html-button-response","trial_index":118,"time_elapsed":509503,"internal_node_id":"0.0-4.0-1.53","subject_id":"6158701cde28270a24747a2e","study_id":"6197b3f67c2b5cd3b6d9596a","session_id":"6197b88eeb8b99824089f8cf","condition":"full-information","relevant_dimensions":["wings","legs"],"bee_group":{"antennae":"X","wings":"2","pattern":"X","legs":"F"},"bonus":0.540000000000001},{"rt":1421.3999999985099,"stimulus":"bees-with-color/bee-A2SF.svg","response":1,"trial_type":"image-button-response","trial_index":119,"time_elapsed":510927,"internal_node_id":"0.0-4.0-0.54","subject_id":"6158701cde28270a24747a2e","study_id":"6197b3f67c2b5cd3b6d9596a","session_id":"6197b88eeb8b99824089f8cf","condition":"full-information","relevant_dimensions":["wings","legs"],"bee_group":{"antennae":"X","wings":"2","pattern":"X","legs":"F"},"action":"avoid","summary":"good-avoid","bonus":0.540000000000001},{"rt":1400.8999999985099,"stimulus":"\n                    <p><b>Action: <em>avoid</em></b></p>\n                    <p>This is the bee that you just saw.</p>\n                    <img src=\"bees-with-color/bee-A2SF.svg\" width=\"200\">\n                    <p><span class=\"greenText\">Good choice!</span>  This bee would have stung you.<br>Your bonus pay is unchanged, and remains at $0.54.</p>\n            ","response":0,"trial_type":"html-button-response","trial_index":120,"time_elapsed":512331,"internal_node_id":"0.0-4.0-1.54","subject_id":"6158701cde28270a24747a2e","study_id":"6197b3f67c2b5cd3b6d9596a","session_id":"6197b88eeb8b99824089f8cf","condition":"full-information","relevant_dimensions":["wings","legs"],"bee_group":{"antennae":"X","wings":"2","pattern":"X","legs":"F"},"bonus":0.540000000000001},{"rt":2263.39999999851,"stimulus":"bees-with-color/bee-B2DM.svg","response":0,"trial_type":"image-button-response","trial_index":121,"time_elapsed":514597,"internal_node_id":"0.0-4.0-0.55","subject_id":"6158701cde28270a24747a2e","study_id":"6197b3f67c2b5cd3b6d9596a","session_id":"6197b88eeb8b99824089f8cf","condition":"full-information","relevant_dimensions":["wings","legs"],"bee_group":{"antennae":"X","wings":"2","pattern":"X","legs":"F"},"action":"harvest","summary":"good-harvest","bonus":0.540000000000001},{"rt":1049.6999999955297,"stimulus":"\n                    <p><b>Action: <em>harvest</em></b></p>\n                    <p>This is the bee that you just saw.</p>\n                    <img src=\"bees-with-color/bee-B2DM.svg\" width=\"200\">\n                    <p><span class=\"greenText\"><b>Successful harvest!</b></span><br>Your pay has increased by $0.02. Your bonus pay is now $0.56.</p>\n            ","response":0,"trial_type":"html-button-response","trial_index":122,"time_elapsed":515649,"internal_node_id":"0.0-4.0-1.55","subject_id":"6158701cde28270a24747a2e","study_id":"6197b3f67c2b5cd3b6d9596a","session_id":"6197b88eeb8b99824089f8cf","condition":"full-information","relevant_dimensions":["wings","legs"],"bee_group":{"antennae":"X","wings":"2","pattern":"X","legs":"F"},"bonus":0.540000000000001},{"rt":4562.60000000149,"stimulus":"bees-with-color/bee-A1SM.svg","response":0,"trial_type":"image-button-response","trial_index":123,"time_elapsed":520216,"internal_node_id":"0.0-4.0-0.56","subject_id":"6158701cde28270a24747a2e","study_id":"6197b3f67c2b5cd3b6d9596a","session_id":"6197b88eeb8b99824089f8cf","condition":"full-information","relevant_dimensions":["wings","legs"],"bee_group":{"antennae":"X","wings":"2","pattern":"X","legs":"F"},"action":"harvest","summary":"good-harvest","bonus":0.540000000000001},{"rt":999.0999999940395,"stimulus":"\n                    <p><b>Action: <em>harvest</em></b></p>\n                    <p>This is the bee that you just saw.</p>\n                    <img src=\"bees-with-color/bee-A1SM.svg\" width=\"200\">\n                    <p><span class=\"greenText\"><b>Successful harvest!</b></span><br>Your pay has increased by $0.02. Your bonus pay is now $0.58.</p>\n            ","response":0,"trial_type":"html-button-response","trial_index":124,"time_elapsed":521218,"internal_node_id":"0.0-4.0-1.56","subject_id":"6158701cde28270a24747a2e","study_id":"6197b3f67c2b5cd3b6d9596a","session_id":"6197b88eeb8b99824089f8cf","condition":"full-information","relevant_dimensions":["wings","legs"],"bee_group":{"antennae":"X","wings":"2","pattern":"X","legs":"F"},"bonus":0.540000000000001},{"rt":1587.3999999985099,"stimulus":"bees-with-color/bee-A1DF.svg","response":0,"trial_type":"image-button-response","trial_index":125,"time_elapsed":522808,"internal_node_id":"0.0-4.0-0.57","subject_id":"6158701cde28270a24747a2e","study_id":"6197b3f67c2b5cd3b6d9596a","session_id":"6197b88eeb8b99824089f8cf","condition":"full-information","relevant_dimensions":["wings","legs"],"bee_group":{"antennae":"X","wings":"2","pattern":"X","legs":"F"},"action":"harvest","summary":"good-harvest","bonus":0.540000000000001},{"rt":1026.8000000044703,"stimulus":"\n                    <p><b>Action: <em>harvest</em></b></p>\n                    <p>This is the bee that you just saw.</p>\n                    <img src=\"bees-with-color/bee-A1DF.svg\" width=\"200\">\n                    <p><span class=\"greenText\"><b>Successful harvest!</b></span><br>Your pay has increased by $0.02. Your bonus pay is now $0.60.</p>\n            ","response":0,"trial_type":"html-button-response","trial_index":126,"time_elapsed":523838,"internal_node_id":"0.0-4.0-1.57","subject_id":"6158701cde28270a24747a2e","study_id":"6197b3f67c2b5cd3b6d9596a","session_id":"6197b88eeb8b99824089f8cf","condition":"full-information","relevant_dimensions":["wings","legs"],"bee_group":{"antennae":"X","wings":"2","pattern":"X","legs":"F"},"bonus":0.540000000000001},{"rt":2349.39999999851,"stimulus":"bees-with-color/bee-B2DF.svg","response":1,"trial_type":"image-button-response","trial_index":127,"time_elapsed":526190,"internal_node_id":"0.0-4.0-0.58","subject_id":"6158701cde28270a24747a2e","study_id":"6197b3f67c2b5cd3b6d9596a","session_id":"6197b88eeb8b99824089f8cf","condition":"full-information","relevant_dimensions":["wings","legs"],"bee_group":{"antennae":"X","wings":"2","pattern":"X","legs":"F"},"action":"avoid","summary":"good-avoid","bonus":0.540000000000001},{"rt":4456.5999999940395,"stimulus":"\n                    <p><b>Action: <em>avoid</em></b></p>\n                    <p>This is the bee that you just saw.</p>\n                    <img src=\"bees-with-color/bee-B2DF.svg\" width=\"200\">\n                    <p><span class=\"greenText\">Good choice!</span>  This bee would have stung you.<br>Your bonus pay is unchanged, and remains at $0.60.</p>\n            ","response":0,"trial_type":"html-button-response","trial_index":128,"time_elapsed":530651,"internal_node_id":"0.0-4.0-1.58","subject_id":"6158701cde28270a24747a2e","study_id":"6197b3f67c2b5cd3b6d9596a","session_id":"6197b88eeb8b99824089f8cf","condition":"full-information","relevant_dimensions":["wings","legs"],"bee_group":{"antennae":"X","wings":"2","pattern":"X","legs":"F"},"bonus":0.540000000000001},{"rt":2575.2999999970198,"stimulus":"bees-with-color/bee-A2DM.svg","response":0,"trial_type":"image-button-response","trial_index":129,"time_elapsed":533230,"internal_node_id":"0.0-4.0-0.59","subject_id":"6158701cde28270a24747a2e","study_id":"6197b3f67c2b5cd3b6d9596a","session_id":"6197b88eeb8b99824089f8cf","condition":"full-information","relevant_dimensions":["wings","legs"],"bee_group":{"antennae":"X","wings":"2","pattern":"X","legs":"F"},"action":"harvest","summary":"good-harvest","bonus":0.540000000000001},{"rt":1529,"stimulus":"\n                    <p><b>Action: <em>harvest</em></b></p>\n                    <p>This is the bee that you just saw.</p>\n                    <img src=\"bees-with-color/bee-A2DM.svg\" width=\"200\">\n                    <p><span class=\"greenText\"><b>Successful harvest!</b></span><br>Your pay has increased by $0.02. Your bonus pay is now $0.62.</p>\n            ","response":0,"trial_type":"html-button-response","trial_index":130,"time_elapsed":534762,"internal_node_id":"0.0-4.0-1.59","subject_id":"6158701cde28270a24747a2e","study_id":"6197b3f67c2b5cd3b6d9596a","session_id":"6197b88eeb8b99824089f8cf","condition":"full-information","relevant_dimensions":["wings","legs"],"bee_group":{"antennae":"X","wings":"2","pattern":"X","legs":"F"},"bonus":0.540000000000001},{"rt":2725.2999999970198,"stimulus":"bees-with-color/bee-B1DM.svg","response":1,"trial_type":"image-button-response","trial_index":131,"time_elapsed":537493,"internal_node_id":"0.0-4.0-0.60","subject_id":"6158701cde28270a24747a2e","study_id":"6197b3f67c2b5cd3b6d9596a","session_id":"6197b88eeb8b99824089f8cf","condition":"full-information","relevant_dimensions":["wings","legs"],"bee_group":{"antennae":"X","wings":"2","pattern":"X","legs":"F"},"action":"avoid","summary":"bad-avoid","bonus":0.540000000000001},{"rt":2276.39999999851,"stimulus":"\n                    <p><b>Action: <em>avoid</em></b></p>\n                    <p>This is the bee that you just saw.</p>\n                    <img src=\"bees-with-color/bee-B1DM.svg\" width=\"200\">\n                    <p><span class=\"redText\">Bad choice,</span> the bee was friendly.<br>Your bonus pay is unchanged, and remains at $0.62.</p>\n            ","response":0,"trial_type":"html-button-response","trial_index":132,"time_elapsed":539772,"internal_node_id":"0.0-4.0-1.60","subject_id":"6158701cde28270a24747a2e","study_id":"6197b3f67c2b5cd3b6d9596a","session_id":"6197b88eeb8b99824089f8cf","condition":"full-information","relevant_dimensions":["wings","legs"],"bee_group":{"antennae":"X","wings":"2","pattern":"X","legs":"F"},"bonus":0.540000000000001},{"rt":2328.60000000149,"stimulus":"bees-with-color/bee-A2DF.svg","response":0,"trial_type":"image-button-response","trial_index":133,"time_elapsed":542104,"internal_node_id":"0.0-4.0-0.61","subject_id":"6158701cde28270a24747a2e","study_id":"6197b3f67c2b5cd3b6d9596a","session_id":"6197b88eeb8b99824089f8cf","condition":"full-information","relevant_dimensions":["wings","legs"],"bee_group":{"antennae":"X","wings":"2","pattern":"X","legs":"F"},"action":"harvest","summary":"bad-harvest","bonus":0.540000000000001},{"rt":1296.6000000014901,"stimulus":"\n                    <p><b>Action: <em>harvest</em></b></p>\n                    <p>This is the bee that you just saw.</p>\n                    <img src=\"bees-with-color/bee-A2DF.svg\" width=\"200\">\n                    <p><span class=\"redText\">Bad choice, the bee was angry.</span><br><b>You have been stung!</b><br>Your pay has been decreased by $0.10. Your bonus pay is now $0.52.</p>\n            ","response":0,"trial_type":"html-button-response","trial_index":134,"time_elapsed":543402,"internal_node_id":"0.0-4.0-1.61","subject_id":"6158701cde28270a24747a2e","study_id":"6197b3f67c2b5cd3b6d9596a","session_id":"6197b88eeb8b99824089f8cf","condition":"full-information","relevant_dimensions":["wings","legs"],"bee_group":{"antennae":"X","wings":"2","pattern":"X","legs":"F"},"bonus":0.540000000000001},{"rt":1677.5999999940395,"stimulus":"bees-with-color/bee-B2SM.svg","response":1,"trial_type":"image-button-response","trial_index":135,"time_elapsed":545083,"internal_node_id":"0.0-4.0-0.62","subject_id":"6158701cde28270a24747a2e","study_id":"6197b3f67c2b5cd3b6d9596a","session_id":"6197b88eeb8b99824089f8cf","condition":"full-information","relevant_dimensions":["wings","legs"],"bee_group":{"antennae":"X","wings":"2","pattern":"X","legs":"F"},"action":"avoid","summary":"bad-avoid","bonus":0.540000000000001},{"rt":992.2999999970198,"stimulus":"\n                    <p><b>Action: <em>avoid</em></b></p>\n                    <p>This is the bee that you just saw.</p>\n                    <img src=\"bees-with-color/bee-B2SM.svg\" width=\"200\">\n                    <p><span class=\"redText\">Bad choice,</span> the bee was friendly.<br>Your bonus pay is unchanged, and remains at $0.52.</p>\n            ","response":0,"trial_type":"html-button-response","trial_index":136,"time_elapsed":546078,"internal_node_id":"0.0-4.0-1.62","subject_id":"6158701cde28270a24747a2e","study_id":"6197b3f67c2b5cd3b6d9596a","session_id":"6197b88eeb8b99824089f8cf","condition":"full-information","relevant_dimensions":["wings","legs"],"bee_group":{"antennae":"X","wings":"2","pattern":"X","legs":"F"},"bonus":0.540000000000001},{"rt":1240.6999999955297,"stimulus":"bees-with-color/bee-A1SF.svg","response":0,"trial_type":"image-button-response","trial_index":137,"time_elapsed":547322,"internal_node_id":"0.0-4.0-0.63","subject_id":"6158701cde28270a24747a2e","study_id":"6197b3f67c2b5cd3b6d9596a","session_id":"6197b88eeb8b99824089f8cf","condition":"full-information","relevant_dimensions":["wings","legs"],"bee_group":{"antennae":"X","wings":"2","pattern":"X","legs":"F"},"action":"harvest","summary":"good-harvest","bonus":0.540000000000001},{"rt":1088.8999999985099,"stimulus":"\n                    <p><b>Action: <em>harvest</em></b></p>\n                    <p>This is the bee that you just saw.</p>\n                    <img src=\"bees-with-color/bee-A1SF.svg\" width=\"200\">\n                    <p><span class=\"greenText\"><b>Successful harvest!</b></span><br>Your pay has increased by $0.02. Your bonus pay is now $0.54.</p>\n            ","response":0,"trial_type":"html-button-response","trial_index":138,"time_elapsed":548413,"internal_node_id":"0.0-4.0-1.63","subject_id":"6158701cde28270a24747a2e","study_id":"6197b3f67c2b5cd3b6d9596a","session_id":"6197b88eeb8b99824089f8cf","condition":"full-information","relevant_dimensions":["wings","legs"],"bee_group":{"antennae":"X","wings":"2","pattern":"X","legs":"F"},"bonus":0.540000000000001},{"rt":5976.19999999553,"stimulus":"You have completed the first part of this experiment.<br><br>You will now begin a shorter second part, in which you will receive no feedback.<br>The same rules regarding bonus pay apply.<br><br>Press any key to begin.","response":" ","trial_type":"html-keyboard-response","trial_index":139,"time_elapsed":554391,"internal_node_id":"0.0-5.0","subject_id":"6158701cde28270a24747a2e","study_id":"6197b3f67c2b5cd3b6d9596a","session_id":"6197b88eeb8b99824089f8cf","condition":"full-information","relevant_dimensions":["wings","legs"],"bee_group":{"antennae":"X","wings":"2","pattern":"X","legs":"F"},"bonus":0.540000000000001},{"rt":3715.3000000044703,"stimulus":"bees-with-color/bee-A1SF.svg","response":0,"trial_type":"image-button-response","trial_index":140,"time_elapsed":558122,"internal_node_id":"0.0-6.0-0.0","subject_id":"6158701cde28270a24747a2e","study_id":"6197b3f67c2b5cd3b6d9596a","session_id":"6197b88eeb8b99824089f8cf","condition":"full-information","relevant_dimensions":["wings","legs"],"bee_group":{"antennae":"X","wings":"2","pattern":"X","legs":"F"},"bonus":0.540000000000001},{"rt":5763.89999999851,"stimulus":"bees-with-color/bee-B2SM.svg","response":1,"trial_type":"image-button-response","trial_index":141,"time_elapsed":563890,"internal_node_id":"0.0-6.0-0.1","subject_id":"6158701cde28270a24747a2e","study_id":"6197b3f67c2b5cd3b6d9596a","session_id":"6197b88eeb8b99824089f8cf","condition":"full-information","relevant_dimensions":["wings","legs"],"bee_group":{"antennae":"X","wings":"2","pattern":"X","legs":"F"},"bonus":0.540000000000001},{"rt":1378.3000000044703,"stimulus":"bees-with-color/bee-A2DM.svg","response":0,"trial_type":"image-button-response","trial_index":142,"time_elapsed":565273,"internal_node_id":"0.0-6.0-0.2","subject_id":"6158701cde28270a24747a2e","study_id":"6197b3f67c2b5cd3b6d9596a","session_id":"6197b88eeb8b99824089f8cf","condition":"full-information","relevant_dimensions":["wings","legs"],"bee_group":{"antennae":"X","wings":"2","pattern":"X","legs":"F"},"bonus":0.540000000000001},{"rt":1410.1000000014901,"stimulus":"bees-with-color/bee-A2SM.svg","response":1,"trial_type":"image-button-response","trial_index":143,"time_elapsed":566687,"internal_node_id":"0.0-6.0-0.3","subject_id":"6158701cde28270a24747a2e","study_id":"6197b3f67c2b5cd3b6d9596a","session_id":"6197b88eeb8b99824089f8cf","condition":"full-information","relevant_dimensions":["wings","legs"],"bee_group":{"antennae":"X","wings":"2","pattern":"X","legs":"F"},"bonus":0.540000000000001},{"rt":1792.5999999940395,"stimulus":"bees-with-color/bee-B2SF.svg","response":1,"trial_type":"image-button-response","trial_index":144,"time_elapsed":568482,"internal_node_id":"0.0-6.0-0.4","subject_id":"6158701cde28270a24747a2e","study_id":"6197b3f67c2b5cd3b6d9596a","session_id":"6197b88eeb8b99824089f8cf","condition":"full-information","relevant_dimensions":["wings","legs"],"bee_group":{"antennae":"X","wings":"2","pattern":"X","legs":"F"},"bonus":0.540000000000001},{"rt":1294.2999999970198,"stimulus":"bees-with-color/bee-B2DF.svg","response":0,"trial_type":"image-button-response","trial_index":145,"time_elapsed":569779,"internal_node_id":"0.0-6.0-0.5","subject_id":"6158701cde28270a24747a2e","study_id":"6197b3f67c2b5cd3b6d9596a","session_id":"6197b88eeb8b99824089f8cf","condition":"full-information","relevant_dimensions":["wings","legs"],"bee_group":{"antennae":"X","wings":"2","pattern":"X","legs":"F"},"bonus":0.540000000000001},{"rt":1736.3000000044703,"stimulus":"bees-with-color/bee-B1SM.svg","response":1,"trial_type":"image-button-response","trial_index":146,"time_elapsed":571519,"internal_node_id":"0.0-6.0-0.6","subject_id":"6158701cde28270a24747a2e","study_id":"6197b3f67c2b5cd3b6d9596a","session_id":"6197b88eeb8b99824089f8cf","condition":"full-information","relevant_dimensions":["wings","legs"],"bee_group":{"antennae":"X","wings":"2","pattern":"X","legs":"F"},"bonus":0.540000000000001},{"rt":1314.2999999970198,"stimulus":"bees-with-color/bee-B2DM.svg","response":0,"trial_type":"image-button-response","trial_index":147,"time_elapsed":572837,"internal_node_id":"0.0-6.0-0.7","subject_id":"6158701cde28270a24747a2e","study_id":"6197b3f67c2b5cd3b6d9596a","session_id":"6197b88eeb8b99824089f8cf","condition":"full-information","relevant_dimensions":["wings","legs"],"bee_group":{"antennae":"X","wings":"2","pattern":"X","legs":"F"},"bonus":0.540000000000001},{"rt":992.8999999985099,"stimulus":"bees-with-color/bee-B1DF.svg","response":0,"trial_type":"image-button-response","trial_index":148,"time_elapsed":573833,"internal_node_id":"0.0-6.0-0.8","subject_id":"6158701cde28270a24747a2e","study_id":"6197b3f67c2b5cd3b6d9596a","session_id":"6197b88eeb8b99824089f8cf","condition":"full-information","relevant_dimensions":["wings","legs"],"bee_group":{"antennae":"X","wings":"2","pattern":"X","legs":"F"},"bonus":0.540000000000001},{"rt":1224.2999999970198,"stimulus":"bees-with-color/bee-A2SF.svg","response":1,"trial_type":"image-button-response","trial_index":149,"time_elapsed":575060,"internal_node_id":"0.0-6.0-0.9","subject_id":"6158701cde28270a24747a2e","study_id":"6197b3f67c2b5cd3b6d9596a","session_id":"6197b88eeb8b99824089f8cf","condition":"full-information","relevant_dimensions":["wings","legs"],"bee_group":{"antennae":"X","wings":"2","pattern":"X","legs":"F"},"bonus":0.540000000000001},{"rt":1809.7000000029802,"stimulus":"bees-with-color/bee-A2DF.svg","response":0,"trial_type":"image-button-response","trial_index":150,"time_elapsed":576873,"internal_node_id":"0.0-6.0-0.10","subject_id":"6158701cde28270a24747a2e","study_id":"6197b3f67c2b5cd3b6d9596a","session_id":"6197b88eeb8b99824089f8cf","condition":"full-information","relevant_dimensions":["wings","legs"],"bee_group":{"antennae":"X","wings":"2","pattern":"X","legs":"F"},"bonus":0.540000000000001},{"rt":899.5,"stimulus":"bees-with-color/bee-A1DF.svg","response":0,"trial_type":"image-button-response","trial_index":151,"time_elapsed":577776,"internal_node_id":"0.0-6.0-0.11","subject_id":"6158701cde28270a24747a2e","study_id":"6197b3f67c2b5cd3b6d9596a","session_id":"6197b88eeb8b99824089f8cf","condition":"full-information","relevant_dimensions":["wings","legs"],"bee_group":{"antennae":"X","wings":"2","pattern":"X","legs":"F"},"bonus":0.540000000000001},{"rt":784.3999999985099,"stimulus":"bees-with-color/bee-B1DM.svg","response":0,"trial_type":"image-button-response","trial_index":152,"time_elapsed":578563,"internal_node_id":"0.0-6.0-0.12","subject_id":"6158701cde28270a24747a2e","study_id":"6197b3f67c2b5cd3b6d9596a","session_id":"6197b88eeb8b99824089f8cf","condition":"full-information","relevant_dimensions":["wings","legs"],"bee_group":{"antennae":"X","wings":"2","pattern":"X","legs":"F"},"bonus":0.540000000000001},{"rt":815.1999999955297,"stimulus":"bees-with-color/bee-A1DM.svg","response":0,"trial_type":"image-button-response","trial_index":153,"time_elapsed":579381,"internal_node_id":"0.0-6.0-0.13","subject_id":"6158701cde28270a24747a2e","study_id":"6197b3f67c2b5cd3b6d9596a","session_id":"6197b88eeb8b99824089f8cf","condition":"full-information","relevant_dimensions":["wings","legs"],"bee_group":{"antennae":"X","wings":"2","pattern":"X","legs":"F"},"bonus":0.540000000000001},{"rt":1256.6000000014901,"stimulus":"bees-with-color/bee-A1SM.svg","response":1,"trial_type":"image-button-response","trial_index":154,"time_elapsed":580641,"internal_node_id":"0.0-6.0-0.14","subject_id":"6158701cde28270a24747a2e","study_id":"6197b3f67c2b5cd3b6d9596a","session_id":"6197b88eeb8b99824089f8cf","condition":"full-information","relevant_dimensions":["wings","legs"],"bee_group":{"antennae":"X","wings":"2","pattern":"X","legs":"F"},"bonus":0.540000000000001},{"rt":1033.1000000014901,"stimulus":"bees-with-color/bee-B1SF.svg","response":0,"trial_type":"image-button-response","trial_index":155,"time_elapsed":581678,"internal_node_id":"0.0-6.0-0.15","subject_id":"6158701cde28270a24747a2e","study_id":"6197b3f67c2b5cd3b6d9596a","session_id":"6197b88eeb8b99824089f8cf","condition":"full-information","relevant_dimensions":["wings","legs"],"bee_group":{"antennae":"X","wings":"2","pattern":"X","legs":"F"},"bonus":0.540000000000001},{"rt":1242.1999999955297,"stimulus":"bees-with-color/bee-B1DM.svg","response":0,"trial_type":"image-button-response","trial_index":156,"time_elapsed":582923,"internal_node_id":"0.0-6.0-0.16","s