[{"success":true,"trial_type":"fullscreen","trial_index":0,"time_elapsed":12712,"internal_node_id":"0.0-0.0","subject_id":"5eb19c53c27ff72b2a009730","study_id":"60edd13110225f80f9f3709b","session_id":"6196baa5d213a213f483006d","condition":"full-information","relevant_dimensions":["wings","pattern"],"bee_group":{"antennae":"X","wings":"2","pattern":"S","legs":"X"},"bonus":1.640000000000001},{"success":true,"timeout":false,"failed_images":[],"failed_audio":[],"failed_video":[],"trial_type":"preload","trial_index":1,"time_elapsed":14269,"internal_node_id":"0.0-1.0","subject_id":"5eb19c53c27ff72b2a009730","study_id":"60edd13110225f80f9f3709b","session_id":"6196baa5d213a213f483006d","condition":"full-information","relevant_dimensions":["wings","pattern"],"bee_group":{"antennae":"X","wings":"2","pattern":"S","legs":"X"},"bonus":1.640000000000001},{"rt":3045.8000000715256,"stimulus":"Welcome! Press any key to begin.","response":" ","trial_type":"html-keyboard-response","trial_index":2,"time_elapsed":17316,"internal_node_id":"0.0-2.0","subject_id":"5eb19c53c27ff72b2a009730","study_id":"60edd13110225f80f9f3709b","session_id":"6196baa5d213a213f483006d","condition":"full-information","relevant_dimensions":["wings","pattern"],"bee_group":{"antennae":"X","wings":"2","pattern":"S","legs":"X"},"bonus":1.640000000000001},{"view_history":[{"page_index":0,"viewing_time":4624.899999976158},{"page_index":1,"viewing_time":10894.100000023842},{"page_index":2,"viewing_time":10290.100000023842},{"page_index":3,"viewing_time":12724},{"page_index":4,"viewing_time":5701},{"page_index":5,"viewing_time":9797.200000047684},{"page_index":6,"viewing_time":11799},{"page_index":7,"viewing_time":5949.899999976158},{"page_index":8,"viewing_time":4387.199999928474},{"page_index":9,"viewing_time":5917},{"page_index":10,"viewing_time":2319},{"page_index":11,"viewing_time":9964.900000095367},{"page_index":12,"viewing_time":6219.099999904633},{"page_index":13,"viewing_time":1247},{"page_index":14,"viewing_time":2695}],"rt":104529.70000004768,"trial_type":"instructions","trial_index":3,"time_elapsed":121846,"internal_node_id":"0.0-3.0-0.0","subject_id":"5eb19c53c27ff72b2a009730","study_id":"60edd13110225f80f9f3709b","session_id":"6196baa5d213a213f483006d","condition":"full-information","relevant_dimensions":["wings","pattern"],"bee_group":{"antennae":"X","wings":"2","pattern":"S","legs":"X"},"bonus":1.640000000000001},{"rt":13646.100000023842,"response":{"Q0":["Two or six legs","Stripes or spots on body","Single or double wings","Antennae or no antennae"]},"question_order":[0],"trial_type":"survey-multi-select","trial_index":4,"time_elapsed":135496,"internal_node_id":"0.0-3.0-1.0","subject_id":"5eb19c53c27ff72b2a009730","study_id":"60edd13110225f80f9f3709b","session_id":"6196baa5d213a213f483006d","condition":"full-information","relevant_dimensions":["wings","pattern"],"bee_group":{"antennae":"X","wings":"2","pattern":"S","legs":"X"},"correct":true,"bonus":1.640000000000001},{"rt":27888.600000023842,"response":{"Q1":"No.","Q2":"Based on the four features of the bee.","Q3":"You learn if it was friendly or dangerous, but do not alter your bonus."},"question_order":[0,1,2],"trial_type":"survey-multi-choice","trial_index":5,"time_elapsed":163390,"internal_node_id":"0.0-3.0-2.0","subject_id":"5eb19c53c27ff72b2a009730","study_id":"60edd13110225f80f9f3709b","session_id":"6196baa5d213a213f483006d","condition":"full-information","relevant_dimensions":["wings","pattern"],"bee_group":{"antennae":"X","wings":"2","pattern":"S","legs":"X"},"correct":true,"bonus":1.640000000000001},{"rt":2325.100000023842,"stimulus":"<p>Congrats, you got everything right<br>When you're ready, click the button below to continue to the experiment.</p>","response":0,"trial_type":"html-button-response","trial_index":6,"time_elapsed":165722,"internal_node_id":"0.0-3.0-3.0","subject_id":"5eb19c53c27ff72b2a009730","study_id":"60edd13110225f80f9f3709b","session_id":"6196baa5d213a213f483006d","condition":"full-information","relevant_dimensions":["wings","pattern"],"bee_group":{"antennae":"X","wings":"2","pattern":"S","legs":"X"},"bonus":1.640000000000001},{"rt":10057.299999952316,"stimulus":"bees-with-color/bee-B1DF.svg","response":0,"trial_type":"image-button-response","trial_index":7,"time_elapsed":175782,"internal_node_id":"0.0-4.0-0.0","subject_id":"5eb19c53c27ff72b2a009730","study_id":"60edd13110225f80f9f3709b","session_id":"6196baa5d213a213f483006d","condition":"full-information","relevant_dimensions":["wings","pattern"],"bee_group":{"antennae":"X","wings":"2","pattern":"S","legs":"X"},"action":"harvest","summary":"good-harvest","bonus":1.640000000000001},{"rt":33782.5,"stimulus":"\n                    <p><b>Action: <em>harvest</em></b></p>\n                    <p>This is the bee that you just saw.</p>\n                    <img src=\"bees-with-color/bee-B1DF.svg\" width=\"200\">\n                    <p><span class=\"greenText\"><b>Successful harvest!</b></span><br>Your pay has increased by $0.02. Your bonus pay is now $0.56.</p>\n            ","response":0,"trial_type":"html-button-response","trial_index":8,"time_elapsed":209567,"internal_node_id":"0.0-4.0-1.0","subject_id":"5eb19c53c27ff72b2a009730","study_id":"60edd13110225f80f9f3709b","session_id":"6196baa5d213a213f483006d","condition":"full-information","relevant_dimensions":["wings","pattern"],"bee_group":{"antennae":"X","wings":"2","pattern":"S","legs":"X"},"bonus":1.640000000000001},{"rt":4771.699999928474,"stimulus":"bees-with-color/bee-B2DF.svg","response":0,"trial_type":"image-button-response","trial_index":9,"time_elapsed":214341,"internal_node_id":"0.0-4.0-0.1","subject_id":"5eb19c53c27ff72b2a009730","study_id":"60edd13110225f80f9f3709b","session_id":"6196baa5d213a213f483006d","condition":"full-information","relevant_dimensions":["wings","pattern"],"bee_group":{"antennae":"X","wings":"2","pattern":"S","legs":"X"},"action":"harvest","summary":"good-harvest","bonus":1.640000000000001},{"rt":12969,"stimulus":"\n                    <p><b>Action: <em>harvest</em></b></p>\n                    <p>This is the bee that you just saw.</p>\n                    <img src=\"bees-with-color/bee-B2DF.svg\" width=\"200\">\n                    <p><span class=\"greenText\"><b>Successful harvest!</b></span><br>Your pay has increased by $0.02. Your bonus pay is now $0.58.</p>\n            ","response":0,"trial_type":"html-button-response","trial_index":10,"time_elapsed":227312,"internal_node_id":"0.0-4.0-1.1","subject_id":"5eb19c53c27ff72b2a009730","study_id":"60edd13110225f80f9f3709b","session_id":"6196baa5d213a213f483006d","condition":"full-information","relevant_dimensions":["wings","pattern"],"bee_group":{"antennae":"X","wings":"2","pattern":"S","legs":"X"},"bonus":1.640000000000001},{"rt":3787.399999976158,"stimulus":"bees-with-color/bee-A1DF.svg","response":0,"trial_type":"image-button-response","trial_index":11,"time_elapsed":231102,"internal_node_id":"0.0-4.0-0.2","subject_id":"5eb19c53c27ff72b2a009730","study_id":"60edd13110225f80f9f3709b","session_id":"6196baa5d213a213f483006d","condition":"full-information","relevant_dimensions":["wings","pattern"],"bee_group":{"antennae":"X","wings":"2","pattern":"S","legs":"X"},"action":"harvest","summary":"good-harvest","bonus":1.640000000000001},{"rt":7600.800000071526,"stimulus":"\n                    <p><b>Action: <em>harvest</em></b></p>\n                    <p>This is the bee that you just saw.</p>\n                    <img src=\"bees-with-color/bee-A1DF.svg\" width=\"200\">\n                    <p><span class=\"greenText\"><b>Successful harvest!</b></span><br>Your pay has increased by $0.02. Your bonus pay is now $0.60.</p>\n            ","response":0,"trial_type":"html-button-response","trial_index":12,"time_elapsed":238704,"internal_node_id":"0.0-4.0-1.2","subject_id":"5eb19c53c27ff72b2a009730","study_id":"60edd13110225f80f9f3709b","session_id":"6196baa5d213a213f483006d","condition":"full-information","relevant_dimensions":["wings","pattern"],"bee_group":{"antennae":"X","wings":"2","pattern":"S","legs":"X"},"bonus":1.640000000000001},{"rt":4721.399999976158,"stimulus":"bees-with-color/bee-B2SM.svg","response":1,"trial_type":"image-button-response","trial_index":13,"time_elapsed":243428,"internal_node_id":"0.0-4.0-0.3","subject_id":"5eb19c53c27ff72b2a009730","study_id":"60edd13110225f80f9f3709b","session_id":"6196baa5d213a213f483006d","condition":"full-information","relevant_dimensions":["wings","pattern"],"bee_group":{"antennae":"X","wings":"2","pattern":"S","legs":"X"},"action":"avoid","summary":"good-avoid","bonus":1.640000000000001},{"rt":4862.200000047684,"stimulus":"\n                    <p><b>Action: <em>avoid</em></b></p>\n                    <p>This is the bee that you just saw.</p>\n                    <img src=\"bees-with-color/bee-B2SM.svg\" width=\"200\">\n                    <p><span class=\"greenText\">Good choice!</span>  This bee would have stung you.<br>Your bonus pay is unchanged, and remains at $0.60.</p>\n            ","response":0,"trial_type":"html-button-response","trial_index":14,"time_elapsed":248292,"internal_node_id":"0.0-4.0-1.3","subject_id":"5eb19c53c27ff72b2a009730","study_id":"60edd13110225f80f9f3709b","session_id":"6196baa5d213a213f483006d","condition":"full-information","relevant_dimensions":["wings","pattern"],"bee_group":{"antennae":"X","wings":"2","pattern":"S","legs":"X"},"bonus":1.640000000000001},{"rt":6663.200000047684,"stimulus":"bees-with-color/bee-A1DM.svg","response":0,"trial_type":"image-button-response","trial_index":15,"time_elapsed":254957,"internal_node_id":"0.0-4.0-0.4","subject_id":"5eb19c53c27ff72b2a009730","study_id":"60edd13110225f80f9f3709b","session_id":"6196baa5d213a213f483006d","condition":"full-information","relevant_dimensions":["wings","pattern"],"bee_group":{"antennae":"X","wings":"2","pattern":"S","legs":"X"},"action":"harvest","summary":"good-harvest","bonus":1.640000000000001},{"rt":17419.300000071526,"stimulus":"\n                    <p><b>Action: <em>harvest</em></b></p>\n                    <p>This is the bee that you just saw.</p>\n                    <img src=\"bees-with-color/bee-A1DM.svg\" width=\"200\">\n                    <p><span class=\"greenText\"><b>Successful harvest!</b></span><br>Your pay has increased by $0.02. Your bonus pay is now $0.62.</p>\n            ","response":0,"trial_type":"html-button-response","trial_index":16,"time_elapsed":272378,"internal_node_id":"0.0-4.0-1.4","subject_id":"5eb19c53c27ff72b2a009730","study_id":"60edd13110225f80f9f3709b","session_id":"6196baa5d213a213f483006d","condition":"full-information","relevant_dimensions":["wings","pattern"],"bee_group":{"antennae":"X","wings":"2","pattern":"S","legs":"X"},"bonus":1.640000000000001},{"rt":3994.7000000476837,"stimulus":"bees-with-color/bee-B1SM.svg","response":1,"trial_type":"image-button-response","trial_index":17,"time_elapsed":276375,"internal_node_id":"0.0-4.0-0.5","subject_id":"5eb19c53c27ff72b2a009730","study_id":"60edd13110225f80f9f3709b","session_id":"6196baa5d213a213f483006d","condition":"full-information","relevant_dimensions":["wings","pattern"],"bee_group":{"antennae":"X","wings":"2","pattern":"S","legs":"X"},"action":"avoid","summary":"bad-avoid","bonus":1.640000000000001},{"rt":20768,"stimulus":"\n                    <p><b>Action: <em>avoid</em></b></p>\n                    <p>This is the bee that you just saw.</p>\n                    <img src=\"bees-with-color/bee-B1SM.svg\" width=\"200\">\n                    <p><span class=\"redText\">Bad choice,</span> the bee was friendly.<br>Your bonus pay is unchanged, and remains at $0.62.</p>\n            ","response":0,"trial_type":"html-button-response","trial_index":18,"time_elapsed":297145,"internal_node_id":"0.0-4.0-1.5","subject_id":"5eb19c53c27ff72b2a009730","study_id":"60edd13110225f80f9f3709b","session_id":"6196baa5d213a213f483006d","condition":"full-information","relevant_dimensions":["wings","pattern"],"bee_group":{"antennae":"X","wings":"2","pattern":"S","legs":"X"},"bonus":1.640000000000001},{"rt":2997.5999999046326,"stimulus":"bees-with-color/bee-A2SM.svg","response":1,"trial_type":"image-button-response","trial_index":19,"time_elapsed":300145,"internal_node_id":"0.0-4.0-0.6","subject_id":"5eb19c53c27ff72b2a009730","study_id":"60edd13110225f80f9f3709b","session_id":"6196baa5d213a213f483006d","condition":"full-information","relevant_dimensions":["wings","pattern"],"bee_group":{"antennae":"X","wings":"2","pattern":"S","legs":"X"},"action":"avoid","summary":"good-avoid","bonus":1.640000000000001},{"rt":15812.799999952316,"stimulus":"\n                    <p><b>Action: <em>avoid</em></b></p>\n                    <p>This is the bee that you just saw.</p>\n                    <img src=\"bees-with-color/bee-A2SM.svg\" width=\"200\">\n                    <p><span class=\"greenText\">Good choice!</span>  This bee would have stung you.<br>Your bonus pay is unchanged, and remains at $0.62.</p>\n            ","response":0,"trial_type":"html-button-response","trial_index":20,"time_elapsed":315960,"internal_node_id":"0.0-4.0-1.6","subject_id":"5eb19c53c27ff72b2a009730","study_id":"60edd13110225f80f9f3709b","session_id":"6196baa5d213a213f483006d","condition":"full-information","relevant_dimensions":["wings","pattern"],"bee_group":{"antennae":"X","wings":"2","pattern":"S","legs":"X"},"bonus":1.640000000000001},{"rt":5139.5,"stimulus":"bees-with-color/bee-B1SF.svg","response":0,"trial_type":"image-button-response","trial_index":21,"time_elapsed":321101,"internal_node_id":"0.0-4.0-0.7","subject_id":"5eb19c53c27ff72b2a009730","study_id":"60edd13110225f80f9f3709b","session_id":"6196baa5d213a213f483006d","condition":"full-information","relevant_dimensions":["wings","pattern"],"bee_group":{"antennae":"X","wings":"2","pattern":"S","legs":"X"},"action":"harvest","summary":"good-harvest","bonus":1.640000000000001},{"rt":20350,"stimulus":"\n                    <p><b>Action: <em>harvest</em></b></p>\n                    <p>This is the bee that you just saw.</p>\n                    <img src=\"bees-with-color/bee-B1SF.svg\" width=\"200\">\n                    <p><span class=\"greenText\"><b>Successful harvest!</b></span><br>Your pay has increased by $0.02. Your bonus pay is now $0.64.</p>\n            ","response":0,"trial_type":"html-button-response","trial_index":22,"time_elapsed":341452,"internal_node_id":"0.0-4.0-1.7","subject_id":"5eb19c53c27ff72b2a009730","study_id":"60edd13110225f80f9f3709b","session_id":"6196baa5d213a213f483006d","condition":"full-information","relevant_dimensions":["wings","pattern"],"bee_group":{"antennae":"X","wings":"2","pattern":"S","legs":"X"},"bonus":1.640000000000001},{"rt":2983.7000000476837,"stimulus":"bees-with-color/bee-A2DF.svg","response":1,"trial_type":"image-button-response","trial_index":23,"time_elapsed":344438,"internal_node_id":"0.0-4.0-0.8","subject_id":"5eb19c53c27ff72b2a009730","study_id":"60edd13110225f80f9f3709b","session_id":"6196baa5d213a213f483006d","condition":"full-information","relevant_dimensions":["wings","pattern"],"bee_group":{"antennae":"X","wings":"2","pattern":"S","legs":"X"},"action":"avoid","summary":"bad-avoid","bonus":1.640000000000001},{"rt":16693.899999976158,"stimulus":"\n                    <p><b>Action: <em>avoid</em></b></p>\n                    <p>This is the bee that you just saw.</p>\n                    <img src=\"bees-with-color/bee-A2DF.svg\" width=\"200\">\n                    <p><span class=\"redText\">Bad choice,</span> the bee was friendly.<br>Your bonus pay is unchanged, and remains at $0.64.</p>\n            ","response":0,"trial_type":"html-button-response","trial_index":24,"time_elapsed":361133,"internal_node_id":"0.0-4.0-1.8","subject_id":"5eb19c53c27ff72b2a009730","study_id":"60edd13110225f80f9f3709b","session_id":"6196baa5d213a213f483006d","condition":"full-information","relevant_dimensions":["wings","pattern"],"bee_group":{"antennae":"X","wings":"2","pattern":"S","legs":"X"},"bonus":1.640000000000001},{"rt":3781.100000023842,"stimulus":"bees-with-color/bee-A1SF.svg","response":0,"trial_type":"image-button-response","trial_index":25,"time_elapsed":364916,"internal_node_id":"0.0-4.0-0.9","subject_id":"5eb19c53c27ff72b2a009730","study_id":"60edd13110225f80f9f3709b","session_id":"6196baa5d213a213f483006d","condition":"full-information","relevant_dimensions":["wings","pattern"],"bee_group":{"antennae":"X","wings":"2","pattern":"S","legs":"X"},"action":"harvest","summary":"good-harvest","bonus":1.640000000000001},{"rt":16994.700000047684,"stimulus":"\n                    <p><b>Action: <em>harvest</em></b></p>\n                    <p>This is the bee that you just saw.</p>\n                    <img src=\"bees-with-color/bee-A1SF.svg\" width=\"200\">\n                    <p><span class=\"greenText\"><b>Successful harvest!</b></span><br>Your pay has increased by $0.02. Your bonus pay is now $0.66.</p>\n            ","response":0,"trial_type":"html-button-response","trial_index":26,"time_elapsed":381912,"internal_node_id":"0.0-4.0-1.9","subject_id":"5eb19c53c27ff72b2a009730","study_id":"60edd13110225f80f9f3709b","session_id":"6196baa5d213a213f483006d","condition":"full-information","relevant_dimensions":["wings","pattern"],"bee_group":{"antennae":"X","wings":"2","pattern":"S","legs":"X"},"bonus":1.640000000000001},{"rt":5021.300000071526,"stimulus":"bees-with-color/bee-A2SF.svg","response":1,"trial_type":"image-button-response","trial_index":27,"time_elapsed":386935,"internal_node_id":"0.0-4.0-0.10","subject_id":"5eb19c53c27ff72b2a009730","study_id":"60edd13110225f80f9f3709b","session_id":"6196baa5d213a213f483006d","condition":"full-information","relevant_dimensions":["wings","pattern"],"bee_group":{"antennae":"X","wings":"2","pattern":"S","legs":"X"},"action":"avoid","summary":"good-avoid","bonus":1.640000000000001},{"rt":22964.899999976158,"stimulus":"\n                    <p><b>Action: <em>avoid</em></b></p>\n                    <p>This is the bee that you just saw.</p>\n                    <img src=\"bees-with-color/bee-A2SF.svg\" width=\"200\">\n                    <p><span class=\"greenText\">Good choice!</span>  This bee would have stung you.<br>Your bonus pay is unchanged, and remains at $0.66.</p>\n            ","response":0,"trial_type":"html-button-response","trial_index":28,"time_elapsed":409901,"internal_node_id":"0.0-4.0-1.10","subject_id":"5eb19c53c27ff72b2a009730","study_id":"60edd13110225f80f9f3709b","session_id":"6196baa5d213a213f483006d","condition":"full-information","relevant_dimensions":["wings","pattern"],"bee_group":{"antennae":"X","wings":"2","pattern":"S","legs":"X"},"bonus":1.640000000000001},{"rt":8051.100000023842,"stimulus":"bees-with-color/bee-B1DM.svg","response":1,"trial_type":"image-button-response","trial_index":29,"time_elapsed":417954,"internal_node_id":"0.0-4.0-0.11","subject_id":"5eb19c53c27ff72b2a009730","study_id":"60edd13110225f80f9f3709b","session_id":"6196baa5d213a213f483006d","condition":"full-information","relevant_dimensions":["wings","pattern"],"bee_group":{"antennae":"X","wings":"2","pattern":"S","legs":"X"},"action":"avoid","summary":"bad-avoid","bonus":1.640000000000001},{"rt":15219.899999976158,"stimulus":"\n                    <p><b>Action: <em>avoid</em></b></p>\n                    <p>This is the bee that you just saw.</p>\n                    <img src=\"bees-with-color/bee-B1DM.svg\" width=\"200\">\n                    <p><span class=\"redText\">Bad choice,</span> the bee was friendly.<br>Your bonus pay is unchanged, and remains at $0.66.</p>\n            ","response":0,"trial_type":"html-button-response","trial_index":30,"time_elapsed":433175,"internal_node_id":"0.0-4.0-1.11","subject_id":"5eb19c53c27ff72b2a009730","study_id":"60edd13110225f80f9f3709b","session_id":"6196baa5d213a213f483006d","condition":"full-information","relevant_dimensions":["wings","pattern"],"bee_group":{"antennae":"X","wings":"2","pattern":"S","legs":"X"},"bonus":1.640000000000001},{"rt":9731,"stimulus":"bees-with-color/bee-A1SM.svg","response":0,"trial_type":"image-button-response","trial_index":31,"time_elapsed":442908,"internal_node_id":"0.0-4.0-0.12","subject_id":"5eb19c53c27ff72b2a009730","study_id":"60edd13110225f80f9f3709b","session_id":"6196baa5d213a213f483006d","condition":"full-information","relevant_dimensions":["wings","pattern"],"bee_group":{"antennae":"X","wings":"2","pattern":"S","legs":"X"},"action":"harvest","summary":"good-harvest","bonus":1.640000000000001},{"rt":14879.199999928474,"stimulus":"\n                    <p><b>Action: <em>harvest</em></b></p>\n                    <p>This is the bee that you just saw.</p>\n                    <img src=\"bees-with-color/bee-A1SM.svg\" width=\"200\">\n                    <p><span class=\"greenText\"><b>Successful harvest!</b></span><br>Your pay has increased by $0.02. Your bonus pay is now $0.68.</p>\n            ","response":0,"trial_type":"html-button-response","trial_index":32,"time_elapsed":457789,"internal_node_id":"0.0-4.0-1.12","subject_id":"5eb19c53c27ff72b2a009730","study_id":"60edd13110225f80f9f3709b","session_id":"6196baa5d213a213f483006d","condition":"full-information","relevant_dimensions":["wings","pattern"],"bee_group":{"antennae":"X","wings":"2","pattern":"S","legs":"X"},"bonus":1.640000000000001},{"rt":6841.400000095367,"stimulus":"bees-with-color/bee-B2DM.svg","response":1,"trial_type":"image-button-response","trial_index":33,"time_elapsed":464631,"internal_node_id":"0.0-4.0-0.13","subject_id":"5eb19c53c27ff72b2a009730","study_id":"60edd13110225f80f9f3709b","session_id":"6196baa5d213a213f483006d","condition":"full-information","relevant_dimensions":["wings","pattern"],"bee_group":{"antennae":"X","wings":"2","pattern":"S","legs":"X"},"action":"avoid","summary":"bad-avoid","bonus":1.640000000000001},{"rt":16432.699999928474,"stimulus":"\n                    <p><b>Action: <em>avoid</em></b></p>\n                    <p>This is the bee that you just saw.</p>\n                    <img src=\"bees-with-color/bee-B2DM.svg\" width=\"200\">\n                    <p><span class=\"redText\">Bad choice,</span> the bee was friendly.<br>Your bonus pay is unchanged, and remains at $0.68.</p>\n            ","response":0,"trial_type":"html-button-response","trial_index":34,"time_elapsed":481066,"internal_node_id":"0.0-4.0-1.13","subject_id":"5eb19c53c27ff72b2a009730","study_id":"60edd13110225f80f9f3709b","session_id":"6196baa5d213a213f483006d","condition":"full-information","relevant_dimensions":["wings","pattern"],"bee_group":{"antennae":"X","wings":"2","pattern":"S","legs":"X"},"bonus":1.640000000000001},{"rt":11613.099999904633,"stimulus":"bees-with-color/bee-B2SF.svg","response":0,"trial_type":"image-button-response","trial_index":35,"time_elapsed":492681,"internal_node_id":"0.0-4.0-0.14","subject_id":"5eb19c53c27ff72b2a009730","study_id":"60edd13110225f80f9f3709b","session_id":"6196baa5d213a213f483006d","condition":"full-information","relevant_dimensions":["wings","pattern"],"bee_group":{"antennae":"X","wings":"2","pattern":"S","legs":"X"},"action":"harvest","summary":"bad-harvest","bonus":1.640000000000001},{"rt":21469.899999976158,"stimulus":"\n                    <p><b>Action: <em>harvest</em></b></p>\n                    <p>This is the bee that you just saw.</p>\n                    <img src=\"bees-with-color/bee-B2SF.svg\" width=\"200\">\n                    <p><span class=\"redText\">Bad choice, the bee was angry.</span><br><b>You have been stung!</b><br>Your pay has been decreased by $0.10. Your bonus pay is now $0.58.</p>\n            ","response":0,"trial_type":"html-button-response","trial_index":36,"time_elapsed":514152,"internal_node_id":"0.0-4.0-1.14","subject_id":"5eb19c53c27ff72b2a009730","study_id":"60edd13110225f80f9f3709b","session_id":"6196baa5d213a213f483006d","condition":"full-information","relevant_dimensions":["wings","pattern"],"bee_group":{"antennae":"X","wings":"2","pattern":"S","legs":"X"},"bonus":1.640000000000001},{"rt":14326.100000023842,"stimulus":"bees-with-color/bee-A2DM.svg","response":1,"trial_type":"image-button-response","trial_index":37,"time_elapsed":528480,"internal_node_id":"0.0-4.0-0.15","subject_id":"5eb19c53c27ff72b2a009730","study_id":"60edd13110225f80f9f3709b","session_id":"6196baa5d213a213f483006d","condition":"full-information","relevant_dimensions":["wings","pattern"],"bee_group":{"antennae":"X","wings":"2","pattern":"S","legs":"X"},"action":"avoid","summary":"bad-avoid","bonus":1.640000000000001},{"rt":20852,"stimulus":"\n                    <p><b>Action: <em>avoid</em></b></p>\n                    <p>This is the bee that you just saw.</p>\n                    <img src=\"bees-with-color/bee-A2DM.svg\" width=\"200\">\n                    <p><span class=\"redText\">Bad choice,</span> the bee was friendly.<br>Your bonus pay is unchanged, and remains at $0.58.</p>\n            ","response":0,"trial_type":"html-button-response","trial_index":38,"time_elapsed":549333,"internal_node_id":"0.0-4.0-1.15","subject_id":"5eb19c53c27ff72b2a009730","study_id":"60edd13110225f80f9f3709b","session_id":"6196baa5d213a213f483006d","condition":"full-information","relevant_dimensions":["wings","pattern"],"bee_group":{"antennae":"X","wings":"2","pattern":"S","legs":"X"},"bonus":1.640000000000001},{"rt":11613.200000047684,"stimulus":"bees-with-color/bee-A1DM.svg","response":1,"trial_type":"image-button-response","trial_index":39,"time_elapsed":560947,"internal_node_id":"0.0-4.0-0.16","subject_id":"5eb19c53c27ff72b2a009730","study_id":"60edd13110225f80f9f3709b","session_id":"6196baa5d213a213f483006d","condition":"full-information","relevant_dimensions":["wings","pattern"],"bee_group":{"antennae":"X","wings":"2","pattern":"S","legs":"X"},"action":"avoid","summary":"bad-avoid","bonus":1.640000000000001},{"rt":22481.599999904633,"stimulus":"\n                    <p><b>Action: <em>avoid</em></b></p>\n                    <p>This is the bee that you just saw.</p>\n                    <img src=\"bees-with-color/bee-A1DM.svg\" width=\"200\">\n                    <p><span class=\"redText\">Bad choice,</span> the bee was friendly.<br>Your bonus pay is unchanged, and remains at $0.58.</p>\n            ","response":0,"trial_type":"html-button-response","trial_index":40,"time_elapsed":583430,"internal_node_id":"0.0-4.0-1.16","subject_id":"5eb19c53c27ff72b2a009730","study_id":"60edd13110225f80f9f3709b","session_id":"6196baa5d213a213f483006d","condition":"full-information","relevant_dimensions":["wings","pattern"],"bee_group":{"antennae":"X","wings":"2","pattern":"S","legs":"X"},"bonus":1.640000000000001},{"rt":18000,"stimulus":"bees-with-color/bee-B2DF.svg","response":1,"trial_type":"image-button-response","trial_index":41,"time_elapsed":601433,"internal_node_id":"0.0-4.0-0.17","subject_id":"5eb19c53c27ff72b2a009730","study_id":"60edd13110225f80f9f3709b","session_id":"6196baa5d213a213f483006d","condition":"full-information","relevant_dimensions":["wings","pattern"],"bee_group":{"antennae":"X","wings":"2","pattern":"S","legs":"X"},"action":"avoid","summary":"bad-avoid","bonus":1.640000000000001},{"rt":12997.399999976158,"stimulus":"\n                    <p><b>Action: <em>avoid</em></b></p>\n                    <p>This is the bee that you just saw.</p>\n                    <img src=\"bees-with-color/bee-B2DF.svg\" width=\"200\">\n                    <p><span class=\"redText\">Bad choice,</span> the bee was friendly.<br>Your bonus pay is unchanged, and remains at $0.58.</p>\n            ","response":0,"trial_type":"html-button-response","trial_index":42,"time_elapsed":614432,"internal_node_id":"0.0-4.0-1.17","subject_id":"5eb19c53c27ff72b2a009730","study_id":"60edd13110225f80f9f3709b","session_id":"6196baa5d213a213f483006d","condition":"full-information","relevant_dimensions":["wings","pattern"],"bee_group":{"antennae":"X","wings":"2","pattern":"S","legs":"X"},"bonus":1.640000000000001},{"rt":2074,"stimulus":"bees-with-color/bee-B1DM.svg","response":0,"trial_type":"image-button-response","trial_index":43,"time_elapsed":616507,"internal_node_id":"0.0-4.0-0.18","subject_id":"5eb19c53c27ff72b2a009730","study_id":"60edd13110225f80f9f3709b","session_id":"6196baa5d213a213f483006d","condition":"full-information","relevant_dimensions":["wings","pattern"],"bee_group":{"antennae":"X","wings":"2","pattern":"S","legs":"X"},"action":"harvest","summary":"good-harvest","bonus":1.640000000000001},{"rt":15837.299999952316,"stimulus":"\n                    <p><b>Action: <em>harvest</em></b></p>\n                    <p>This is the bee that you just saw.</p>\n                    <img src=\"bees-with-color/bee-B1DM.svg\" width=\"200\">\n                    <p><span class=\"greenText\"><b>Successful harvest!</b></span><br>Your pay has increased by $0.02. Your bonus pay is now $0.60.</p>\n            ","response":0,"trial_type":"html-button-response","trial_index":44,"time_elapsed":632346,"internal_node_id":"0.0-4.0-1.18","subject_id":"5eb19c53c27ff72b2a009730","study_id":"60edd13110225f80f9f3709b","session_id":"6196baa5d213a213f483006d","condition":"full-information","relevant_dimensions":["wings","pattern"],"bee_group":{"antennae":"X","wings":"2","pattern":"S","legs":"X"},"bonus":1.640000000000001},{"rt":18975.700000047684,"stimulus":"bees-with-color/bee-B2SF.svg","response":1,"trial_type":"image-button-response","trial_index":45,"time_elapsed":651324,"internal_node_id":"0.0-4.0-0.19","subject_id":"5eb19c53c27ff72b2a009730","study_id":"60edd13110225f80f9f3709b","session_id":"6196baa5d213a213f483006d","condition":"full-information","relevant_dimensions":["wings","pattern"],"bee_group":{"antennae":"X","wings":"2","pattern":"S","legs":"X"},"action":"avoid","summary":"good-avoid","bonus":1.640000000000001},{"rt":3787.8000000715256,"stimulus":"\n                    <p><b>Action: <em>avoid</em></b></p>\n                    <p>This is the bee that you just saw.</p>\n                    <img src=\"bees-with-color/bee-B2SF.svg\" width=\"200\">\n                    <p><span class=\"greenText\">Good choice!</span>  This bee would have stung you.<br>Your bonus pay is unchanged, and remains at $0.60.</p>\n            ","response":0,"trial_type":"html-button-response","trial_index":46,"time_elapsed":655113,"internal_node_id":"0.0-4.0-1.19","subject_id":"5eb19c53c27ff72b2a009730","study_id":"60edd13110225f80f9f3709b","session_id":"6196baa5d213a213f483006d","condition":"full-information","relevant_dimensions":["wings","pattern"],"bee_group":{"antennae":"X","wings":"2","pattern":"S","legs":"X"},"bonus":1.640000000000001},{"rt":12460.599999904633,"stimulus":"bees-with-color/bee-A1SF.svg","response":0,"trial_type":"image-button-response","trial_index":47,"time_elapsed":667575,"internal_node_id":"0.0-4.0-0.20","subject_id":"5eb19c53c27ff72b2a009730","study_id":"60edd13110225f80f9f3709b","session_id":"6196baa5d213a213f483006d","condition":"full-information","relevant_dimensions":["wings","pattern"],"bee_group":{"antennae":"X","wings":"2","pattern":"S","legs":"X"},"action":"harvest","summary":"good-harvest","bonus":1.640000000000001},{"rt":1350.7999999523163,"stimulus":"\n                    <p><b>Action: <em>harvest</em></b></p>\n                    <p>This is the bee that you just saw.</p>\n                    <img src=\"bees-with-color/bee-A1SF.svg\" width=\"200\">\n                    <p><span class=\"greenText\"><b>Successful harvest!</b></span><br>Your pay has increased by $0.02. Your bonus pay is now $0.62.</p>\n            ","response":0,"trial_type":"html-button-response","trial_index":48,"time_elapsed":668927,"internal_node_id":"0.0-4.0-1.20","subject_id":"5eb19c53c27ff72b2a009730","study_id":"60edd13110225f80f9f3709b","session_id":"6196baa5d213a213f483006d","condition":"full-information","relevant_dimensions":["wings","pattern"],"bee_group":{"antennae":"X","wings":"2","pattern":"S","legs":"X"},"bonus":1.640000000000001},{"rt":7041.399999976158,"stimulus":"bees-with-color/bee-A2DF.svg","response":0,"trial_type":"image-button-response","trial_index":49,"time_elapsed":675970,"internal_node_id":"0.0-4.0-0.21","subject_id":"5eb19c53c27ff72b2a009730","study_id":"60edd13110225f80f9f3709b","session_id":"6196baa5d213a213f483006d","condition":"full-information","relevant_dimensions":["wings","pattern"],"bee_group":{"antennae":"X","wings":"2","pattern":"S","legs":"X"},"action":"harvest","summary":"good-harvest","bonus":1.640000000000001},{"rt":1067.5999999046326,"stimulus":"\n                    <p><b>Action: <em>harvest</em></b></p>\n                    <p>This is the bee that you just saw.</p>\n                    <img src=\"bees-with-color/bee-A2DF.svg\" width=\"200\">\n                    <p><span class=\"greenText\"><b>Successful harvest!</b></span><br>Your pay has increased by $0.02. Your bonus pay is now $0.64.</p>\n            ","response":0,"trial_type":"html-button-response","trial_index":50,"time_elapsed":677039,"internal_node_id":"0.0-4.0-1.21","subject_id":"5eb19c53c27ff72b2a009730","study_id":"60edd13110225f80f9f3709b","session_id":"6196baa5d213a213f483006d","condition":"full-information","relevant_dimensions":["wings","pattern"],"bee_group":{"antennae":"X","wings":"2","pattern":"S","legs":"X"},"bonus":1.640000000000001},{"rt":16456.799999952316,"stimulus":"bees-with-color/bee-B2SM.svg","response":1,"trial_type":"image-button-response","trial_index":51,"time_elapsed":693498,"internal_node_id":"0.0-4.0-0.22","subject_id":"5eb19c53c27ff72b2a009730","study_id":"60edd13110225f80f9f3709b","session_id":"6196baa5d213a213f483006d","condition":"full-information","relevant_dimensions":["wings","pattern"],"bee_group":{"antennae":"X","wings":"2","pattern":"S","legs":"X"},"action":"avoid","summary":"good-avoid","bonus":1.640000000000001},{"rt":26771.599999904633,"stimulus":"\n                    <p><b>Action: <em>avoid</em></b></p>\n                    <p>This is the bee that you just saw.</p>\n                    <img src=\"bees-with-color/bee-B2SM.svg\" width=\"200\">\n                    <p><span class=\"greenText\">Good choice!</span>  This bee would have stung you.<br>Your bonus pay is unchanged, and remains at $0.64.</p>\n            ","response":0,"trial_type":"html-button-response","trial_index":52,"time_elapsed":720271,"internal_node_id":"0.0-4.0-1.22","subject_id":"5eb19c53c27ff72b2a009730","study_id":"60edd13110225f80f9f3709b","session_id":"6196baa5d213a213f483006d","condition":"full-information","relevant_dimensions":["wings","pattern"],"bee_group":{"antennae":"X","wings":"2","pattern":"S","legs":"X"},"bonus":1.640000000000001},{"rt":14290.899999976158,"stimulus":"bees-with-color/bee-B1SM.svg","response":1,"trial_type":"image-button-response","trial_index":53,"time_elapsed":734564,"internal_node_id":"0.0-4.0-0.23","subject_id":"5eb19c53c27ff72b2a009730","study_id":"60edd13110225f80f9f3709b","session_id":"6196baa5d213a213f483006d","condition":"full-information","relevant_dimensions":["wings","pattern"],"bee_group":{"antennae":"X","wings":"2","pattern":"S","legs":"X"},"action":"avoid","summary":"bad-avoid","bonus":1.640000000000001},{"rt":14127.800000071526,"stimulus":"\n                    <p><b>Action: <em>avoid</em></b></p>\n                    <p>This is the bee that you just saw.</p>\n                    <img src=\"bees-with-color/bee-B1SM.svg\" width=\"200\">\n                    <p><span class=\"redText\">Bad choice,</span> the bee was friendly.<br>Your bonus pay is unchanged, and remains at $0.64.</p>\n            ","response":0,"trial_type":"html-button-response","trial_index":54,"time_elapsed":748693,"internal_node_id":"0.0-4.0-1.23","subject_id":"5eb19c53c27ff72b2a009730","study_id":"60edd13110225f80f9f3709b","session_id":"6196baa5d213a213f483006d","condition":"full-information","relevant_dimensions":["wings","pattern"],"bee_group":{"antennae":"X","wings":"2","pattern":"S","legs":"X"},"bonus":1.640000000000001},{"rt":8926.5,"stimulus":"bees-with-color/bee-B2DM.svg","response":0,"trial_type":"image-button-response","trial_index":55,"time_elapsed":757621,"internal_node_id":"0.0-4.0-0.24","subject_id":"5eb19c53c27ff72b2a009730","study_id":"60edd13110225f80f9f3709b","session_id":"6196baa5d213a213f483006d","condition":"full-information","relevant_dimensions":["wings","pattern"],"bee_group":{"antennae":"X","wings":"2","pattern":"S","legs":"X"},"action":"harvest","summary":"good-harvest","bonus":1.640000000000001},{"rt":1311.6000000238419,"stimulus":"\n                    <p><b>Action: <em>harvest</em></b></p>\n                    <p>This is the bee that you just saw.</p>\n                    <img src=\"bees-with-color/bee-B2DM.svg\" width=\"200\">\n                    <p><span class=\"greenText\"><b>Successful harvest!</b></span><br>Your pay has increased by $0.02. Your bonus pay is now $0.66.</p>\n            ","response":0,"trial_type":"html-button-response","trial_index":56,"time_elapsed":758934,"internal_node_id":"0.0-4.0-1.24","subject_id":"5eb19c53c27ff72b2a009730","study_id":"60edd13110225f80f9f3709b","session_id":"6196baa5d213a213f483006d","condition":"full-information","relevant_dimensions":["wings","pattern"],"bee_group":{"antennae":"X","wings":"2","pattern":"S","legs":"X"},"bonus":1.640000000000001},{"rt":7135.100000023842,"stimulus":"bees-with-color/bee-A2DM.svg","response":0,"trial_type":"image-button-response","trial_index":57,"time_elapsed":766071,"internal_node_id":"0.0-4.0-0.25","subject_id":"5eb19c53c27ff72b2a009730","study_id":"60edd13110225f80f9f3709b","session_id":"6196baa5d213a213f483006d","condition":"full-information","relevant_dimensions":["wings","pattern"],"bee_group":{"antennae":"X","wings":"2","pattern":"S","legs":"X"},"action":"harvest","summary":"good-harvest","bonus":1.640000000000001},{"rt":1872.1999999284744,"stimulus":"\n                    <p><b>Action: <em>harvest</em></b></p>\n                    <p>This is the bee that you just saw.</p>\n                    <img src=\"bees-with-color/bee-A2DM.svg\" width=\"200\">\n                    <p><span class=\"greenText\"><b>Successful harvest!</b></span><br>Your pay has increased by $0.02. Your bonus pay is now $0.68.</p>\n            ","response":0,"trial_type":"html-button-response","trial_index":58,"time_elapsed":767945,"internal_node_id":"0.0-4.0-1.25","subject_id":"5eb19c53c27ff72b2a009730","study_id":"60edd13110225f80f9f3709b","session_id":"6196baa5d213a213f483006d","condition":"full-information","relevant_dimensions":["wings","pattern"],"bee_group":{"antennae":"X","wings":"2","pattern":"S","legs":"X"},"bonus":1.640000000000001},{"rt":11272.199999928474,"stimulus":"bees-with-color/bee-A2SM.svg","response":1,"trial_type":"image-button-response","trial_index":59,"time_elapsed":779220,"internal_node_id":"0.0-4.0-0.26","subject_id":"5eb19c53c27ff72b2a009730","study_id":"60edd13110225f80f9f3709b","session_id":"6196baa5d213a213f483006d","condition":"full-information","relevant_dimensions":["wings","pattern"],"bee_group":{"antennae":"X","wings":"2","pattern":"S","legs":"X"},"action":"avoid","summary":"good-avoid","bonus":1.640000000000001},{"rt":809,"stimulus":"\n                    <p><b>Action: <em>avoid</em></b></p>\n                    <p>This is the bee that you just saw.</p>\n                    <img src=\"bees-with-color/bee-A2SM.svg\" width=\"200\">\n                    <p><span class=\"greenText\">Good choice!</span>  This bee would have stung you.<br>Your bonus pay is unchanged, and remains at $0.68.</p>\n            ","response":0,"trial_type":"html-button-response","trial_index":60,"time_elapsed":780030,"internal_node_id":"0.0-4.0-1.26","subject_id":"5eb19c53c27ff72b2a009730","study_id":"60edd13110225f80f9f3709b","session_id":"6196baa5d213a213f483006d","condition":"full-information","relevant_dimensions":["wings","pattern"],"bee_group":{"antennae":"X","wings":"2","pattern":"S","legs":"X"},"bonus":1.640000000000001},{"rt":17477.100000023842,"stimulus":"bees-with-color/bee-A1DF.svg","response":1,"trial_type":"image-button-response","trial_index":61,"time_elapsed":797510,"internal_node_id":"0.0-4.0-0.27","subject_id":"5eb19c53c27ff72b2a009730","study_id":"60edd13110225f80f9f3709b","session_id":"6196baa5d213a213f483006d","condition":"full-information","relevant_dimensions":["wings","pattern"],"bee_group":{"antennae":"X","wings":"2","pattern":"S","legs":"X"},"action":"avoid","summary":"bad-avoid","bonus":1.640000000000001},{"rt":15018.5,"stimulus":"\n                    <p><b>Action: <em>avoid</em></b></p>\n                    <p>This is the bee that you just saw.</p>\n                    <img src=\"bees-with-color/bee-A1DF.svg\" width=\"200\">\n                    <p><span class=\"redText\">Bad choice,</span> the bee was friendly.<br>Your bonus pay is unchanged, and remains at $0.68.</p>\n            ","response":0,"trial_type":"html-button-response","trial_index":62,"time_elapsed":812530,"internal_node_id":"0.0-4.0-1.27","subject_id":"5eb19c53c27ff72b2a009730","study_id":"60edd13110225f80f9f3709b","session_id":"6196baa5d213a213f483006d","condition":"full-information","relevant_dimensions":["wings","pattern"],"bee_group":{"antennae":"X","wings":"2","pattern":"S","legs":"X"},"bonus":1.640000000000001},{"rt":12028.600000023842,"stimulus":"bees-with-color/bee-A1SM.svg","response":0,"trial_type":"image-button-response","trial_index":63,"time_elapsed":824559,"internal_node_id":"0.0-4.0-0.28","subject_id":"5eb19c53c27ff72b2a009730","study_id":"60edd13110225f80f9f3709b","session_id":"6196baa5d213a213f483006d","condition":"full-information","relevant_dimensions":["wings","pattern"],"bee_group":{"antennae":"X","wings":"2","pattern":"S","legs":"X"},"action":"harvest","summary":"good-harvest","bonus":1.640000000000001},{"rt":746.3000000715256,"stimulus":"\n                    <p><b>Action: <em>harvest</em></b></p>\n                    <p>This is the bee that you just saw.</p>\n                    <img src=\"bees-with-color/bee-A1SM.svg\" width=\"200\">\n                    <p><span class=\"greenText\"><b>Successful harvest!</b></span><br>Your pay has increased by $0.02. Your bonus pay is now $0.70.</p>\n            ","response":0,"trial_type":"html-button-response","trial_index":64,"time_elapsed":825307,"internal_node_id":"0.0-4.0-1.28","subject_id":"5eb19c53c27ff72b2a009730","study_id":"60edd13110225f80f9f3709b","session_id":"6196baa5d213a213f483006d","condition":"full-information","relevant_dimensions":["wings","pattern"],"bee_group":{"antennae":"X","wings":"2","pattern":"S","legs":"X"},"bonus":1.640000000000001},{"rt":9098.300000071526,"stimulus":"bees-with-color/bee-B1SF.svg","response":0,"trial_type":"image-button-response","trial_index":65,"time_elapsed":834407,"internal_node_id":"0.0-4.0-0.29","subject_id":"5eb19c53c27ff72b2a009730","study_id":"60edd13110225f80f9f3709b","session_id":"6196baa5d213a213f483006d","condition":"full-information","relevant_dimensions":["wings","pattern"],"bee_group":{"antennae":"X","wings":"2","pattern":"S","legs":"X"},"action":"harvest","summary":"good-harvest","bonus":1.640000000000001},{"rt":1271.5,"stimulus":"\n                    <p><b>Action: <em>harvest</em></b></p>\n                    <p>This is the bee that you just saw.</p>\n                    <img src=\"bees-with-color/bee-B1SF.svg\" width=\"200\">\n                    <p><span class=\"greenText\"><b>Successful harvest!</b></span><br>Your pay has increased by $0.02. Your bonus pay is now $0.72.</p>\n            ","response":0,"trial_type":"html-button-response","trial_index":66,"time_elapsed":835680,"internal_node_id":"0.0-4.0-1.29","subject_id":"5eb19c53c27ff72b2a009730","study_id":"60edd13110225f80f9f3709b","session_id":"6196baa5d213a213f483006d","condition":"full-information","relevant_dimensions":["wings","pattern"],"bee_group":{"antennae":"X","wings":"2","pattern":"S","legs":"X"},"bonus":1.640000000000001},{"rt":7958.799999952316,"stimulus":"bees-with-color/bee-B1DF.svg","response":0,"trial_type":"image-button-response","trial_index":67,"time_elapsed":843640,"internal_node_id":"0.0-4.0-0.30","subject_id":"5eb19c53c27ff72b2a009730","study_id":"60edd13110225f80f9f3709b","session_id":"6196baa5d213a213f483006d","condition":"full-information","relevant_dimensions":["wings","pattern"],"bee_group":{"antennae":"X","wings":"2","pattern":"S","legs":"X"},"action":"harvest","summary":"good-harvest","bonus":1.640000000000001},{"rt":778.8999999761581,"stimulus":"\n                    <p><b>Action: <em>harvest</em></b></p>\n                    <p>This is the bee that you just saw.</p>\n                    <img src=\"bees-with-color/bee-B1DF.svg\" width=\"200\">\n                    <p><span class=\"greenText\"><b>Successful harvest!</b></span><br>Your pay has increased by $0.02. Your bonus pay is now $0.74.</p>\n            ","response":0,"trial_type":"html-button-response","trial_index":68,"time_elapsed":844420,"internal_node_id":"0.0-4.0-1.30","subject_id":"5eb19c53c27ff72b2a009730","study_id":"60edd13110225f80f9f3709b","session_id":"6196baa5d213a213f483006d","condition":"full-information","relevant_dimensions":["wings","pattern"],"bee_group":{"antennae":"X","wings":"2","pattern":"S","legs":"X"},"bonus":1.640000000000001},{"rt":12886.899999976158,"stimulus":"bees-with-color/bee-A2SF.svg","response":1,"trial_type":"image-button-response","trial_index":69,"time_elapsed":857309,"internal_node_id":"0.0-4.0-0.31","subject_id":"5eb19c53c27ff72b2a009730","study_id":"60edd13110225f80f9f3709b","session_id":"6196baa5d213a213f483006d","condition":"full-information","relevant_dimensions":["wings","pattern"],"bee_group":{"antennae":"X","wings":"2","pattern":"S","legs":"X"},"action":"avoid","summary":"good-avoid","bonus":1.640000000000001},{"rt":1684.7999999523163,"stimulus":"\n                    <p><b>Action: <em>avoid</em></b></p>\n                    <p>This is the bee that you just saw.</p>\n                    <img src=\"bees-with-color/bee-A2SF.svg\" width=\"200\">\n                    <p><span class=\"greenText\">Good choice!</span>  This bee would have stung you.<br>Your bonus pay is unchanged, and remains at $0.74.</p>\n            ","response":0,"trial_type":"html-button-response","trial_index":70,"time_elapsed":858995,"internal_node_id":"0.0-4.0-1.31","subject_id":"5eb19c53c27ff72b2a009730","study_id":"60edd13110225f80f9f3709b","session_id":"6196baa5d213a213f483006d","condition":"full-information","relevant_dimensions":["wings","pattern"],"bee_group":{"antennae":"X","wings":"2","pattern":"S","legs":"X"},"bonus":1.640000000000001},{"rt":19276.300000071526,"stimulus":"bees-with-color/bee-B1SM.svg","response":1,"trial_type":"image-button-response","trial_index":71,"time_elapsed":878274,"internal_node_id":"0.0-4.0-0.32","subject_id":"5eb19c53c27ff72b2a009730","study_id":"60edd13110225f80f9f3709b","session_id":"6196baa5d213a213f483006d","condition":"full-information","relevant_dimensions":["wings","pattern"],"bee_group":{"antennae":"X","wings":"2","pattern":"S","legs":"X"},"action":"avoid","summary":"bad-avoid","bonus":1.640000000000001},{"rt":35265.200000047684,"stimulus":"\n                    <p><b>Action: <em>avoid</em></b></p>\n                    <p>This is the bee that you just saw.</p>\n                    <img src=\"bees-with-color/bee-B1SM.svg\" width=\"200\">\n                    <p><span class=\"redText\">Bad choice,</span> the bee was friendly.<br>Your bonus pay is unchanged, and remains at $0.74.</p>\n            ","response":0,"trial_type":"html-button-response","trial_index":72,"time_elapsed":913540,"internal_node_id":"0.0-4.0-1.32","subject_id":"5eb19c53c27ff72b2a009730","study_id":"60edd13110225f80f9f3709b","session_id":"6196baa5d213a213f483006d","condition":"full-information","relevant_dimensions":["wings","pattern"],"bee_group":{"antennae":"X","wings":"2","pattern":"S","legs":"X"},"bonus":1.640000000000001},{"rt":12428.099999904633,"stimulus":"bees-with-color/bee-B1SF.svg","response":0,"trial_type":"image-button-response","trial_index":73,"time_elapsed":925970,"internal_node_id":"0.0-4.0-0.33","subject_id":"5eb19c53c27ff72b2a009730","study_id":"60edd13110225f80f9f3709b","session_id":"6196baa5d213a213f483006d","condition":"full-information","relevant_dimensions":["wings","pattern"],"bee_group":{"antennae":"X","wings":"2","pattern":"S","legs":"X"},"action":"harvest","summary":"good-harvest","bonus":1.640000000000001},{"rt":805.2000000476837,"stimulus":"\n                    <p><b>Action: <em>harvest</em></b></p>\n                    <p>This is the bee that you just saw.</p>\n                    <img src=\"bees-with-color/bee-B1SF.svg\" width=\"200\">\n                    <p><span class=\"greenText\"><b>Successful harvest!</b></span><br>Your pay has increased by $0.02. Your bonus pay is now $0.76.</p>\n            ","response":0,"trial_type":"html-button-response","trial_index":74,"time_elapsed":926777,"internal_node_id":"0.0-4.0-1.33","subject_id":"5eb19c53c27ff72b2a009730","study_id":"60edd13110225f80f9f3709b","session_id":"6196baa5d213a213f483006d","condition":"full-information","relevant_dimensions":["wings","pattern"],"bee_group":{"antennae":"X","wings":"2","pattern":"S","legs":"X"},"bonus":1.640000000000001},{"rt":11552.199999928474,"stimulus":"bees-with-color/bee-B2DF.svg","response":0,"trial_type":"image-button-response","trial_index":75,"time_elapsed":938331,"internal_node_id":"0.0-4.0-0.34","subject_id":"5eb19c53c27ff72b2a009730","study_id":"60edd13110225f80f9f3709b","session_id":"6196baa5d213a213f483006d","condition":"full-information","relevant_dimensions":["wings","pattern"],"bee_group":{"antennae":"X","wings":"2","pattern":"S","legs":"X"},"action":"harvest","summary":"good-harvest","bonus":1.640000000000001},{"rt":776.4000000953674,"stimulus":"\n                    <p><b>Action: <em>harvest</em></b></p>\n                    <p>This is the bee that you just saw.</p>\n                    <img src=\"bees-with-color/bee-B2DF.svg\" width=\"200\">\n                    <p><span class=\"greenText\"><b>Successful harvest!</b></span><br>Your pay has increased by $0.02. Your bonus pay is now $0.78.</p>\n            ","response":0,"trial_type":"html-button-response","trial_index":76,"time_elapsed":939109,"internal_node_id":"0.0-4.0-1.34","subject_id":"5eb19c53c27ff72b2a009730","study_id":"60edd13110225f80f9f3709b","session_id":"6196baa5d213a213f483006d","condition":"full-information","relevant_dimensions":["wings","pattern"],"bee_group":{"antennae":"X","wings":"2","pattern":"S","legs":"X"},"bonus":1.640000000000001},{"rt":11476.199999928474,"stimulus":"bees-with-color/bee-A1SF.svg","response":0,"trial_type":"image-button-response","trial_index":77,"time_elapsed":950588,"internal_node_id":"0.0-4.0-0.35","subject_id":"5eb19c53c27ff72b2a009730","study_id":"60edd13110225f80f9f3709b","session_id":"6196baa5d213a213f483006d","condition":"full-information","relevant_dimensions":["wings","pattern"],"bee_group":{"antennae":"X","wings":"2","pattern":"S","legs":"X"},"action":"harvest","summary":"good-harvest","bonus":1.640000000000001},{"rt":989.5,"stimulus":"\n                    <p><b>Action: <em>harvest</em></b></p>\n                    <p>This is the bee that you just saw.</p>\n                    <img src=\"bees-with-color/bee-A1SF.svg\" width=\"200\">\n                    <p><span class=\"greenText\"><b>Successful harvest!</b></span><br>Your pay has increased by $0.02. Your bonus pay is now $0.80.</p>\n            ","response":0,"trial_type":"html-button-response","trial_index":78,"time_elapsed":951579,"internal_node_id":"0.0-4.0-1.35","subject_id":"5eb19c53c27ff72b2a009730","study_id":"60edd13110225f80f9f3709b","session_id":"6196baa5d213a213f483006d","condition":"full-information","relevant_dimensions":["wings","pattern"],"bee_group":{"antennae":"X","wings":"2","pattern":"S","legs":"X"},"bonus":1.640000000000001},{"rt":9820.399999976158,"stimulus":"bees-with-color/bee-B2DM.svg","response":0,"trial_type":"image-button-response","trial_index":79,"time_elapsed":961402,"internal_node_id":"0.0-4.0-0.36","subject_id":"5eb19c53c27ff72b2a009730","study_id":"60edd13110225f80f9f3709b","session_id":"6196baa5d213a213f483006d","condition":"full-information","relevant_dimensions":["wings","pattern"],"bee_group":{"antennae":"X","wings":"2","pattern":"S","legs":"X"},"action":"harvest","summary":"good-harvest","bonus":1.640000000000001},{"rt":832.5,"stimulus":"\n                    <p><b>Action: <em>harvest</em></b></p>\n                    <p>This is the bee that you just saw.</p>\n                    <img src=\"bees-with-color/bee-B2DM.svg\" width=\"200\">\n                    <p><span class=\"greenText\"><b>Successful harvest!</b></span><br>Your pay has increased by $0.02. Your bonus pay is now $0.82.</p>\n            ","response":0,"trial_type":"html-button-response","trial_index":80,"time_elapsed":962236,"internal_node_id":"0.0-4.0-1.36","subject_id":"5eb19c53c27ff72b2a009730","study_id":"60edd13110225f80f9f3709b","session_id":"6196baa5d213a213f483006d","condition":"full-information","relevant_dimensions":["wings","pattern"],"bee_group":{"antennae":"X","wings":"2","pattern":"S","legs":"X"},"bonus":1.640000000000001},{"rt":11091.299999952316,"stimulus":"bees-with-color/bee-B2SF.svg","response":1,"trial_type":"image-button-response","trial_index":81,"time_elapsed":973330,"internal_node_id":"0.0-4.0-0.37","subject_id":"5eb19c53c27ff72b2a009730","study_id":"60edd13110225f80f9f3709b","session_id":"6196baa5d213a213f483006d","condition":"full-information","relevant_dimensions":["wings","pattern"],"bee_group":{"antennae":"X","wings":"2","pattern":"S","legs":"X"},"action":"avoid","summary":"good-avoid","bonus":1.640000000000001},{"rt":777.1999999284744,"stimulus":"\n                    <p><b>Action: <em>avoid</em></b></p>\n                    <p>This is the bee that you just saw.</p>\n                    <img src=\"bees-with-color/bee-B2SF.svg\" width=\"200\">\n                    <p><span class=\"greenText\">Good choice!</span>  This bee would have stung you.<br>Your bonus pay is unchanged, and remains at $0.82.</p>\n            ","response":0,"trial_type":"html-button-response","trial_index":82,"time_elapsed":974108,"internal_node_id":"0.0-4.0-1.37","subject_id":"5eb19c53c27ff72b2a009730","study_id":"60edd13110225f80f9f3709b","session_id":"6196baa5d213a213f483006d","condition":"full-information","relevant_dimensions":["wings","pattern"],"bee_group":{"antennae":"X","wings":"2","pattern":"S","legs":"X"},"bonus":1.640000000000001},{"rt":4023.2999999523163,"stimulus":"bees-with-color/bee-A2SF.svg","response":1,"trial_type":"image-button-response","trial_index":83,"time_elapsed":978133,"internal_node_id":"0.0-4.0-0.38","subject_id":"5eb19c53c27ff72b2a009730","study_id":"60edd13110225f80f9f3709b","session_id":"6196baa5d213a213f483006d","condition":"full-information","relevant_dimensions":["wings","pattern"],"bee_group":{"antennae":"X","wings":"2","pattern":"S","legs":"X"},"action":"avoid","summary":"good-avoid","bonus":1.640000000000001},{"rt":937.9000000953674,"stimulus":"\n                    <p><b>Action: <em>avoid</em></b></p>\n                    <p>This is the bee that you just saw.</p>\n                    <img src=\"bees-with-color/bee-A2SF.svg\" width=\"200\">\n                    <p><span class=\"greenText\">Good choice!</span>  This bee would have stung you.<br>Your bonus pay is unchanged, and remains at $0.82.</p>\n            ","response":0,"trial_type":"html-button-response","trial_index":84,"time_elapsed":979072,"internal_node_id":"0.0-4.0-1.38","subject_id":"5eb19c53c27ff72b2a009730","study_id":"60edd13110225f80f9f3709b","session_id":"6196baa5d213a213f483006d","condition":"full-information","relevant_dimensions":["wings","pattern"],"bee_group":{"antennae":"X","wings":"2","pattern":"S","legs":"X"},"bonus":1.640000000000001},{"rt":14476.100000023842,"stimulus":"bees-with-color/bee-A1DM.svg","response":0,"trial_type":"image-button-response","trial_index":85,"time_elapsed":993550,"internal_node_id":"0.0-4.0-0.39","subject_id":"5eb19c53c27ff72b2a009730","study_id":"60edd13110225f80f9f3709b","session_id":"6196baa5d213a213f483006d","condition":"full-information","relevant_dimensions":["wings","pattern"],"bee_group":{"antennae":"X","wings":"2","pattern":"S","legs":"X"},"action":"harvest","summary":"good-harvest","bonus":1.640000000000001},{"rt":826.8000000715256,"stimulus":"\n                    <p><b>Action: <em>harvest</em></b></p>\n                    <p>This is the bee that you just saw.</p>\n                    <img src=\"bees-with-color/bee-A1DM.svg\" width=\"200\">\n                    <p><span class=\"greenText\"><b>Successful harvest!</b></span><br>Your pay has increased by $0.02. Your bonus pay is now $0.84.</p>\n            ","response":0,"trial_type":"html-button-response","trial_index":86,"time_elapsed":994378,"internal_node_id":"0.0-4.0-1.39","subject_id":"5eb19c53c27ff72b2a009730","study_id":"60edd13110225f80f9f3709b","session_id":"6196baa5d213a213f483006d","condition":"full-information","relevant_dimensions":["wings","pattern"],"bee_group":{"antennae":"X","wings":"2","pattern":"S","legs":"X"},"bonus":1.640000000000001},{"rt":11552.5,"stimulus":"bees-with-color/bee-A2DM.svg","response":0,"trial_type":"image-button-response","trial_index":87,"time_elapsed":1005933,"internal_node_id":"0.0-4.0-0.40","subject_id":"5eb19c53c27ff72b2a009730","study_id":"60edd13110225f80f9f3709b","session_id":"6196baa5d213a213f483006d","condition":"full-information","relevant_dimensions":["wings","pattern"],"bee_group":{"antennae":"X","wings":"2","pattern":"S","legs":"X"},"action":"harvest","summary":"good-harvest","bonus":1.640000000000001},{"rt":1343.9000000953674,"stimulus":"\n                    <p><b>Action: <em>harvest</em></b></p>\n                    <p>This is the bee that you just saw.</p>\n                    <img src=\"bees-with-color/bee-A2DM.svg\" width=\"200\">\n                    <p><span class=\"greenText\"><b>Successful harvest!</b></span><br>Your pay has increased by $0.02. Your bonus pay is now $0.86.</p>\n            ","response":0,"trial_type":"html-button-response","trial_index":88,"time_elapsed":1007278,"internal_node_id":"0.0-4.0-1.40","subject_id":"5eb19c53c27ff72b2a009730","study_id":"60edd13110225f80f9f3709b","session_id":"6196baa5d213a213f483006d","condition":"full-information","relevant_dimensions":["wings","pattern"],"bee_group":{"antennae":"X","wings":"2","pattern":"S","legs":"X"},"bonus":1.640000000000001},{"rt":8340.300000071526,"stimulus":"bees-with-color/bee-B2SM.svg","response":1,"trial_type":"image-button-response","trial_index":89,"time_elapsed":1015620,"internal_node_id":"0.0-4.0-0.41","subject_id":"5eb19c53c27ff72b2a009730","study_id":"60edd13110225f80f9f3709b","session_id":"6196baa5d213a213f483006d","condition":"full-information","relevant_dimensions":["wings","pattern"],"bee_group":{"antennae":"X","wings":"2","pattern":"S","legs":"X"},"action":"avoid","summary":"good-avoid","bonus":1.640000000000001},{"rt":523.5,"stimulus":"\n                    <p><b>Action: <em>avoid</em></b></p>\n                    <p>This is the bee that you just saw.</p>\n                    <img src=\"bees-with-color/bee-B2SM.svg\" width=\"200\">\n                    <p><span class=\"greenText\">Good choice!</span>  This bee would have stung you.<br>Your bonus pay is unchanged, and remains at $0.86.</p>\n            ","response":0,"trial_type":"html-button-response","trial_index":90,"time_elapsed":1016145,"internal_node_id":"0.0-4.0-1.41","subject_id":"5eb19c53c27ff72b2a009730","study_id":"60edd13110225f80f9f3709b","session_id":"6196baa5d213a213f483006d","condition":"full-information","relevant_dimensions":["wings","pattern"],"bee_group":{"antennae":"X","wings":"2","pattern":"S","legs":"X"},"bonus":1.640000000000001},{"rt":2687.1999999284744,"stimulus":"bees-with-color/bee-A1SM.svg","response":1,"trial_type":"image-button-response","trial_index":91,"time_elapsed":1018834,"internal_node_id":"0.0-4.0-0.42","subject_id":"5eb19c53c27ff72b2a009730","study_id":"60edd13110225f80f9f3709b","session_id":"6196baa5d213a213f483006d","condition":"full-information","relevant_dimensions":["wings","pattern"],"bee_group":{"antennae":"X","wings":"2","pattern":"S","legs":"X"},"action":"avoid","summary":"bad-avoid","bonus":1.640000000000001},{"rt":20012.100000023842,"stimulus":"\n                    <p><b>Action: <em>avoid</em></b></p>\n                    <p>This is the bee that you just saw.</p>\n                    <img src=\"bees-with-color/bee-A1SM.svg\" width=\"200\">\n                    <p><span class=\"redText\">Bad choice,</span> the bee was friendly.<br>Your bonus pay is unchanged, and remains at $0.86.</p>\n            ","response":0,"trial_type":"html-button-response","trial_index":92,"time_elapsed":1038848,"internal_node_id":"0.0-4.0-1.42","subject_id":"5eb19c53c27ff72b2a009730","study_id":"60edd13110225f80f9f3709b","session_id":"6196baa5d213a213f483006d","condition":"full-information","relevant_dimensions":["wings","pattern"],"bee_group":{"antennae":"X","wings":"2","pattern":"S","legs":"X"},"bonus":1.640000000000001},{"rt":7568.699999928474,"stimulus":"bees-with-color/bee-B1DM.svg","response":0,"trial_type":"image-button-response","trial_index":93,"time_elapsed":1046419,"internal_node_id":"0.0-4.0-0.43","subject_id":"5eb19c53c27ff72b2a009730","study_id":"60edd13110225f80f9f3709b","session_id":"6196baa5d213a213f483006d","condition":"full-information","relevant_dimensions":["wings","pattern"],"bee_group":{"antennae":"X","wings":"2","pattern":"S","legs":"X"},"action":"harvest","summary":"good-harvest","bonus":1.640000000000001},{"rt":772.6000000238419,"stimulus":"\n                    <p><b>Action: <em>harvest</em></b></p>\n                    <p>This is the bee that you just saw.</p>\n                    <img src=\"bees-with-color/bee-B1DM.svg\" width=\"200\">\n                    <p><span class=\"greenText\"><b>Successful harvest!</b></span><br>Your pay has increased by $0.02. Your bonus pay is now $0.88.</p>\n            ","response":0,"trial_type":"html-button-response","trial_index":94,"time_elapsed":1047193,"internal_node_id":"0.0-4.0-1.43","subject_id":"5eb19c53c27ff72b2a009730","study_id":"60edd13110225f80f9f3709b","session_id":"6196baa5d213a213f483006d","condition":"full-information","relevant_dimensions":["wings","pattern"],"bee_group":{"antennae":"X","wings":"2","pattern":"S","legs":"X"},"bonus":1.640000000000001},{"rt":15848.5,"stimulus":"bees-with-color/bee-A1DF.svg","response":0,"trial_type":"image-button-response","trial_index":95,"time_elapsed":1063043,"internal_node_id":"0.0-4.0-0.44","subject_id":"5eb19c53c27ff72b2a009730","study_id":"60edd13110225f80f9f3709b","session_id":"6196baa5d213a213f483006d","condition":"full-information","relevant_dimensions":["wings","pattern"],"bee_group":{"antennae":"X","wings":"2","pattern":"S","legs":"X"},"action":"harvest","summary":"good-harvest","bonus":1.640000000000001},{"rt":552.1000000238419,"stimulus":"\n                    <p><b>Action: <em>harvest</em></b></p>\n                    <p>This is the bee that you just saw.</p>\n                    <img src=\"bees-with-color/bee-A1DF.svg\" width=\"200\">\n                    <p><span class=\"greenText\"><b>Successful harvest!</b></span><br>Your pay has increased by $0.02. Your bonus pay is now $0.90.</p>\n            ","response":0,"trial_type":"html-button-response","trial_index":96,"time_elapsed":1063597,"internal_node_id":"0.0-4.0-1.44","subject_id":"5eb19c53c27ff72b2a009730","study_id":"60edd13110225f80f9f3709b","session_id":"6196baa5d213a213f483006d","condition":"full-information","relevant_dimensions":["wings","pattern"],"bee_group":{"antennae":"X","wings":"2","pattern":"S","legs":"X"},"bonus":1.640000000000001},{"rt":6498.799999952316,"stimulus":"bees-with-color/bee-A2SM.svg","response":1,"trial_type":"image-button-response","trial_index":97,"time_elapsed":1070099,"internal_node_id":"0.0-4.0-0.45","subject_id":"5eb19c53c27ff72b2a009730","study_id":"60edd13110225f80f9f3709b","session_id":"6196baa5d213a213f483006d","condition":"full-information","relevant_dimensions":["wings","pattern"],"bee_group":{"antennae":"X","wings":"2","pattern":"S","legs":"X"},"action":"avoid","summary":"good-avoid","bonus":1.640000000000001},{"rt":1208.8999999761581,"stimulus":"\n                    <p><b>Action: <em>avoid</em></b></p>\n                    <p>This is the bee that you just saw.</p>\n                    <img src=\"bees-with-color/bee-A2SM.svg\" width=\"200\">\n                    <p><span class=\"greenText\">Good choice!</span>  This bee would have stung you.<br>Your bonus pay is unchanged, and remains at $0.90.</p>\n            ","response":0,"trial_type":"html-button-response","trial_index":98,"time_elapsed":1071310,"internal_node_id":"0.0-4.0-1.45","subject_id":"5eb19c53c27ff72b2a009730","study_id":"60edd13110225f80f9f3709b","session_id":"6196baa5d213a213f483006d","condition":"full-information","relevant_dimensions":["wings","pattern"],"bee_group":{"antennae":"X","wings":"2","pattern":"S","legs":"X"},"bonus":1.640000000000001},{"rt":9289.099999904633,"stimulus":"bees-with-color/bee-A2DF.svg","response":0,"trial_type":"image-button-response","trial_index":99,"time_elapsed":1080600,"internal_node_id":"0.0-4.0-0.46","subject_id":"5eb19c53c27ff72b2a009730","study_id":"60edd13110225f80f9f3709b","session_id":"6196baa5d213a213f483006d","condition":"full-information","relevant_dimensions":["wings","pattern"],"bee_group":{"antennae":"X","wings":"2","pattern":"S","legs":"X"},"action":"harvest","summary":"good-harvest","bonus":1.640000000000001},{"rt":403.2000000476837,"stimulus":"\n                    <p><b>Action: <em>harvest</em></b></p>\n                    <p>This is the bee that you just saw.</p>\n                    <img src=\"bees-with-color/bee-A2DF.svg\" width=\"200\">\n                    <p><span class=\"greenText\"><b>Successful harvest!</b></span><br>Your pay has increased by $0.02. Your bonus pay is now $0.92.</p>\n            ","response":0,"trial_type":"html-button-response","trial_index":100,"time_elapsed":1081005,"internal_node_id":"0.0-4.0-1.46","subject_id":"5eb19c53c27ff72b2a009730","study_id":"60edd13110225f80f9f3709b","session_id":"6196baa5d213a213f483006d","condition":"full-information","relevant_dimensions":["wings","pattern"],"bee_group":{"antennae":"X","wings":"2","pattern":"S","legs":"X"},"bonus":1.640000000000001},{"rt":7863.800000071526,"stimulus":"bees-with-color/bee-B1DF.svg","response":0,"trial_type":"image-button-response","trial_index":101,"time_elapsed":1088870,"internal_node_id":"0.0-4.0-0.47","subject_id":"5eb19c53c27ff72b2a009730","study_id":"60edd13110225f80f9f3709b","session_id":"6196baa5d213a213f483006d","condition":"full-information","relevant_dimensions":["wings","pattern"],"bee_group":{"antennae":"X","wings":"2","pattern":"S","legs":"X"},"action":"harvest","summary":"good-harvest","bonus":1.640000000000001},{"rt":1363.5,"stimulus":"\n                    <p><b>Action: <em>harvest</em></b></p>\n                    <p>This is the bee that you just saw.</p>\n                    <img src=\"bees-with-color/bee-B1DF.svg\" width=\"200\">\n                    <p><span class=\"greenText\"><b>Successful harvest!</b></span><br>Your pay has increased by $0.02. Your bonus pay is now $0.94.</p>\n            ","response":0,"trial_type":"html-button-response","trial_index":102,"time_elapsed":1090235,"internal_node_id":"0.0-4.0-1.47","subject_id":"5eb19c53c27ff72b2a009730","study_id":"60edd13110225f80f9f3709b","session_id":"6196baa5d213a213f483006d","condition":"full-information","relevant_dimensions":["wings","pattern"],"bee_group":{"antennae":"X","wings":"2","pattern":"S","legs":"X"},"bonus":1.640000000000001},{"rt":10271.100000023842,"stimulus":"bees-with-color/bee-A1SF.svg","response":0,"trial_type":"image-button-response","trial_index":103,"time_elapsed":1100508,"internal_node_id":"0.0-4.0-0.48","subject_id":"5eb19c53c27ff72b2a009730","study_id":"60edd13110225f80f9f3709b","session_id":"6196baa5d213a213f483006d","condition":"full-information","relevant_dimensions":["wings","pattern"],"bee_group":{"antennae":"X","wings":"2","pattern":"S","legs":"X"},"action":"harvest","summary":"good-harvest","bonus":1.640000000000001},{"rt":627.6000000238419,"stimulus":"\n                    <p><b>Action: <em>harvest</em></b></p>\n                    <p>This is the bee that you just saw.</p>\n                    <img src=\"bees-with-color/bee-A1SF.svg\" width=\"200\">\n                    <p><span class=\"greenText\"><b>Successful harvest!</b></span><br>Your pay has increased by $0.02. Your bonus pay is now $0.96.</p>\n            ","response":0,"trial_type":"html-button-response","trial_index":104,"time_elapsed":1101137,"internal_node_id":"0.0-4.0-1.48","subject_id":"5eb19c53c27ff72b2a009730","study_id":"60edd13110225f80f9f3709b","session_id":"6196baa5d213a213f483006d","condition":"full-information","relevant_dimensions":["wings","pattern"],"bee_group":{"antennae":"X","wings":"2","pattern":"S","legs":"X"},"bonus":1.640000000000001},{"rt":23170,"stimulus":"bees-with-color/bee-B2SM.svg","response":1,"trial_type":"image-button-response","trial_index":105,"time_elapsed":1124309,"internal_node_id":"0.0-4.0-0.49","subject_id":"5eb19c53c27ff72b2a009730","study_id":"60edd13110225f80f9f3709b","session_id":"6196baa5d213a213f483006d","condition":"full-information","relevant_dimensions":["wings","pattern"],"bee_group":{"antennae":"X","wings":"2","pattern":"S","legs":"X"},"action":"avoid","summary":"good-avoid","bonus":1.640000000000001},{"rt":10590.100000023842,"stimulus":"\n                    <p><b>Action: <em>avoid</em></b></p>\n                    <p>This is the bee that you just saw.</p>\n                    <img src=\"bees-with-color/bee-B2SM.svg\" width=\"200\">\n                    <p><span class=\"greenText\">Good choice!</span>  This bee would have stung you.<br>Your bonus pay is unchanged, and remains at $0.96.</p>\n            ","response":0,"trial_type":"html-button-response","trial_index":106,"time_elapsed":1134900,"internal_node_id":"0.0-4.0-1.49","subject_id":"5eb19c53c27ff72b2a009730","study_id":"60edd13110225f80f9f3709b","session_id":"6196baa5d213a213f483006d","condition":"full-information","relevant_dimensions":["wings","pattern"],"bee_group":{"antennae":"X","wings":"2","pattern":"S","legs":"X"},"bonus":1.640000000000001},{"rt":9157.600000023842,"stimulus":"bees-with-color/bee-A2DF.svg","response":0,"trial_type":"image-button-response","trial_index":107,"time_elapsed":1144060,"internal_node_id":"0.0-4.0-0.50","subject_id":"5eb19c53c27ff72b2a009730","study_id":"60edd13110225f80f9f3709b","session_id":"6196baa5d213a213f483006d","condition":"full-information","relevant_dimensions":["wings","pattern"],"bee_group":{"antennae":"X","wings":"2","pattern":"S","legs":"X"},"action":"harvest","summary":"good-harvest","bonus":1.640000000000001},{"rt":577.2999999523163,"stimulus":"\n                    <p><b>Action: <em>harvest</em></b></p>\n                    <p>This is the bee that you just saw.</p>\n                    <img src=\"bees-with-color/bee-A2DF.svg\" width=\"200\">\n                    <p><span class=\"greenText\"><b>Successful harvest!</b></span><br>Your pay has increased by $0.02. Your bonus pay is now $0.98.</p>\n            ","response":0,"trial_type":"html-button-response","trial_index":108,"time_elapsed":1144638,"internal_node_id":"0.0-4.0-1.50","subject_id":"5eb19c53c27ff72b2a009730","study_id":"60edd13110225f80f9f3709b","session_id":"6196baa5d213a213f483006d","condition":"full-information","relevant_dimensions":["wings","pattern"],"bee_group":{"antennae":"X","wings":"2","pattern":"S","legs":"X"},"bonus":1.640000000000001},{"rt":6416.700000047684,"stimulus":"bees-with-color/bee-B1DM.svg","response":0,"trial_type":"image-button-response","trial_index":109,"time_elapsed":1151057,"internal_node_id":"0.0-4.0-0.51","subject_id":"5eb19c53c27ff72b2a009730","study_id":"60edd13110225f80f9f3709b","session_id":"6196baa5d213a213f483006d","condition":"full-information","relevant_dimensions":["wings","pattern"],"bee_group":{"antennae":"X","wings":"2","pattern":"S","legs":"X"},"action":"harvest","summary":"good-harvest","bonus":1.640000000000001},{"rt":600.5,"stimulus":"\n                    <p><b>Action: <em>harvest</em></b></p>\n                    <p>This is the bee that you just saw.</p>\n                    <img src=\"bees-with-color/bee-B1DM.svg\" width=\"200\">\n                    <p><span class=\"greenText\"><b>Successful harvest!</b></span><br>Your pay has increased by $0.02. Your bonus pay is now $1.00.</p>\n            ","response":0,"trial_type":"html-button-response","trial_index":110,"time_elapsed":1151658,"internal_node_id":"0.0-4.0-1.51","subject_id":"5eb19c53c27ff72b2a009730","study_id":"60edd13110225f80f9f3709b","session_id":"6196baa5d213a213f483006d","condition":"full-information","relevant_dimensions":["wings","pattern"],"bee_group":{"antennae":"X","wings":"2","pattern":"S","legs":"X"},"bonus":1.640000000000001},{"rt":19050.299999952316,"stimulus":"bees-with-color/bee-B2DM.svg","response":0,"trial_type":"image-button-response","trial_index":111,"time_elapsed":1170710,"internal_node_id":"0.0-4.0-0.52","subject_id":"5eb19c53c27ff72b2a009730","study_id":"60edd13110225f80f9f3709b","session_id":"6196baa5d213a213f483006d","condition":"full-information","relevant_dimensions":["wings","pattern"],"bee_group":{"antennae":"X","wings":"2","pattern":"S","legs":"X"},"action":"harvest","summary":"good-harvest","bonus":1.640000000000001},{"rt":506.89999997615814,"stimulus":"\n                    <p><b>Action: <em>harvest</em></b></p>\n                    <p>This is the bee that you just saw.</p>\n                    <img src=\"bees-with-color/bee-B2DM.svg\" width=\"200\">\n                    <p><span class=\"greenText\"><b>Successful harvest!</b></span><br>Your pay has increased by $0.02. Your bonus pay is now $1.02.</p>\n            ","response":0,"trial_type":"html-button-response","trial_index":112,"time_elapsed":1171219,"internal_node_id":"0.0-4.0-1.52","subject_id":"5eb19c53c27ff72b2a009730","study_id":"60edd13110225f80f9f3709b","session_id":"6196baa5d213a213f483006d","condition":"full-information","relevant_dimensions":["wings","pattern"],"bee_group":{"antennae":"X","wings":"2","pattern":"S","legs":"X"},"bonus":1.640000000000001},{"rt":8711.300000071526,"stimulus":"bees-with-color/bee-A1SM.svg","response":0,"trial_type":"image-button-response","trial_index":113,"time_elapsed":1179932,"internal_node_id":"0.0-4.0-0.53","subject_id":"5eb19c53c27ff72b2a009730","study_id":"60edd13110225f80f9f3709b","session_id":"6196baa5d213a213f483006d","condition":"full-information","relevant_dimensions":["wings","pattern"],"bee_group":{"antennae":"X","wings":"2","pattern":"S","legs":"X"},"action":"harvest","summary":"good-harvest","bonus":1.640000000000001},{"rt":405.39999997615814,"stimulus":"\n                    <p><b>Action: <em>harvest</em></b></p>\n                    <p>This is the bee that you just saw.</p>\n                    <img src=\"bees-with-color/bee-A1SM.svg\" width=\"200\">\n                    <p><span class=\"greenText\"><b>Successful harvest!</b></span><br>Your pay has increased by $0.02. Your bonus pay is now $1.04.</p>\n            ","response":0,"trial_type":"html-button-response","trial_index":114,"time_elapsed":1180339,"internal_node_id":"0.0-4.0-1.53","subject_id":"5eb19c53c27ff72b2a009730","study_id":"60edd13110225f80f9f3709b","session_id":"6196baa5d213a213f483006d","condition":"full-information","relevant_dimensions":["wings","pattern"],"bee_group":{"antennae":"X","wings":"2","pattern":"S","legs":"X"},"bonus":1.640000000000001},{"rt":12268.399999976158,"stimulus":"bees-with-color/bee-A2SF.svg","response":1,"trial_type":"image-button-response","trial_index":115,"time_elapsed":1192609,"internal_node_id":"0.0-4.0-0.54","subject_id":"5eb19c53c27ff72b2a009730","study_id":"60edd13110225f80f9f3709b","session_id":"6196baa5d213a213f483006d","condition":"full-information","relevant_dimensions":["wings","pattern"],"bee_group":{"antennae":"X","wings":"2","pattern":"S","legs":"X"},"action":"avoid","summary":"good-avoid","bonus":1.640000000000001},{"rt":566.7000000476837,"stimulus":"\n                    <p><b>Action: <em>avoid</em></b></p>\n                    <p>This is the bee that you just saw.</p>\n                    <img src=\"bees-with-color/bee-A2SF.svg\" width=\"200\">\n                    <p><span class=\"greenText\">Good choice!</span>  This bee would have stung you.<br>Your bonus pay is unchanged, and remains at $1.04.</p>\n            ","response":0,"trial_type":"html-button-response","trial_index":116,"time_elapsed":1193178,"internal_node_id":"0.0-4.0-1.54","subject_id":"5eb19c53c27ff72b2a009730","study_id":"60edd13110225f80f9f3709b","session_id":"6196baa5d213a213f483006d","condition":"full-information","relevant_dimensions":["wings","pattern"],"bee_group":{"antennae":"X","wings":"2","pattern":"S","legs":"X"},"bonus":1.640000000000001},{"rt":10693.200000047684,"stimulus":"bees-with-color/bee-B1SM.svg","response":0,"trial_type":"image-button-response","trial_index":117,"time_elapsed":1203873,"internal_node_id":"0.0-4.0-0.55","subject_id":"5eb19c53c27ff72b2a009730","study_id":"60edd13110225f80f9f3709b","session_id":"6196baa5d213a213f483006d","condition":"full-information","relevant_dimensions":["wings","pattern"],"bee_group":{"antennae":"X","wings":"2","pattern":"S","legs":"X"},"action":"harvest","summary":"good-harvest","bonus":1.640000000000001},{"rt":860.4000000953674,"stimulus":"\n                    <p><b>Action: <em>harvest</em></b></p>\n                    <p>This is the bee that you just saw.</p>\n                    <img src=\"bees-with-color/bee-B1SM.svg\" width=\"200\">\n                    <p><span class=\"greenText\"><b>Successful harvest!</b></span><br>Your pay has increased by $0.02. Your bonus pay is now $1.06.</p>\n            ","response":0,"trial_type":"html-button-response","trial_index":118,"time_elapsed":1204735,"internal_node_id":"0.0-4.0-1.55","subject_id":"5eb19c53c27ff72b2a009730","study_id":"60edd13110225f80f9f3709b","session_id":"6196baa5d213a213f483006d","condition":"full-information","relevant_dimensions":["wings","pattern"],"bee_group":{"antennae":"X","wings":"2","pattern":"S","legs":"X"},"bonus":1.640000000000001},{"rt":7449.599999904633,"stimulus":"bees-with-color/bee-B1DF.svg","response":0,"trial_type":"image-button-response","trial_index":119,"time_elapsed":1212186,"internal_node_id":"0.0-4.0-0.56","subject_id":"5eb19c53c27ff72b2a009730","study_id":"60edd13110225f80f9f3709b","session_id":"6196baa5d213a213f483006d","condition":"full-information","relevant_dimensions":["wings","pattern"],"bee_group":{"antennae":"X","wings":"2","pattern":"S","legs":"X"},"action":"harvest","summary":"good-harvest","bonus":1.640000000000001},{"rt":471.7999999523163,"stimulus":"\n                    <p><b>Action: <em>harvest</em></b></p>\n                    <p>This is the bee that you just saw.</p>\n                    <img src=\"bees-with-color/bee-B1DF.svg\" width=\"200\">\n                    <p><span class=\"greenText\"><b>Successful harvest!</b></span><br>Your pay has increased by $0.02. Your bonus pay is now $1.08.</p>\n            ","response":0,"trial_type":"html-button-response","trial_index":120,"time_elapsed":1212659,"internal_node_id":"0.0-4.0-1.56","subject_id":"5eb19c53c27ff72b2a009730","study_id":"60edd13110225f80f9f3709b","session_id":"6196baa5d213a213f483006d","condition":"full-information","relevant_dimensions":["wings","pattern"],"bee_group":{"antennae":"X","wings":"2","pattern":"S","legs":"X"},"bonus":1.640000000000001},{"rt":15022.399999976158,"stimulus":"bees-with-color/bee-A1DM.svg","response":0,"trial_type":"image-button-response","trial_index":121,"time_elapsed":1227683,"internal_node_id":"0.0-4.0-0.57","subject_id":"5eb19c53c27ff72b2a009730","study_id":"60edd13110225f80f9f3709b","session_id":"6196baa5d213a213f483006d","condition":"full-information","relevant_dimensions":["wings","pattern"],"bee_group":{"antennae":"X","wings":"2","pattern":"S","legs":"X"},"action":"harvest","summary":"good-harvest","bonus":1.640000000000001},{"rt":1553.5,"stimulus":"\n                    <p><b>Action: <em>harvest</em></b></p>\n                    <p>This is the bee that you just saw.</p>\n                    <img src=\"bees-with-color/bee-A1DM.svg\" width=\"200\">\n                    <p><span class=\"greenText\"><b>Successful harvest!</b></span><br>Your pay has increased by $0.02. Your bonus pay is now $1.10.</p>\n            ","response":0,"trial_type":"html-button-response","trial_index":122,"time_elapsed":1229239,"internal_node_id":"0.0-4.0-1.57","subject_id":"5eb19c53c27ff72b2a009730","study_id":"60edd13110225f80f9f3709b","session_id":"6196baa5d213a213f483006d","condition":"full-information","relevant_dimensions":["wings","pattern"],"bee_group":{"antennae":"X","wings":"2","pattern":"S","legs":"X"},"bonus":1.640000000000001},{"rt":15972.299999952316,"stimulus":"bees-with-color/bee-A1DF.svg","response":0,"trial_type":"image-button-response","trial_index":123,"time_elapsed":1245213,"internal_node_id":"0.0-4.0-0.58","subject_id":"5eb19c53c27ff72b2a009730","study_id":"60edd13110225f80f9f3709b","session_id":"6196baa5d213a213f483006d","condition":"full-information","relevant_dimensions":["wings","pattern"],"bee_group":{"antennae":"X","wings":"2","pattern":"S","legs":"X"},"action":"harvest","summary":"good-harvest","bonus":1.640000000000001},{"rt":504.2999999523163,"stimulus":"\n                    <p><b>Action: <em>harvest</em></b></p>\n                    <p>This is the bee that you just saw.</p>\n                    <img src=\"bees-with-color/bee-A1DF.svg\" width=\"200\">\n                    <p><span class=\"greenText\"><b>Successful harvest!</b></span><br>Your pay has increased by $0.02. Your bonus pay is now $1.12.</p>\n            ","response":0,"trial_type":"html-button-response","trial_index":124,"time_elapsed":1245719,"internal_node_id":"0.0-4.0-1.58","subject_id":"5eb19c53c27ff72b2a009730","study_id":"60edd13110225f80f9f3709b","session_id":"6196baa5d213a213f483006d","condition":"full-information","relevant_dimensions":["wings","pattern"],"bee_group":{"antennae":"X","wings":"2","pattern":"S","legs":"X"},"bonus":1.640000000000001},{"rt":4410.699999928474,"stimulus":"bees-with-color/bee-A2SM.svg","response":1,"trial_type":"image-button-response","trial_index":125,"time_elapsed":1250131,"internal_node_id":"0.0-4.0-0.59","subject_id":"5eb19c53c27ff72b2a009730","study_id":"60edd13110225f80f9f3709b","session_id":"6196baa5d213a213f483006d","condition":"full-information","relevant_dimensions":["wings","pattern"],"bee_group":{"antennae":"X","wings":"2","pattern":"S","legs":"X"},"action":"avoid","summary":"good-avoid","bonus":1.640000000000001},{"rt":681.6999999284744,"stimulus":"\n                    <p><b>Action: <em>avoid</em></b></p>\n                    <p>This is the bee that you just saw.</p>\n                    <img src=\"bees-with-color/bee-A2SM.svg\" width=\"200\">\n                    <p><span class=\"greenText\">Good choice!</span>  This bee would have stung you.<br>Your bonus pay is unchanged, and remains at $1.12.</p>\n            ","response":0,"trial_type":"html-button-response","trial_index":126,"time_elapsed":1250814,"internal_node_id":"0.0-4.0-1.59","subject_id":"5eb19c53c27ff72b2a009730","study_id":"60edd13110225f80f9f3709b","session_id":"6196baa5d213a213f483006d","condition":"full-information","relevant_dimensions":["wings","pattern"],"bee_group":{"antennae":"X","wings":"2","pattern":"S","legs":"X"},"bonus":1.640000000000001},{"rt":14666,"stimulus":"bees-with-color/bee-B2SF.svg","response":1,"trial_type":"image-button-response","trial_index":127,"time_elapsed":1265481,"internal_node_id":"0.0-4.0-0.60","subject_id":"5eb19c53c27ff72b2a009730","study_id":"60edd13110225f80f9f3709b","session_id":"6196baa5d213a213f483006d","condition":"full-information","relevant_dimensions":["wings","pattern"],"bee_group":{"antennae":"X","wings":"2","pattern":"S","legs":"X"},"action":"avoid","summary":"good-avoid","bonus":1.640000000000001},{"rt":919.8999999761581,"stimulus":"\n                    <p><b>Action: <em>avoid</em></b></p>\n                    <p>This is the bee that you just saw.</p>\n                    <img src=\"bees-with-color/bee-B2SF.svg\" width=\"200\">\n                    <p><span class=\"greenText\">Good choice!</span>  This bee would have stung you.<br>Your bonus pay is unchanged, and remains at $1.12.</p>\n            ","response":0,"trial_type":"html-button-response","trial_index":128,"time_elapsed":1266403,"internal_node_id":"0.0-4.0-1.60","subject_id":"5eb19c53c27ff72b2a009730","study_id":"60edd13110225f80f9f3709b","session_id":"6196baa5d213a213f483006d","condition":"full-information","relevant_dimensions":["wings","pattern"],"bee_group":{"antennae":"X","wings":"2","pattern":"S","legs":"X"},"bonus":1.640000000000001},{"rt":1588,"stimulus":"bees-with-color/bee-B1SF.svg","response":0,"trial_type":"image-button-response","trial_index":129,"time_elapsed":1267993,"internal_node_id":"0.0-4.0-0.61","subject_id":"5eb19c53c27ff72b2a009730","study_id":"60edd13110225f80f9f3709b","session_id":"6196baa5d213a213f483006d","condition":"full-information","relevant_dimensions":["wings","pattern"],"bee_group":{"antennae":"X","wings":"2","pattern":"S","legs":"X"},"action":"harvest","summary":"good-harvest","bonus":1.640000000000001},{"rt":519.2000000476837,"stimulus":"\n                    <p><b>Action: <em>harvest</em></b></p>\n                    <p>This is the bee that you just saw.</p>\n                    <img src=\"bees-with-color/bee-B1SF.svg\" width=\"200\">\n                    <p><span class=\"greenText\"><b>Successful harvest!</b></span><br>Your pay has increased by $0.02. Your bonus pay is now $1.14.</p>\n            ","response":0,"trial_type":"html-button-response","trial_index":130,"time_elapsed":1268513,"internal_node_id":"0.0-4.0-1.61","subject_id":"5eb19c53c27ff72b2a009730","study_id":"60edd13110225f80f9f3709b","session_id":"6196baa5d213a213f483006d","condition":"full-information","relevant_dimensions":["wings","pattern"],"bee_group":{"antennae":"X","wings":"2","pattern":"S","legs":"X"},"bonus":1.640000000000001},{"rt":9778.900000095367,"stimulus":"bees-with-color/bee-A2DM.svg","response":0,"trial_type":"image-button-response","trial_index":131,"time_elapsed":1278294,"internal_node_id":"0.0-4.0-0.62","subject_id":"5eb19c53c27ff72b2a009730","study_id":"60edd13110225f80f9f3709b","session_id":"6196baa5d213a213f483006d","condition":"full-information","relevant_dimensions":["wings","pattern"],"bee_group":{"antennae":"X","wings":"2","pattern":"S","legs":"X"},"action":"harvest","summary":"good-harvest","bonus":1.640000000000001},{"rt":856.6999999284744,"stimulus":"\n                    <p><b>Action: <em>harvest</em></b></p>\n                    <p>This is the bee that you just saw.</p>\n                    <img src=\"bees-with-color/bee-A2DM.svg\" width=\"200\">\n                    <p><span class=\"greenText\"><b>Successful harvest!</b></span><br>Your pay has increased by $0.02. Your bonus pay is now $1.16.</p>\n            ","response":0,"trial_type":"html-button-response","trial_index":132,"time_elapsed":1279152,"internal_node_id":"0.0-4.0-1.62","subject_id":"5eb19c53c27ff72b2a009730","study_id":"60edd13110225f80f9f3709b","session_id":"6196baa5d213a213f483006d","condition":"full-information","relevant_dimensions":["wings","pattern"],"bee_group":{"antennae":"X","wings":"2","pattern":"S","legs":"X"},"bonus":1.640000000000001},{"rt":15426.100000023842,"stimulus":"bees-with-color/bee-B2DF.svg","response":0,"trial_type":"image-button-response","trial_index":133,"time_elapsed":1294580,"internal_node_id":"0.0-4.0-0.63","subject_id":"5eb19c53c27ff72b2a009730","study_id":"60edd13110225f80f9f3709b","session_id":"6196baa5d213a213f483006d","condition":"full-information","relevant_dimensions":["wings","pattern"],"bee_group":{"antennae":"X","wings":"2","pattern":"S","legs":"X"},"action":"harvest","summary":"good-harvest","bonus":1.640000000000001},{"rt":1232.2000000476837,"stimulus":"\n                    <p><b>Action: <em>harvest</em></b></p>\n                    <p>This is the bee that you just saw.</p>\n                    <img src=\"bees-with-color/bee-B2DF.svg\" width=\"200\">\n                    <p><span class=\"greenText\"><b>Successful harvest!</b></span><br>Your pay has increased by $0.02. Your bonus pay is now $1.18.</p>\n            ","response":0,"trial_type":"html-button-response","trial_index":134,"time_elapsed":1295814,"internal_node_id":"0.0-4.0-1.63","subject_id":"5eb19c53c27ff72b2a009730","study_id":"60edd13110225f80f9f3709b","session_id":"6196baa5d213a213f483006d","condition":"full-information","relevant_dimensions":["wings","pattern"],"bee_group":{"antennae":"X","wings":"2","pattern":"S","legs":"X"},"bonus":1.640000000000001},{"rt":7098.099999904633,"stimulus":"You have completed the first part of this experiment.<br><br>You will now begin a shorter second part, in which you will receive no feedback.<br>The same rules regarding bonus pay apply.<br><br>Press any key to begin.","response":"enter","trial_type":"html-keyboard-response","trial_index":135,"time_elapsed":1302914,"internal_node_id":"0.0-5.0","subject_id":"5eb19c53c27ff72b2a009730","study_id":"60edd13110225f80f9f3709b","session_id":"6196baa5d213a213f483006d","condition":"full-information","relevant_dimensions":["wings","pattern"],"bee_group":{"antennae":"X","wings":"2","pattern":"S","legs":"X"},"bonus":1.640000000000001},{"rt":11597.299999952316,"stimulus":"bees-with-color/bee-A2DF.svg","response":0,"trial_type":"image-button-response","trial_index":136,"time_elapsed":1314519,"internal_node_id":"0.0-6.0-0.0","subject_id":"5eb19c53c27ff72b2a009730","study_id":"60edd13110225f80f9f3709b","session_id":"6196baa5d213a213f483006d","condition":"full-information","relevant_dimensions":["wings","pattern"],"bee_group":{"antennae":"X","wings":"2","pattern":"S","legs":"X"},"bonus":1.640000000000001},{"rt":10672.5,"stimulus":"bees-with-color/bee-A2SM.svg","response":1,"trial_type":"image-button-response","trial_index":137,"time_elapsed":1325195,"internal_node_id":"0.0-6.0-0.1","subject_id":"5eb19c53c27ff72b2a009730","study_id":"60edd13110225f80f9f3709b","session_id":"6196baa5d213a213f483006d","condition":"full-information","relevant_dimensions":["wings","pattern"],"bee_group":{"antennae":"X","wings":"2","pattern":"S","legs":"X"},"bonus":1.640000000000001},{"rt":14507.699999928474,"stimulus":"bees-with-color/bee-A1DM.svg","response":0,"trial_type":"image-button-response","trial_index":138,"time_elapsed":1339705,"internal_node_id":"0.0-6.0-0.2","subject_id":"5eb19c53c27ff72b2a009730","study_id":"60edd13110225f80f9f3709b","session_id":"6196baa5d213a213f483006d","condition":"full-information","relevant_dimensions":["wings","pattern"],"bee_group":{"antennae":"X","wings":"2","pattern":"S","legs":"X"},"bonus":1.640000000000001},{"rt":8198.300000071526,"stimulus":"bees-with-color/bee-B2DM.svg","response":0,"trial_type":"image-button-response","trial_index":139,"time_elapsed":1347905,"internal_node_id":"0.0-6.0-0.3","subject_id":"5eb19c53c27ff72b2a009730","study_id":"60edd13110225f80f9f3709b","session_id":"6196baa5d213a213f483006d","condition":"full-information","relevant_dimensions":["wings","pattern"],"bee_group":{"antennae":"X","wings":"2","pattern":"S","legs":"X"},"bonus":1.640000000000001},{"rt":13946.100000023842,"stimulus":"bees-with-color/bee-B1SM.svg","response":0,"trial_type":"image-button-response","trial_index":140,"time_elapsed":1361854,"internal_node_id":"0.0-6.0-0.4","subject_id":"5eb19c53c27ff72b2a009730","study_id":"60edd13110225f80f9f3709b","session_id":"6196baa5d213a213f483006d","condition":"full-information","relevant_dimensions":["wings","pattern"],"bee_group":{"antennae":"X","wings":"2","pattern":"S","legs":"X"},"bonus":1.640000000000001},{"rt":8645.100000023842,"stimulus":"bees-with-color/bee-B2SF.svg","response":1,"trial_type":"image-button-response","trial_index":141,"time_elapsed":1370502,"internal_node_id":"0.0-6.0-0.5","subject_id":"5eb19c53c27ff72b2a009730","study_id":"60edd13110225f80f9f3709b","session_id":"6196baa5d213a213f483006d","condition":"full-information","relevant_dimensions":["wings","pattern"],"bee_group":{"antennae":"X","wings":"2","pattern":"S","legs":"X"},"bonus":1.640000000000001},{"rt":1678.1000000238419,"stimulus":"bees-with-color/bee-A1SF.svg","response":0,"trial_type":"image-button-response","trial_index":142,"time_elapsed":1372182,"internal_node_id":"0.0-6.0-0.6","subject_id":"5eb19c53c27ff72b2a009730","study_id":"60edd13110225f80f9f3709b","session_id":"6196baa5d213a213f483006d","condition":"full-information","relevant_dimensions":["wings","pattern"],"bee_group":{"antennae":"X","wings":"2","pattern":"S","legs":"X"},"bonus":1.640000000000001},{"rt":7281.700000047684,"stimulus":"bees-with-color/bee-A1SM.svg","response":0,"trial_type":"image-button-response","trial_index":143,"time_elapsed":1379466,"internal_node_id":"0.0-6.0-0.7","subject_id":"5eb19c53c27ff72b2a009730","study_id":"60edd13110225f80f9f3709b","session_id":"6196baa5d213a213f483006d","condition":"full-information","relevant_dimensions":["wings","pattern"],"bee_group":{"antennae":"X","wings":"2","pattern":"S","legs":"X"},"bonus":1.640000000000001},{"rt":16395.699999928474,"stimulus":"bees-with-color/bee-B2SM.svg","response":1,"trial_type":"image-button-response","trial_index":144,"time_elapsed":1395864,"internal_node_id":"0.0-6.0-0.8","subject_id":"5eb19c53c27ff72b2a009730","study_id":"60edd13110225f80f9f3709b","session_id":"6196baa5d213a213f483006d","condition":"full-information","relevant_dimensions":["wings","pattern"],"bee_group":{"antennae":"X","wings":"2","pattern":"S","legs":"X"},"bonus":1.640000000000001},{"rt":12645.5,"stimulus":"bees-with-color/bee-B1DM.svg","response":0,"trial_type":"image-button-response","trial_index":145,"time_elapsed":1408512,"internal_node_id":"0.0-6.0-0.9","subject_id":"5eb19c53c27ff72b2a009730","study_id":"60edd13110225f80f9f3709b","session_id":"6196baa5d213a213f483006d","condition":"full-information","relevant_dimensions":["wings","pattern"],"bee_group":{"antennae":"X","wings":"2","pattern":"S","legs":"X"},"bonus":1.640000000000001},{"rt":16408.399999976158,"stimulus":"bees-with-color/bee-B2DF.svg","response":0,"trial_type":"image-button-response","trial_index":146,"time_elapsed":1424923,"internal_node_id":"0.0-6.0-0.10","subject_id":"5eb19c53c27ff72b2a009730","study_id":"60edd13110225f80f9f3709b","session_id":"6196baa5d213a213f483006d","condition":"full-information","relevant_dimensions":["wings","pattern"],"bee_group":{"antennae":"X","wings":"2","pattern":"S","legs":"X"},"bonus":1.640000000000001},{"rt":1083.2000000476837,"stimulus":"bees-with-color/bee-B1DF.svg","response":0,"trial_type":"image-button-response","trial_index":147,"time_elapsed":1426009,"internal_node_id":"0.0-6.0-0.11","subject_id":"5eb19c53c27ff72b2a009730","study_id":"60edd13110225f80f9f3709b","session_id":"6196baa5d213a213f483006d","condition":"full-information","relevant_dimensions":["wings","pattern"],"bee_group":{"antennae":"X","wings":"2","pattern":"S","legs":"X"},"bonus":1.640000000000001},{"rt":12096,"stimulus":"bees-with-color/bee-A1DF.svg","response":0,"trial_type":"image-button-response","trial_index":148,"time_elapsed":1438107,"internal_node_id":"0.0-6.0-0.12","subject_id":"5eb19c53c27ff72b2a009730","study_id":"60edd13110225f80f9f3709b","session_id":"6196baa5d213a213f483006d","condition":"full-information","relevant_dimensions":["wings","pattern"],"bee_group":{"antennae":"X","wings":"2","pattern":"S","legs":"X"},"bonus":1.640000000000001},{"rt":1422.1999999284744,"stimulus":"bees-with-color/bee-B1SF.svg","response":0,"trial_type":"image-button-response","trial_index":149,"time_elapsed":1439531,"internal_node_id":"0.0-6.0-0.13","subject_id":"5eb19c53c27ff72b2a009730","study_id":"60edd13110225f80f9f3709b","session_id":"6196baa5d213a213f483006d","condition":"full-information","relevant_dimensions":["wings","pattern"],"bee_group":{"antennae":"X","wings":"2","pattern":"S","legs":"X"},"bonus":1.640000000000001},{"rt":10602.399999976158,"stimulus":"bees-with-color/bee-A2SF.svg","response":1,"trial_type":"image-button-response","trial_index":150,"time_elapsed":1450136,"internal_node_id":"0.0-6.0-0.14","subject_id":"5eb19c53c27ff72b2a009730","study_id":"60edd13110225f80f9f3709b","session_id":"6196baa5d213a213f483006d","condition":"full-information","relevant_dimensions":["wings","pattern"],"bee_group":{"antennae":"X","wings":"2","pattern":"S","legs":"X"},"bonus":1.640000000000001},{"rt":7692.100000023842,"stimulus":"bees-with-color/bee-A2DM.svg","response":0,"trial_type":"image-button-response","trial_index":151,"time_elapsed":1457831,"internal_node_id":"0.0-6.0-0.15","subject_id":"5eb19c53c27ff72b2a009730","study_id":"60edd13110225f80f9f3709b","session_id":"6196baa5d213a213f483006d","condition":"full-information","relevant_dimensions":["wings","pattern"],"bee_group":{"antennae":"X","wings":"2","pattern":"S","legs":"X"},"bonus":1.640000000000001},{"rt":1380.3999999761581,"stimulus":"bees-with-color/bee-A1DF.svg","response":0,"trial_type":"image-button-response","trial_index":152,"time_elapsed":1459213,"internal_node_id":"0.0-6.0-0.16","subject_id":"5eb19c53c27ff72b2a009730","study_id":"60edd13110225f80f9f3709b","session_id":"6196baa5d213a213f483006d","condition":"full-information","relevant_dimensions":["wings","pattern"],"bee_group":{"antennae":"X","wings":"2","pattern":"S","legs":"X"},"bonus":1.640000000000001},{"rt":7872.399999976158,"stimulus":"bees-with-color/bee-B2SM.svg","response":1,"trial_type":"image-button-response","trial_index":153,"time_elapsed":1467087,"internal_node_id":"0.0-6.0-0.17","subject_id":"5eb19c53c27ff72b2a009730","study_id":"60edd13110225f80f9f3709b","session_id":"6196baa5d213a213f483006d","condition":"full-information","relevant_dimensions":["wings","pattern"],"bee_group":{"antennae":"X","wings":"2","pattern":"S","legs":"X"},"bonus":1.640000000000001},{"rt":1120.8999999761581,"stimulus":"bees-with-color/bee-A1SF.svg","response":0,"trial_type":"image-button-response","trial_index":154,"time_elapsed":1468210,"internal_node_id":"0.0-6.0-0.18","subject_id":"5eb19c53c27ff72b2a009730","study_id":"60edd13110225f80f9f3709b","session_id":"6196baa5d213a213f483006d","condition":"full-information","relevant_dimensions":["wings","pattern"],"bee_group":{"antennae":"X","wings":"2","pattern":"S","legs":"X"},"bonus":1.640000000000001},{"rt":10813.900000095367,"stimulus":"bees-with-color/bee-A2SF.svg","response":1,"trial_type":"image-button-response","trial_index":155,"time_elapsed":1479026,"internal_node_id":"0.0-6.0-0.19","subject_id":"5eb19c53c27ff72b2a009730","study_id":"60edd13110225f80f9f3709b","session_id":"6196baa5d213a213f483006d","condition":"full-information","relevant_dimensions":["wings","pattern"],"bee_group":{"antennae":"X","wings":"2","pattern":"S","legs":"X"},"bonus":1.640000000000001},{"rt":8525.799999952316,"stimulus":"bees-with-color/bee-A2DM.svg","response":0,"trial_type":"image-button-response","trial_index":156,"time_elapsed":1487554,"internal_node_id":"0.0-6.0-0.20","subject_id":"5eb19c53c27ff72b2a009730","study_id":"60edd13110225f80f9f3709b","session_id":"6196baa5d213a213f483006d","condition":"full-information","relevant_dimensions":["wings","pattern"],"bee_group":{"antennae":"X","wings":"2","pattern":"S","legs":"X"},"bonus":1.640000000000001},{"rt":2284.7999999523163,"stimulus":"bees-with-color/bee-B1SF.svg","response":0,"trial_type":"image-button-response","trial_index":157,"time_elapsed":1489841,"internal_node_id":"0.0-6.0-0.21","subject_id":"5eb19c53c27ff72b2a009730","study_id":"60edd13110225f80f9f3709b","session_id":"6196baa5d213a213f483006d","condition":"full-information","relevant_dimensions":["wings","pattern"],"bee_group":{"antennae":"X","wings":"2","pattern":"S"