[{"success":true,"trial_type":"fullscreen","trial_index":0,"time_elapsed":10243,"internal_node_id":"0.0-0.0","subject_id":"5be59ce3520a3300010e28a9","study_id":"60edd13110225f80f9f3709b","session_id":"6196c706b4a6f35facae746b","condition":"full-information","relevant_dimensions":["wings","pattern"],"bee_group":{"antennae":"X","wings":"1","pattern":"S","legs":"X"},"bonus":1.9200000000000013},{"success":true,"timeout":false,"failed_images":[],"failed_audio":[],"failed_video":[],"trial_type":"preload","trial_index":1,"time_elapsed":13256,"internal_node_id":"0.0-1.0","subject_id":"5be59ce3520a3300010e28a9","study_id":"60edd13110225f80f9f3709b","session_id":"6196c706b4a6f35facae746b","condition":"full-information","relevant_dimensions":["wings","pattern"],"bee_group":{"antennae":"X","wings":"1","pattern":"S","legs":"X"},"bonus":1.9200000000000013},{"rt":2206.7000000029802,"stimulus":"Welcome! Press any key to begin.","response":" ","trial_type":"html-keyboard-response","trial_index":2,"time_elapsed":15464,"internal_node_id":"0.0-2.0","subject_id":"5be59ce3520a3300010e28a9","study_id":"60edd13110225f80f9f3709b","session_id":"6196c706b4a6f35facae746b","condition":"full-information","relevant_dimensions":["wings","pattern"],"bee_group":{"antennae":"X","wings":"1","pattern":"S","legs":"X"},"bonus":1.9200000000000013},{"view_history":[{"page_index":0,"viewing_time":4581.10000000149},{"page_index":1,"viewing_time":10938.89999999851},{"page_index":2,"viewing_time":8816.89999999851},{"page_index":3,"viewing_time":12947.20000000298},{"page_index":4,"viewing_time":7039.5},{"page_index":5,"viewing_time":6064.29999999702},{"page_index":6,"viewing_time":14704.70000000298},{"page_index":7,"viewing_time":5579.10000000149},{"page_index":6,"viewing_time":29738.59999999404},{"page_index":7,"viewing_time":3087.10000000149},{"page_index":8,"viewing_time":3631.10000000149},{"page_index":9,"viewing_time":23373.70000000298},{"page_index":8,"viewing_time":404.09999999403954},{"page_index":7,"viewing_time":781.5},{"page_index":6,"viewing_time":1569.3000000044703},{"page_index":7,"viewing_time":10276.29999999702},{"page_index":8,"viewing_time":9607.80000000447},{"page_index":9,"viewing_time":5640.69999999553},{"page_index":10,"viewing_time":7864.10000000149},{"page_index":11,"viewing_time":5286.79999999702},{"page_index":12,"viewing_time":14728.30000000447},{"page_index":13,"viewing_time":1504.1000000014901},{"page_index":14,"viewing_time":1828.0999999940395}],"rt":189993.5,"trial_type":"instructions","trial_index":3,"time_elapsed":205458,"internal_node_id":"0.0-3.0-0.0","subject_id":"5be59ce3520a3300010e28a9","study_id":"60edd13110225f80f9f3709b","session_id":"6196c706b4a6f35facae746b","condition":"full-information","relevant_dimensions":["wings","pattern"],"bee_group":{"antennae":"X","wings":"1","pattern":"S","legs":"X"},"bonus":1.9200000000000013},{"rt":14844.19999999553,"response":{"Q0":["Two or six legs","Stripes or spots on body","Single or double wings","Antennae or no antennae"]},"question_order":[0],"trial_type":"survey-multi-select","trial_index":4,"time_elapsed":220308,"internal_node_id":"0.0-3.0-1.0","subject_id":"5be59ce3520a3300010e28a9","study_id":"60edd13110225f80f9f3709b","session_id":"6196c706b4a6f35facae746b","condition":"full-information","relevant_dimensions":["wings","pattern"],"bee_group":{"antennae":"X","wings":"1","pattern":"S","legs":"X"},"correct":true,"bonus":1.9200000000000013},{"rt":24361.30000000447,"response":{"Q1":"No.","Q2":"Based on the four features of the bee.","Q3":"You do not learn if it was friendly or dangerous, and do not alter your bonus."},"question_order":[0,1,2],"trial_type":"survey-multi-choice","trial_index":5,"time_elapsed":244672,"internal_node_id":"0.0-3.0-2.0","subject_id":"5be59ce3520a3300010e28a9","study_id":"60edd13110225f80f9f3709b","session_id":"6196c706b4a6f35facae746b","condition":"full-information","relevant_dimensions":["wings","pattern"],"bee_group":{"antennae":"X","wings":"1","pattern":"S","legs":"X"},"correct":false,"bonus":1.9200000000000013},{"rt":2954.8000000044703,"stimulus":"<p>You did not answer all comprehension questions correctly.<br>Press <b>continue</b> to review the instructions again.</p>","response":0,"trial_type":"html-button-response","trial_index":6,"time_elapsed":247629,"internal_node_id":"0.0-3.0-3.0","subject_id":"5be59ce3520a3300010e28a9","study_id":"60edd13110225f80f9f3709b","session_id":"6196c706b4a6f35facae746b","condition":"full-information","relevant_dimensions":["wings","pattern"],"bee_group":{"antennae":"X","wings":"1","pattern":"S","legs":"X"},"bonus":1.9200000000000013},{"view_history":[{"page_index":0,"viewing_time":1400.7000000029802},{"page_index":1,"viewing_time":1643.7000000029802},{"page_index":2,"viewing_time":3656.7999999970198},{"page_index":3,"viewing_time":2345.10000000149},{"page_index":4,"viewing_time":5227.39999999851},{"page_index":5,"viewing_time":1036.7000000029802},{"page_index":4,"viewing_time":1033.6999999955297},{"page_index":5,"viewing_time":2950.8000000044703},{"page_index":6,"viewing_time":3722.7999999970198},{"page_index":7,"viewing_time":2339.2000000029802},{"page_index":8,"viewing_time":751.6999999955297},{"page_index":9,"viewing_time":901.5},{"page_index":10,"viewing_time":800.2000000029802},{"page_index":11,"viewing_time":4271.19999999553},{"page_index":12,"viewing_time":1986.2000000029802},{"page_index":13,"viewing_time":1606.6000000014901},{"page_index":14,"viewing_time":898.6000000014901}],"rt":36573.30000000447,"trial_type":"instructions","trial_index":7,"time_elapsed":284205,"internal_node_id":"0.0-3.0-4.0-0.0","subject_id":"5be59ce3520a3300010e28a9","study_id":"60edd13110225f80f9f3709b","session_id":"6196c706b4a6f35facae746b","condition":"full-information","relevant_dimensions":["wings","pattern"],"bee_group":{"antennae":"X","wings":"1","pattern":"S","legs":"X"},"bonus":1.9200000000000013},{"rt":12831.60000000149,"response":{"Q0":["Two or six legs","Stripes or spots on body","Single or double wings","Antennae or no antennae"]},"question_order":[0],"trial_type":"survey-multi-select","trial_index":8,"time_elapsed":297041,"internal_node_id":"0.0-3.0-4.0-1.0","subject_id":"5be59ce3520a3300010e28a9","study_id":"60edd13110225f80f9f3709b","session_id":"6196c706b4a6f35facae746b","condition":"full-information","relevant_dimensions":["wings","pattern"],"bee_group":{"antennae":"X","wings":"1","pattern":"S","legs":"X"},"correct":true,"bonus":1.9200000000000013},{"rt":22373.20000000298,"response":{"Q1":"No.","Q2":"Based on the four features of the bee.","Q3":"You learn if it was friendly or dangerous, but do not alter your bonus."},"question_order":[0,1,2],"trial_type":"survey-multi-choice","trial_index":9,"time_elapsed":319417,"internal_node_id":"0.0-3.0-4.0-2.0","subject_id":"5be59ce3520a3300010e28a9","study_id":"60edd13110225f80f9f3709b","session_id":"6196c706b4a6f35facae746b","condition":"full-information","relevant_dimensions":["wings","pattern"],"bee_group":{"antennae":"X","wings":"1","pattern":"S","legs":"X"},"correct":true,"bonus":1.9200000000000013},{"rt":1491.2000000029802,"stimulus":"<p>Congrats, you got everything right<br>When you're ready, click the button below to continue to the experiment.</p>","response":0,"trial_type":"html-button-response","trial_index":10,"time_elapsed":320910,"internal_node_id":"0.0-3.0-4.0-3.0","subject_id":"5be59ce3520a3300010e28a9","study_id":"60edd13110225f80f9f3709b","session_id":"6196c706b4a6f35facae746b","condition":"full-information","relevant_dimensions":["wings","pattern"],"bee_group":{"antennae":"X","wings":"1","pattern":"S","legs":"X"},"bonus":1.9200000000000013},{"rt":7174.9000000059605,"stimulus":"bees-with-color/bee-A1DM.svg","response":0,"trial_type":"image-button-response","trial_index":11,"time_elapsed":328089,"internal_node_id":"0.0-4.0-0.0","subject_id":"5be59ce3520a3300010e28a9","study_id":"60edd13110225f80f9f3709b","session_id":"6196c706b4a6f35facae746b","condition":"full-information","relevant_dimensions":["wings","pattern"],"bee_group":{"antennae":"X","wings":"1","pattern":"S","legs":"X"},"action":"harvest","summary":"good-harvest","bonus":1.9200000000000013},{"rt":25787.29999999702,"stimulus":"\n                    <p><b>Action: <em>harvest</em></b></p>\n                    <p>This is the bee that you just saw.</p>\n                    <img src=\"bees-with-color/bee-A1DM.svg\" width=\"200\">\n                    <p><span class=\"greenText\"><b>Successful harvest!</b></span><br>Your pay has increased by $0.02. Your bonus pay is now $0.56.</p>\n            ","response":0,"trial_type":"html-button-response","trial_index":12,"time_elapsed":353879,"internal_node_id":"0.0-4.0-1.0","subject_id":"5be59ce3520a3300010e28a9","study_id":"60edd13110225f80f9f3709b","session_id":"6196c706b4a6f35facae746b","condition":"full-information","relevant_dimensions":["wings","pattern"],"bee_group":{"antennae":"X","wings":"1","pattern":"S","legs":"X"},"bonus":1.9200000000000013},{"rt":2575.10000000149,"stimulus":"bees-with-color/bee-B2SF.svg","response":1,"trial_type":"image-button-response","trial_index":13,"time_elapsed":356457,"internal_node_id":"0.0-4.0-0.1","subject_id":"5be59ce3520a3300010e28a9","study_id":"60edd13110225f80f9f3709b","session_id":"6196c706b4a6f35facae746b","condition":"full-information","relevant_dimensions":["wings","pattern"],"bee_group":{"antennae":"X","wings":"1","pattern":"S","legs":"X"},"action":"avoid","summary":"bad-avoid","bonus":1.9200000000000013},{"rt":18961.79999999702,"stimulus":"\n                    <p><b>Action: <em>avoid</em></b></p>\n                    <p>This is the bee that you just saw.</p>\n                    <img src=\"bees-with-color/bee-B2SF.svg\" width=\"200\">\n                    <p><span class=\"redText\">Bad choice,</span> the bee was friendly.<br>Your bonus pay is unchanged, and remains at $0.56.</p>\n            ","response":0,"trial_type":"html-button-response","trial_index":14,"time_elapsed":375422,"internal_node_id":"0.0-4.0-1.1","subject_id":"5be59ce3520a3300010e28a9","study_id":"60edd13110225f80f9f3709b","session_id":"6196c706b4a6f35facae746b","condition":"full-information","relevant_dimensions":["wings","pattern"],"bee_group":{"antennae":"X","wings":"1","pattern":"S","legs":"X"},"bonus":1.9200000000000013},{"rt":1289,"stimulus":"bees-with-color/bee-A1SF.svg","response":1,"trial_type":"image-button-response","trial_index":15,"time_elapsed":376714,"internal_node_id":"0.0-4.0-0.2","subject_id":"5be59ce3520a3300010e28a9","study_id":"60edd13110225f80f9f3709b","session_id":"6196c706b4a6f35facae746b","condition":"full-information","relevant_dimensions":["wings","pattern"],"bee_group":{"antennae":"X","wings":"1","pattern":"S","legs":"X"},"action":"avoid","summary":"good-avoid","bonus":1.9200000000000013},{"rt":15470.20000000298,"stimulus":"\n                    <p><b>Action: <em>avoid</em></b></p>\n                    <p>This is the bee that you just saw.</p>\n                    <img src=\"bees-with-color/bee-A1SF.svg\" width=\"200\">\n                    <p><span class=\"greenText\">Good choice!</span>  This bee would have stung you.<br>Your bonus pay is unchanged, and remains at $0.56.</p>\n            ","response":0,"trial_type":"html-button-response","trial_index":16,"time_elapsed":392186,"internal_node_id":"0.0-4.0-1.2","subject_id":"5be59ce3520a3300010e28a9","study_id":"60edd13110225f80f9f3709b","session_id":"6196c706b4a6f35facae746b","condition":"full-information","relevant_dimensions":["wings","pattern"],"bee_group":{"antennae":"X","wings":"1","pattern":"S","legs":"X"},"bonus":1.9200000000000013},{"rt":5201.5,"stimulus":"bees-with-color/bee-B2SM.svg","response":0,"trial_type":"image-button-response","trial_index":17,"time_elapsed":397390,"internal_node_id":"0.0-4.0-0.3","subject_id":"5be59ce3520a3300010e28a9","study_id":"60edd13110225f80f9f3709b","session_id":"6196c706b4a6f35facae746b","condition":"full-information","relevant_dimensions":["wings","pattern"],"bee_group":{"antennae":"X","wings":"1","pattern":"S","legs":"X"},"action":"harvest","summary":"good-harvest","bonus":1.9200000000000013},{"rt":2902.7999999970198,"stimulus":"\n                    <p><b>Action: <em>harvest</em></b></p>\n                    <p>This is the bee that you just saw.</p>\n                    <img src=\"bees-with-color/bee-B2SM.svg\" width=\"200\">\n                    <p><span class=\"greenText\"><b>Successful harvest!</b></span><br>Your pay has increased by $0.02. Your bonus pay is now $0.58.</p>\n            ","response":0,"trial_type":"html-button-response","trial_index":18,"time_elapsed":400296,"internal_node_id":"0.0-4.0-1.3","subject_id":"5be59ce3520a3300010e28a9","study_id":"60edd13110225f80f9f3709b","session_id":"6196c706b4a6f35facae746b","condition":"full-information","relevant_dimensions":["wings","pattern"],"bee_group":{"antennae":"X","wings":"1","pattern":"S","legs":"X"},"bonus":1.9200000000000013},{"rt":10387.70000000298,"stimulus":"bees-with-color/bee-B2DM.svg","response":1,"trial_type":"image-button-response","trial_index":19,"time_elapsed":410687,"internal_node_id":"0.0-4.0-0.4","subject_id":"5be59ce3520a3300010e28a9","study_id":"60edd13110225f80f9f3709b","session_id":"6196c706b4a6f35facae746b","condition":"full-information","relevant_dimensions":["wings","pattern"],"bee_group":{"antennae":"X","wings":"1","pattern":"S","legs":"X"},"action":"avoid","summary":"bad-avoid","bonus":1.9200000000000013},{"rt":5972.89999999851,"stimulus":"\n                    <p><b>Action: <em>avoid</em></b></p>\n                    <p>This is the bee that you just saw.</p>\n                    <img src=\"bees-with-color/bee-B2DM.svg\" width=\"200\">\n                    <p><span class=\"redText\">Bad choice,</span> the bee was friendly.<br>Your bonus pay is unchanged, and remains at $0.58.</p>\n            ","response":0,"trial_type":"html-button-response","trial_index":20,"time_elapsed":416662,"internal_node_id":"0.0-4.0-1.4","subject_id":"5be59ce3520a3300010e28a9","study_id":"60edd13110225f80f9f3709b","session_id":"6196c706b4a6f35facae746b","condition":"full-information","relevant_dimensions":["wings","pattern"],"bee_group":{"antennae":"X","wings":"1","pattern":"S","legs":"X"},"bonus":1.9200000000000013},{"rt":1789.5,"stimulus":"bees-with-color/bee-B1SM.svg","response":1,"trial_type":"image-button-response","trial_index":21,"time_elapsed":418454,"internal_node_id":"0.0-4.0-0.5","subject_id":"5be59ce3520a3300010e28a9","study_id":"60edd13110225f80f9f3709b","session_id":"6196c706b4a6f35facae746b","condition":"full-information","relevant_dimensions":["wings","pattern"],"bee_group":{"antennae":"X","wings":"1","pattern":"S","legs":"X"},"action":"avoid","summary":"good-avoid","bonus":1.9200000000000013},{"rt":9735,"stimulus":"\n                    <p><b>Action: <em>avoid</em></b></p>\n                    <p>This is the bee that you just saw.</p>\n                    <img src=\"bees-with-color/bee-B1SM.svg\" width=\"200\">\n                    <p><span class=\"greenText\">Good choice!</span>  This bee would have stung you.<br>Your bonus pay is unchanged, and remains at $0.58.</p>\n            ","response":0,"trial_type":"html-button-response","trial_index":22,"time_elapsed":428191,"internal_node_id":"0.0-4.0-1.5","subject_id":"5be59ce3520a3300010e28a9","study_id":"60edd13110225f80f9f3709b","session_id":"6196c706b4a6f35facae746b","condition":"full-information","relevant_dimensions":["wings","pattern"],"bee_group":{"antennae":"X","wings":"1","pattern":"S","legs":"X"},"bonus":1.9200000000000013},{"rt":3181.60000000149,"stimulus":"bees-with-color/bee-B2DF.svg","response":0,"trial_type":"image-button-response","trial_index":23,"time_elapsed":431375,"internal_node_id":"0.0-4.0-0.6","subject_id":"5be59ce3520a3300010e28a9","study_id":"60edd13110225f80f9f3709b","session_id":"6196c706b4a6f35facae746b","condition":"full-information","relevant_dimensions":["wings","pattern"],"bee_group":{"antennae":"X","wings":"1","pattern":"S","legs":"X"},"action":"harvest","summary":"good-harvest","bonus":1.9200000000000013},{"rt":1084.5,"stimulus":"\n                    <p><b>Action: <em>harvest</em></b></p>\n                    <p>This is the bee that you just saw.</p>\n                    <img src=\"bees-with-color/bee-B2DF.svg\" width=\"200\">\n                    <p><span class=\"greenText\"><b>Successful harvest!</b></span><br>Your pay has increased by $0.02. Your bonus pay is now $0.60.</p>\n            ","response":0,"trial_type":"html-button-response","trial_index":24,"time_elapsed":432461,"internal_node_id":"0.0-4.0-1.6","subject_id":"5be59ce3520a3300010e28a9","study_id":"60edd13110225f80f9f3709b","session_id":"6196c706b4a6f35facae746b","condition":"full-information","relevant_dimensions":["wings","pattern"],"bee_group":{"antennae":"X","wings":"1","pattern":"S","legs":"X"},"bonus":1.9200000000000013},{"rt":4090.1999999955297,"stimulus":"bees-with-color/bee-B1DF.svg","response":1,"trial_type":"image-button-response","trial_index":25,"time_elapsed":436553,"internal_node_id":"0.0-4.0-0.7","subject_id":"5be59ce3520a3300010e28a9","study_id":"60edd13110225f80f9f3709b","session_id":"6196c706b4a6f35facae746b","condition":"full-information","relevant_dimensions":["wings","pattern"],"bee_group":{"antennae":"X","wings":"1","pattern":"S","legs":"X"},"action":"avoid","summary":"bad-avoid","bonus":1.9200000000000013},{"rt":20514.60000000149,"stimulus":"\n                    <p><b>Action: <em>avoid</em></b></p>\n                    <p>This is the bee that you just saw.</p>\n                    <img src=\"bees-with-color/bee-B1DF.svg\" width=\"200\">\n                    <p><span class=\"redText\">Bad choice,</span> the bee was friendly.<br>Your bonus pay is unchanged, and remains at $0.60.</p>\n            ","response":0,"trial_type":"html-button-response","trial_index":26,"time_elapsed":457069,"internal_node_id":"0.0-4.0-1.7","subject_id":"5be59ce3520a3300010e28a9","study_id":"60edd13110225f80f9f3709b","session_id":"6196c706b4a6f35facae746b","condition":"full-information","relevant_dimensions":["wings","pattern"],"bee_group":{"antennae":"X","wings":"1","pattern":"S","legs":"X"},"bonus":1.9200000000000013},{"rt":7741.5,"stimulus":"bees-with-color/bee-B1SF.svg","response":1,"trial_type":"image-button-response","trial_index":27,"time_elapsed":464813,"internal_node_id":"0.0-4.0-0.8","subject_id":"5be59ce3520a3300010e28a9","study_id":"60edd13110225f80f9f3709b","session_id":"6196c706b4a6f35facae746b","condition":"full-information","relevant_dimensions":["wings","pattern"],"bee_group":{"antennae":"X","wings":"1","pattern":"S","legs":"X"},"action":"avoid","summary":"good-avoid","bonus":1.9200000000000013},{"rt":12769.60000000149,"stimulus":"\n                    <p><b>Action: <em>avoid</em></b></p>\n                    <p>This is the bee that you just saw.</p>\n                    <img src=\"bees-with-color/bee-B1SF.svg\" width=\"200\">\n                    <p><span class=\"greenText\">Good choice!</span>  This bee would have stung you.<br>Your bonus pay is unchanged, and remains at $0.60.</p>\n            ","response":0,"trial_type":"html-button-response","trial_index":28,"time_elapsed":477584,"internal_node_id":"0.0-4.0-1.8","subject_id":"5be59ce3520a3300010e28a9","study_id":"60edd13110225f80f9f3709b","session_id":"6196c706b4a6f35facae746b","condition":"full-information","relevant_dimensions":["wings","pattern"],"bee_group":{"antennae":"X","wings":"1","pattern":"S","legs":"X"},"bonus":1.9200000000000013},{"rt":7940.9000000059605,"stimulus":"bees-with-color/bee-B1DM.svg","response":0,"trial_type":"image-button-response","trial_index":29,"time_elapsed":485528,"internal_node_id":"0.0-4.0-0.9","subject_id":"5be59ce3520a3300010e28a9","study_id":"60edd13110225f80f9f3709b","session_id":"6196c706b4a6f35facae746b","condition":"full-information","relevant_dimensions":["wings","pattern"],"bee_group":{"antennae":"X","wings":"1","pattern":"S","legs":"X"},"action":"harvest","summary":"good-harvest","bonus":1.9200000000000013},{"rt":1122.6000000014901,"stimulus":"\n                    <p><b>Action: <em>harvest</em></b></p>\n                    <p>This is the bee that you just saw.</p>\n                    <img src=\"bees-with-color/bee-B1DM.svg\" width=\"200\">\n                    <p><span class=\"greenText\"><b>Successful harvest!</b></span><br>Your pay has increased by $0.02. Your bonus pay is now $0.62.</p>\n            ","response":0,"trial_type":"html-button-response","trial_index":30,"time_elapsed":486653,"internal_node_id":"0.0-4.0-1.9","subject_id":"5be59ce3520a3300010e28a9","study_id":"60edd13110225f80f9f3709b","session_id":"6196c706b4a6f35facae746b","condition":"full-information","relevant_dimensions":["wings","pattern"],"bee_group":{"antennae":"X","wings":"1","pattern":"S","legs":"X"},"bonus":1.9200000000000013},{"rt":6493.30000000447,"stimulus":"bees-with-color/bee-A2DF.svg","response":0,"trial_type":"image-button-response","trial_index":31,"time_elapsed":493148,"internal_node_id":"0.0-4.0-0.10","subject_id":"5be59ce3520a3300010e28a9","study_id":"60edd13110225f80f9f3709b","session_id":"6196c706b4a6f35facae746b","condition":"full-information","relevant_dimensions":["wings","pattern"],"bee_group":{"antennae":"X","wings":"1","pattern":"S","legs":"X"},"action":"harvest","summary":"good-harvest","bonus":1.9200000000000013},{"rt":1024.8000000044703,"stimulus":"\n                    <p><b>Action: <em>harvest</em></b></p>\n                    <p>This is the bee that you just saw.</p>\n                    <img src=\"bees-with-color/bee-A2DF.svg\" width=\"200\">\n                    <p><span class=\"greenText\"><b>Successful harvest!</b></span><br>Your pay has increased by $0.02. Your bonus pay is now $0.64.</p>\n            ","response":0,"trial_type":"html-button-response","trial_index":32,"time_elapsed":494175,"internal_node_id":"0.0-4.0-1.10","subject_id":"5be59ce3520a3300010e28a9","study_id":"60edd13110225f80f9f3709b","session_id":"6196c706b4a6f35facae746b","condition":"full-information","relevant_dimensions":["wings","pattern"],"bee_group":{"antennae":"X","wings":"1","pattern":"S","legs":"X"},"bonus":1.9200000000000013},{"rt":4591.39999999851,"stimulus":"bees-with-color/bee-A2SM.svg","response":0,"trial_type":"image-button-response","trial_index":33,"time_elapsed":498768,"internal_node_id":"0.0-4.0-0.11","subject_id":"5be59ce3520a3300010e28a9","study_id":"60edd13110225f80f9f3709b","session_id":"6196c706b4a6f35facae746b","condition":"full-information","relevant_dimensions":["wings","pattern"],"bee_group":{"antennae":"X","wings":"1","pattern":"S","legs":"X"},"action":"harvest","summary":"good-harvest","bonus":1.9200000000000013},{"rt":1382.8999999985099,"stimulus":"\n                    <p><b>Action: <em>harvest</em></b></p>\n                    <p>This is the bee that you just saw.</p>\n                    <img src=\"bees-with-color/bee-A2SM.svg\" width=\"200\">\n                    <p><span class=\"greenText\"><b>Successful harvest!</b></span><br>Your pay has increased by $0.02. Your bonus pay is now $0.66.</p>\n            ","response":0,"trial_type":"html-button-response","trial_index":34,"time_elapsed":500153,"internal_node_id":"0.0-4.0-1.11","subject_id":"5be59ce3520a3300010e28a9","study_id":"60edd13110225f80f9f3709b","session_id":"6196c706b4a6f35facae746b","condition":"full-information","relevant_dimensions":["wings","pattern"],"bee_group":{"antennae":"X","wings":"1","pattern":"S","legs":"X"},"bonus":1.9200000000000013},{"rt":3221.1999999955297,"stimulus":"bees-with-color/bee-A2SF.svg","response":0,"trial_type":"image-button-response","trial_index":35,"time_elapsed":503376,"internal_node_id":"0.0-4.0-0.12","subject_id":"5be59ce3520a3300010e28a9","study_id":"60edd13110225f80f9f3709b","session_id":"6196c706b4a6f35facae746b","condition":"full-information","relevant_dimensions":["wings","pattern"],"bee_group":{"antennae":"X","wings":"1","pattern":"S","legs":"X"},"action":"harvest","summary":"good-harvest","bonus":1.9200000000000013},{"rt":1041.7999999970198,"stimulus":"\n                    <p><b>Action: <em>harvest</em></b></p>\n                    <p>This is the bee that you just saw.</p>\n                    <img src=\"bees-with-color/bee-A2SF.svg\" width=\"200\">\n                    <p><span class=\"greenText\"><b>Successful harvest!</b></span><br>Your pay has increased by $0.02. Your bonus pay is now $0.68.</p>\n            ","response":0,"trial_type":"html-button-response","trial_index":36,"time_elapsed":504420,"internal_node_id":"0.0-4.0-1.12","subject_id":"5be59ce3520a3300010e28a9","study_id":"60edd13110225f80f9f3709b","session_id":"6196c706b4a6f35facae746b","condition":"full-information","relevant_dimensions":["wings","pattern"],"bee_group":{"antennae":"X","wings":"1","pattern":"S","legs":"X"},"bonus":1.9200000000000013},{"rt":2595.10000000149,"stimulus":"bees-with-color/bee-A1DF.svg","response":0,"trial_type":"image-button-response","trial_index":37,"time_elapsed":507017,"internal_node_id":"0.0-4.0-0.13","subject_id":"5be59ce3520a3300010e28a9","study_id":"60edd13110225f80f9f3709b","session_id":"6196c706b4a6f35facae746b","condition":"full-information","relevant_dimensions":["wings","pattern"],"bee_group":{"antennae":"X","wings":"1","pattern":"S","legs":"X"},"action":"harvest","summary":"good-harvest","bonus":1.9200000000000013},{"rt":960.2000000029802,"stimulus":"\n                    <p><b>Action: <em>harvest</em></b></p>\n                    <p>This is the bee that you just saw.</p>\n                    <img src=\"bees-with-color/bee-A1DF.svg\" width=\"200\">\n                    <p><span class=\"greenText\"><b>Successful harvest!</b></span><br>Your pay has increased by $0.02. Your bonus pay is now $0.70.</p>\n            ","response":0,"trial_type":"html-button-response","trial_index":38,"time_elapsed":507978,"internal_node_id":"0.0-4.0-1.13","subject_id":"5be59ce3520a3300010e28a9","study_id":"60edd13110225f80f9f3709b","session_id":"6196c706b4a6f35facae746b","condition":"full-information","relevant_dimensions":["wings","pattern"],"bee_group":{"antennae":"X","wings":"1","pattern":"S","legs":"X"},"bonus":1.9200000000000013},{"rt":3526.10000000149,"stimulus":"bees-with-color/bee-A2DM.svg","response":0,"trial_type":"image-button-response","trial_index":39,"time_elapsed":511506,"internal_node_id":"0.0-4.0-0.14","subject_id":"5be59ce3520a3300010e28a9","study_id":"60edd13110225f80f9f3709b","session_id":"6196c706b4a6f35facae746b","condition":"full-information","relevant_dimensions":["wings","pattern"],"bee_group":{"antennae":"X","wings":"1","pattern":"S","legs":"X"},"action":"harvest","summary":"good-harvest","bonus":1.9200000000000013},{"rt":1143.1000000014901,"stimulus":"\n                    <p><b>Action: <em>harvest</em></b></p>\n                    <p>This is the bee that you just saw.</p>\n                    <img src=\"bees-with-color/bee-A2DM.svg\" width=\"200\">\n                    <p><span class=\"greenText\"><b>Successful harvest!</b></span><br>Your pay has increased by $0.02. Your bonus pay is now $0.72.</p>\n            ","response":0,"trial_type":"html-button-response","trial_index":40,"time_elapsed":512651,"internal_node_id":"0.0-4.0-1.14","subject_id":"5be59ce3520a3300010e28a9","study_id":"60edd13110225f80f9f3709b","session_id":"6196c706b4a6f35facae746b","condition":"full-information","relevant_dimensions":["wings","pattern"],"bee_group":{"antennae":"X","wings":"1","pattern":"S","legs":"X"},"bonus":1.9200000000000013},{"rt":3301.2000000029802,"stimulus":"bees-with-color/bee-A1SM.svg","response":1,"trial_type":"image-button-response","trial_index":41,"time_elapsed":515953,"internal_node_id":"0.0-4.0-0.15","subject_id":"5be59ce3520a3300010e28a9","study_id":"60edd13110225f80f9f3709b","session_id":"6196c706b4a6f35facae746b","condition":"full-information","relevant_dimensions":["wings","pattern"],"bee_group":{"antennae":"X","wings":"1","pattern":"S","legs":"X"},"action":"avoid","summary":"good-avoid","bonus":1.9200000000000013},{"rt":16812.39999999851,"stimulus":"\n                    <p><b>Action: <em>avoid</em></b></p>\n                    <p>This is the bee that you just saw.</p>\n                    <img src=\"bees-with-color/bee-A1SM.svg\" width=\"200\">\n                    <p><span class=\"greenText\">Good choice!</span>  This bee would have stung you.<br>Your bonus pay is unchanged, and remains at $0.72.</p>\n            ","response":0,"trial_type":"html-button-response","trial_index":42,"time_elapsed":532767,"internal_node_id":"0.0-4.0-1.15","subject_id":"5be59ce3520a3300010e28a9","study_id":"60edd13110225f80f9f3709b","session_id":"6196c706b4a6f35facae746b","condition":"full-information","relevant_dimensions":["wings","pattern"],"bee_group":{"antennae":"X","wings":"1","pattern":"S","legs":"X"},"bonus":1.9200000000000013},{"rt":2115.89999999851,"stimulus":"bees-with-color/bee-B2DM.svg","response":0,"trial_type":"image-button-response","trial_index":43,"time_elapsed":534885,"internal_node_id":"0.0-4.0-0.16","subject_id":"5be59ce3520a3300010e28a9","study_id":"60edd13110225f80f9f3709b","session_id":"6196c706b4a6f35facae746b","condition":"full-information","relevant_dimensions":["wings","pattern"],"bee_group":{"antennae":"X","wings":"1","pattern":"S","legs":"X"},"action":"harvest","summary":"good-harvest","bonus":1.9200000000000013},{"rt":1635.6000000014901,"stimulus":"\n                    <p><b>Action: <em>harvest</em></b></p>\n                    <p>This is the bee that you just saw.</p>\n                    <img src=\"bees-with-color/bee-B2DM.svg\" width=\"200\">\n                    <p><span class=\"greenText\"><b>Successful harvest!</b></span><br>Your pay has increased by $0.02. Your bonus pay is now $0.74.</p>\n            ","response":0,"trial_type":"html-button-response","trial_index":44,"time_elapsed":536522,"internal_node_id":"0.0-4.0-1.16","subject_id":"5be59ce3520a3300010e28a9","study_id":"60edd13110225f80f9f3709b","session_id":"6196c706b4a6f35facae746b","condition":"full-information","relevant_dimensions":["wings","pattern"],"bee_group":{"antennae":"X","wings":"1","pattern":"S","legs":"X"},"bonus":1.9200000000000013},{"rt":2740.10000000149,"stimulus":"bees-with-color/bee-B1SF.svg","response":1,"trial_type":"image-button-response","trial_index":45,"time_elapsed":539264,"internal_node_id":"0.0-4.0-0.17","subject_id":"5be59ce3520a3300010e28a9","study_id":"60edd13110225f80f9f3709b","session_id":"6196c706b4a6f35facae746b","condition":"full-information","relevant_dimensions":["wings","pattern"],"bee_group":{"antennae":"X","wings":"1","pattern":"S","legs":"X"},"action":"avoid","summary":"good-avoid","bonus":1.9200000000000013},{"rt":1178,"stimulus":"\n                    <p><b>Action: <em>avoid</em></b></p>\n                    <p>This is the bee that you just saw.</p>\n                    <img src=\"bees-with-color/bee-B1SF.svg\" width=\"200\">\n                    <p><span class=\"greenText\">Good choice!</span>  This bee would have stung you.<br>Your bonus pay is unchanged, and remains at $0.74.</p>\n            ","response":0,"trial_type":"html-button-response","trial_index":46,"time_elapsed":540444,"internal_node_id":"0.0-4.0-1.17","subject_id":"5be59ce3520a3300010e28a9","study_id":"60edd13110225f80f9f3709b","session_id":"6196c706b4a6f35facae746b","condition":"full-information","relevant_dimensions":["wings","pattern"],"bee_group":{"antennae":"X","wings":"1","pattern":"S","legs":"X"},"bonus":1.9200000000000013},{"rt":2203.5,"stimulus":"bees-with-color/bee-A2DF.svg","response":0,"trial_type":"image-button-response","trial_index":47,"time_elapsed":542649,"internal_node_id":"0.0-4.0-0.18","subject_id":"5be59ce3520a3300010e28a9","study_id":"60edd13110225f80f9f3709b","session_id":"6196c706b4a6f35facae746b","condition":"full-information","relevant_dimensions":["wings","pattern"],"bee_group":{"antennae":"X","wings":"1","pattern":"S","legs":"X"},"action":"harvest","summary":"good-harvest","bonus":1.9200000000000013},{"rt":1506.3999999985099,"stimulus":"\n                    <p><b>Action: <em>harvest</em></b></p>\n                    <p>This is the bee that you just saw.</p>\n                    <img src=\"bees-with-color/bee-A2DF.svg\" width=\"200\">\n                    <p><span class=\"greenText\"><b>Successful harvest!</b></span><br>Your pay has increased by $0.02. Your bonus pay is now $0.76.</p>\n            ","response":0,"trial_type":"html-button-response","trial_index":48,"time_elapsed":544157,"internal_node_id":"0.0-4.0-1.18","subject_id":"5be59ce3520a3300010e28a9","study_id":"60edd13110225f80f9f3709b","session_id":"6196c706b4a6f35facae746b","condition":"full-information","relevant_dimensions":["wings","pattern"],"bee_group":{"antennae":"X","wings":"1","pattern":"S","legs":"X"},"bonus":1.9200000000000013},{"rt":2140.5,"stimulus":"bees-with-color/bee-A1DF.svg","response":0,"trial_type":"image-button-response","trial_index":49,"time_elapsed":546299,"internal_node_id":"0.0-4.0-0.19","subject_id":"5be59ce3520a3300010e28a9","study_id":"60edd13110225f80f9f3709b","session_id":"6196c706b4a6f35facae746b","condition":"full-information","relevant_dimensions":["wings","pattern"],"bee_group":{"antennae":"X","wings":"1","pattern":"S","legs":"X"},"action":"harvest","summary":"good-harvest","bonus":1.9200000000000013},{"rt":961.3000000044703,"stimulus":"\n                    <p><b>Action: <em>harvest</em></b></p>\n                    <p>This is the bee that you just saw.</p>\n                    <img src=\"bees-with-color/bee-A1DF.svg\" width=\"200\">\n                    <p><span class=\"greenText\"><b>Successful harvest!</b></span><br>Your pay has increased by $0.02. Your bonus pay is now $0.78.</p>\n            ","response":0,"trial_type":"html-button-response","trial_index":50,"time_elapsed":547261,"internal_node_id":"0.0-4.0-1.19","subject_id":"5be59ce3520a3300010e28a9","study_id":"60edd13110225f80f9f3709b","session_id":"6196c706b4a6f35facae746b","condition":"full-information","relevant_dimensions":["wings","pattern"],"bee_group":{"antennae":"X","wings":"1","pattern":"S","legs":"X"},"bonus":1.9200000000000013},{"rt":2419.7999999970198,"stimulus":"bees-with-color/bee-A1SM.svg","response":1,"trial_type":"image-button-response","trial_index":51,"time_elapsed":549683,"internal_node_id":"0.0-4.0-0.20","subject_id":"5be59ce3520a3300010e28a9","study_id":"60edd13110225f80f9f3709b","session_id":"6196c706b4a6f35facae746b","condition":"full-information","relevant_dimensions":["wings","pattern"],"bee_group":{"antennae":"X","wings":"1","pattern":"S","legs":"X"},"action":"avoid","summary":"good-avoid","bonus":1.9200000000000013},{"rt":1050.1000000014901,"stimulus":"\n                    <p><b>Action: <em>avoid</em></b></p>\n                    <p>This is the bee that you just saw.</p>\n                    <img src=\"bees-with-color/bee-A1SM.svg\" width=\"200\">\n                    <p><span class=\"greenText\">Good choice!</span>  This bee would have stung you.<br>Your bonus pay is unchanged, and remains at $0.78.</p>\n            ","response":0,"trial_type":"html-button-response","trial_index":52,"time_elapsed":550734,"internal_node_id":"0.0-4.0-1.20","subject_id":"5be59ce3520a3300010e28a9","study_id":"60edd13110225f80f9f3709b","session_id":"6196c706b4a6f35facae746b","condition":"full-information","relevant_dimensions":["wings","pattern"],"bee_group":{"antennae":"X","wings":"1","pattern":"S","legs":"X"},"bonus":1.9200000000000013},{"rt":6182,"stimulus":"bees-with-color/bee-A2SF.svg","response":0,"trial_type":"image-button-response","trial_index":53,"time_elapsed":556918,"internal_node_id":"0.0-4.0-0.21","subject_id":"5be59ce3520a3300010e28a9","study_id":"60edd13110225f80f9f3709b","session_id":"6196c706b4a6f35facae746b","condition":"full-information","relevant_dimensions":["wings","pattern"],"bee_group":{"antennae":"X","wings":"1","pattern":"S","legs":"X"},"action":"harvest","summary":"good-harvest","bonus":1.9200000000000013},{"rt":1118.8999999985099,"stimulus":"\n                    <p><b>Action: <em>harvest</em></b></p>\n                    <p>This is the bee that you just saw.</p>\n                    <img src=\"bees-with-color/bee-A2SF.svg\" width=\"200\">\n                    <p><span class=\"greenText\"><b>Successful harvest!</b></span><br>Your pay has increased by $0.02. Your bonus pay is now $0.80.</p>\n            ","response":0,"trial_type":"html-button-response","trial_index":54,"time_elapsed":558038,"internal_node_id":"0.0-4.0-1.21","subject_id":"5be59ce3520a3300010e28a9","study_id":"60edd13110225f80f9f3709b","session_id":"6196c706b4a6f35facae746b","condition":"full-information","relevant_dimensions":["wings","pattern"],"bee_group":{"antennae":"X","wings":"1","pattern":"S","legs":"X"},"bonus":1.9200000000000013},{"rt":5620.89999999851,"stimulus":"bees-with-color/bee-A2SM.svg","response":0,"trial_type":"image-button-response","trial_index":55,"time_elapsed":563662,"internal_node_id":"0.0-4.0-0.22","subject_id":"5be59ce3520a3300010e28a9","study_id":"60edd13110225f80f9f3709b","session_id":"6196c706b4a6f35facae746b","condition":"full-information","relevant_dimensions":["wings","pattern"],"bee_group":{"antennae":"X","wings":"1","pattern":"S","legs":"X"},"action":"harvest","summary":"good-harvest","bonus":1.9200000000000013},{"rt":1596.6000000014901,"stimulus":"\n                    <p><b>Action: <em>harvest</em></b></p>\n                    <p>This is the bee that you just saw.</p>\n                    <img src=\"bees-with-color/bee-A2SM.svg\" width=\"200\">\n                    <p><span class=\"greenText\"><b>Successful harvest!</b></span><br>Your pay has increased by $0.02. Your bonus pay is now $0.82.</p>\n            ","response":0,"trial_type":"html-button-response","trial_index":56,"time_elapsed":565260,"internal_node_id":"0.0-4.0-1.22","subject_id":"5be59ce3520a3300010e28a9","study_id":"60edd13110225f80f9f3709b","session_id":"6196c706b4a6f35facae746b","condition":"full-information","relevant_dimensions":["wings","pattern"],"bee_group":{"antennae":"X","wings":"1","pattern":"S","legs":"X"},"bonus":1.9200000000000013},{"rt":4084.39999999851,"stimulus":"bees-with-color/bee-A1DM.svg","response":0,"trial_type":"image-button-response","trial_index":57,"time_elapsed":569346,"internal_node_id":"0.0-4.0-0.23","subject_id":"5be59ce3520a3300010e28a9","study_id":"60edd13110225f80f9f3709b","session_id":"6196c706b4a6f35facae746b","condition":"full-information","relevant_dimensions":["wings","pattern"],"bee_group":{"antennae":"X","wings":"1","pattern":"S","legs":"X"},"action":"harvest","summary":"good-harvest","bonus":1.9200000000000013},{"rt":820.1000000014901,"stimulus":"\n                    <p><b>Action: <em>harvest</em></b></p>\n                    <p>This is the bee that you just saw.</p>\n                    <img src=\"bees-with-color/bee-A1DM.svg\" width=\"200\">\n                    <p><span class=\"greenText\"><b>Successful harvest!</b></span><br>Your pay has increased by $0.02. Your bonus pay is now $0.84.</p>\n            ","response":0,"trial_type":"html-button-response","trial_index":58,"time_elapsed":570168,"internal_node_id":"0.0-4.0-1.23","subject_id":"5be59ce3520a3300010e28a9","study_id":"60edd13110225f80f9f3709b","session_id":"6196c706b4a6f35facae746b","condition":"full-information","relevant_dimensions":["wings","pattern"],"bee_group":{"antennae":"X","wings":"1","pattern":"S","legs":"X"},"bonus":1.9200000000000013},{"rt":2342,"stimulus":"bees-with-color/bee-B1SM.svg","response":1,"trial_type":"image-button-response","trial_index":59,"time_elapsed":572512,"internal_node_id":"0.0-4.0-0.24","subject_id":"5be59ce3520a3300010e28a9","study_id":"60edd13110225f80f9f3709b","session_id":"6196c706b4a6f35facae746b","condition":"full-information","relevant_dimensions":["wings","pattern"],"bee_group":{"antennae":"X","wings":"1","pattern":"S","legs":"X"},"action":"avoid","summary":"good-avoid","bonus":1.9200000000000013},{"rt":1368,"stimulus":"\n                    <p><b>Action: <em>avoid</em></b></p>\n                    <p>This is the bee that you just saw.</p>\n                    <img src=\"bees-with-color/bee-B1SM.svg\" width=\"200\">\n                    <p><span class=\"greenText\">Good choice!</span>  This bee would have stung you.<br>Your bonus pay is unchanged, and remains at $0.84.</p>\n            ","response":0,"trial_type":"html-button-response","trial_index":60,"time_elapsed":573881,"internal_node_id":"0.0-4.0-1.24","subject_id":"5be59ce3520a3300010e28a9","study_id":"60edd13110225f80f9f3709b","session_id":"6196c706b4a6f35facae746b","condition":"full-information","relevant_dimensions":["wings","pattern"],"bee_group":{"antennae":"X","wings":"1","pattern":"S","legs":"X"},"bonus":1.9200000000000013},{"rt":3896.39999999851,"stimulus":"bees-with-color/bee-A1SF.svg","response":1,"trial_type":"image-button-response","trial_index":61,"time_elapsed":577779,"internal_node_id":"0.0-4.0-0.25","subject_id":"5be59ce3520a3300010e28a9","study_id":"60edd13110225f80f9f3709b","session_id":"6196c706b4a6f35facae746b","condition":"full-information","relevant_dimensions":["wings","pattern"],"bee_group":{"antennae":"X","wings":"1","pattern":"S","legs":"X"},"action":"avoid","summary":"good-avoid","bonus":1.9200000000000013},{"rt":950.6000000014901,"stimulus":"\n                    <p><b>Action: <em>avoid</em></b></p>\n                    <p>This is the bee that you just saw.</p>\n                    <img src=\"bees-with-color/bee-A1SF.svg\" width=\"200\">\n                    <p><span class=\"greenText\">Good choice!</span>  This bee would have stung you.<br>Your bonus pay is unchanged, and remains at $0.84.</p>\n            ","response":0,"trial_type":"html-button-response","trial_index":62,"time_elapsed":578732,"internal_node_id":"0.0-4.0-1.25","subject_id":"5be59ce3520a3300010e28a9","study_id":"60edd13110225f80f9f3709b","session_id":"6196c706b4a6f35facae746b","condition":"full-information","relevant_dimensions":["wings","pattern"],"bee_group":{"antennae":"X","wings":"1","pattern":"S","legs":"X"},"bonus":1.9200000000000013},{"rt":1258.7000000029802,"stimulus":"bees-with-color/bee-B2SF.svg","response":0,"trial_type":"image-button-response","trial_index":63,"time_elapsed":579992,"internal_node_id":"0.0-4.0-0.26","subject_id":"5be59ce3520a3300010e28a9","study_id":"60edd13110225f80f9f3709b","session_id":"6196c706b4a6f35facae746b","condition":"full-information","relevant_dimensions":["wings","pattern"],"bee_group":{"antennae":"X","wings":"1","pattern":"S","legs":"X"},"action":"harvest","summary":"good-harvest","bonus":1.9200000000000013},{"rt":875.7000000029802,"stimulus":"\n                    <p><b>Action: <em>harvest</em></b></p>\n                    <p>This is the bee that you just saw.</p>\n                    <img src=\"bees-with-color/bee-B2SF.svg\" width=\"200\">\n                    <p><span class=\"greenText\"><b>Successful harvest!</b></span><br>Your pay has increased by $0.02. Your bonus pay is now $0.86.</p>\n            ","response":0,"trial_type":"html-button-response","trial_index":64,"time_elapsed":580870,"internal_node_id":"0.0-4.0-1.26","subject_id":"5be59ce3520a3300010e28a9","study_id":"60edd13110225f80f9f3709b","session_id":"6196c706b4a6f35facae746b","condition":"full-information","relevant_dimensions":["wings","pattern"],"bee_group":{"antennae":"X","wings":"1","pattern":"S","legs":"X"},"bonus":1.9200000000000013},{"rt":1293.8000000044703,"stimulus":"bees-with-color/bee-A2DM.svg","response":0,"trial_type":"image-button-response","trial_index":65,"time_elapsed":582165,"internal_node_id":"0.0-4.0-0.27","subject_id":"5be59ce3520a3300010e28a9","study_id":"60edd13110225f80f9f3709b","session_id":"6196c706b4a6f35facae746b","condition":"full-information","relevant_dimensions":["wings","pattern"],"bee_group":{"antennae":"X","wings":"1","pattern":"S","legs":"X"},"action":"harvest","summary":"good-harvest","bonus":1.9200000000000013},{"rt":2190.1999999955297,"stimulus":"\n                    <p><b>Action: <em>harvest</em></b></p>\n                    <p>This is the bee that you just saw.</p>\n                    <img src=\"bees-with-color/bee-A2DM.svg\" width=\"200\">\n                    <p><span class=\"greenText\"><b>Successful harvest!</b></span><br>Your pay has increased by $0.02. Your bonus pay is now $0.88.</p>\n            ","response":0,"trial_type":"html-button-response","trial_index":66,"time_elapsed":584356,"internal_node_id":"0.0-4.0-1.27","subject_id":"5be59ce3520a3300010e28a9","study_id":"60edd13110225f80f9f3709b","session_id":"6196c706b4a6f35facae746b","condition":"full-information","relevant_dimensions":["wings","pattern"],"bee_group":{"antennae":"X","wings":"1","pattern":"S","legs":"X"},"bonus":1.9200000000000013},{"rt":3109.2000000029802,"stimulus":"bees-with-color/bee-B1DF.svg","response":0,"trial_type":"image-button-response","trial_index":67,"time_elapsed":587467,"internal_node_id":"0.0-4.0-0.28","subject_id":"5be59ce3520a3300010e28a9","study_id":"60edd13110225f80f9f3709b","session_id":"6196c706b4a6f35facae746b","condition":"full-information","relevant_dimensions":["wings","pattern"],"bee_group":{"antennae":"X","wings":"1","pattern":"S","legs":"X"},"action":"harvest","summary":"good-harvest","bonus":1.9200000000000013},{"rt":869.2999999970198,"stimulus":"\n                    <p><b>Action: <em>harvest</em></b></p>\n                    <p>This is the bee that you just saw.</p>\n                    <img src=\"bees-with-color/bee-B1DF.svg\" width=\"200\">\n                    <p><span class=\"greenText\"><b>Successful harvest!</b></span><br>Your pay has increased by $0.02. Your bonus pay is now $0.90.</p>\n            ","response":0,"trial_type":"html-button-response","trial_index":68,"time_elapsed":588337,"internal_node_id":"0.0-4.0-1.28","subject_id":"5be59ce3520a3300010e28a9","study_id":"60edd13110225f80f9f3709b","session_id":"6196c706b4a6f35facae746b","condition":"full-information","relevant_dimensions":["wings","pattern"],"bee_group":{"antennae":"X","wings":"1","pattern":"S","legs":"X"},"bonus":1.9200000000000013},{"rt":1299.8000000044703,"stimulus":"bees-with-color/bee-B2DF.svg","response":0,"trial_type":"image-button-response","trial_index":69,"time_elapsed":589639,"internal_node_id":"0.0-4.0-0.29","subject_id":"5be59ce3520a3300010e28a9","study_id":"60edd13110225f80f9f3709b","session_id":"6196c706b4a6f35facae746b","condition":"full-information","relevant_dimensions":["wings","pattern"],"bee_group":{"antennae":"X","wings":"1","pattern":"S","legs":"X"},"action":"harvest","summary":"good-harvest","bonus":1.9200000000000013},{"rt":656.1000000014901,"stimulus":"\n                    <p><b>Action: <em>harvest</em></b></p>\n                    <p>This is the bee that you just saw.</p>\n                    <img src=\"bees-with-color/bee-B2DF.svg\" width=\"200\">\n                    <p><span class=\"greenText\"><b>Successful harvest!</b></span><br>Your pay has increased by $0.02. Your bonus pay is now $0.92.</p>\n            ","response":0,"trial_type":"html-button-response","trial_index":70,"time_elapsed":590296,"internal_node_id":"0.0-4.0-1.29","subject_id":"5be59ce3520a3300010e28a9","study_id":"60edd13110225f80f9f3709b","session_id":"6196c706b4a6f35facae746b","condition":"full-information","relevant_dimensions":["wings","pattern"],"bee_group":{"antennae":"X","wings":"1","pattern":"S","legs":"X"},"bonus":1.9200000000000013},{"rt":2013.2000000029802,"stimulus":"bees-with-color/bee-B2SM.svg","response":0,"trial_type":"image-button-response","trial_index":71,"time_elapsed":592311,"internal_node_id":"0.0-4.0-0.30","subject_id":"5be59ce3520a3300010e28a9","study_id":"60edd13110225f80f9f3709b","session_id":"6196c706b4a6f35facae746b","condition":"full-information","relevant_dimensions":["wings","pattern"],"bee_group":{"antennae":"X","wings":"1","pattern":"S","legs":"X"},"action":"harvest","summary":"good-harvest","bonus":1.9200000000000013},{"rt":792.7000000029802,"stimulus":"\n                    <p><b>Action: <em>harvest</em></b></p>\n                    <p>This is the bee that you just saw.</p>\n                    <img src=\"bees-with-color/bee-B2SM.svg\" width=\"200\">\n                    <p><span class=\"greenText\"><b>Successful harvest!</b></span><br>Your pay has increased by $0.02. Your bonus pay is now $0.94.</p>\n            ","response":0,"trial_type":"html-button-response","trial_index":72,"time_elapsed":593106,"internal_node_id":"0.0-4.0-1.30","subject_id":"5be59ce3520a3300010e28a9","study_id":"60edd13110225f80f9f3709b","session_id":"6196c706b4a6f35facae746b","condition":"full-information","relevant_dimensions":["wings","pattern"],"bee_group":{"antennae":"X","wings":"1","pattern":"S","legs":"X"},"bonus":1.9200000000000013},{"rt":2142.89999999851,"stimulus":"bees-with-color/bee-B1DM.svg","response":0,"trial_type":"image-button-response","trial_index":73,"time_elapsed":595250,"internal_node_id":"0.0-4.0-0.31","subject_id":"5be59ce3520a3300010e28a9","study_id":"60edd13110225f80f9f3709b","session_id":"6196c706b4a6f35facae746b","condition":"full-information","relevant_dimensions":["wings","pattern"],"bee_group":{"antennae":"X","wings":"1","pattern":"S","legs":"X"},"action":"harvest","summary":"good-harvest","bonus":1.9200000000000013},{"rt":628.5,"stimulus":"\n                    <p><b>Action: <em>harvest</em></b></p>\n                    <p>This is the bee that you just saw.</p>\n                    <img src=\"bees-with-color/bee-B1DM.svg\" width=\"200\">\n                    <p><span class=\"greenText\"><b>Successful harvest!</b></span><br>Your pay has increased by $0.02. Your bonus pay is now $0.96.</p>\n            ","response":0,"trial_type":"html-button-response","trial_index":74,"time_elapsed":595880,"internal_node_id":"0.0-4.0-1.31","subject_id":"5be59ce3520a3300010e28a9","study_id":"60edd13110225f80f9f3709b","session_id":"6196c706b4a6f35facae746b","condition":"full-information","relevant_dimensions":["wings","pattern"],"bee_group":{"antennae":"X","wings":"1","pattern":"S","legs":"X"},"bonus":1.9200000000000013},{"rt":1170.5,"stimulus":"bees-with-color/bee-A1SF.svg","response":1,"trial_type":"image-button-response","trial_index":75,"time_elapsed":597052,"internal_node_id":"0.0-4.0-0.32","subject_id":"5be59ce3520a3300010e28a9","study_id":"60edd13110225f80f9f3709b","session_id":"6196c706b4a6f35facae746b","condition":"full-information","relevant_dimensions":["wings","pattern"],"bee_group":{"antennae":"X","wings":"1","pattern":"S","legs":"X"},"action":"avoid","summary":"good-avoid","bonus":1.9200000000000013},{"rt":1108.5,"stimulus":"\n                    <p><b>Action: <em>avoid</em></b></p>\n                    <p>This is the bee that you just saw.</p>\n                    <img src=\"bees-with-color/bee-A1SF.svg\" width=\"200\">\n                    <p><span class=\"greenText\">Good choice!</span>  This bee would have stung you.<br>Your bonus pay is unchanged, and remains at $0.96.</p>\n            ","response":0,"trial_type":"html-button-response","trial_index":76,"time_elapsed":598162,"internal_node_id":"0.0-4.0-1.32","subject_id":"5be59ce3520a3300010e28a9","study_id":"60edd13110225f80f9f3709b","session_id":"6196c706b4a6f35facae746b","condition":"full-information","relevant_dimensions":["wings","pattern"],"bee_group":{"antennae":"X","wings":"1","pattern":"S","legs":"X"},"bonus":1.9200000000000013},{"rt":2142.8000000044703,"stimulus":"bees-with-color/bee-A1SM.svg","response":1,"trial_type":"image-button-response","trial_index":77,"time_elapsed":600306,"internal_node_id":"0.0-4.0-0.33","subject_id":"5be59ce3520a3300010e28a9","study_id":"60edd13110225f80f9f3709b","session_id":"6196c706b4a6f35facae746b","condition":"full-information","relevant_dimensions":["wings","pattern"],"bee_group":{"antennae":"X","wings":"1","pattern":"S","legs":"X"},"action":"avoid","summary":"good-avoid","bonus":1.9200000000000013},{"rt":855.3000000044703,"stimulus":"\n                    <p><b>Action: <em>avoid</em></b></p>\n                    <p>This is the bee that you just saw.</p>\n                    <img src=\"bees-with-color/bee-A1SM.svg\" width=\"200\">\n                    <p><span class=\"greenText\">Good choice!</span>  This bee would have stung you.<br>Your bonus pay is unchanged, and remains at $0.96.</p>\n            ","response":0,"trial_type":"html-button-response","trial_index":78,"time_elapsed":601163,"internal_node_id":"0.0-4.0-1.33","subject_id":"5be59ce3520a3300010e28a9","study_id":"60edd13110225f80f9f3709b","session_id":"6196c706b4a6f35facae746b","condition":"full-information","relevant_dimensions":["wings","pattern"],"bee_group":{"antennae":"X","wings":"1","pattern":"S","legs":"X"},"bonus":1.9200000000000013},{"rt":2855.5999999940395,"stimulus":"bees-with-color/bee-B2SF.svg","response":0,"trial_type":"image-button-response","trial_index":79,"time_elapsed":604020,"internal_node_id":"0.0-4.0-0.34","subject_id":"5be59ce3520a3300010e28a9","study_id":"60edd13110225f80f9f3709b","session_id":"6196c706b4a6f35facae746b","condition":"full-information","relevant_dimensions":["wings","pattern"],"bee_group":{"antennae":"X","wings":"1","pattern":"S","legs":"X"},"action":"harvest","summary":"good-harvest","bonus":1.9200000000000013},{"rt":670.3000000044703,"stimulus":"\n                    <p><b>Action: <em>harvest</em></b></p>\n                    <p>This is the bee that you just saw.</p>\n                    <img src=\"bees-with-color/bee-B2SF.svg\" width=\"200\">\n                    <p><span class=\"greenText\"><b>Successful harvest!</b></span><br>Your pay has increased by $0.02. Your bonus pay is now $0.98.</p>\n            ","response":0,"trial_type":"html-button-response","trial_index":80,"time_elapsed":604692,"internal_node_id":"0.0-4.0-1.34","subject_id":"5be59ce3520a3300010e28a9","study_id":"60edd13110225f80f9f3709b","session_id":"6196c706b4a6f35facae746b","condition":"full-information","relevant_dimensions":["wings","pattern"],"bee_group":{"antennae":"X","wings":"1","pattern":"S","legs":"X"},"bonus":1.9200000000000013},{"rt":1581.3000000044703,"stimulus":"bees-with-color/bee-B2DF.svg","response":0,"trial_type":"image-button-response","trial_index":81,"time_elapsed":606275,"internal_node_id":"0.0-4.0-0.35","subject_id":"5be59ce3520a3300010e28a9","study_id":"60edd13110225f80f9f3709b","session_id":"6196c706b4a6f35facae746b","condition":"full-information","relevant_dimensions":["wings","pattern"],"bee_group":{"antennae":"X","wings":"1","pattern":"S","legs":"X"},"action":"harvest","summary":"good-harvest","bonus":1.9200000000000013},{"rt":656.2999999970198,"stimulus":"\n                    <p><b>Action: <em>harvest</em></b></p>\n                    <p>This is the bee that you just saw.</p>\n                    <img src=\"bees-with-color/bee-B2DF.svg\" width=\"200\">\n                    <p><span class=\"greenText\"><b>Successful harvest!</b></span><br>Your pay has increased by $0.02. Your bonus pay is now $1.00.</p>\n            ","response":0,"trial_type":"html-button-response","trial_index":82,"time_elapsed":606933,"internal_node_id":"0.0-4.0-1.35","subject_id":"5be59ce3520a3300010e28a9","study_id":"60edd13110225f80f9f3709b","session_id":"6196c706b4a6f35facae746b","condition":"full-information","relevant_dimensions":["wings","pattern"],"bee_group":{"antennae":"X","wings":"1","pattern":"S","legs":"X"},"bonus":1.9200000000000013},{"rt":1633.7999999970198,"stimulus":"bees-with-color/bee-A2SM.svg","response":0,"trial_type":"image-button-response","trial_index":83,"time_elapsed":608570,"internal_node_id":"0.0-4.0-0.36","subject_id":"5be59ce3520a3300010e28a9","study_id":"60edd13110225f80f9f3709b","session_id":"6196c706b4a6f35facae746b","condition":"full-information","relevant_dimensions":["wings","pattern"],"bee_group":{"antennae":"X","wings":"1","pattern":"S","legs":"X"},"action":"harvest","summary":"good-harvest","bonus":1.9200000000000013},{"rt":642.1000000014901,"stimulus":"\n                    <p><b>Action: <em>harvest</em></b></p>\n                    <p>This is the bee that you just saw.</p>\n                    <img src=\"bees-with-color/bee-A2SM.svg\" width=\"200\">\n                    <p><span class=\"greenText\"><b>Successful harvest!</b></span><br>Your pay has increased by $0.02. Your bonus pay is now $1.02.</p>\n            ","response":0,"trial_type":"html-button-response","trial_index":84,"time_elapsed":609214,"internal_node_id":"0.0-4.0-1.36","subject_id":"5be59ce3520a3300010e28a9","study_id":"60edd13110225f80f9f3709b","session_id":"6196c706b4a6f35facae746b","condition":"full-information","relevant_dimensions":["wings","pattern"],"bee_group":{"antennae":"X","wings":"1","pattern":"S","legs":"X"},"bonus":1.9200000000000013},{"rt":1923.3000000044703,"stimulus":"bees-with-color/bee-A1DF.svg","response":0,"trial_type":"image-button-response","trial_index":85,"time_elapsed":611139,"internal_node_id":"0.0-4.0-0.37","subject_id":"5be59ce3520a3300010e28a9","study_id":"60edd13110225f80f9f3709b","session_id":"6196c706b4a6f35facae746b","condition":"full-information","relevant_dimensions":["wings","pattern"],"bee_group":{"antennae":"X","wings":"1","pattern":"S","legs":"X"},"action":"harvest","summary":"good-harvest","bonus":1.9200000000000013},{"rt":731,"stimulus":"\n                    <p><b>Action: <em>harvest</em></b></p>\n                    <p>This is the bee that you just saw.</p>\n                    <img src=\"bees-with-color/bee-A1DF.svg\" width=\"200\">\n                    <p><span class=\"greenText\"><b>Successful harvest!</b></span><br>Your pay has increased by $0.02. Your bonus pay is now $1.04.</p>\n            ","response":0,"trial_type":"html-button-response","trial_index":86,"time_elapsed":611872,"internal_node_id":"0.0-4.0-1.37","subject_id":"5be59ce3520a3300010e28a9","study_id":"60edd13110225f80f9f3709b","session_id":"6196c706b4a6f35facae746b","condition":"full-information","relevant_dimensions":["wings","pattern"],"bee_group":{"antennae":"X","wings":"1","pattern":"S","legs":"X"},"bonus":1.9200000000000013},{"rt":9198.5,"stimulus":"bees-with-color/bee-B2SM.svg","response":0,"trial_type":"image-button-response","trial_index":87,"time_elapsed":621072,"internal_node_id":"0.0-4.0-0.38","subject_id":"5be59ce3520a3300010e28a9","study_id":"60edd13110225f80f9f3709b","session_id":"6196c706b4a6f35facae746b","condition":"full-information","relevant_dimensions":["wings","pattern"],"bee_group":{"antennae":"X","wings":"1","pattern":"S","legs":"X"},"action":"harvest","summary":"good-harvest","bonus":1.9200000000000013},{"rt":676.2999999970198,"stimulus":"\n                    <p><b>Action: <em>harvest</em></b></p>\n                    <p>This is the bee that you just saw.</p>\n                    <img src=\"bees-with-color/bee-B2SM.svg\" width=\"200\">\n                    <p><span class=\"greenText\"><b>Successful harvest!</b></span><br>Your pay has increased by $0.02. Your bonus pay is now $1.06.</p>\n            ","response":0,"trial_type":"html-button-response","trial_index":88,"time_elapsed":621750,"internal_node_id":"0.0-4.0-1.38","subject_id":"5be59ce3520a3300010e28a9","study_id":"60edd13110225f80f9f3709b","session_id":"6196c706b4a6f35facae746b","condition":"full-information","relevant_dimensions":["wings","pattern"],"bee_group":{"antennae":"X","wings":"1","pattern":"S","legs":"X"},"bonus":1.9200000000000013},{"rt":984.1999999955297,"stimulus":"bees-with-color/bee-B2DM.svg","response":0,"trial_type":"image-button-response","trial_index":89,"time_elapsed":622736,"internal_node_id":"0.0-4.0-0.39","subject_id":"5be59ce3520a3300010e28a9","study_id":"60edd13110225f80f9f3709b","session_id":"6196c706b4a6f35facae746b","condition":"full-information","relevant_dimensions":["wings","pattern"],"bee_group":{"antennae":"X","wings":"1","pattern":"S","legs":"X"},"action":"harvest","summary":"good-harvest","bonus":1.9200000000000013},{"rt":922.6000000014901,"stimulus":"\n                    <p><b>Action: <em>harvest</em></b></p>\n                    <p>This is the bee that you just saw.</p>\n                    <img src=\"bees-with-color/bee-B2DM.svg\" width=\"200\">\n                    <p><span class=\"greenText\"><b>Successful harvest!</b></span><br>Your pay has increased by $0.02. Your bonus pay is now $1.08.</p>\n            ","response":0,"trial_type":"html-button-response","trial_index":90,"time_elapsed":623661,"internal_node_id":"0.0-4.0-1.39","subject_id":"5be59ce3520a3300010e28a9","study_id":"60edd13110225f80f9f3709b","session_id":"6196c706b4a6f35facae746b","condition":"full-information","relevant_dimensions":["wings","pattern"],"bee_group":{"antennae":"X","wings":"1","pattern":"S","legs":"X"},"bonus":1.9200000000000013},{"rt":1368.8000000044703,"stimulus":"bees-with-color/bee-A2DF.svg","response":0,"trial_type":"image-button-response","trial_index":91,"time_elapsed":625031,"internal_node_id":"0.0-4.0-0.40","subject_id":"5be59ce3520a3300010e28a9","study_id":"60edd13110225f80f9f3709b","session_id":"6196c706b4a6f35facae746b","condition":"full-information","relevant_dimensions":["wings","pattern"],"bee_group":{"antennae":"X","wings":"1","pattern":"S","legs":"X"},"action":"harvest","summary":"good-harvest","bonus":1.9200000000000013},{"rt":622,"stimulus":"\n                    <p><b>Action: <em>harvest</em></b></p>\n                    <p>This is the bee that you just saw.</p>\n                    <img src=\"bees-with-color/bee-A2DF.svg\" width=\"200\">\n                    <p><span class=\"greenText\"><b>Successful harvest!</b></span><br>Your pay has increased by $0.02. Your bonus pay is now $1.10.</p>\n            ","response":0,"trial_type":"html-button-response","trial_index":92,"time_elapsed":625655,"internal_node_id":"0.0-4.0-1.40","subject_id":"5be59ce3520a3300010e28a9","study_id":"60edd13110225f80f9f3709b","session_id":"6196c706b4a6f35facae746b","condition":"full-information","relevant_dimensions":["wings","pattern"],"bee_group":{"antennae":"X","wings":"1","pattern":"S","legs":"X"},"bonus":1.9200000000000013},{"rt":1060.2000000029802,"stimulus":"bees-with-color/bee-A2SF.svg","response":0,"trial_type":"image-button-response","trial_index":93,"time_elapsed":626716,"internal_node_id":"0.0-4.0-0.41","subject_id":"5be59ce3520a3300010e28a9","study_id":"60edd13110225f80f9f3709b","session_id":"6196c706b4a6f35facae746b","condition":"full-information","relevant_dimensions":["wings","pattern"],"bee_group":{"antennae":"X","wings":"1","pattern":"S","legs":"X"},"action":"harvest","summary":"good-harvest","bonus":1.9200000000000013},{"rt":567.5,"stimulus":"\n                    <p><b>Action: <em>harvest</em></b></p>\n                    <p>This is the bee that you just saw.</p>\n                    <img src=\"bees-with-color/bee-A2SF.svg\" width=\"200\">\n                    <p><span class=\"greenText\"><b>Successful harvest!</b></span><br>Your pay has increased by $0.02. Your bonus pay is now $1.12.</p>\n            ","response":0,"trial_type":"html-button-response","trial_index":94,"time_elapsed":627286,"internal_node_id":"0.0-4.0-1.41","subject_id":"5be59ce3520a3300010e28a9","study_id":"60edd13110225f80f9f3709b","session_id":"6196c706b4a6f35facae746b","condition":"full-information","relevant_dimensions":["wings","pattern"],"bee_group":{"antennae":"X","wings":"1","pattern":"S","legs":"X"},"bonus":1.9200000000000013},{"rt":2422.2000000029802,"stimulus":"bees-with-color/bee-B1SM.svg","response":1,"trial_type":"image-button-response","trial_index":95,"time_elapsed":629710,"internal_node_id":"0.0-4.0-0.42","subject_id":"5be59ce3520a3300010e28a9","study_id":"60edd13110225f80f9f3709b","session_id":"6196c706b4a6f35facae746b","condition":"full-information","relevant_dimensions":["wings","pattern"],"bee_group":{"antennae":"X","wings":"1","pattern":"S","legs":"X"},"action":"avoid","summary":"good-avoid","bonus":1.9200000000000013},{"rt":848.7000000029802,"stimulus":"\n                    <p><b>Action: <em>avoid</em></b></p>\n                    <p>This is the bee that you just saw.</p>\n                    <img src=\"bees-with-color/bee-B1SM.svg\" width=\"200\">\n                    <p><span class=\"greenText\">Good choice!</span>  This bee would have stung you.<br>Your bonus pay is unchanged, and remains at $1.12.</p>\n            ","response":0,"trial_type":"html-button-response","trial_index":96,"time_elapsed":630560,"internal_node_id":"0.0-4.0-1.42","subject_id":"5be59ce3520a3300010e28a9","study_id":"60edd13110225f80f9f3709b","session_id":"6196c706b4a6f35facae746b","condition":"full-information","relevant_dimensions":["wings","pattern"],"bee_group":{"antennae":"X","wings":"1","pattern":"S","legs":"X"},"bonus":1.9200000000000013},{"rt":6538.5999999940395,"stimulus":"bees-with-color/bee-B1DF.svg","response":0,"trial_type":"image-button-response","trial_index":97,"time_elapsed":637100,"internal_node_id":"0.0-4.0-0.43","subject_id":"5be59ce3520a3300010e28a9","study_id":"60edd13110225f80f9f3709b","session_id":"6196c706b4a6f35facae746b","condition":"full-information","relevant_dimensions":["wings","pattern"],"bee_group":{"antennae":"X","wings":"1","pattern":"S","legs":"X"},"action":"harvest","summary":"good-harvest","bonus":1.9200000000000013},{"rt":608.6000000014901,"stimulus":"\n                    <p><b>Action: <em>harvest</em></b></p>\n                    <p>This is the bee that you just saw.</p>\n                    <img src=\"bees-with-color/bee-B1DF.svg\" width=\"200\">\n                    <p><span class=\"greenText\"><b>Successful harvest!</b></span><br>Your pay has increased by $0.02. Your bonus pay is now $1.14.</p>\n            ","response":0,"trial_type":"html-button-response","trial_index":98,"time_elapsed":637710,"internal_node_id":"0.0-4.0-1.43","subject_id":"5be59ce3520a3300010e28a9","study_id":"60edd13110225f80f9f3709b","session_id":"6196c706b4a6f35facae746b","condition":"full-information","relevant_dimensions":["wings","pattern"],"bee_group":{"antennae":"X","wings":"1","pattern":"S","legs":"X"},"bonus":1.9200000000000013},{"rt":1956.9000000059605,"stimulus":"bees-with-color/bee-B1DM.svg","response":0,"trial_type":"image-button-response","trial_index":99,"time_elapsed":639669,"internal_node_id":"0.0-4.0-0.44","subject_id":"5be59ce3520a3300010e28a9","study_id":"60edd13110225f80f9f3709b","session_id":"6196c706b4a6f35facae746b","condition":"full-information","relevant_dimensions":["wings","pattern"],"bee_group":{"antennae":"X","wings":"1","pattern":"S","legs":"X"},"action":"harvest","summary":"good-harvest","bonus":1.9200000000000013},{"rt":800.4000000059605,"stimulus":"\n                    <p><b>Action: <em>harvest</em></b></p>\n                    <p>This is the bee that you just saw.</p>\n                    <img src=\"bees-with-color/bee-B1DM.svg\" width=\"200\">\n                    <p><span class=\"greenText\"><b>Successful harvest!</b></span><br>Your pay has increased by $0.02. Your bonus pay is now $1.16.</p>\n            ","response":0,"trial_type":"html-button-response","trial_index":100,"time_elapsed":640471,"internal_node_id":"0.0-4.0-1.44","subject_id":"5be59ce3520a3300010e28a9","study_id":"60edd13110225f80f9f3709b","session_id":"6196c706b4a6f35facae746b","condition":"full-information","relevant_dimensions":["wings","pattern"],"bee_group":{"antennae":"X","wings":"1","pattern":"S","legs":"X"},"bonus":1.9200000000000013},{"rt":2634.89999999851,"stimulus":"bees-with-color/bee-A1DM.svg","response":0,"trial_type":"image-button-response","trial_index":101,"time_elapsed":643107,"internal_node_id":"0.0-4.0-0.45","subject_id":"5be59ce3520a3300010e28a9","study_id":"60edd13110225f80f9f3709b","session_id":"6196c706b4a6f35facae746b","condition":"full-information","relevant_dimensions":["wings","pattern"],"bee_group":{"antennae":"X","wings":"1","pattern":"S","legs":"X"},"action":"harvest","summary":"good-harvest","bonus":1.9200000000000013},{"rt":2738.10000000149,"stimulus":"\n                    <p><b>Action: <em>harvest</em></b></p>\n                    <p>This is the bee that you just saw.</p>\n                    <img src=\"bees-with-color/bee-A1DM.svg\" width=\"200\">\n                    <p><span class=\"greenText\"><b>Successful harvest!</b></span><br>Your pay has increased by $0.02. Your bonus pay is now $1.18.</p>\n            ","response":0,"trial_type":"html-button-response","trial_index":102,"time_elapsed":645847,"internal_node_id":"0.0-4.0-1.45","subject_id":"5be59ce3520a3300010e28a9","study_id":"60edd13110225f80f9f3709b","session_id":"6196c706b4a6f35facae746b","condition":"full-information","relevant_dimensions":["wings","pattern"],"bee_group":{"antennae":"X","wings":"1","pattern":"S","legs":"X"},"bonus":1.9200000000000013},{"rt":1807.7000000029802,"stimulus":"bees-with-color/bee-B1SF.svg","response":1,"trial_type":"image-button-response","trial_index":103,"time_elapsed":647656,"internal_node_id":"0.0-4.0-0.46","subject_id":"5be59ce3520a3300010e28a9","study_id":"60edd13110225f80f9f3709b","session_id":"6196c706b4a6f35facae746b","condition":"full-information","relevant_dimensions":["wings","pattern"],"bee_group":{"antennae":"X","wings":"1","pattern":"S","legs":"X"},"action":"avoid","summary":"good-avoid","bonus":1.9200000000000013},{"rt":820.0999999940395,"stimulus":"\n                    <p><b>Action: <em>avoid</em></b></p>\n                    <p>This is the bee that you just saw.</p>\n                    <img src=\"bees-with-color/bee-B1SF.svg\" width=\"200\">\n                    <p><span class=\"greenText\">Good choice!</span>  This bee would have stung you.<br>Your bonus pay is unchanged, and remains at $1.18.</p>\n            ","response":0,"trial_type":"html-button-response","trial_index":104,"time_elapsed":648477,"internal_node_id":"0.0-4.0-1.46","subject_id":"5be59ce3520a3300010e28a9","study_id":"60edd13110225f80f9f3709b","session_id":"6196c706b4a6f35facae746b","condition":"full-information","relevant_dimensions":["wings","pattern"],"bee_group":{"antennae":"X","wings":"1","pattern":"S","legs":"X"},"bonus":1.9200000000000013},{"rt":1608.1999999955297,"stimulus":"bees-with-color/bee-A2DM.svg","response":0,"trial_type":"image-button-response","trial_index":105,"time_elapsed":650087,"internal_node_id":"0.0-4.0-0.47","subject_id":"5be59ce3520a3300010e28a9","study_id":"60edd13110225f80f9f3709b","session_id":"6196c706b4a6f35facae746b","condition":"full-information","relevant_dimensions":["wings","pattern"],"bee_group":{"antennae":"X","wings":"1","pattern":"S","legs":"X"},"action":"harvest","summary":"good-harvest","bonus":1.9200000000000013},{"rt":1505.8999999985099,"stimulus":"\n                    <p><b>Action: <em>harvest</em></b></p>\n                    <p>This is the bee that you just saw.</p>\n                    <img src=\"bees-with-color/bee-A2DM.svg\" width=\"200\">\n                    <p><span class=\"greenText\"><b>Successful harvest!</b></span><br>Your pay has increased by $0.02. Your bonus pay is now $1.20.</p>\n            ","response":0,"trial_type":"html-button-response","trial_index":106,"time_elapsed":651594,"internal_node_id":"0.0-4.0-1.47","subject_id":"5be59ce3520a3300010e28a9","study_id":"60edd13110225f80f9f3709b","session_id":"6196c706b4a6f35facae746b","condition":"full-information","relevant_dimensions":["wings","pattern"],"bee_group":{"antennae":"X","wings":"1","pattern":"S","legs":"X"},"bonus":1.9200000000000013},{"rt":1675.7000000029802,"stimulus":"bees-with-color/bee-B1SM.svg","response":1,"trial_type":"image-button-response","trial_index":107,"time_elapsed":653271,"internal_node_id":"0.0-4.0-0.48","subject_id":"5be59ce3520a3300010e28a9","study_id":"60edd13110225f80f9f3709b","session_id":"6196c706b4a6f35facae746b","condition":"full-information","relevant_dimensions":["wings","pattern"],"bee_group":{"antennae":"X","wings":"1","pattern":"S","legs":"X"},"action":"avoid","summary":"good-avoid","bonus":1.9200000000000013},{"rt":745.3999999985099,"stimulus":"\n                    <p><b>Action: <em>avoid</em></b></p>\n                    <p>This is the bee that you just saw.</p>\n                    <img src=\"bees-with-color/bee-B1SM.svg\" width=\"200\">\n                    <p><span class=\"greenText\">Good choice!</span>  This bee would have stung you.<br>Your bonus pay is unchanged, and remains at $1.20.</p>\n            ","response":0,"trial_type":"html-button-response","trial_index":108,"time_elapsed":654018,"internal_node_id":"0.0-4.0-1.48","subject_id":"5be59ce3520a3300010e28a9","study_id":"60edd13110225f80f9f3709b","session_id":"6196c706b4a6f35facae746b","condition":"full-information","relevant_dimensions":["wings","pattern"],"bee_group":{"antennae":"X","wings":"1","pattern":"S","legs":"X"},"bonus":1.9200000000000013},{"rt":1902.5,"stimulus":"bees-with-color/bee-B2SF.svg","response":0,"trial_type":"image-button-response","trial_index":109,"time_elapsed":655923,"internal_node_id":"0.0-4.0-0.49","subject_id":"5be59ce3520a3300010e28a9","study_id":"60edd13110225f80f9f3709b","session_id":"6196c706b4a6f35facae746b","condition":"full-information","relevant_dimensions":["wings","pattern"],"bee_group":{"antennae":"X","wings":"1","pattern":"S","legs":"X"},"action":"harvest","summary":"good-harvest","bonus":1.9200000000000013},{"rt":642,"stimulus":"\n                    <p><b>Action: <em>harvest</em></b></p>\n                    <p>This is the bee that you just saw.</p>\n                    <img src=\"bees-with-color/bee-B2SF.svg\" width=\"200\">\n                    <p><span class=\"greenText\"><b>Successful harvest!</b></span><br>Your pay has increased by $0.02. Your bonus pay is now $1.22.</p>\n            ","response":0,"trial_type":"html-button-response","trial_index":110,"time_elapsed":656566,"internal_node_id":"0.0-4.0-1.49","subject_id":"5be59ce3520a3300010e28a9","study_id":"60edd13110225f80f9f3709b","session_id":"6196c706b4a6f35facae746b","condition":"full-information","relevant_dimensions":["wings","pattern"],"bee_group":{"antennae":"X","wings":"1","pattern":"S","legs":"X"},"bonus":1.9200000000000013},{"rt":1669.8999999985099,"stimulus":"bees-with-color/bee-B1DM.svg","response":0,"trial_type":"image-button-response","trial_index":111,"time_elapsed":658238,"internal_node_id":"0.0-4.0-0.50","subject_id":"5be59ce3520a3300010e28a9","study_id":"60edd13110225f80f9f3709b","session_id":"6196c706b4a6f35facae746b","condition":"full-information","relevant_dimensions":["wings","pattern"],"bee_group":{"antennae":"X","wings":"1","pattern":"S","legs":"X"},"action":"harvest","summary":"good-harvest","bonus":1.9200000000000013},{"rt":991.6000000014901,"stimulus":"\n                    <p><b>Action: <em>harvest</em></b></p>\n                    <p>This is the bee that you just saw.</p>\n                    <img src=\"bees-with-color/bee-B1DM.svg\" width=\"200\">\n                    <p><span class=\"greenText\"><b>Successful harvest!</b></span><br>Your pay has increased by $0.02. Your bonus pay is now $1.24.</p>\n            ","response":0,"trial_type":"html-button-response","trial_index":112,"time_elapsed":659231,"internal_node_id":"0.0-4.0-1.50","subject_id":"5be59ce3520a3300010e28a9","study_id":"60edd13110225f80f9f3709b","session_id":"6196c706b4a6f35facae746b","condition":"full-information","relevant_dimensions":["wings","pattern"],"bee_group":{"antennae":"X","wings":"1","pattern":"S","legs":"X"},"bonus":1.9200000000000013},{"rt":2245.7000000029802,"stimulus":"bees-with-color/bee-A1DM.svg","response":0,"trial_type":"image-button-response","trial_index":113,"time_elapsed":661478,"internal_node_id":"0.0-4.0-0.51","subject_id":"5be59ce3520a3300010e28a9","study_id":"60edd13110225f80f9f3709b","session_id":"6196c706b4a6f35facae746b","condition":"full-information","relevant_dimensions":["wings","pattern"],"bee_group":{"antennae":"X","wings":"1","pattern":"S","legs":"X"},"action":"harvest","summary":"good-harvest","bonus":1.9200000000000013},{"rt":608.2999999970198,"stimulus":"\n                    <p><b>Action: <em>harvest</em></b></p>\n                    <p>This is the bee that you just saw.</p>\n                    <img src=\"bees-with-color/bee-A1DM.svg\" width=\"200\">\n                    <p><span class=\"greenText\"><b>Successful harvest!</b></span><br>Your pay has increased by $0.02. Your bonus pay is now $1.26.</p>\n            ","response":0,"trial_type":"html-button-response","trial_index":114,"time_elapsed":662088,"internal_node_id":"0.0-4.0-1.51","subject_id":"5be59ce3520a3300010e28a9","study_id":"60edd13110225f80f9f3709b","session_id":"6196c706b4a6f35facae746b","condition":"full-information","relevant_dimensions":["wings","pattern"],"bee_group":{"antennae":"X","wings":"1","pattern":"S","legs":"X"},"bonus":1.9200000000000013},{"rt":1676.6000000014901,"stimulus":"bees-with-color/bee-B1DF.svg","response":0,"trial_type":"image-button-response","trial_index":115,"time_elapsed":663766,"internal_node_id":"0.0-4.0-0.52","subject_id":"5be59ce3520a3300010e28a9","study_id":"60edd13110225f80f9f3709b","session_id":"6196c706b4a6f35facae746b","condition":"full-information","relevant_dimensions":["wings","pattern"],"bee_group":{"antennae":"X","wings":"1","pattern":"S","legs":"X"},"action":"harvest","summary":"good-harvest","bonus":1.9200000000000013},{"rt":668.3000000044703,"stimulus":"\n                    <p><b>Action: <em>harvest</em></b></p>\n                    <p>This is the bee that you just saw.</p>\n                    <img src=\"bees-with-color/bee-B1DF.svg\" width=\"200\">\n                    <p><span class=\"greenText\"><b>Successful harvest!</b></span><br>Your pay has increased by $0.02. Your bonus pay is now $1.28.</p>\n            ","response":0,"trial_type":"html-button-response","trial_index":116,"time_elapsed":664437,"internal_node_id":"0.0-4.0-1.52","subject_id":"5be59ce3520a3300010e28a9","study_id":"60edd13110225f80f9f3709b","session_id":"6196c706b4a6f35facae746b","condition":"full-information","relevant_dimensions":["wings","pattern"],"bee_group":{"antennae":"X","wings":"1","pattern":"S","legs":"X"},"bonus":1.9200000000000013},{"rt":1423,"stimulus":"bees-with-color/bee-A1DF.svg","response":0,"trial_type":"image-button-response","trial_index":117,"time_elapsed":665861,"internal_node_id":"0.0-4.0-0.53","subject_id":"5be59ce3520a3300010e28a9","study_id":"60edd13110225f80f9f3709b","session_id":"6196c706b4a6f35facae746b","condition":"full-information","relevant_dimensions":["wings","pattern"],"bee_group":{"antennae":"X","wings":"1","pattern":"S","legs":"X"},"action":"harvest","summary":"good-harvest","bonus":1.9200000000000013},{"rt":587.2000000029802,"stimulus":"\n                    <p><b>Action: <em>harvest</em></b></p>\n                    <p>This is the bee that you just saw.</p>\n                    <img src=\"bees-with-color/bee-A1DF.svg\" width=\"200\">\n                    <p><span class=\"greenText\"><b>Successful harvest!</b></span><br>Your pay has increased by $0.02. Your bonus pay is now $1.30.</p>\n            ","response":0,"trial_type":"html-button-response","trial_index":118,"time_elapsed":666450,"internal_node_id":"0.0-4.0-1.53","subject_id":"5be59ce3520a3300010e28a9","study_id":"60edd13110225f80f9f3709b","session_id":"6196c706b4a6f35facae746b","condition":"full-information","relevant_dimensions":["wings","pattern"],"bee_group":{"antennae":"X","wings":"1","pattern":"S","legs":"X"},"bonus":1.9200000000000013},{"rt":1361.3999999985099,"stimulus":"bees-with-color/bee-A2SM.svg","response":0,"trial_type":"image-button-response","trial_index":119,"time_elapsed":667813,"internal_node_id":"0.0-4.0-0.54","subject_id":"5be59ce3520a3300010e28a9","study_id":"60edd13110225f80f9f3709b","session_id":"6196c706b4a6f35facae746b","condition":"full-information","relevant_dimensions":["wings","pattern"],"bee_group":{"antennae":"X","wings":"1","pattern":"S","legs":"X"},"action":"harvest","summary":"good-harvest","bonus":1.9200000000000013},{"rt":600.6000000014901,"stimulus":"\n                    <p><b>Action: <em>harvest</em></b></p>\n                    <p>This is the bee that you just saw.</p>\n                    <img src=\"bees-with-color/bee-A2SM.svg\" width=\"200\">\n                    <p><span class=\"greenText\"><b>Successful harvest!</b></span><br>Your pay has increased by $0.02. Your bonus pay is now $1.32.</p>\n            ","response":0,"trial_type":"html-button-response","trial_index":120,"time_elapsed":668416,"internal_node_id":"0.0-4.0-1.54","subject_id":"5be59ce3520a3300010e28a9","study_id":"60edd13110225f80f9f3709b","session_id":"6196c706b4a6f35facae746b","condition":"full-information","relevant_dimensions":["wings","pattern"],"bee_group":{"antennae":"X","wings":"1","pattern":"S","legs":"X"},"bonus":1.9200000000000013},{"rt":1834.5,"stimulus":"bees-with-color/bee-A1SF.svg","response":1,"trial_type":"image-button-response","trial_index":121,"time_elapsed":670252,"internal_node_id":"0.0-4.0-0.55","subject_id":"5be59ce3520a3300010e28a9","study_id":"60edd13110225f80f9f3709b","session_id":"6196c706b4a6f35facae746b","condition":"full-information","relevant_dimensions":["wings","pattern"],"bee_group":{"antennae":"X","wings":"1","pattern":"S","legs":"X"},"action":"avoid","summary":"good-avoid","bonus":1.9200000000000013},{"rt":703.7999999970198,"stimulus":"\n                    <p><b>Action: <em>avoid</em></b></p>\n                    <p>This is the bee that you just saw.</p>\n                    <img src=\"bees-with-color/bee-A1SF.svg\" width=\"200\">\n                    <p><span class=\"greenText\">Good choice!</span>  This bee would have stung you.<br>Your bonus pay is unchanged, and remains at $1.32.</p>\n            ","response":0,"trial_type":"html-button-response","trial_index":122,"time_elapsed":670958,"internal_node_id":"0.0-4.0-1.55","subject_id":"5be59ce3520a3300010e28a9","study_id":"60edd13110225f80f9f3709b","session_id":"6196c706b4a6f35facae746b","condition":"full-information","relevant_dimensions":["wings","pattern"],"bee_group":{"antennae":"X","wings":"1","pattern":"S","legs":"X"},"bonus":1.9200000000000013},{"rt":1553.5,"stimulus":"bees-with-color/bee-B2DM.svg","response":0,"trial_type":"image-button-response","trial_index":123,"time_elapsed":672513,"internal_node_id":"0.0-4.0-0.56","subject_id":"5be59ce3520a3300010e28a9","study_id":"60edd13110225f80f9f3709b","session_id":"6196c706b4a6f35facae746b","condition":"full-information","relevant_dimensions":["wings","pattern"],"bee_group":{"antennae":"X","wings":"1","pattern":"S","legs":"X"},"action":"harvest","summary":"good-harvest","bonus":1.9200000000000013},{"rt":833.2999999970198,"stimulus":"\n                    <p><b>Action: <em>harvest</em></b></p>\n                    <p>This is the bee that you just saw.</p>\n                    <img src=\"bees-with-color/bee-B2DM.svg\" width=\"200\">\n                    <p><span class=\"greenText\"><b>Successful harvest!</b></span><br>Your pay has increased by $0.02. Your bonus pay is now $1.34.</p>\n            ","response":0,"trial_type":"html-button-response","trial_index":124,"time_elapsed":673348,"internal_node_id":"0.0-4.0-1.56","subject_id":"5be59ce3520a3300010e28a9","study_id":"60edd13110225f80f9f3709b","session_id":"6196c706b4a6f35facae746b","condition":"full-information","relevant_dimensions":["wings","pattern"],"bee_group":{"antennae":"X","wings":"1","pattern":"S","legs":"X"},"bonus":1.9200000000000013},{"rt":2999.0999999940395,"stimulus":"bees-with-color/bee-A2DM.svg","response":0,"trial_type":"image-button-response","trial_index":125,"time_elapsed":676348,"internal_node_id":"0.0-4.0-0.57","subject_id":"5be59ce3520a3300010e28a9","study_id":"60edd13110225f80f9f3709b","session_id":"6196c706b4a6f35facae746b","condition":"full-information","relevant_dimensions":["wings","pattern"],"bee_group":{"antennae":"X","wings":"1","pattern":"S","legs":"X"},"action":"harvest","summary":"good-harvest","bonus":1.9200000000000013},{"rt":546.8999999985099,"stimulus":"\n                    <p><b>Action: <em>harvest</em></b></p>\n                    <p>This is the bee that you just saw.</p>\n                    <img src=\"bees-with-color/bee-A2DM.svg\" width=\"200\">\n                    <p><span class=\"greenText\"><b>Successful harvest!</b></span><br>Your pay has increased by $0.02. Your bonus pay is now $1.36.</p>\n            ","response":0,"trial_type":"html-button-response","trial_index":126,"time_elapsed":676897,"internal_node_id":"0.0-4.0-1.57","subject_id":"5be59ce3520a3300010e28a9","study_id":"60edd13110225f80f9f3709b","session_id":"6196c706b4a6f35facae746b","condition":"full-information","relevant_dimensions":["wings","pattern"],"bee_group":{"antennae":"X","wings":"1","pattern":"S","legs":"X"},"bonus":1.9200000000000013},{"rt":1135.5,"stimulus":"bees-with-color/bee-A2SF.svg","response":0,"trial_type":"image-button-response","trial_index":127,"time_elapsed":678034,"internal_node_id":"0.0-4.0-0.58","subject_id":"5be59ce3520a3300010e28a9","study_id":"60edd13110225f80f9f3709b","session_id":"6196c706b4a6f35facae746b","condition":"full-information","relevant_dimensions":["wings","pattern"],"bee_group":{"antennae":"X","wings":"1","pattern":"S","legs":"X"},"action":"harvest","summary":"good-harvest","bonus":1.9200000000000013},{"rt":573.2999999970198,"stimulus":"\n                    <p><b>Action: <em>harvest</em></b></p>\n                    <p>This is the bee that you just saw.</p>\n                    <img src=\"bees-with-color/bee-A2SF.svg\" width=\"200\">\n                    <p><span class=\"greenText\"><b>Successful harvest!</b></span><br>Your pay has increased by $0.02. Your bonus pay is now $1.38.</p>\n            ","response":0,"trial_type":"html-button-response","trial_index":128,"time_elapsed":678609,"internal_node_id":"0.0-4.0-1.58","subject_id":"5be59ce3520a3300010e28a9","study_id":"60edd13110225f80f9f3709b","session_id":"6196c706b4a6f35facae746b","condition":"full-information","relevant_dimensions":["wings","pattern"],"bee_group":{"antennae":"X","wings":"1","pattern":"S","legs":"X"},"bonus":1.9200000000000013},{"rt":1717.3000000044703,"stimulus":"bees-with-color/bee-A1SM.svg","response":1,"trial_type":"image-button-response","trial_index":129,"time_elapsed":680327,"internal_node_id":"0.0-4.0-0.59","subject_id":"5be59ce3520a3300010e28a9","study_id":"60edd13110225f80f9f3709b","session_id":"6196c706b4a6f35facae746b","condition":"full-information","relevant_dimensions":["wings","pattern"],"bee_group":{"antennae":"X","wings":"1","pattern":"S","legs":"X"},"action":"avoid","summary":"good-avoid","bonus":1.9200000000000013},{"rt":841.7999999970198,"stimulus":"\n                    <p><b>Action: <em>avoid</em></b></p>\n                    <p>This is the bee that you just saw.</p>\n                    <img src=\"bees-with-color/bee-A1SM.svg\" width=\"200\">\n                    <p><span class=\"greenText\">Good choice!</span>  This bee would have stung you.<br>Your bonus pay is unchanged, and remains at $1.38.</p>\n            ","response":0,"trial_type":"html-button-response","trial_index":130,"time_elapsed":681171,"internal_node_id":"0.0-4.0-1.59","subject_id":"5be59ce3520a3300010e28a9","study_id":"60edd13110225f80f9f3709b","session_id":"6196c706b4a6f35facae746b","condition":"full-information","relevant_dimensions":["wings","pattern"],"bee_group":{"antennae":"X","wings":"1","pattern":"S","legs":"X"},"bonus":1.9200000000000013},{"rt":2299.7000000029802,"stimulus":"bees-with-color/bee-B2DF.svg","response":0,"trial_type":"image-button-response","trial_index":131,"time_elapsed":683472,"internal_node_id":"0.0-4.0-0.60","subject_id":"5be59ce3520a3300010e28a9","study_id":"60edd13110225f80f9f3709b","session_id":"6196c706b4a6f35facae746b","condition":"full-information","relevant_dimensions":["wings","pattern"],"bee_group":{"antennae":"X","wings":"1","pattern":"S","legs":"X"},"action":"harvest","summary":"good-harvest","bonus":1.9200000000000013},{"rt":601.6000000014901,"stimulus":"\n                    <p><b>Action: <em>harvest</em></b></p>\n                    <p>This is the bee that you just saw.</p>\n                    <img src=\"bees-with-color/bee-B2DF.svg\" width=\"200\">\n                    <p><span class=\"greenText\"><b>Successful harvest!</b></span><br>Your pay has increased by $0.02. Your bonus pay is now $1.40.</p>\n            ","response":0,"trial_type":"html-button-response","trial_index":132,"time_elapsed":684075,"internal_node_id":"0.0-4.0-1.60","subject_id":"5be59ce3520a3300010e28a9","study_id":"60edd13110225f80f9f3709b","session_id":"6196c706b4a6f35facae746b","condition":"full-information","relevant_dimensions":["wings","pattern"],"bee_group":{"antennae":"X","wings":"1","pattern":"S","legs":"X"},"bonus":1.9200000000000013},{"rt":1162.8999999985099,"stimulus":"bees-with-color/bee-A2DF.svg","response":0,"trial_type":"image-button-response","trial_index":133,"time_elapsed":685239,"internal_node_id":"0.0-4.0-0.61","subject_id":"5be59ce3520a3300010e28a9","study_id":"60edd13110225f80f9f3709b","session_id":"6196c706b4a6f35facae746b","condition":"full-information","relevant_dimensions":["wings","pattern"],"bee_group":{"antennae":"X","wings":"1","pattern":"S","legs":"X"},"action":"harvest","summary":"good-harvest","bonus":1.9200000000000013},{"rt":1163.3999999985099,"stimulus":"\n                    <p><b>Action: <em>harvest</em></b></p>\n                    <p>This is the bee that you just saw.</p>\n                    <img src=\"bees-with-color/bee-A2DF.svg\" width=\"200\">\n                    <p><span class=\"greenText\"><b>Successful harvest!</b></span><br>Your pay has increased by $0.02. Your bonus pay is now $1.42.</p>\n            ","response":0,"trial_type":"html-button-response","trial_index":134,"time_elapsed":686404,"internal_node_id":"0.0-4.0-1.61","subject_id":"5be59ce3520a3300010e28a9","study_id":"60edd13110225f80f9f3709b","session_id":"6196c706b4a6f35facae746b","condition":"full-information","relevant_dimensions":["wings","pattern"],"bee_group":{"antennae":"X","wings":"1","pattern":"S","legs":"X"},"bonus":1.9200000000000013},{"rt":1628.5,"stimulus":"bees-with-color/bee-B2SM.svg","response":0,"trial_type":"image-button-response","trial_index":135,"time_elapsed":688034,"internal_node_id":"0.0-4.0-0.62","subject_id":"5be59ce3520a3300010e28a9","study_id":"60edd13110225f80f9f3709b","session_id":"6196c706b4a6f35facae746b","condition":"full-information","relevant_dimensions":["wings","pattern"],"bee_group":{"antennae":"X","wings":"1","pattern":"S","legs":"X"},"action":"harvest","summary":"good-harvest","bonus":1.9200000000000013},{"rt":676.5,"stimulus":"\n                    <p><b>Action: <em>harvest</em></b></p>\n                    <p>This is the bee that you just saw.</p>\n                    <img src=\"bees-with-color/bee-B2SM.svg\" width=\"200\">\n                    <p><span class=\"greenText\"><b>Successful harvest!</b></span><br>Your pay has increased by $0.02. Your bonus pay is now $1.44.</p>\n            ","response":0,"trial_type":"html-button-response","trial_index":136,"time_elapsed":688712,"internal_node_id":"0.0-4.0-1.62","subject_id":"5be59ce3520a3300010e28a9","study_id":"60edd13110225f80f9f3709b","session_id":"6196c706b4a6f35facae746b","condition":"full-information","relevant_dimensions":["wings","pattern"],"bee_group":{"antennae":"X","wings":"1","pattern":"S","legs":"X"},"bonus":1.9200000000000013},{"rt":1418.2000000029802,"stimulus":"bees-with-color/bee-B1SF.svg","response":1,"trial_type":"image-button-response","trial_index":137,"time_elapsed":690132,"internal_node_id":"0.0-4.0-0.63","subject_id":"5be59ce3520a3300010e28a9","study_id":"60edd13110225f80f9f3709b","session_id":"6196c706b4a6f35facae746b","condition":"full-information","relevant_dimensions":["wings","pattern"],"bee_group":{"antennae":"X","wings":"1","pattern":"S","legs":"X"},"action":"avoid","summary":"good-avoid","bonus":1.9200000000000013},{"rt":745.7999999970198,"stimulus":"\n                    <p><b>Action: <em>avoid</em></b></p>\n                    <p>This is the bee that you just saw.</p>\n                    <img src=\"bees-with-color/bee-B1SF.svg\" width=\"200\">\n                    <p><span class=\"greenText\">Good choice!</span>  This bee would have stung you.<br>Your bonus pay is unchanged, and remains at $1.44.</p>\n            ","response":0,"trial_type":"html-button-response","trial_index":138,"time_elapsed":690879,"internal_node_id":"0.0-4.0-1.63","subject_id":"5be59ce3520a3300010e28a9","study_id":"60edd13110225f80f9f3709b","session_id":"6196c706b4a6f35facae746b","condition":"full-information","relevant_dimensions":["wings","pattern"],"bee_group":{"antennae":"X","wings":"1","pattern":"S","legs":"X"},"bonus":1.9200000000000013},{"rt":7883.10000000149,"stimulus":"You have completed the first part of this experiment.<br><br>You will now begin a shorter second part, in which you will receive no feedback.<br>The same rules regarding bonus pay apply.<br><br>Press any key to begin.","response":" ","trial_type":"html-keyboard-response","trial_index":139,"time_elapsed":698763,"internal_node_id":"0.0-5.0","subject_id":"5be59ce3520a3300010e28a9","study_id":"60edd13110225f80f9f3709b","session_id":"6196c706b4a6f35facae746b","condition":"full-information","relevant_dimensions":["wings","pattern"],"bee_group":{"antennae":"X","wings":"1","pattern":"S","legs":"X"},"bonus":1.9200000000000013},{"rt":7431.29999999702,"stimulus":"bees-with-color/bee-B1DF.svg","response":0,"trial_type":"image-button-response","trial_index":140,"time_elapsed":706208,"internal_node_id":"0.0-6.0-0.0","subject_id":"5be59ce3520a3300010e28a9","study_id":"60edd13110225f80f9f3709b","session_id":"6196c706b4a6f35facae746b","condition":"full-information","relevant_dimensions":["wings","pattern"],"bee_group":{"antennae":"X","wings":"1","pattern":"S","legs":"X"},"bonus":1.9200000000000013},{"rt":7813.39999999851,"stimulus":"bees-with-color/bee-A2SM.svg","response":0,"trial_type":"image-button-response","trial_index":141,"time_elapsed":714026,"internal_node_id":"0.0-6.0-0.1","subject_id":"5be59ce3520a3300010e28a9","study_id":"60edd13110225f80f9f3709b","session_id":"6196c706b4a6f35facae746b","condition":"full-information","relevant_dimensions":["wings","pattern"],"bee_group":{"antennae":"X","wings":"1","pattern":"S","legs":"X"},"bonus":1.9200000000000013},{"rt":2558.60000000149,"stimulus":"bees-with-color/bee-B1SM.svg","response":1,"trial_type":"image-button-response","trial_index":142,"time_elapsed":716588,"internal_node_id":"0.0-6.0-0.2","subject_id":"5be59ce3520a3300010e28a9","study_id":"60edd13110225f80f9f3709b","session_id":"6196c706b4a6f35facae746b","condition":"full-information","relevant_dimensions":["wings","pattern"],"bee_group":{"antennae":"X","wings":"1","pattern":"S","legs":"X"},"bonus":1.9200000000000013},{"rt":1812.6000000014901,"stimulus":"bees-with-color/bee-A1DM.svg","response":0,"trial_type":"image-button-response","trial_index":143,"time_elapsed":718403,"internal_node_id":"0.0-6.0-0.3","subject_id":"5be59ce3520a3300010e28a9","study_id":"60edd13110225f80f9f3709b","session_id":"6196c706b4a6f35facae746b","condition":"full-information","relevant_dimensions":["wings","pattern"],"bee_group":{"antennae":"X","wings":"1","pattern":"S","legs":"X"},"bonus":1.9200000000000013},{"rt":1428.8999999985099,"stimulus":"bees-with-color/bee-B1SF.svg","response":1,"trial_type":"image-button-response","trial_index":144,"time_elapsed":719834,"internal_node_id":"0.0-6.0-0.4","subject_id":"5be59ce3520a3300010e28a9","study_id":"60edd13110225f80f9f3709b","session_id":"6196c706b4a6f35facae746b","condition":"full-information","relevant_dimensions":["wings","pattern"],"bee_group":{"antennae":"X","wings":"1","pattern":"S","legs":"X"},"bonus":1.9200000000000013},{"rt":1094.0999999940395,"stimulus":"bees-with-color/bee-B2SM.svg","response":0,"trial_type":"image-button-response","trial_index":145,"time_elapsed":720930,"internal_node_id":"0.0-6.0-0.5","subject_id":"5be59ce3520a3300010e28a9","study_id":"60edd13110225f80f9f3709b","session_id":"6196c706b4a6f35facae746b","condition":"full-information","relevant_dimensions":["wings","pattern"],"bee_group":{"antennae":"X","wings":"1","pattern":"S","legs":"X"},"bonus":1.9200000000000013},{"rt":5777.89999999851,"stimulus":"bees-with-color/bee-B1DM.svg","response":0,"trial_type":"image-button-response","trial_index":146,"time_elapsed":726711,"internal_node_id":"0.0-6.0-0.6","subject_id":"5be59ce3520a3300010e28a9","study_id":"60edd13110225f80f9f3709b","session_id":"6196c706b4a6f35facae746b","condition":"full-information","relevant_dimensions":["wings","pattern"],"bee_group":{"antennae":"X","wings":"1","pattern":"S","legs":"X"},"bonus":1.9200000000000013},{"rt":798.1999999955297,"stimulus":"bees-with-color/bee-A2DM.svg","response":0,"trial_type":"image-button-response","trial_index":147,"time_elapsed":727512,"internal_node_id":"0.0-6.0-0.7","subject_id":"5be59ce3520a3300010e28a9","study_id":"60edd13110225f80f9f3709b","session_id":"6196c706b4a6f35facae746b","condition":"full-information","relevant_dimensions":["wings","pattern"],"bee_group":{"antennae":"X","wings":"1","pattern":"S","legs":"X"},"bonus":1.9200000000000013},{"rt":1039,"stimulus":"bees-with-color/bee-B2SF.svg","response":0,"trial_type":"image-button-response","trial_index":148,"time_elapsed":728553,"internal_node_id":"0.0-6.0-0.8","subject_id":"5be59ce3520a3300010e28a9","study_id":"60edd13110225f80f9f3709b","session_id":"6196c706b4a6f35facae746b","condition":"full-information","relevant_dimensions":["wings","pattern"],"bee_group":{"antennae":"X","wings":"1","pattern":"S","legs":"X"},"bonus":1.9200000000000013},{"rt":2738.3000000044703,"stimulus":"bees-with-color/bee-B2DM.svg","response":0,"trial_type":"image-button-response","trial_index":149,"time_elapsed":731302,"internal_node_id":"0.0-6.0-0.9","subject_id":"5be59ce3520a3300010e28a9","study_id":"60edd13110225f80f9f3709b","session_id":"6196c706b4a6f35facae746b","condition":"full-information","relevant_dimensions":["wings","pattern"],"bee_group":{"antennae":"X","wings":"1","pattern":"S","legs":"X"},"bonus":1.9200000000000013},{"rt":1749.1999999955297,"stimulus":"bees-with-color/bee-A1SM.svg","response":1,"trial_type":"image-button-response","trial_index":150,"time_elapsed":733054,"internal_node_id":"0.0-6.0-0.10","subject_id":"5be59ce3520a3300010e28a9","study_id":"60edd13110225f80f9f3709b","session_id":"6196c706b4a6f35facae746b","condition":"full-information","relevant_dimensions":["wings","pattern"],"bee_group":{"antennae":"X","wings":"1","pattern":"S","legs":"X"},"bonus":1.9200000000000013},{"rt":1833.5,"stimulus":"bees-with-color/bee-A1SF.svg","response":1,"trial_type":"image-button-response","trial_index":151,"time_elapsed":734889,"internal_node_id":"0.0-6.0-0.11","subject_id":"5be59ce3520a3300010e28a9","study_id":"60edd13110225f80f9f3709b","session_id":"6196c706b4a6f35facae746b","condition":"full-information","relevant_dimensions":["wings","pattern"],"bee_group":{"antennae":"X","wings":"1","pattern":"S","legs":"X"},"bonus":1.9200000000000013},{"rt":3314.0999999940395,"stimulus":"bees-with-color/bee-B2DF.svg","response":0,"trial_type":"image-button-response","trial_index":152,"time_elapsed":738205,"internal_node_id":"0.0-6.0-0.12","subject_id":"5be59ce3520a3300010e28a9","study_id":"60edd13110225f80f9f3709b","session_id":"6196c706b4a6f35facae746b","condition":"full-information","relevant_dimensions":["wings","pattern"],"bee_group":{"antennae":"X","wings":"1","pattern":"S","legs":"X"},"bonus":1.9200000000000013},{"rt":1107.8999999985099,"stimulus":"bees-with-color/bee-A2SF.svg","response":0,"trial_type":"image-button-response","trial_index":153,"time_elapsed":739315,"internal_node_id":"0.0-6.0-0.13","subject_id":"5be59ce3520a3300010e28a9","study_id":"60edd13110225f80f9f3709b","session_id":"6196c706b4a6f35facae746b","condition":"full-information","relevant_dimensions":["wings","pattern"],"bee_group":{"antennae":"X","wings":"1","pattern":"S","legs":"X"},"bonus":1.9200000000000013},{"rt":963.6000000014901,"stimulus":"bees-with-color/bee-A1DF.svg","response":0,"trial_type":"image-button-response","trial_index":154,"time_elapsed":740281,"internal_node_id":"0.0-6.0-0.14"