[{"success":true,"trial_type":"fullscreen","trial_index":0,"time_elapsed":242308,"internal_node_id":"0.0-0.0","subject_id":"5e849bb9507a3503c9f3fd4c","study_id":"6197b3f67c2b5cd3b6d9596a","session_id":"619be31d28fdec7c2c10cb6c","condition":"full-information","relevant_dimensions":["pattern","legs"],"bee_group":{"antennae":"X","wings":"X","pattern":"D","legs":"M"},"bonus":1.1600000000000008},{"success":true,"timeout":false,"failed_images":[],"failed_audio":[],"failed_video":[],"trial_type":"preload","trial_index":1,"time_elapsed":245353,"internal_node_id":"0.0-1.0","subject_id":"5e849bb9507a3503c9f3fd4c","study_id":"6197b3f67c2b5cd3b6d9596a","session_id":"619be31d28fdec7c2c10cb6c","condition":"full-information","relevant_dimensions":["pattern","legs"],"bee_group":{"antennae":"X","wings":"X","pattern":"D","legs":"M"},"bonus":1.1600000000000008},{"rt":2163.600000023842,"stimulus":"Welcome! Press any key to begin.","response":"enter","trial_type":"html-keyboard-response","trial_index":2,"time_elapsed":247517,"internal_node_id":"0.0-2.0","subject_id":"5e849bb9507a3503c9f3fd4c","study_id":"6197b3f67c2b5cd3b6d9596a","session_id":"619be31d28fdec7c2c10cb6c","condition":"full-information","relevant_dimensions":["pattern","legs"],"bee_group":{"antennae":"X","wings":"X","pattern":"D","legs":"M"},"bonus":1.1600000000000008},{"view_history":[{"page_index":0,"viewing_time":6823.100000023842},{"page_index":1,"viewing_time":14224.299999952316},{"page_index":2,"viewing_time":29116},{"page_index":3,"viewing_time":60804.300000071526},{"page_index":4,"viewing_time":13225.899999976158},{"page_index":5,"viewing_time":14323.700000047684},{"page_index":6,"viewing_time":17437.899999976158},{"page_index":7,"viewing_time":50101.699999928474},{"page_index":8,"viewing_time":6242.400000095367},{"page_index":9,"viewing_time":4992.299999952316},{"page_index":10,"viewing_time":2199.2999999523163},{"page_index":11,"viewing_time":8220.300000071526},{"page_index":10,"viewing_time":1481.8999999761581},{"page_index":9,"viewing_time":531.8999999761581},{"page_index":8,"viewing_time":516},{"page_index":7,"viewing_time":1164},{"page_index":6,"viewing_time":2400.100000023842},{"page_index":7,"viewing_time":26403.799999952316},{"page_index":8,"viewing_time":18734.100000023842},{"page_index":9,"viewing_time":10482.5},{"page_index":10,"viewing_time":11461.5},{"page_index":11,"viewing_time":16363.5},{"page_index":12,"viewing_time":35288},{"page_index":13,"viewing_time":2188.2000000476837},{"page_index":14,"viewing_time":3053.7999999523163}],"rt":357781,"trial_type":"instructions","trial_index":3,"time_elapsed":605299,"internal_node_id":"0.0-3.0-0.0","subject_id":"5e849bb9507a3503c9f3fd4c","study_id":"6197b3f67c2b5cd3b6d9596a","session_id":"619be31d28fdec7c2c10cb6c","condition":"full-information","relevant_dimensions":["pattern","legs"],"bee_group":{"antennae":"X","wings":"X","pattern":"D","legs":"M"},"bonus":1.1600000000000008},{"rt":13853.299999952316,"response":{"Q0":["Two or six legs","Stripes or spots on body","Single or double wings","Antennae or no antennae"]},"question_order":[0],"trial_type":"survey-multi-select","trial_index":4,"time_elapsed":619159,"internal_node_id":"0.0-3.0-1.0","subject_id":"5e849bb9507a3503c9f3fd4c","study_id":"6197b3f67c2b5cd3b6d9596a","session_id":"619be31d28fdec7c2c10cb6c","condition":"full-information","relevant_dimensions":["pattern","legs"],"bee_group":{"antennae":"X","wings":"X","pattern":"D","legs":"M"},"correct":true,"bonus":1.1600000000000008},{"rt":48516.60000002384,"response":{"Q1":"Yes.","Q2":"Based on the four features of the bee.","Q3":"You do not learn if it was friendly or dangerous, and do not alter your bonus."},"question_order":[0,1,2],"trial_type":"survey-multi-choice","trial_index":5,"time_elapsed":667678,"internal_node_id":"0.0-3.0-2.0","subject_id":"5e849bb9507a3503c9f3fd4c","study_id":"6197b3f67c2b5cd3b6d9596a","session_id":"619be31d28fdec7c2c10cb6c","condition":"full-information","relevant_dimensions":["pattern","legs"],"bee_group":{"antennae":"X","wings":"X","pattern":"D","legs":"M"},"correct":false,"bonus":1.1600000000000008},{"rt":4792.599999904633,"stimulus":"<p>You did not answer all comprehension questions correctly.<br>Press <b>continue</b> to review the instructions again.</p>","response":0,"trial_type":"html-button-response","trial_index":6,"time_elapsed":672472,"internal_node_id":"0.0-3.0-3.0","subject_id":"5e849bb9507a3503c9f3fd4c","study_id":"6197b3f67c2b5cd3b6d9596a","session_id":"619be31d28fdec7c2c10cb6c","condition":"full-information","relevant_dimensions":["pattern","legs"],"bee_group":{"antennae":"X","wings":"X","pattern":"D","legs":"M"},"bonus":1.1600000000000008},{"view_history":[{"page_index":0,"viewing_time":3406.1999999284744},{"page_index":1,"viewing_time":15070.100000023842},{"page_index":2,"viewing_time":12794.100000023842},{"page_index":3,"viewing_time":23303.600000023842},{"page_index":4,"viewing_time":16882.199999928474},{"page_index":5,"viewing_time":2536.3000000715256},{"page_index":6,"viewing_time":1305.6999999284744},{"page_index":7,"viewing_time":2526.2000000476837},{"page_index":6,"viewing_time":2602.1999999284744},{"page_index":7,"viewing_time":1315.7000000476837},{"page_index":8,"viewing_time":651.8999999761581},{"page_index":9,"viewing_time":512.1000000238419},{"page_index":10,"viewing_time":471.7999999523163},{"page_index":11,"viewing_time":12786.100000023842},{"page_index":12,"viewing_time":2002},{"page_index":13,"viewing_time":1075.8999999761581},{"page_index":14,"viewing_time":930.1000000238419}],"rt":100173,"trial_type":"instructions","trial_index":7,"time_elapsed":772645,"internal_node_id":"0.0-3.0-4.0-0.0","subject_id":"5e849bb9507a3503c9f3fd4c","study_id":"6197b3f67c2b5cd3b6d9596a","session_id":"619be31d28fdec7c2c10cb6c","condition":"full-information","relevant_dimensions":["pattern","legs"],"bee_group":{"antennae":"X","wings":"X","pattern":"D","legs":"M"},"bonus":1.1600000000000008},{"rt":8827.399999976158,"response":{"Q0":["Two or six legs","Stripes or spots on body","Single or double wings","Antennae or no antennae"]},"question_order":[0],"trial_type":"survey-multi-select","trial_index":8,"time_elapsed":781479,"internal_node_id":"0.0-3.0-4.0-1.0","subject_id":"5e849bb9507a3503c9f3fd4c","study_id":"6197b3f67c2b5cd3b6d9596a","session_id":"619be31d28fdec7c2c10cb6c","condition":"full-information","relevant_dimensions":["pattern","legs"],"bee_group":{"antennae":"X","wings":"X","pattern":"D","legs":"M"},"correct":true,"bonus":1.1600000000000008},{"rt":49249.299999952316,"response":{"Q1":"No.","Q2":"Based on the four features of the bee.","Q3":"You learn if it was friendly or dangerous, but do not alter your bonus."},"question_order":[0,1,2],"trial_type":"survey-multi-choice","trial_index":9,"time_elapsed":830730,"internal_node_id":"0.0-3.0-4.0-2.0","subject_id":"5e849bb9507a3503c9f3fd4c","study_id":"6197b3f67c2b5cd3b6d9596a","session_id":"619be31d28fdec7c2c10cb6c","condition":"full-information","relevant_dimensions":["pattern","legs"],"bee_group":{"antennae":"X","wings":"X","pattern":"D","legs":"M"},"correct":true,"bonus":1.1600000000000008},{"rt":2792.2000000476837,"stimulus":"<p>Congrats, you got everything right<br>When you're ready, click the button below to continue to the experiment.</p>","response":0,"trial_type":"html-button-response","trial_index":10,"time_elapsed":833524,"internal_node_id":"0.0-3.0-4.0-3.0","subject_id":"5e849bb9507a3503c9f3fd4c","study_id":"6197b3f67c2b5cd3b6d9596a","session_id":"619be31d28fdec7c2c10cb6c","condition":"full-information","relevant_dimensions":["pattern","legs"],"bee_group":{"antennae":"X","wings":"X","pattern":"D","legs":"M"},"bonus":1.1600000000000008},{"rt":8721.5,"stimulus":"bees-with-color/bee-A1SM.svg","response":0,"trial_type":"image-button-response","trial_index":11,"time_elapsed":842247,"internal_node_id":"0.0-4.0-0.0","subject_id":"5e849bb9507a3503c9f3fd4c","study_id":"6197b3f67c2b5cd3b6d9596a","session_id":"619be31d28fdec7c2c10cb6c","condition":"full-information","relevant_dimensions":["pattern","legs"],"bee_group":{"antennae":"X","wings":"X","pattern":"D","legs":"M"},"action":"harvest","summary":"good-harvest","bonus":1.1600000000000008},{"rt":7082.099999904633,"stimulus":"\n                    <p><b>Action: <em>harvest</em></b></p>\n                    <p>This is the bee that you just saw.</p>\n                    <img src=\"bees-with-color/bee-A1SM.svg\" width=\"200\">\n                    <p><span class=\"greenText\"><b>Successful harvest!</b></span><br>Your pay has increased by $0.02. Your bonus pay is now $0.56.</p>\n            ","response":0,"trial_type":"html-button-response","trial_index":12,"time_elapsed":849331,"internal_node_id":"0.0-4.0-1.0","subject_id":"5e849bb9507a3503c9f3fd4c","study_id":"6197b3f67c2b5cd3b6d9596a","session_id":"619be31d28fdec7c2c10cb6c","condition":"full-information","relevant_dimensions":["pattern","legs"],"bee_group":{"antennae":"X","wings":"X","pattern":"D","legs":"M"},"bonus":1.1600000000000008},{"rt":1488.6999999284744,"stimulus":"bees-with-color/bee-B2SF.svg","response":1,"trial_type":"image-button-response","trial_index":13,"time_elapsed":850821,"internal_node_id":"0.0-4.0-0.1","subject_id":"5e849bb9507a3503c9f3fd4c","study_id":"6197b3f67c2b5cd3b6d9596a","session_id":"619be31d28fdec7c2c10cb6c","condition":"full-information","relevant_dimensions":["pattern","legs"],"bee_group":{"antennae":"X","wings":"X","pattern":"D","legs":"M"},"action":"avoid","summary":"bad-avoid","bonus":1.1600000000000008},{"rt":36924.89999997616,"stimulus":"\n                    <p><b>Action: <em>avoid</em></b></p>\n                    <p>This is the bee that you just saw.</p>\n                    <img src=\"bees-with-color/bee-B2SF.svg\" width=\"200\">\n                    <p><span class=\"redText\">Bad choice,</span> the bee was friendly.<br>Your bonus pay is unchanged, and remains at $0.56.</p>\n            ","response":0,"trial_type":"html-button-response","trial_index":14,"time_elapsed":887747,"internal_node_id":"0.0-4.0-1.1","subject_id":"5e849bb9507a3503c9f3fd4c","study_id":"6197b3f67c2b5cd3b6d9596a","session_id":"619be31d28fdec7c2c10cb6c","condition":"full-information","relevant_dimensions":["pattern","legs"],"bee_group":{"antennae":"X","wings":"X","pattern":"D","legs":"M"},"bonus":1.1600000000000008},{"rt":5399.800000071526,"stimulus":"bees-with-color/bee-B2DM.svg","response":1,"trial_type":"image-button-response","trial_index":15,"time_elapsed":893149,"internal_node_id":"0.0-4.0-0.2","subject_id":"5e849bb9507a3503c9f3fd4c","study_id":"6197b3f67c2b5cd3b6d9596a","session_id":"619be31d28fdec7c2c10cb6c","condition":"full-information","relevant_dimensions":["pattern","legs"],"bee_group":{"antennae":"X","wings":"X","pattern":"D","legs":"M"},"action":"avoid","summary":"good-avoid","bonus":1.1600000000000008},{"rt":2883.100000023842,"stimulus":"\n                    <p><b>Action: <em>avoid</em></b></p>\n                    <p>This is the bee that you just saw.</p>\n                    <img src=\"bees-with-color/bee-B2DM.svg\" width=\"200\">\n                    <p><span class=\"greenText\">Good choice!</span>  This bee would have stung you.<br>Your bonus pay is unchanged, and remains at $0.56.</p>\n            ","response":0,"trial_type":"html-button-response","trial_index":16,"time_elapsed":896033,"internal_node_id":"0.0-4.0-1.2","subject_id":"5e849bb9507a3503c9f3fd4c","study_id":"6197b3f67c2b5cd3b6d9596a","session_id":"619be31d28fdec7c2c10cb6c","condition":"full-information","relevant_dimensions":["pattern","legs"],"bee_group":{"antennae":"X","wings":"X","pattern":"D","legs":"M"},"bonus":1.1600000000000008},{"rt":10009.700000047684,"stimulus":"bees-with-color/bee-A1SF.svg","response":0,"trial_type":"image-button-response","trial_index":17,"time_elapsed":906045,"internal_node_id":"0.0-4.0-0.3","subject_id":"5e849bb9507a3503c9f3fd4c","study_id":"6197b3f67c2b5cd3b6d9596a","session_id":"619be31d28fdec7c2c10cb6c","condition":"full-information","relevant_dimensions":["pattern","legs"],"bee_group":{"antennae":"X","wings":"X","pattern":"D","legs":"M"},"action":"harvest","summary":"good-harvest","bonus":1.1600000000000008},{"rt":1941.3000000715256,"stimulus":"\n                    <p><b>Action: <em>harvest</em></b></p>\n                    <p>This is the bee that you just saw.</p>\n                    <img src=\"bees-with-color/bee-A1SF.svg\" width=\"200\">\n                    <p><span class=\"greenText\"><b>Successful harvest!</b></span><br>Your pay has increased by $0.02. Your bonus pay is now $0.58.</p>\n            ","response":0,"trial_type":"html-button-response","trial_index":18,"time_elapsed":907988,"internal_node_id":"0.0-4.0-1.3","subject_id":"5e849bb9507a3503c9f3fd4c","study_id":"6197b3f67c2b5cd3b6d9596a","session_id":"619be31d28fdec7c2c10cb6c","condition":"full-information","relevant_dimensions":["pattern","legs"],"bee_group":{"antennae":"X","wings":"X","pattern":"D","legs":"M"},"bonus":1.1600000000000008},{"rt":10261.899999976158,"stimulus":"bees-with-color/bee-B1DM.svg","response":1,"trial_type":"image-button-response","trial_index":19,"time_elapsed":918251,"internal_node_id":"0.0-4.0-0.4","subject_id":"5e849bb9507a3503c9f3fd4c","study_id":"6197b3f67c2b5cd3b6d9596a","session_id":"619be31d28fdec7c2c10cb6c","condition":"full-information","relevant_dimensions":["pattern","legs"],"bee_group":{"antennae":"X","wings":"X","pattern":"D","legs":"M"},"action":"avoid","summary":"good-avoid","bonus":1.1600000000000008},{"rt":1604.5,"stimulus":"\n                    <p><b>Action: <em>avoid</em></b></p>\n                    <p>This is the bee that you just saw.</p>\n                    <img src=\"bees-with-color/bee-B1DM.svg\" width=\"200\">\n                    <p><span class=\"greenText\">Good choice!</span>  This bee would have stung you.<br>Your bonus pay is unchanged, and remains at $0.58.</p>\n            ","response":0,"trial_type":"html-button-response","trial_index":20,"time_elapsed":919857,"internal_node_id":"0.0-4.0-1.4","subject_id":"5e849bb9507a3503c9f3fd4c","study_id":"6197b3f67c2b5cd3b6d9596a","session_id":"619be31d28fdec7c2c10cb6c","condition":"full-information","relevant_dimensions":["pattern","legs"],"bee_group":{"antennae":"X","wings":"X","pattern":"D","legs":"M"},"bonus":1.1600000000000008},{"rt":11538.299999952316,"stimulus":"bees-with-color/bee-A2SF.svg","response":0,"trial_type":"image-button-response","trial_index":21,"time_elapsed":931397,"internal_node_id":"0.0-4.0-0.5","subject_id":"5e849bb9507a3503c9f3fd4c","study_id":"6197b3f67c2b5cd3b6d9596a","session_id":"619be31d28fdec7c2c10cb6c","condition":"full-information","relevant_dimensions":["pattern","legs"],"bee_group":{"antennae":"X","wings":"X","pattern":"D","legs":"M"},"action":"harvest","summary":"good-harvest","bonus":1.1600000000000008},{"rt":1472.6000000238419,"stimulus":"\n                    <p><b>Action: <em>harvest</em></b></p>\n                    <p>This is the bee that you just saw.</p>\n                    <img src=\"bees-with-color/bee-A2SF.svg\" width=\"200\">\n                    <p><span class=\"greenText\"><b>Successful harvest!</b></span><br>Your pay has increased by $0.02. Your bonus pay is now $0.60.</p>\n            ","response":0,"trial_type":"html-button-response","trial_index":22,"time_elapsed":932871,"internal_node_id":"0.0-4.0-1.5","subject_id":"5e849bb9507a3503c9f3fd4c","study_id":"6197b3f67c2b5cd3b6d9596a","session_id":"619be31d28fdec7c2c10cb6c","condition":"full-information","relevant_dimensions":["pattern","legs"],"bee_group":{"antennae":"X","wings":"X","pattern":"D","legs":"M"},"bonus":1.1600000000000008},{"rt":20302,"stimulus":"bees-with-color/bee-A2SM.svg","response":0,"trial_type":"image-button-response","trial_index":23,"time_elapsed":953175,"internal_node_id":"0.0-4.0-0.6","subject_id":"5e849bb9507a3503c9f3fd4c","study_id":"6197b3f67c2b5cd3b6d9596a","session_id":"619be31d28fdec7c2c10cb6c","condition":"full-information","relevant_dimensions":["pattern","legs"],"bee_group":{"antennae":"X","wings":"X","pattern":"D","legs":"M"},"action":"harvest","summary":"good-harvest","bonus":1.1600000000000008},{"rt":1046.5999999046326,"stimulus":"\n                    <p><b>Action: <em>harvest</em></b></p>\n                    <p>This is the bee that you just saw.</p>\n                    <img src=\"bees-with-color/bee-A2SM.svg\" width=\"200\">\n                    <p><span class=\"greenText\"><b>Successful harvest!</b></span><br>Your pay has increased by $0.02. Your bonus pay is now $0.62.</p>\n            ","response":0,"trial_type":"html-button-response","trial_index":24,"time_elapsed":954223,"internal_node_id":"0.0-4.0-1.6","subject_id":"5e849bb9507a3503c9f3fd4c","study_id":"6197b3f67c2b5cd3b6d9596a","session_id":"619be31d28fdec7c2c10cb6c","condition":"full-information","relevant_dimensions":["pattern","legs"],"bee_group":{"antennae":"X","wings":"X","pattern":"D","legs":"M"},"bonus":1.1600000000000008},{"rt":10093.899999976158,"stimulus":"bees-with-color/bee-B1SM.svg","response":1,"trial_type":"image-button-response","trial_index":25,"time_elapsed":964319,"internal_node_id":"0.0-4.0-0.7","subject_id":"5e849bb9507a3503c9f3fd4c","study_id":"6197b3f67c2b5cd3b6d9596a","session_id":"619be31d28fdec7c2c10cb6c","condition":"full-information","relevant_dimensions":["pattern","legs"],"bee_group":{"antennae":"X","wings":"X","pattern":"D","legs":"M"},"action":"avoid","summary":"bad-avoid","bonus":1.1600000000000008},{"rt":1538.7000000476837,"stimulus":"\n                    <p><b>Action: <em>avoid</em></b></p>\n                    <p>This is the bee that you just saw.</p>\n                    <img src=\"bees-with-color/bee-B1SM.svg\" width=\"200\">\n                    <p><span class=\"redText\">Bad choice,</span> the bee was friendly.<br>Your bonus pay is unchanged, and remains at $0.62.</p>\n            ","response":0,"trial_type":"html-button-response","trial_index":26,"time_elapsed":965859,"internal_node_id":"0.0-4.0-1.7","subject_id":"5e849bb9507a3503c9f3fd4c","study_id":"6197b3f67c2b5cd3b6d9596a","session_id":"619be31d28fdec7c2c10cb6c","condition":"full-information","relevant_dimensions":["pattern","legs"],"bee_group":{"antennae":"X","wings":"X","pattern":"D","legs":"M"},"bonus":1.1600000000000008},{"rt":11034.200000047684,"stimulus":"bees-with-color/bee-A1DF.svg","response":0,"trial_type":"image-button-response","trial_index":27,"time_elapsed":976895,"internal_node_id":"0.0-4.0-0.8","subject_id":"5e849bb9507a3503c9f3fd4c","study_id":"6197b3f67c2b5cd3b6d9596a","session_id":"619be31d28fdec7c2c10cb6c","condition":"full-information","relevant_dimensions":["pattern","legs"],"bee_group":{"antennae":"X","wings":"X","pattern":"D","legs":"M"},"action":"harvest","summary":"good-harvest","bonus":1.1600000000000008},{"rt":994.8000000715256,"stimulus":"\n                    <p><b>Action: <em>harvest</em></b></p>\n                    <p>This is the bee that you just saw.</p>\n                    <img src=\"bees-with-color/bee-A1DF.svg\" width=\"200\">\n                    <p><span class=\"greenText\"><b>Successful harvest!</b></span><br>Your pay has increased by $0.02. Your bonus pay is now $0.64.</p>\n            ","response":0,"trial_type":"html-button-response","trial_index":28,"time_elapsed":977890,"internal_node_id":"0.0-4.0-1.8","subject_id":"5e849bb9507a3503c9f3fd4c","study_id":"6197b3f67c2b5cd3b6d9596a","session_id":"619be31d28fdec7c2c10cb6c","condition":"full-information","relevant_dimensions":["pattern","legs"],"bee_group":{"antennae":"X","wings":"X","pattern":"D","legs":"M"},"bonus":1.1600000000000008},{"rt":6080.800000071526,"stimulus":"bees-with-color/bee-B1SF.svg","response":0,"trial_type":"image-button-response","trial_index":29,"time_elapsed":983973,"internal_node_id":"0.0-4.0-0.9","subject_id":"5e849bb9507a3503c9f3fd4c","study_id":"6197b3f67c2b5cd3b6d9596a","session_id":"619be31d28fdec7c2c10cb6c","condition":"full-information","relevant_dimensions":["pattern","legs"],"bee_group":{"antennae":"X","wings":"X","pattern":"D","legs":"M"},"action":"harvest","summary":"good-harvest","bonus":1.1600000000000008},{"rt":1049.3999999761581,"stimulus":"\n                    <p><b>Action: <em>harvest</em></b></p>\n                    <p>This is the bee that you just saw.</p>\n                    <img src=\"bees-with-color/bee-B1SF.svg\" width=\"200\">\n                    <p><span class=\"greenText\"><b>Successful harvest!</b></span><br>Your pay has increased by $0.02. Your bonus pay is now $0.66.</p>\n            ","response":0,"trial_type":"html-button-response","trial_index":30,"time_elapsed":985023,"internal_node_id":"0.0-4.0-1.9","subject_id":"5e849bb9507a3503c9f3fd4c","study_id":"6197b3f67c2b5cd3b6d9596a","session_id":"619be31d28fdec7c2c10cb6c","condition":"full-information","relevant_dimensions":["pattern","legs"],"bee_group":{"antennae":"X","wings":"X","pattern":"D","legs":"M"},"bonus":1.1600000000000008},{"rt":5940.200000047684,"stimulus":"bees-with-color/bee-A2DM.svg","response":1,"trial_type":"image-button-response","trial_index":31,"time_elapsed":990965,"internal_node_id":"0.0-4.0-0.10","subject_id":"5e849bb9507a3503c9f3fd4c","study_id":"6197b3f67c2b5cd3b6d9596a","session_id":"619be31d28fdec7c2c10cb6c","condition":"full-information","relevant_dimensions":["pattern","legs"],"bee_group":{"antennae":"X","wings":"X","pattern":"D","legs":"M"},"action":"avoid","summary":"good-avoid","bonus":1.1600000000000008},{"rt":908.6000000238419,"stimulus":"\n                    <p><b>Action: <em>avoid</em></b></p>\n                    <p>This is the bee that you just saw.</p>\n                    <img src=\"bees-with-color/bee-A2DM.svg\" width=\"200\">\n                    <p><span class=\"greenText\">Good choice!</span>  This bee would have stung you.<br>Your bonus pay is unchanged, and remains at $0.66.</p>\n            ","response":0,"trial_type":"html-button-response","trial_index":32,"time_elapsed":991874,"internal_node_id":"0.0-4.0-1.10","subject_id":"5e849bb9507a3503c9f3fd4c","study_id":"6197b3f67c2b5cd3b6d9596a","session_id":"619be31d28fdec7c2c10cb6c","condition":"full-information","relevant_dimensions":["pattern","legs"],"bee_group":{"antennae":"X","wings":"X","pattern":"D","legs":"M"},"bonus":1.1600000000000008},{"rt":7450.899999976158,"stimulus":"bees-with-color/bee-B1DF.svg","response":1,"trial_type":"image-button-response","trial_index":33,"time_elapsed":999327,"internal_node_id":"0.0-4.0-0.11","subject_id":"5e849bb9507a3503c9f3fd4c","study_id":"6197b3f67c2b5cd3b6d9596a","session_id":"619be31d28fdec7c2c10cb6c","condition":"full-information","relevant_dimensions":["pattern","legs"],"bee_group":{"antennae":"X","wings":"X","pattern":"D","legs":"M"},"action":"avoid","summary":"bad-avoid","bonus":1.1600000000000008},{"rt":1920.5,"stimulus":"\n                    <p><b>Action: <em>avoid</em></b></p>\n                    <p>This is the bee that you just saw.</p>\n                    <img src=\"bees-with-color/bee-B1DF.svg\" width=\"200\">\n                    <p><span class=\"redText\">Bad choice,</span> the bee was friendly.<br>Your bonus pay is unchanged, and remains at $0.66.</p>\n            ","response":0,"trial_type":"html-button-response","trial_index":34,"time_elapsed":1001248,"internal_node_id":"0.0-4.0-1.11","subject_id":"5e849bb9507a3503c9f3fd4c","study_id":"6197b3f67c2b5cd3b6d9596a","session_id":"619be31d28fdec7c2c10cb6c","condition":"full-information","relevant_dimensions":["pattern","legs"],"bee_group":{"antennae":"X","wings":"X","pattern":"D","legs":"M"},"bonus":1.1600000000000008},{"rt":9322.800000071526,"stimulus":"bees-with-color/bee-B2SM.svg","response":1,"trial_type":"image-button-response","trial_index":35,"time_elapsed":1010573,"internal_node_id":"0.0-4.0-0.12","subject_id":"5e849bb9507a3503c9f3fd4c","study_id":"6197b3f67c2b5cd3b6d9596a","session_id":"619be31d28fdec7c2c10cb6c","condition":"full-information","relevant_dimensions":["pattern","legs"],"bee_group":{"antennae":"X","wings":"X","pattern":"D","legs":"M"},"action":"avoid","summary":"bad-avoid","bonus":1.1600000000000008},{"rt":7450.800000071526,"stimulus":"\n                    <p><b>Action: <em>avoid</em></b></p>\n                    <p>This is the bee that you just saw.</p>\n                    <img src=\"bees-with-color/bee-B2SM.svg\" width=\"200\">\n                    <p><span class=\"redText\">Bad choice,</span> the bee was friendly.<br>Your bonus pay is unchanged, and remains at $0.66.</p>\n            ","response":0,"trial_type":"html-button-response","trial_index":36,"time_elapsed":1018025,"internal_node_id":"0.0-4.0-1.12","subject_id":"5e849bb9507a3503c9f3fd4c","study_id":"6197b3f67c2b5cd3b6d9596a","session_id":"619be31d28fdec7c2c10cb6c","condition":"full-information","relevant_dimensions":["pattern","legs"],"bee_group":{"antennae":"X","wings":"X","pattern":"D","legs":"M"},"bonus":1.1600000000000008},{"rt":14426.200000047684,"stimulus":"bees-with-color/bee-A2DF.svg","response":0,"trial_type":"image-button-response","trial_index":37,"time_elapsed":1032453,"internal_node_id":"0.0-4.0-0.13","subject_id":"5e849bb9507a3503c9f3fd4c","study_id":"6197b3f67c2b5cd3b6d9596a","session_id":"619be31d28fdec7c2c10cb6c","condition":"full-information","relevant_dimensions":["pattern","legs"],"bee_group":{"antennae":"X","wings":"X","pattern":"D","legs":"M"},"action":"harvest","summary":"good-harvest","bonus":1.1600000000000008},{"rt":15564.600000023842,"stimulus":"\n                    <p><b>Action: <em>harvest</em></b></p>\n                    <p>This is the bee that you just saw.</p>\n                    <img src=\"bees-with-color/bee-A2DF.svg\" width=\"200\">\n                    <p><span class=\"greenText\"><b>Successful harvest!</b></span><br>Your pay has increased by $0.02. Your bonus pay is now $0.68.</p>\n            ","response":0,"trial_type":"html-button-response","trial_index":38,"time_elapsed":1048019,"internal_node_id":"0.0-4.0-1.13","subject_id":"5e849bb9507a3503c9f3fd4c","study_id":"6197b3f67c2b5cd3b6d9596a","session_id":"619be31d28fdec7c2c10cb6c","condition":"full-information","relevant_dimensions":["pattern","legs"],"bee_group":{"antennae":"X","wings":"X","pattern":"D","legs":"M"},"bonus":1.1600000000000008},{"rt":7109.799999952316,"stimulus":"bees-with-color/bee-B2DF.svg","response":1,"trial_type":"image-button-response","trial_index":39,"time_elapsed":1055130,"internal_node_id":"0.0-4.0-0.14","subject_id":"5e849bb9507a3503c9f3fd4c","study_id":"6197b3f67c2b5cd3b6d9596a","session_id":"619be31d28fdec7c2c10cb6c","condition":"full-information","relevant_dimensions":["pattern","legs"],"bee_group":{"antennae":"X","wings":"X","pattern":"D","legs":"M"},"action":"avoid","summary":"bad-avoid","bonus":1.1600000000000008},{"rt":8818.600000023842,"stimulus":"\n                    <p><b>Action: <em>avoid</em></b></p>\n                    <p>This is the bee that you just saw.</p>\n                    <img src=\"bees-with-color/bee-B2DF.svg\" width=\"200\">\n                    <p><span class=\"redText\">Bad choice,</span> the bee was friendly.<br>Your bonus pay is unchanged, and remains at $0.68.</p>\n            ","response":0,"trial_type":"html-button-response","trial_index":40,"time_elapsed":1063950,"internal_node_id":"0.0-4.0-1.14","subject_id":"5e849bb9507a3503c9f3fd4c","study_id":"6197b3f67c2b5cd3b6d9596a","session_id":"619be31d28fdec7c2c10cb6c","condition":"full-information","relevant_dimensions":["pattern","legs"],"bee_group":{"antennae":"X","wings":"X","pattern":"D","legs":"M"},"bonus":1.1600000000000008},{"rt":34486.89999997616,"stimulus":"bees-with-color/bee-A1DM.svg","response":0,"trial_type":"image-button-response","trial_index":41,"time_elapsed":1098438,"internal_node_id":"0.0-4.0-0.15","subject_id":"5e849bb9507a3503c9f3fd4c","study_id":"6197b3f67c2b5cd3b6d9596a","session_id":"619be31d28fdec7c2c10cb6c","condition":"full-information","relevant_dimensions":["pattern","legs"],"bee_group":{"antennae":"X","wings":"X","pattern":"D","legs":"M"},"action":"harvest","summary":"bad-harvest","bonus":1.1600000000000008},{"rt":7870.700000047684,"stimulus":"\n                    <p><b>Action: <em>harvest</em></b></p>\n                    <p>This is the bee that you just saw.</p>\n                    <img src=\"bees-with-color/bee-A1DM.svg\" width=\"200\">\n                    <p><span class=\"redText\">Bad choice, the bee was angry.</span><br><b>You have been stung!</b><br>Your pay has been decreased by $0.10. Your bonus pay is now $0.58.</p>\n            ","response":0,"trial_type":"html-button-response","trial_index":42,"time_elapsed":1106311,"internal_node_id":"0.0-4.0-1.15","subject_id":"5e849bb9507a3503c9f3fd4c","study_id":"6197b3f67c2b5cd3b6d9596a","session_id":"619be31d28fdec7c2c10cb6c","condition":"full-information","relevant_dimensions":["pattern","legs"],"bee_group":{"antennae":"X","wings":"X","pattern":"D","legs":"M"},"bonus":1.1600000000000008},{"rt":13836.5,"stimulus":"bees-with-color/bee-A1SM.svg","response":0,"trial_type":"image-button-response","trial_index":43,"time_elapsed":1120149,"internal_node_id":"0.0-4.0-0.16","subject_id":"5e849bb9507a3503c9f3fd4c","study_id":"6197b3f67c2b5cd3b6d9596a","session_id":"619be31d28fdec7c2c10cb6c","condition":"full-information","relevant_dimensions":["pattern","legs"],"bee_group":{"antennae":"X","wings":"X","pattern":"D","legs":"M"},"action":"harvest","summary":"good-harvest","bonus":1.1600000000000008},{"rt":1246.2000000476837,"stimulus":"\n                    <p><b>Action: <em>harvest</em></b></p>\n                    <p>This is the bee that you just saw.</p>\n                    <img src=\"bees-with-color/bee-A1SM.svg\" width=\"200\">\n                    <p><span class=\"greenText\"><b>Successful harvest!</b></span><br>Your pay has increased by $0.02. Your bonus pay is now $0.60.</p>\n            ","response":0,"trial_type":"html-button-response","trial_index":44,"time_elapsed":1121396,"internal_node_id":"0.0-4.0-1.16","subject_id":"5e849bb9507a3503c9f3fd4c","study_id":"6197b3f67c2b5cd3b6d9596a","session_id":"619be31d28fdec7c2c10cb6c","condition":"full-information","relevant_dimensions":["pattern","legs"],"bee_group":{"antennae":"X","wings":"X","pattern":"D","legs":"M"},"bonus":1.1600000000000008},{"rt":8022.699999928474,"stimulus":"bees-with-color/bee-A2DM.svg","response":1,"trial_type":"image-button-response","trial_index":45,"time_elapsed":1129421,"internal_node_id":"0.0-4.0-0.17","subject_id":"5e849bb9507a3503c9f3fd4c","study_id":"6197b3f67c2b5cd3b6d9596a","session_id":"619be31d28fdec7c2c10cb6c","condition":"full-information","relevant_dimensions":["pattern","legs"],"bee_group":{"antennae":"X","wings":"X","pattern":"D","legs":"M"},"action":"avoid","summary":"good-avoid","bonus":1.1600000000000008},{"rt":1738.5,"stimulus":"\n                    <p><b>Action: <em>avoid</em></b></p>\n                    <p>This is the bee that you just saw.</p>\n                    <img src=\"bees-with-color/bee-A2DM.svg\" width=\"200\">\n                    <p><span class=\"greenText\">Good choice!</span>  This bee would have stung you.<br>Your bonus pay is unchanged, and remains at $0.60.</p>\n            ","response":0,"trial_type":"html-button-response","trial_index":46,"time_elapsed":1131160,"internal_node_id":"0.0-4.0-1.17","subject_id":"5e849bb9507a3503c9f3fd4c","study_id":"6197b3f67c2b5cd3b6d9596a","session_id":"619be31d28fdec7c2c10cb6c","condition":"full-information","relevant_dimensions":["pattern","legs"],"bee_group":{"antennae":"X","wings":"X","pattern":"D","legs":"M"},"bonus":1.1600000000000008},{"rt":14939,"stimulus":"bees-with-color/bee-A1DF.svg","response":0,"trial_type":"image-button-response","trial_index":47,"time_elapsed":1146101,"internal_node_id":"0.0-4.0-0.18","subject_id":"5e849bb9507a3503c9f3fd4c","study_id":"6197b3f67c2b5cd3b6d9596a","session_id":"619be31d28fdec7c2c10cb6c","condition":"full-information","relevant_dimensions":["pattern","legs"],"bee_group":{"antennae":"X","wings":"X","pattern":"D","legs":"M"},"action":"harvest","summary":"good-harvest","bonus":1.1600000000000008},{"rt":958.7999999523163,"stimulus":"\n                    <p><b>Action: <em>harvest</em></b></p>\n                    <p>This is the bee that you just saw.</p>\n                    <img src=\"bees-with-color/bee-A1DF.svg\" width=\"200\">\n                    <p><span class=\"greenText\"><b>Successful harvest!</b></span><br>Your pay has increased by $0.02. Your bonus pay is now $0.62.</p>\n            ","response":0,"trial_type":"html-button-response","trial_index":48,"time_elapsed":1147061,"internal_node_id":"0.0-4.0-1.18","subject_id":"5e849bb9507a3503c9f3fd4c","study_id":"6197b3f67c2b5cd3b6d9596a","session_id":"619be31d28fdec7c2c10cb6c","condition":"full-information","relevant_dimensions":["pattern","legs"],"bee_group":{"antennae":"X","wings":"X","pattern":"D","legs":"M"},"bonus":1.1600000000000008},{"rt":12304.5,"stimulus":"bees-with-color/bee-B1DF.svg","response":1,"trial_type":"image-button-response","trial_index":49,"time_elapsed":1159367,"internal_node_id":"0.0-4.0-0.19","subject_id":"5e849bb9507a3503c9f3fd4c","study_id":"6197b3f67c2b5cd3b6d9596a","session_id":"619be31d28fdec7c2c10cb6c","condition":"full-information","relevant_dimensions":["pattern","legs"],"bee_group":{"antennae":"X","wings":"X","pattern":"D","legs":"M"},"action":"avoid","summary":"bad-avoid","bonus":1.1600000000000008},{"rt":28646.699999928474,"stimulus":"\n                    <p><b>Action: <em>avoid</em></b></p>\n                    <p>This is the bee that you just saw.</p>\n                    <img src=\"bees-with-color/bee-B1DF.svg\" width=\"200\">\n                    <p><span class=\"redText\">Bad choice,</span> the bee was friendly.<br>Your bonus pay is unchanged, and remains at $0.62.</p>\n            ","response":0,"trial_type":"html-button-response","trial_index":50,"time_elapsed":1188014,"internal_node_id":"0.0-4.0-1.19","subject_id":"5e849bb9507a3503c9f3fd4c","study_id":"6197b3f67c2b5cd3b6d9596a","session_id":"619be31d28fdec7c2c10cb6c","condition":"full-information","relevant_dimensions":["pattern","legs"],"bee_group":{"antennae":"X","wings":"X","pattern":"D","legs":"M"},"bonus":1.1600000000000008},{"rt":27254,"stimulus":"bees-with-color/bee-A2SM.svg","response":0,"trial_type":"image-button-response","trial_index":51,"time_elapsed":1215270,"internal_node_id":"0.0-4.0-0.20","subject_id":"5e849bb9507a3503c9f3fd4c","study_id":"6197b3f67c2b5cd3b6d9596a","session_id":"619be31d28fdec7c2c10cb6c","condition":"full-information","relevant_dimensions":["pattern","legs"],"bee_group":{"antennae":"X","wings":"X","pattern":"D","legs":"M"},"action":"harvest","summary":"good-harvest","bonus":1.1600000000000008},{"rt":991,"stimulus":"\n                    <p><b>Action: <em>harvest</em></b></p>\n                    <p>This is the bee that you just saw.</p>\n                    <img src=\"bees-with-color/bee-A2SM.svg\" width=\"200\">\n                    <p><span class=\"greenText\"><b>Successful harvest!</b></span><br>Your pay has increased by $0.02. Your bonus pay is now $0.64.</p>\n            ","response":0,"trial_type":"html-button-response","trial_index":52,"time_elapsed":1216262,"internal_node_id":"0.0-4.0-1.20","subject_id":"5e849bb9507a3503c9f3fd4c","study_id":"6197b3f67c2b5cd3b6d9596a","session_id":"619be31d28fdec7c2c10cb6c","condition":"full-information","relevant_dimensions":["pattern","legs"],"bee_group":{"antennae":"X","wings":"X","pattern":"D","legs":"M"},"bonus":1.1600000000000008},{"rt":13316.399999976158,"stimulus":"bees-with-color/bee-A1DM.svg","response":1,"trial_type":"image-button-response","trial_index":53,"time_elapsed":1229580,"internal_node_id":"0.0-4.0-0.21","subject_id":"5e849bb9507a3503c9f3fd4c","study_id":"6197b3f67c2b5cd3b6d9596a","session_id":"619be31d28fdec7c2c10cb6c","condition":"full-information","relevant_dimensions":["pattern","legs"],"bee_group":{"antennae":"X","wings":"X","pattern":"D","legs":"M"},"action":"avoid","summary":"good-avoid","bonus":1.1600000000000008},{"rt":2139,"stimulus":"\n                    <p><b>Action: <em>avoid</em></b></p>\n                    <p>This is the bee that you just saw.</p>\n                    <img src=\"bees-with-color/bee-A1DM.svg\" width=\"200\">\n                    <p><span class=\"greenText\">Good choice!</span>  This bee would have stung you.<br>Your bonus pay is unchanged, and remains at $0.64.</p>\n            ","response":0,"trial_type":"html-button-response","trial_index":54,"time_elapsed":1231720,"internal_node_id":"0.0-4.0-1.21","subject_id":"5e849bb9507a3503c9f3fd4c","study_id":"6197b3f67c2b5cd3b6d9596a","session_id":"619be31d28fdec7c2c10cb6c","condition":"full-information","relevant_dimensions":["pattern","legs"],"bee_group":{"antennae":"X","wings":"X","pattern":"D","legs":"M"},"bonus":1.1600000000000008},{"rt":16698.5,"stimulus":"bees-with-color/bee-B2DF.svg","response":0,"trial_type":"image-button-response","trial_index":55,"time_elapsed":1248420,"internal_node_id":"0.0-4.0-0.22","subject_id":"5e849bb9507a3503c9f3fd4c","study_id":"6197b3f67c2b5cd3b6d9596a","session_id":"619be31d28fdec7c2c10cb6c","condition":"full-information","relevant_dimensions":["pattern","legs"],"bee_group":{"antennae":"X","wings":"X","pattern":"D","legs":"M"},"action":"harvest","summary":"good-harvest","bonus":1.1600000000000008},{"rt":1287.9000000953674,"stimulus":"\n                    <p><b>Action: <em>harvest</em></b></p>\n                    <p>This is the bee that you just saw.</p>\n                    <img src=\"bees-with-color/bee-B2DF.svg\" width=\"200\">\n                    <p><span class=\"greenText\"><b>Successful harvest!</b></span><br>Your pay has increased by $0.02. Your bonus pay is now $0.66.</p>\n            ","response":0,"trial_type":"html-button-response","trial_index":56,"time_elapsed":1249710,"internal_node_id":"0.0-4.0-1.22","subject_id":"5e849bb9507a3503c9f3fd4c","study_id":"6197b3f67c2b5cd3b6d9596a","session_id":"619be31d28fdec7c2c10cb6c","condition":"full-information","relevant_dimensions":["pattern","legs"],"bee_group":{"antennae":"X","wings":"X","pattern":"D","legs":"M"},"bonus":1.1600000000000008},{"rt":7646.800000071526,"stimulus":"bees-with-color/bee-B1SF.svg","response":0,"trial_type":"image-button-response","trial_index":57,"time_elapsed":1257358,"internal_node_id":"0.0-4.0-0.23","subject_id":"5e849bb9507a3503c9f3fd4c","study_id":"6197b3f67c2b5cd3b6d9596a","session_id":"619be31d28fdec7c2c10cb6c","condition":"full-information","relevant_dimensions":["pattern","legs"],"bee_group":{"antennae":"X","wings":"X","pattern":"D","legs":"M"},"action":"harvest","summary":"good-harvest","bonus":1.1600000000000008},{"rt":1328.7000000476837,"stimulus":"\n                    <p><b>Action: <em>harvest</em></b></p>\n                    <p>This is the bee that you just saw.</p>\n                    <img src=\"bees-with-color/bee-B1SF.svg\" width=\"200\">\n                    <p><span class=\"greenText\"><b>Successful harvest!</b></span><br>Your pay has increased by $0.02. Your bonus pay is now $0.68.</p>\n            ","response":0,"trial_type":"html-button-response","trial_index":58,"time_elapsed":1258688,"internal_node_id":"0.0-4.0-1.23","subject_id":"5e849bb9507a3503c9f3fd4c","study_id":"6197b3f67c2b5cd3b6d9596a","session_id":"619be31d28fdec7c2c10cb6c","condition":"full-information","relevant_dimensions":["pattern","legs"],"bee_group":{"antennae":"X","wings":"X","pattern":"D","legs":"M"},"bonus":1.1600000000000008},{"rt":6104.300000071526,"stimulus":"bees-with-color/bee-B2SF.svg","response":0,"trial_type":"image-button-response","trial_index":59,"time_elapsed":1264795,"internal_node_id":"0.0-4.0-0.24","subject_id":"5e849bb9507a3503c9f3fd4c","study_id":"6197b3f67c2b5cd3b6d9596a","session_id":"619be31d28fdec7c2c10cb6c","condition":"full-information","relevant_dimensions":["pattern","legs"],"bee_group":{"antennae":"X","wings":"X","pattern":"D","legs":"M"},"action":"harvest","summary":"good-harvest","bonus":1.1600000000000008},{"rt":906.2000000476837,"stimulus":"\n                    <p><b>Action: <em>harvest</em></b></p>\n                    <p>This is the bee that you just saw.</p>\n                    <img src=\"bees-with-color/bee-B2SF.svg\" width=\"200\">\n                    <p><span class=\"greenText\"><b>Successful harvest!</b></span><br>Your pay has increased by $0.02. Your bonus pay is now $0.70.</p>\n            ","response":0,"trial_type":"html-button-response","trial_index":60,"time_elapsed":1265702,"internal_node_id":"0.0-4.0-1.24","subject_id":"5e849bb9507a3503c9f3fd4c","study_id":"6197b3f67c2b5cd3b6d9596a","session_id":"619be31d28fdec7c2c10cb6c","condition":"full-information","relevant_dimensions":["pattern","legs"],"bee_group":{"antennae":"X","wings":"X","pattern":"D","legs":"M"},"bonus":1.1600000000000008},{"rt":5652.399999976158,"stimulus":"bees-with-color/bee-B2DM.svg","response":1,"trial_type":"image-button-response","trial_index":61,"time_elapsed":1271357,"internal_node_id":"0.0-4.0-0.25","subject_id":"5e849bb9507a3503c9f3fd4c","study_id":"6197b3f67c2b5cd3b6d9596a","session_id":"619be31d28fdec7c2c10cb6c","condition":"full-information","relevant_dimensions":["pattern","legs"],"bee_group":{"antennae":"X","wings":"X","pattern":"D","legs":"M"},"action":"avoid","summary":"good-avoid","bonus":1.1600000000000008},{"rt":970.8999999761581,"stimulus":"\n                    <p><b>Action: <em>avoid</em></b></p>\n                    <p>This is the bee that you just saw.</p>\n                    <img src=\"bees-with-color/bee-B2DM.svg\" width=\"200\">\n                    <p><span class=\"greenText\">Good choice!</span>  This bee would have stung you.<br>Your bonus pay is unchanged, and remains at $0.70.</p>\n            ","response":0,"trial_type":"html-button-response","trial_index":62,"time_elapsed":1272329,"internal_node_id":"0.0-4.0-1.25","subject_id":"5e849bb9507a3503c9f3fd4c","study_id":"6197b3f67c2b5cd3b6d9596a","session_id":"619be31d28fdec7c2c10cb6c","condition":"full-information","relevant_dimensions":["pattern","legs"],"bee_group":{"antennae":"X","wings":"X","pattern":"D","legs":"M"},"bonus":1.1600000000000008},{"rt":10792.300000071526,"stimulus":"bees-with-color/bee-A1SF.svg","response":0,"trial_type":"image-button-response","trial_index":63,"time_elapsed":1283122,"internal_node_id":"0.0-4.0-0.26","subject_id":"5e849bb9507a3503c9f3fd4c","study_id":"6197b3f67c2b5cd3b6d9596a","session_id":"619be31d28fdec7c2c10cb6c","condition":"full-information","relevant_dimensions":["pattern","legs"],"bee_group":{"antennae":"X","wings":"X","pattern":"D","legs":"M"},"action":"harvest","summary":"good-harvest","bonus":1.1600000000000008},{"rt":970.9000000953674,"stimulus":"\n                    <p><b>Action: <em>harvest</em></b></p>\n                    <p>This is the bee that you just saw.</p>\n                    <img src=\"bees-with-color/bee-A1SF.svg\" width=\"200\">\n                    <p><span class=\"greenText\"><b>Successful harvest!</b></span><br>Your pay has increased by $0.02. Your bonus pay is now $0.72.</p>\n            ","response":0,"trial_type":"html-button-response","trial_index":64,"time_elapsed":1284094,"internal_node_id":"0.0-4.0-1.26","subject_id":"5e849bb9507a3503c9f3fd4c","study_id":"6197b3f67c2b5cd3b6d9596a","session_id":"619be31d28fdec7c2c10cb6c","condition":"full-information","relevant_dimensions":["pattern","legs"],"bee_group":{"antennae":"X","wings":"X","pattern":"D","legs":"M"},"bonus":1.1600000000000008},{"rt":7176.5,"stimulus":"bees-with-color/bee-B1DM.svg","response":1,"trial_type":"image-button-response","trial_index":65,"time_elapsed":1291272,"internal_node_id":"0.0-4.0-0.27","subject_id":"5e849bb9507a3503c9f3fd4c","study_id":"6197b3f67c2b5cd3b6d9596a","session_id":"619be31d28fdec7c2c10cb6c","condition":"full-information","relevant_dimensions":["pattern","legs"],"bee_group":{"antennae":"X","wings":"X","pattern":"D","legs":"M"},"action":"avoid","summary":"good-avoid","bonus":1.1600000000000008},{"rt":812.8000000715256,"stimulus":"\n                    <p><b>Action: <em>avoid</em></b></p>\n                    <p>This is the bee that you just saw.</p>\n                    <img src=\"bees-with-color/bee-B1DM.svg\" width=\"200\">\n                    <p><span class=\"greenText\">Good choice!</span>  This bee would have stung you.<br>Your bonus pay is unchanged, and remains at $0.72.</p>\n            ","response":0,"trial_type":"html-button-response","trial_index":66,"time_elapsed":1292086,"internal_node_id":"0.0-4.0-1.27","subject_id":"5e849bb9507a3503c9f3fd4c","study_id":"6197b3f67c2b5cd3b6d9596a","session_id":"619be31d28fdec7c2c10cb6c","condition":"full-information","relevant_dimensions":["pattern","legs"],"bee_group":{"antennae":"X","wings":"X","pattern":"D","legs":"M"},"bonus":1.1600000000000008},{"rt":9624.300000071526,"stimulus":"bees-with-color/bee-B1SM.svg","response":0,"trial_type":"image-button-response","trial_index":67,"time_elapsed":1301712,"internal_node_id":"0.0-4.0-0.28","subject_id":"5e849bb9507a3503c9f3fd4c","study_id":"6197b3f67c2b5cd3b6d9596a","session_id":"619be31d28fdec7c2c10cb6c","condition":"full-information","relevant_dimensions":["pattern","legs"],"bee_group":{"antennae":"X","wings":"X","pattern":"D","legs":"M"},"action":"harvest","summary":"good-harvest","bonus":1.1600000000000008},{"rt":1103.6000000238419,"stimulus":"\n                    <p><b>Action: <em>harvest</em></b></p>\n                    <p>This is the bee that you just saw.</p>\n                    <img src=\"bees-with-color/bee-B1SM.svg\" width=\"200\">\n                    <p><span class=\"greenText\"><b>Successful harvest!</b></span><br>Your pay has increased by $0.02. Your bonus pay is now $0.74.</p>\n            ","response":0,"trial_type":"html-button-response","trial_index":68,"time_elapsed":1302817,"internal_node_id":"0.0-4.0-1.28","subject_id":"5e849bb9507a3503c9f3fd4c","study_id":"6197b3f67c2b5cd3b6d9596a","session_id":"619be31d28fdec7c2c10cb6c","condition":"full-information","relevant_dimensions":["pattern","legs"],"bee_group":{"antennae":"X","wings":"X","pattern":"D","legs":"M"},"bonus":1.1600000000000008},{"rt":7883.899999976158,"stimulus":"bees-with-color/bee-A2DF.svg","response":0,"trial_type":"image-button-response","trial_index":69,"time_elapsed":1310702,"internal_node_id":"0.0-4.0-0.29","subject_id":"5e849bb9507a3503c9f3fd4c","study_id":"6197b3f67c2b5cd3b6d9596a","session_id":"619be31d28fdec7c2c10cb6c","condition":"full-information","relevant_dimensions":["pattern","legs"],"bee_group":{"antennae":"X","wings":"X","pattern":"D","legs":"M"},"action":"harvest","summary":"good-harvest","bonus":1.1600000000000008},{"rt":868.8000000715256,"stimulus":"\n                    <p><b>Action: <em>harvest</em></b></p>\n                    <p>This is the bee that you just saw.</p>\n                    <img src=\"bees-with-color/bee-A2DF.svg\" width=\"200\">\n                    <p><span class=\"greenText\"><b>Successful harvest!</b></span><br>Your pay has increased by $0.02. Your bonus pay is now $0.76.</p>\n            ","response":0,"trial_type":"html-button-response","trial_index":70,"time_elapsed":1311572,"internal_node_id":"0.0-4.0-1.29","subject_id":"5e849bb9507a3503c9f3fd4c","study_id":"6197b3f67c2b5cd3b6d9596a","session_id":"619be31d28fdec7c2c10cb6c","condition":"full-information","relevant_dimensions":["pattern","legs"],"bee_group":{"antennae":"X","wings":"X","pattern":"D","legs":"M"},"bonus":1.1600000000000008},{"rt":7854.699999928474,"stimulus":"bees-with-color/bee-A2SF.svg","response":0,"trial_type":"image-button-response","trial_index":71,"time_elapsed":1319429,"internal_node_id":"0.0-4.0-0.30","subject_id":"5e849bb9507a3503c9f3fd4c","study_id":"6197b3f67c2b5cd3b6d9596a","session_id":"619be31d28fdec7c2c10cb6c","condition":"full-information","relevant_dimensions":["pattern","legs"],"bee_group":{"antennae":"X","wings":"X","pattern":"D","legs":"M"},"action":"harvest","summary":"good-harvest","bonus":1.1600000000000008},{"rt":964.4000000953674,"stimulus":"\n                    <p><b>Action: <em>harvest</em></b></p>\n                    <p>This is the bee that you just saw.</p>\n                    <img src=\"bees-with-color/bee-A2SF.svg\" width=\"200\">\n                    <p><span class=\"greenText\"><b>Successful harvest!</b></span><br>Your pay has increased by $0.02. Your bonus pay is now $0.78.</p>\n            ","response":0,"trial_type":"html-button-response","trial_index":72,"time_elapsed":1320394,"internal_node_id":"0.0-4.0-1.30","subject_id":"5e849bb9507a3503c9f3fd4c","study_id":"6197b3f67c2b5cd3b6d9596a","session_id":"619be31d28fdec7c2c10cb6c","condition":"full-information","relevant_dimensions":["pattern","legs"],"bee_group":{"antennae":"X","wings":"X","pattern":"D","legs":"M"},"bonus":1.1600000000000008},{"rt":6806.5,"stimulus":"bees-with-color/bee-B2SM.svg","response":0,"trial_type":"image-button-response","trial_index":73,"time_elapsed":1327202,"internal_node_id":"0.0-4.0-0.31","subject_id":"5e849bb9507a3503c9f3fd4c","study_id":"6197b3f67c2b5cd3b6d9596a","session_id":"619be31d28fdec7c2c10cb6c","condition":"full-information","relevant_dimensions":["pattern","legs"],"bee_group":{"antennae":"X","wings":"X","pattern":"D","legs":"M"},"action":"harvest","summary":"good-harvest","bonus":1.1600000000000008},{"rt":828.8999999761581,"stimulus":"\n                    <p><b>Action: <em>harvest</em></b></p>\n                    <p>This is the bee that you just saw.</p>\n                    <img src=\"bees-with-color/bee-B2SM.svg\" width=\"200\">\n                    <p><span class=\"greenText\"><b>Successful harvest!</b></span><br>Your pay has increased by $0.02. Your bonus pay is now $0.80.</p>\n            ","response":0,"trial_type":"html-button-response","trial_index":74,"time_elapsed":1328032,"internal_node_id":"0.0-4.0-1.31","subject_id":"5e849bb9507a3503c9f3fd4c","study_id":"6197b3f67c2b5cd3b6d9596a","session_id":"619be31d28fdec7c2c10cb6c","condition":"full-information","relevant_dimensions":["pattern","legs"],"bee_group":{"antennae":"X","wings":"X","pattern":"D","legs":"M"},"bonus":1.1600000000000008},{"rt":5718.899999976158,"stimulus":"bees-with-color/bee-A1SF.svg","response":0,"trial_type":"image-button-response","trial_index":75,"time_elapsed":1333752,"internal_node_id":"0.0-4.0-0.32","subject_id":"5e849bb9507a3503c9f3fd4c","study_id":"6197b3f67c2b5cd3b6d9596a","session_id":"619be31d28fdec7c2c10cb6c","condition":"full-information","relevant_dimensions":["pattern","legs"],"bee_group":{"antennae":"X","wings":"X","pattern":"D","legs":"M"},"action":"harvest","summary":"good-harvest","bonus":1.1600000000000008},{"rt":1042.6000000238419,"stimulus":"\n                    <p><b>Action: <em>harvest</em></b></p>\n                    <p>This is the bee that you just saw.</p>\n                    <img src=\"bees-with-color/bee-A1SF.svg\" width=\"200\">\n                    <p><span class=\"greenText\"><b>Successful harvest!</b></span><br>Your pay has increased by $0.02. Your bonus pay is now $0.82.</p>\n            ","response":0,"trial_type":"html-button-response","trial_index":76,"time_elapsed":1334796,"internal_node_id":"0.0-4.0-1.32","subject_id":"5e849bb9507a3503c9f3fd4c","study_id":"6197b3f67c2b5cd3b6d9596a","session_id":"619be31d28fdec7c2c10cb6c","condition":"full-information","relevant_dimensions":["pattern","legs"],"bee_group":{"antennae":"X","wings":"X","pattern":"D","legs":"M"},"bonus":1.1600000000000008},{"rt":7088.699999928474,"stimulus":"bees-with-color/bee-A2SF.svg","response":0,"trial_type":"image-button-response","trial_index":77,"time_elapsed":1341886,"internal_node_id":"0.0-4.0-0.33","subject_id":"5e849bb9507a3503c9f3fd4c","study_id":"6197b3f67c2b5cd3b6d9596a","session_id":"619be31d28fdec7c2c10cb6c","condition":"full-information","relevant_dimensions":["pattern","legs"],"bee_group":{"antennae":"X","wings":"X","pattern":"D","legs":"M"},"action":"harvest","summary":"good-harvest","bonus":1.1600000000000008},{"rt":908.8999999761581,"stimulus":"\n                    <p><b>Action: <em>harvest</em></b></p>\n                    <p>This is the bee that you just saw.</p>\n                    <img src=\"bees-with-color/bee-A2SF.svg\" width=\"200\">\n                    <p><span class=\"greenText\"><b>Successful harvest!</b></span><br>Your pay has increased by $0.02. Your bonus pay is now $0.84.</p>\n            ","response":0,"trial_type":"html-button-response","trial_index":78,"time_elapsed":1342796,"internal_node_id":"0.0-4.0-1.33","subject_id":"5e849bb9507a3503c9f3fd4c","study_id":"6197b3f67c2b5cd3b6d9596a","session_id":"619be31d28fdec7c2c10cb6c","condition":"full-information","relevant_dimensions":["pattern","legs"],"bee_group":{"antennae":"X","wings":"X","pattern":"D","legs":"M"},"bonus":1.1600000000000008},{"rt":10496.399999976158,"stimulus":"bees-with-color/bee-B1DF.svg","response":1,"trial_type":"image-button-response","trial_index":79,"time_elapsed":1353294,"internal_node_id":"0.0-4.0-0.34","subject_id":"5e849bb9507a3503c9f3fd4c","study_id":"6197b3f67c2b5cd3b6d9596a","session_id":"619be31d28fdec7c2c10cb6c","condition":"full-information","relevant_dimensions":["pattern","legs"],"bee_group":{"antennae":"X","wings":"X","pattern":"D","legs":"M"},"action":"avoid","summary":"bad-avoid","bonus":1.1600000000000008},{"rt":1574.5,"stimulus":"\n                    <p><b>Action: <em>avoid</em></b></p>\n                    <p>This is the bee that you just saw.</p>\n                    <img src=\"bees-with-color/bee-B1DF.svg\" width=\"200\">\n                    <p><span class=\"redText\">Bad choice,</span> the bee was friendly.<br>Your bonus pay is unchanged, and remains at $0.84.</p>\n            ","response":0,"trial_type":"html-button-response","trial_index":80,"time_elapsed":1354871,"internal_node_id":"0.0-4.0-1.34","subject_id":"5e849bb9507a3503c9f3fd4c","study_id":"6197b3f67c2b5cd3b6d9596a","session_id":"619be31d28fdec7c2c10cb6c","condition":"full-information","relevant_dimensions":["pattern","legs"],"bee_group":{"antennae":"X","wings":"X","pattern":"D","legs":"M"},"bonus":1.1600000000000008},{"rt":10441.299999952316,"stimulus":"bees-with-color/bee-B2SM.svg","response":0,"trial_type":"image-button-response","trial_index":81,"time_elapsed":1365314,"internal_node_id":"0.0-4.0-0.35","subject_id":"5e849bb9507a3503c9f3fd4c","study_id":"6197b3f67c2b5cd3b6d9596a","session_id":"619be31d28fdec7c2c10cb6c","condition":"full-information","relevant_dimensions":["pattern","legs"],"bee_group":{"antennae":"X","wings":"X","pattern":"D","legs":"M"},"action":"harvest","summary":"good-harvest","bonus":1.1600000000000008},{"rt":821.2999999523163,"stimulus":"\n                    <p><b>Action: <em>harvest</em></b></p>\n                    <p>This is the bee that you just saw.</p>\n                    <img src=\"bees-with-color/bee-B2SM.svg\" width=\"200\">\n                    <p><span class=\"greenText\"><b>Successful harvest!</b></span><br>Your pay has increased by $0.02. Your bonus pay is now $0.86.</p>\n            ","response":0,"trial_type":"html-button-response","trial_index":82,"time_elapsed":1366136,"internal_node_id":"0.0-4.0-1.35","subject_id":"5e849bb9507a3503c9f3fd4c","study_id":"6197b3f67c2b5cd3b6d9596a","session_id":"619be31d28fdec7c2c10cb6c","condition":"full-information","relevant_dimensions":["pattern","legs"],"bee_group":{"antennae":"X","wings":"X","pattern":"D","legs":"M"},"bonus":1.1600000000000008},{"rt":15308.799999952316,"stimulus":"bees-with-color/bee-A1SM.svg","response":0,"trial_type":"image-button-response","trial_index":83,"time_elapsed":1381446,"internal_node_id":"0.0-4.0-0.36","subject_id":"5e849bb9507a3503c9f3fd4c","study_id":"6197b3f67c2b5cd3b6d9596a","session_id":"619be31d28fdec7c2c10cb6c","condition":"full-information","relevant_dimensions":["pattern","legs"],"bee_group":{"antennae":"X","wings":"X","pattern":"D","legs":"M"},"action":"harvest","summary":"good-harvest","bonus":1.1600000000000008},{"rt":882.3000000715256,"stimulus":"\n                    <p><b>Action: <em>harvest</em></b></p>\n                    <p>This is the bee that you just saw.</p>\n                    <img src=\"bees-with-color/bee-A1SM.svg\" width=\"200\">\n                    <p><span class=\"greenText\"><b>Successful harvest!</b></span><br>Your pay has increased by $0.02. Your bonus pay is now $0.88.</p>\n            ","response":0,"trial_type":"html-button-response","trial_index":84,"time_elapsed":1382330,"internal_node_id":"0.0-4.0-1.36","subject_id":"5e849bb9507a3503c9f3fd4c","study_id":"6197b3f67c2b5cd3b6d9596a","session_id":"619be31d28fdec7c2c10cb6c","condition":"full-information","relevant_dimensions":["pattern","legs"],"bee_group":{"antennae":"X","wings":"X","pattern":"D","legs":"M"},"bonus":1.1600000000000008},{"rt":10082.899999976158,"stimulus":"bees-with-color/bee-B1DM.svg","response":1,"trial_type":"image-button-response","trial_index":85,"time_elapsed":1392414,"internal_node_id":"0.0-4.0-0.37","subject_id":"5e849bb9507a3503c9f3fd4c","study_id":"6197b3f67c2b5cd3b6d9596a","session_id":"619be31d28fdec7c2c10cb6c","condition":"full-information","relevant_dimensions":["pattern","legs"],"bee_group":{"antennae":"X","wings":"X","pattern":"D","legs":"M"},"action":"avoid","summary":"good-avoid","bonus":1.1600000000000008},{"rt":1006.6000000238419,"stimulus":"\n                    <p><b>Action: <em>avoid</em></b></p>\n                    <p>This is the bee that you just saw.</p>\n                    <img src=\"bees-with-color/bee-B1DM.svg\" width=\"200\">\n                    <p><span class=\"greenText\">Good choice!</span>  This bee would have stung you.<br>Your bonus pay is unchanged, and remains at $0.88.</p>\n            ","response":0,"trial_type":"html-button-response","trial_index":86,"time_elapsed":1393422,"internal_node_id":"0.0-4.0-1.37","subject_id":"5e849bb9507a3503c9f3fd4c","study_id":"6197b3f67c2b5cd3b6d9596a","session_id":"619be31d28fdec7c2c10cb6c","condition":"full-information","relevant_dimensions":["pattern","legs"],"bee_group":{"antennae":"X","wings":"X","pattern":"D","legs":"M"},"bonus":1.1600000000000008},{"rt":5660.5,"stimulus":"bees-with-color/bee-A2DM.svg","response":1,"trial_type":"image-button-response","trial_index":87,"time_elapsed":1399084,"internal_node_id":"0.0-4.0-0.38","subject_id":"5e849bb9507a3503c9f3fd4c","study_id":"6197b3f67c2b5cd3b6d9596a","session_id":"619be31d28fdec7c2c10cb6c","condition":"full-information","relevant_dimensions":["pattern","legs"],"bee_group":{"antennae":"X","wings":"X","pattern":"D","legs":"M"},"action":"avoid","summary":"good-avoid","bonus":1.1600000000000008},{"rt":768.7000000476837,"stimulus":"\n                    <p><b>Action: <em>avoid</em></b></p>\n                    <p>This is the bee that you just saw.</p>\n                    <img src=\"bees-with-color/bee-A2DM.svg\" width=\"200\">\n                    <p><span class=\"greenText\">Good choice!</span>  This bee would have stung you.<br>Your bonus pay is unchanged, and remains at $0.88.</p>\n            ","response":0,"trial_type":"html-button-response","trial_index":88,"time_elapsed":1399854,"internal_node_id":"0.0-4.0-1.38","subject_id":"5e849bb9507a3503c9f3fd4c","study_id":"6197b3f67c2b5cd3b6d9596a","session_id":"619be31d28fdec7c2c10cb6c","condition":"full-information","relevant_dimensions":["pattern","legs"],"bee_group":{"antennae":"X","wings":"X","pattern":"D","legs":"M"},"bonus":1.1600000000000008},{"rt":11078.800000071526,"stimulus":"bees-with-color/bee-A2DF.svg","response":0,"trial_type":"image-button-response","trial_index":89,"time_elapsed":1410934,"internal_node_id":"0.0-4.0-0.39","subject_id":"5e849bb9507a3503c9f3fd4c","study_id":"6197b3f67c2b5cd3b6d9596a","session_id":"619be31d28fdec7c2c10cb6c","condition":"full-information","relevant_dimensions":["pattern","legs"],"bee_group":{"antennae":"X","wings":"X","pattern":"D","legs":"M"},"action":"harvest","summary":"good-harvest","bonus":1.1600000000000008},{"rt":907.2000000476837,"stimulus":"\n                    <p><b>Action: <em>harvest</em></b></p>\n                    <p>This is the bee that you just saw.</p>\n                    <img src=\"bees-with-color/bee-A2DF.svg\" width=\"200\">\n                    <p><span class=\"greenText\"><b>Successful harvest!</b></span><br>Your pay has increased by $0.02. Your bonus pay is now $0.90.</p>\n            ","response":0,"trial_type":"html-button-response","trial_index":90,"time_elapsed":1411843,"internal_node_id":"0.0-4.0-1.39","subject_id":"5e849bb9507a3503c9f3fd4c","study_id":"6197b3f67c2b5cd3b6d9596a","session_id":"619be31d28fdec7c2c10cb6c","condition":"full-information","relevant_dimensions":["pattern","legs"],"bee_group":{"antennae":"X","wings":"X","pattern":"D","legs":"M"},"bonus":1.1600000000000008},{"rt":5627.600000023842,"stimulus":"bees-with-color/bee-B2DM.svg","response":0,"trial_type":"image-button-response","trial_index":91,"time_elapsed":1417472,"internal_node_id":"0.0-4.0-0.40","subject_id":"5e849bb9507a3503c9f3fd4c","study_id":"6197b3f67c2b5cd3b6d9596a","session_id":"619be31d28fdec7c2c10cb6c","condition":"full-information","relevant_dimensions":["pattern","legs"],"bee_group":{"antennae":"X","wings":"X","pattern":"D","legs":"M"},"action":"harvest","summary":"bad-harvest","bonus":1.1600000000000008},{"rt":38354.200000047684,"stimulus":"\n                    <p><b>Action: <em>harvest</em></b></p>\n                    <p>This is the bee that you just saw.</p>\n                    <img src=\"bees-with-color/bee-B2DM.svg\" width=\"200\">\n                    <p><span class=\"redText\">Bad choice, the bee was angry.</span><br><b>You have been stung!</b><br>Your pay has been decreased by $0.10. Your bonus pay is now $0.80.</p>\n            ","response":0,"trial_type":"html-button-response","trial_index":92,"time_elapsed":1455828,"internal_node_id":"0.0-4.0-1.40","subject_id":"5e849bb9507a3503c9f3fd4c","study_id":"6197b3f67c2b5cd3b6d9596a","session_id":"619be31d28fdec7c2c10cb6c","condition":"full-information","relevant_dimensions":["pattern","legs"],"bee_group":{"antennae":"X","wings":"X","pattern":"D","legs":"M"},"bonus":1.1600000000000008},{"rt":18867,"stimulus":"bees-with-color/bee-B1SM.svg","response":0,"trial_type":"image-button-response","trial_index":93,"time_elapsed":1474696,"internal_node_id":"0.0-4.0-0.41","subject_id":"5e849bb9507a3503c9f3fd4c","study_id":"6197b3f67c2b5cd3b6d9596a","session_id":"619be31d28fdec7c2c10cb6c","condition":"full-information","relevant_dimensions":["pattern","legs"],"bee_group":{"antennae":"X","wings":"X","pattern":"D","legs":"M"},"action":"harvest","summary":"good-harvest","bonus":1.1600000000000008},{"rt":9086.300000071526,"stimulus":"\n                    <p><b>Action: <em>harvest</em></b></p>\n                    <p>This is the bee that you just saw.</p>\n                    <img src=\"bees-with-color/bee-B1SM.svg\" width=\"200\">\n                    <p><span class=\"greenText\"><b>Successful harvest!</b></span><br>Your pay has increased by $0.02. Your bonus pay is now $0.82.</p>\n            ","response":0,"trial_type":"html-button-response","trial_index":94,"time_elapsed":1483784,"internal_node_id":"0.0-4.0-1.41","subject_id":"5e849bb9507a3503c9f3fd4c","study_id":"6197b3f67c2b5cd3b6d9596a","session_id":"619be31d28fdec7c2c10cb6c","condition":"full-information","relevant_dimensions":["pattern","legs"],"bee_group":{"antennae":"X","wings":"X","pattern":"D","legs":"M"},"bonus":1.1600000000000008},{"rt":8639,"stimulus":"bees-with-color/bee-A1DM.svg","response":1,"trial_type":"image-button-response","trial_index":95,"time_elapsed":1492424,"internal_node_id":"0.0-4.0-0.42","subject_id":"5e849bb9507a3503c9f3fd4c","study_id":"6197b3f67c2b5cd3b6d9596a","session_id":"619be31d28fdec7c2c10cb6c","condition":"full-information","relevant_dimensions":["pattern","legs"],"bee_group":{"antennae":"X","wings":"X","pattern":"D","legs":"M"},"action":"avoid","summary":"good-avoid","bonus":1.1600000000000008},{"rt":1046.7999999523163,"stimulus":"\n                    <p><b>Action: <em>avoid</em></b></p>\n                    <p>This is the bee that you just saw.</p>\n                    <img src=\"bees-with-color/bee-A1DM.svg\" width=\"200\">\n                    <p><span class=\"greenText\">Good choice!</span>  This bee would have stung you.<br>Your bonus pay is unchanged, and remains at $0.82.</p>\n            ","response":0,"trial_type":"html-button-response","trial_index":96,"time_elapsed":1493472,"internal_node_id":"0.0-4.0-1.42","subject_id":"5e849bb9507a3503c9f3fd4c","study_id":"6197b3f67c2b5cd3b6d9596a","session_id":"619be31d28fdec7c2c10cb6c","condition":"full-information","relevant_dimensions":["pattern","legs"],"bee_group":{"antennae":"X","wings":"X","pattern":"D","legs":"M"},"bonus":1.1600000000000008},{"rt":19818.799999952316,"stimulus":"bees-with-color/bee-B2SF.svg","response":1,"trial_type":"image-button-response","trial_index":97,"time_elapsed":1513292,"internal_node_id":"0.0-4.0-0.43","subject_id":"5e849bb9507a3503c9f3fd4c","study_id":"6197b3f67c2b5cd3b6d9596a","session_id":"619be31d28fdec7c2c10cb6c","condition":"full-information","relevant_dimensions":["pattern","legs"],"bee_group":{"antennae":"X","wings":"X","pattern":"D","legs":"M"},"action":"avoid","summary":"bad-avoid","bonus":1.1600000000000008},{"rt":14672.799999952316,"stimulus":"\n                    <p><b>Action: <em>avoid</em></b></p>\n                    <p>This is the bee that you just saw.</p>\n                    <img src=\"bees-with-color/bee-B2SF.svg\" width=\"200\">\n                    <p><span class=\"redText\">Bad choice,</span> the bee was friendly.<br>Your bonus pay is unchanged, and remains at $0.82.</p>\n            ","response":0,"trial_type":"html-button-response","trial_index":98,"time_elapsed":1527966,"internal_node_id":"0.0-4.0-1.43","subject_id":"5e849bb9507a3503c9f3fd4c","study_id":"6197b3f67c2b5cd3b6d9596a","session_id":"619be31d28fdec7c2c10cb6c","condition":"full-information","relevant_dimensions":["pattern","legs"],"bee_group":{"antennae":"X","wings":"X","pattern":"D","legs":"M"},"bonus":1.1600000000000008},{"rt":5186.5,"stimulus":"bees-with-color/bee-A2SM.svg","response":0,"trial_type":"image-button-response","trial_index":99,"time_elapsed":1533154,"internal_node_id":"0.0-4.0-0.44","subject_id":"5e849bb9507a3503c9f3fd4c","study_id":"6197b3f67c2b5cd3b6d9596a","session_id":"619be31d28fdec7c2c10cb6c","condition":"full-information","relevant_dimensions":["pattern","legs"],"bee_group":{"antennae":"X","wings":"X","pattern":"D","legs":"M"},"action":"harvest","summary":"good-harvest","bonus":1.1600000000000008},{"rt":797.3999999761581,"stimulus":"\n                    <p><b>Action: <em>harvest</em></b></p>\n                    <p>This is the bee that you just saw.</p>\n                    <img src=\"bees-with-color/bee-A2SM.svg\" width=\"200\">\n                    <p><span class=\"greenText\"><b>Successful harvest!</b></span><br>Your pay has increased by $0.02. Your bonus pay is now $0.84.</p>\n            ","response":0,"trial_type":"html-button-response","trial_index":100,"time_elapsed":1533952,"internal_node_id":"0.0-4.0-1.44","subject_id":"5e849bb9507a3503c9f3fd4c","study_id":"6197b3f67c2b5cd3b6d9596a","session_id":"619be31d28fdec7c2c10cb6c","condition":"full-information","relevant_dimensions":["pattern","legs"],"bee_group":{"antennae":"X","wings":"X","pattern":"D","legs":"M"},"bonus":1.1600000000000008},{"rt":12319.900000095367,"stimulus":"bees-with-color/bee-A1DF.svg","response":1,"trial_type":"image-button-response","trial_index":101,"time_elapsed":1546273,"internal_node_id":"0.0-4.0-0.45","subject_id":"5e849bb9507a3503c9f3fd4c","study_id":"6197b3f67c2b5cd3b6d9596a","session_id":"619be31d28fdec7c2c10cb6c","condition":"full-information","relevant_dimensions":["pattern","legs"],"bee_group":{"antennae":"X","wings":"X","pattern":"D","legs":"M"},"action":"avoid","summary":"bad-avoid","bonus":1.1600000000000008},{"rt":1138.9000000953674,"stimulus":"\n                    <p><b>Action: <em>avoid</em></b></p>\n                    <p>This is the bee that you just saw.</p>\n                    <img src=\"bees-with-color/bee-A1DF.svg\" width=\"200\">\n                    <p><span class=\"redText\">Bad choice,</span> the bee was friendly.<br>Your bonus pay is unchanged, and remains at $0.84.</p>\n            ","response":0,"trial_type":"html-button-response","trial_index":102,"time_elapsed":1547414,"internal_node_id":"0.0-4.0-1.45","subject_id":"5e849bb9507a3503c9f3fd4c","study_id":"6197b3f67c2b5cd3b6d9596a","session_id":"619be31d28fdec7c2c10cb6c","condition":"full-information","relevant_dimensions":["pattern","legs"],"bee_group":{"antennae":"X","wings":"X","pattern":"D","legs":"M"},"bonus":1.1600000000000008},{"rt":5836.399999976158,"stimulus":"bees-with-color/bee-B2DF.svg","response":0,"trial_type":"image-button-response","trial_index":103,"time_elapsed":1553251,"internal_node_id":"0.0-4.0-0.46","subject_id":"5e849bb9507a3503c9f3fd4c","study_id":"6197b3f67c2b5cd3b6d9596a","session_id":"619be31d28fdec7c2c10cb6c","condition":"full-information","relevant_dimensions":["pattern","legs"],"bee_group":{"antennae":"X","wings":"X","pattern":"D","legs":"M"},"action":"harvest","summary":"good-harvest","bonus":1.1600000000000008},{"rt":1063,"stimulus":"\n                    <p><b>Action: <em>harvest</em></b></p>\n                    <p>This is the bee that you just saw.</p>\n                    <img src=\"bees-with-color/bee-B2DF.svg\" width=\"200\">\n                    <p><span class=\"greenText\"><b>Successful harvest!</b></span><br>Your pay has increased by $0.02. Your bonus pay is now $0.86.</p>\n            ","response":0,"trial_type":"html-button-response","trial_index":104,"time_elapsed":1554315,"internal_node_id":"0.0-4.0-1.46","subject_id":"5e849bb9507a3503c9f3fd4c","study_id":"6197b3f67c2b5cd3b6d9596a","session_id":"619be31d28fdec7c2c10cb6c","condition":"full-information","relevant_dimensions":["pattern","legs"],"bee_group":{"antennae":"X","wings":"X","pattern":"D","legs":"M"},"bonus":1.1600000000000008},{"rt":6358.899999976158,"stimulus":"bees-with-color/bee-B1SF.svg","response":1,"trial_type":"image-button-response","trial_index":105,"time_elapsed":1560676,"internal_node_id":"0.0-4.0-0.47","subject_id":"5e849bb9507a3503c9f3fd4c","study_id":"6197b3f67c2b5cd3b6d9596a","session_id":"619be31d28fdec7c2c10cb6c","condition":"full-information","relevant_dimensions":["pattern","legs"],"bee_group":{"antennae":"X","wings":"X","pattern":"D","legs":"M"},"action":"avoid","summary":"bad-avoid","bonus":1.1600000000000008},{"rt":796.7999999523163,"stimulus":"\n                    <p><b>Action: <em>avoid</em></b></p>\n                    <p>This is the bee that you just saw.</p>\n                    <img src=\"bees-with-color/bee-B1SF.svg\" width=\"200\">\n                    <p><span class=\"redText\">Bad choice,</span> the bee was friendly.<br>Your bonus pay is unchanged, and remains at $0.86.</p>\n            ","response":0,"trial_type":"html-button-response","trial_index":106,"time_elapsed":1561474,"internal_node_id":"0.0-4.0-1.47","subject_id":"5e849bb9507a3503c9f3fd4c","study_id":"6197b3f67c2b5cd3b6d9596a","session_id":"619be31d28fdec7c2c10cb6c","condition":"full-information","relevant_dimensions":["pattern","legs"],"bee_group":{"antennae":"X","wings":"X","pattern":"D","legs":"M"},"bonus":1.1600000000000008},{"rt":10764.399999976158,"stimulus":"bees-with-color/bee-B2SM.svg","response":1,"trial_type":"image-button-response","trial_index":107,"time_elapsed":1572240,"internal_node_id":"0.0-4.0-0.48","subject_id":"5e849bb9507a3503c9f3fd4c","study_id":"6197b3f67c2b5cd3b6d9596a","session_id":"619be31d28fdec7c2c10cb6c","condition":"full-information","relevant_dimensions":["pattern","legs"],"bee_group":{"antennae":"X","wings":"X","pattern":"D","legs":"M"},"action":"avoid","summary":"bad-avoid","bonus":1.1600000000000008},{"rt":17688.700000047684,"stimulus":"\n                    <p><b>Action: <em>avoid</em></b></p>\n                    <p>This is the bee that you just saw.</p>\n                    <img src=\"bees-with-color/bee-B2SM.svg\" width=\"200\">\n                    <p><span class=\"redText\">Bad choice,</span> the bee was friendly.<br>Your bonus pay is unchanged, and remains at $0.86.</p>\n            ","response":0,"trial_type":"html-button-response","trial_index":108,"time_elapsed":1589930,"internal_node_id":"0.0-4.0-1.48","subject_id":"5e849bb9507a3503c9f3fd4c","study_id":"6197b3f67c2b5cd3b6d9596a","session_id":"619be31d28fdec7c2c10cb6c","condition":"full-information","relevant_dimensions":["pattern","legs"],"bee_group":{"antennae":"X","wings":"X","pattern":"D","legs":"M"},"bonus":1.1600000000000008},{"rt":24477.899999976158,"stimulus":"bees-with-color/bee-A2SM.svg","response":0,"trial_type":"image-button-response","trial_index":109,"time_elapsed":1614409,"internal_node_id":"0.0-4.0-0.49","subject_id":"5e849bb9507a3503c9f3fd4c","study_id":"6197b3f67c2b5cd3b6d9596a","session_id":"619be31d28fdec7c2c10cb6c","condition":"full-information","relevant_dimensions":["pattern","legs"],"bee_group":{"antennae":"X","wings":"X","pattern":"D","legs":"M"},"action":"harvest","summary":"good-harvest","bonus":1.1600000000000008},{"rt":1273.3000000715256,"stimulus":"\n                    <p><b>Action: <em>harvest</em></b></p>\n                    <p>This is the bee that you just saw.</p>\n                    <img src=\"bees-with-color/bee-A2SM.svg\" width=\"200\">\n                    <p><span class=\"greenText\"><b>Successful harvest!</b></span><br>Your pay has increased by $0.02. Your bonus pay is now $0.88.</p>\n            ","response":0,"trial_type":"html-button-response","trial_index":110,"time_elapsed":1615683,"internal_node_id":"0.0-4.0-1.49","subject_id":"5e849bb9507a3503c9f3fd4c","study_id":"6197b3f67c2b5cd3b6d9596a","session_id":"619be31d28fdec7c2c10cb6c","condition":"full-information","relevant_dimensions":["pattern","legs"],"bee_group":{"antennae":"X","wings":"X","pattern":"D","legs":"M"},"bonus":1.1600000000000008},{"rt":8960.600000023842,"stimulus":"bees-with-color/bee-A1DF.svg","response":0,"trial_type":"image-button-response","trial_index":111,"time_elapsed":1624645,"internal_node_id":"0.0-4.0-0.50","subject_id":"5e849bb9507a3503c9f3fd4c","study_id":"6197b3f67c2b5cd3b6d9596a","session_id":"619be31d28fdec7c2c10cb6c","condition":"full-information","relevant_dimensions":["pattern","legs"],"bee_group":{"antennae":"X","wings":"X","pattern":"D","legs":"M"},"action":"harvest","summary":"good-harvest","bonus":1.1600000000000008},{"rt":843.2000000476837,"stimulus":"\n                    <p><b>Action: <em>harvest</em></b></p>\n                    <p>This is the bee that you just saw.</p>\n                    <img src=\"bees-with-color/bee-A1DF.svg\" width=\"200\">\n                    <p><span class=\"greenText\"><b>Successful harvest!</b></span><br>Your pay has increased by $0.02. Your bonus pay is now $0.90.</p>\n            ","response":0,"trial_type":"html-button-response","trial_index":112,"time_elapsed":1625489,"internal_node_id":"0.0-4.0-1.50","subject_id":"5e849bb9507a3503c9f3fd4c","study_id":"6197b3f67c2b5cd3b6d9596a","session_id":"619be31d28fdec7c2c10cb6c","condition":"full-information","relevant_dimensions":["pattern","legs"],"bee_group":{"antennae":"X","wings":"X","pattern":"D","legs":"M"},"bonus":1.1600000000000008},{"rt":6818.900000095367,"stimulus":"bees-with-color/bee-B1DM.svg","response":1,"trial_type":"image-button-response","trial_index":113,"time_elapsed":1632310,"internal_node_id":"0.0-4.0-0.51","subject_id":"5e849bb9507a3503c9f3fd4c","study_id":"6197b3f67c2b5cd3b6d9596a","session_id":"619be31d28fdec7c2c10cb6c","condition":"full-information","relevant_dimensions":["pattern","legs"],"bee_group":{"antennae":"X","wings":"X","pattern":"D","legs":"M"},"action":"avoid","summary":"good-avoid","bonus":1.1600000000000008},{"rt":836.8999999761581,"stimulus":"\n                    <p><b>Action: <em>avoid</em></b></p>\n                    <p>This is the bee that you just saw.</p>\n                    <img src=\"bees-with-color/bee-B1DM.svg\" width=\"200\">\n                    <p><span class=\"greenText\">Good choice!</span>  This bee would have stung you.<br>Your bonus pay is unchanged, and remains at $0.90.</p>\n            ","response":0,"trial_type":"html-button-response","trial_index":114,"time_elapsed":1633148,"internal_node_id":"0.0-4.0-1.51","subject_id":"5e849bb9507a3503c9f3fd4c","study_id":"6197b3f67c2b5cd3b6d9596a","session_id":"619be31d28fdec7c2c10cb6c","condition":"full-information","relevant_dimensions":["pattern","legs"],"bee_group":{"antennae":"X","wings":"X","pattern":"D","legs":"M"},"bonus":1.1600000000000008},{"rt":9078.5,"stimulus":"bees-with-color/bee-B2SF.svg","response":1,"trial_type":"image-button-response","trial_index":115,"time_elapsed":1642228,"internal_node_id":"0.0-4.0-0.52","subject_id":"5e849bb9507a3503c9f3fd4c","study_id":"6197b3f67c2b5cd3b6d9596a","session_id":"619be31d28fdec7c2c10cb6c","condition":"full-information","relevant_dimensions":["pattern","legs"],"bee_group":{"antennae":"X","wings":"X","pattern":"D","legs":"M"},"action":"avoid","summary":"bad-avoid","bonus":1.1600000000000008},{"rt":1230.2000000476837,"stimulus":"\n                    <p><b>Action: <em>avoid</em></b></p>\n                    <p>This is the bee that you just saw.</p>\n                    <img src=\"bees-with-color/bee-B2SF.svg\" width=\"200\">\n                    <p><span class=\"redText\">Bad choice,</span> the bee was friendly.<br>Your bonus pay is unchanged, and remains at $0.90.</p>\n            ","response":0,"trial_type":"html-button-response","trial_index":116,"time_elapsed":1643459,"internal_node_id":"0.0-4.0-1.52","subject_id":"5e849bb9507a3503c9f3fd4c","study_id":"6197b3f67c2b5cd3b6d9596a","session_id":"619be31d28fdec7c2c10cb6c","condition":"full-information","relevant_dimensions":["pattern","legs"],"bee_group":{"antennae":"X","wings":"X","pattern":"D","legs":"M"},"bonus":1.1600000000000008},{"rt":4312.600000023842,"stimulus":"bees-with-color/bee-A1SF.svg","response":0,"trial_type":"image-button-response","trial_index":117,"time_elapsed":1647774,"internal_node_id":"0.0-4.0-0.53","subject_id":"5e849bb9507a3503c9f3fd4c","study_id":"6197b3f67c2b5cd3b6d9596a","session_id":"619be31d28fdec7c2c10cb6c","condition":"full-information","relevant_dimensions":["pattern","legs"],"bee_group":{"antennae":"X","wings":"X","pattern":"D","legs":"M"},"action":"harvest","summary":"good-harvest","bonus":1.1600000000000008},{"rt":744.7999999523163,"stimulus":"\n                    <p><b>Action: <em>harvest</em></b></p>\n                    <p>This is the bee that you just saw.</p>\n                    <img src=\"bees-with-color/bee-A1SF.svg\" width=\"200\">\n                    <p><span class=\"greenText\"><b>Successful harvest!</b></span><br>Your pay has increased by $0.02. Your bonus pay is now $0.92.</p>\n            ","response":0,"trial_type":"html-button-response","trial_index":118,"time_elapsed":1648520,"internal_node_id":"0.0-4.0-1.53","subject_id":"5e849bb9507a3503c9f3fd4c","study_id":"6197b3f67c2b5cd3b6d9596a","session_id":"619be31d28fdec7c2c10cb6c","condition":"full-information","relevant_dimensions":["pattern","legs"],"bee_group":{"antennae":"X","wings":"X","pattern":"D","legs":"M"},"bonus":1.1600000000000008},{"rt":9925.899999976158,"stimulus":"bees-with-color/bee-A2DM.svg","response":1,"trial_type":"image-button-response","trial_index":119,"time_elapsed":1658448,"internal_node_id":"0.0-4.0-0.54","subject_id":"5e849bb9507a3503c9f3fd4c","study_id":"6197b3f67c2b5cd3b6d9596a","session_id":"619be31d28fdec7c2c10cb6c","condition":"full-information","relevant_dimensions":["pattern","legs"],"bee_group":{"antennae":"X","wings":"X","pattern":"D","legs":"M"},"action":"avoid","summary":"good-avoid","bonus":1.1600000000000008},{"rt":780.5,"stimulus":"\n                    <p><b>Action: <em>avoid</em></b></p>\n                    <p>This is the bee that you just saw.</p>\n                    <img src=\"bees-with-color/bee-A2DM.svg\" width=\"200\">\n                    <p><span class=\"greenText\">Good choice!</span>  This bee would have stung you.<br>Your bonus pay is unchanged, and remains at $0.92.</p>\n            ","response":0,"trial_type":"html-button-response","trial_index":120,"time_elapsed":1659230,"internal_node_id":"0.0-4.0-1.54","subject_id":"5e849bb9507a3503c9f3fd4c","study_id":"6197b3f67c2b5cd3b6d9596a","session_id":"619be31d28fdec7c2c10cb6c","condition":"full-information","relevant_dimensions":["pattern","legs"],"bee_group":{"antennae":"X","wings":"X","pattern":"D","legs":"M"},"bonus":1.1600000000000008},{"rt":6536.5,"stimulus":"bees-with-color/bee-A2SF.svg","response":0,"trial_type":"image-button-response","trial_index":121,"time_elapsed":1665768,"internal_node_id":"0.0-4.0-0.55","subject_id":"5e849bb9507a3503c9f3fd4c","study_id":"6197b3f67c2b5cd3b6d9596a","session_id":"619be31d28fdec7c2c10cb6c","condition":"full-information","relevant_dimensions":["pattern","legs"],"bee_group":{"antennae":"X","wings":"X","pattern":"D","legs":"M"},"action":"harvest","summary":"good-harvest","bonus":1.1600000000000008},{"rt":695,"stimulus":"\n                    <p><b>Action: <em>harvest</em></b></p>\n                    <p>This is the bee that you just saw.</p>\n                    <img src=\"bees-with-color/bee-A2SF.svg\" width=\"200\">\n                    <p><span class=\"greenText\"><b>Successful harvest!</b></span><br>Your pay has increased by $0.02. Your bonus pay is now $0.94.</p>\n            ","response":0,"trial_type":"html-button-response","trial_index":122,"time_elapsed":1666464,"internal_node_id":"0.0-4.0-1.55","subject_id":"5e849bb9507a3503c9f3fd4c","study_id":"6197b3f67c2b5cd3b6d9596a","session_id":"619be31d28fdec7c2c10cb6c","condition":"full-information","relevant_dimensions":["pattern","legs"],"bee_group":{"antennae":"X","wings":"X","pattern":"D","legs":"M"},"bonus":1.1600000000000008},{"rt":5078.600000023842,"stimulus":"bees-with-color/bee-B2DF.svg","response":1,"trial_type":"image-button-response","trial_index":123,"time_elapsed":1671544,"internal_node_id":"0.0-4.0-0.56","subject_id":"5e849bb9507a3503c9f3fd4c","study_id":"6197b3f67c2b5cd3b6d9596a","session_id":"619be31d28fdec7c2c10cb6c","condition":"full-information","relevant_dimensions":["pattern","legs"],"bee_group":{"antennae":"X","wings":"X","pattern":"D","legs":"M"},"action":"avoid","summary":"bad-avoid","bonus":1.1600000000000008},{"rt":3215.2000000476837,"stimulus":"\n                    <p><b>Action: <em>avoid</em></b></p>\n                    <p>This is the bee that you just saw.</p>\n                    <img src=\"bees-with-color/bee-B2DF.svg\" width=\"200\">\n                    <p><span class=\"redText\">Bad choice,</span> the bee was friendly.<br>Your bonus pay is unchanged, and remains at $0.94.</p>\n            ","response":0,"trial_type":"html-button-response","trial_index":124,"time_elapsed":1674760,"internal_node_id":"0.0-4.0-1.56","subject_id":"5e849bb9507a3503c9f3fd4c","study_id":"6197b3f67c2b5cd3b6d9596a","session_id":"619be31d28fdec7c2c10cb6c","condition":"full-information","relevant_dimensions":["pattern","legs"],"bee_group":{"antennae":"X","wings":"X","pattern":"D","legs":"M"},"bonus":1.1600000000000008},{"rt":25696.700000047684,"stimulus":"bees-with-color/bee-A1SM.svg","response":0,"trial_type":"image-button-response","trial_index":125,"time_elapsed":1700458,"internal_node_id":"0.0-4.0-0.57","subject_id":"5e849bb9507a3503c9f3fd4c","study_id":"6197b3f67c2b5cd3b6d9596a","session_id":"619be31d28fdec7c2c10cb6c","condition":"full-information","relevant_dimensions":["pattern","legs"],"bee_group":{"antennae":"X","wings":"X","pattern":"D","legs":"M"},"action":"harvest","summary":"good-harvest","bonus":1.1600000000000008},{"rt":924.1999999284744,"stimulus":"\n                    <p><b>Action: <em>harvest</em></b></p>\n                    <p>This is the bee that you just saw.</p>\n                    <img src=\"bees-with-color/bee-A1SM.svg\" width=\"200\">\n                    <p><span class=\"greenText\"><b>Successful harvest!</b></span><br>Your pay has increased by $0.02. Your bonus pay is now $0.96.</p>\n            ","response":0,"trial_type":"html-button-response","trial_index":126,"time_elapsed":1701384,"internal_node_id":"0.0-4.0-1.57","subject_id":"5e849bb9507a3503c9f3fd4c","study_id":"6197b3f67c2b5cd3b6d9596a","session_id":"619be31d28fdec7c2c10cb6c","condition":"full-information","relevant_dimensions":["pattern","legs"],"bee_group":{"antennae":"X","wings":"X","pattern":"D","legs":"M"},"bonus":1.1600000000000008},{"rt":6414.900000095367,"stimulus":"bees-with-color/bee-B1SF.svg","response":0,"trial_type":"image-button-response","trial_index":127,"time_elapsed":1707800,"internal_node_id":"0.0-4.0-0.58","subject_id":"5e849bb9507a3503c9f3fd4c","study_id":"6197b3f67c2b5cd3b6d9596a","session_id":"619be31d28fdec7c2c10cb6c","condition":"full-information","relevant_dimensions":["pattern","legs"],"bee_group":{"antennae":"X","wings":"X","pattern":"D","legs":"M"},"action":"harvest","summary":"good-harvest","bonus":1.1600000000000008},{"rt":856.3999999761581,"stimulus":"\n                    <p><b>Action: <em>harvest</em></b></p>\n                    <p>This is the bee that you just saw.</p>\n                    <img src=\"bees-with-color/bee-B1SF.svg\" width=\"200\">\n                    <p><span class=\"greenText\"><b>Successful harvest!</b></span><br>Your pay has increased by $0.02. Your bonus pay is now $0.98.</p>\n            ","response":0,"trial_type":"html-button-response","trial_index":128,"time_elapsed":1708658,"internal_node_id":"0.0-4.0-1.58","subject_id":"5e849bb9507a3503c9f3fd4c","study_id":"6197b3f67c2b5cd3b6d9596a","session_id":"619be31d28fdec7c2c10cb6c","condition":"full-information","relevant_dimensions":["pattern","legs"],"bee_group":{"antennae":"X","wings":"X","pattern":"D","legs":"M"},"bonus":1.1600000000000008},{"rt":13018.600000023842,"stimulus":"bees-with-color/bee-A1DM.svg","response":1,"trial_type":"image-button-response","trial_index":129,"time_elapsed":1721677,"internal_node_id":"0.0-4.0-0.59","subject_id":"5e849bb9507a3503c9f3fd4c","study_id":"6197b3f67c2b5cd3b6d9596a","session_id":"619be31d28fdec7c2c10cb6c","condition":"full-information","relevant_dimensions":["pattern","legs"],"bee_group":{"antennae":"X","wings":"X","pattern":"D","legs":"M"},"action":"avoid","summary":"good-avoid","bonus":1.1600000000000008},{"rt":885.2000000476837,"stimulus":"\n                    <p><b>Action: <em>avoid</em></b></p>\n                    <p>This is the bee that you just saw.</p>\n                    <img src=\"bees-with-color/bee-A1DM.svg\" width=\"200\">\n                    <p><span class=\"greenText\">Good choice!</span>  This bee would have stung you.<br>Your bonus pay is unchanged, and remains at $0.98.</p>\n            ","response":0,"trial_type":"html-button-response","trial_index":130,"time_elapsed":1722563,"internal_node_id":"0.0-4.0-1.59","subject_id":"5e849bb9507a3503c9f3fd4c","study_id":"6197b3f67c2b5cd3b6d9596a","session_id":"619be31d28fdec7c2c10cb6c","condition":"full-information","relevant_dimensions":["pattern","legs"],"bee_group":{"antennae":"X","wings":"X","pattern":"D","legs":"M"},"bonus":1.1600000000000008},{"rt":4158.5,"stimulus":"bees-with-color/bee-B1SM.svg","response":1,"trial_type":"image-button-response","trial_index":131,"time_elapsed":1726723,"internal_node_id":"0.0-4.0-0.60","subject_id":"5e849bb9507a3503c9f3fd4c","study_id":"6197b3f67c2b5cd3b6d9596a","session_id":"619be31d28fdec7c2c10cb6c","condition":"full-information","relevant_dimensions":["pattern","legs"],"bee_group":{"antennae":"X","wings":"X","pattern":"D","legs":"M"},"action":"avoid","summary":"bad-avoid","bonus":1.1600000000000008},{"rt":684.9000000953674,"stimulus":"\n                    <p><b>Action: <em>avoid</em></b></p>\n                    <p>This is the bee that you just saw.</p>\n                    <img src=\"bees-with-color/bee-B1SM.svg\" width=\"200\">\n                    <p><span class=\"redText\">Bad choice,</span> the bee was friendly.<br>Your bonus pay is unchanged, and remains at $0.98.</p>\n            ","response":0,"trial_type":"html-button-response","trial_index":132,"time_elapsed":1727409,"internal_node_id":"0.0-4.0-1.60","subject_id":"5e849bb9507a3503c9f3fd4c","study_id":"6197b3f67c2b5cd3b6d9596a","session_id":"619be31d28fdec7c2c10cb6c","condition":"full-information","relevant_dimensions":["pattern","legs"],"bee_group":{"antennae":"X","wings":"X","pattern":"D","legs":"M"},"bonus":1.1600000000000008},{"rt":2294.7000000476837,"stimulus":"bees-with-color/bee-B2DM.svg","response":0,"trial_type":"image-button-response","trial_index":133,"time_elapsed":1729705,"internal_node_id":"0.0-4.0-0.61","subject_id":"5e849bb9507a3503c9f3fd4c","study_id":"6197b3f67c2b5cd3b6d9596a","session_id":"619be31d28fdec7c2c10cb6c","condition":"full-information","relevant_dimensions":["pattern","legs"],"bee_group":{"antennae":"X","wings":"X","pattern":"D","legs":"M"},"action":"harvest","summary":"bad-harvest","bonus":1.1600000000000008},{"rt":788.3000000715256,"stimulus":"\n                    <p><b>Action: <em>harvest</em></b></p>\n                    <p>This is the bee that you just saw.</p>\n                    <img src=\"bees-with-color/bee-B2DM.svg\" width=\"200\">\n                    <p><span class=\"redText\">Bad choice, the bee was angry.</span><br><b>You have been stung!</b><br>Your pay has been decreased by $0.10. Your bonus pay is now $0.88.</p>\n            ","response":0,"trial_type":"html-button-response","trial_index":134,"time_elapsed":1730495,"internal_node_id":"0.0-4.0-1.61","subject_id":"5e849bb9507a3503c9f3fd4c","study_id":"6197b3f67c2b5cd3b6d9596a","session_id":"619be31d28fdec7c2c10cb6c","condition":"full-information","relevant_dimensions":["pattern","legs"],"bee_group":{"antennae":"X","wings":"X","pattern":"D","legs":"M"},"bonus":1.1600000000000008},{"rt":1659.1999999284744,"stimulus":"bees-with-color/bee-A2DF.svg","response":1,"trial_type":"image-button-response","trial_index":135,"time_elapsed":1732155,"internal_node_id":"0.0-4.0-0.62","subject_id":"5e849bb9507a3503c9f3fd4c","study_id":"6197b3f67c2b5cd3b6d9596a","session_id":"619be31d28fdec7c2c10cb6c","condition":"full-information","relevant_dimensions":["pattern","legs"],"bee_group":{"antennae":"X","wings":"X","pattern":"D","legs":"M"},"action":"avoid","summary":"bad-avoid","bonus":1.1600000000000008},{"rt":796.7999999523163,"stimulus":"\n                    <p><b>Action: <em>avoid</em></b></p>\n                    <p>This is the bee that you just saw.</p>\n                    <img src=\"bees-with-color/bee-A2DF.svg\" width=\"200\">\n                    <p><span class=\"redText\">Bad choice,</span> the bee was friendly.<br>Your bonus pay is unchanged, and remains at $0.88.</p>\n            ","response":0,"trial_type":"html-button-response","trial_index":136,"time_elapsed":1732953,"internal_node_id":"0.0-4.0-1.62","subject_id":"5e849bb9507a3503c9f3fd4c","study_id":"6197b3f67c2b5cd3b6d9596a","session_id":"619be31d28fdec7c2c10cb6c","condition":"full-information","relevant_dimensions":["pattern","legs"],"bee_group":{"antennae":"X","wings":"X","pattern":"D","legs":"M"},"bonus":1.1600000000000008},{"rt":15908.5,"stimulus":"bees-with-color/bee-B1DF.svg","response":0,"trial_type":"image-button-response","trial_index":137,"time_elapsed":1748863,"internal_node_id":"0.0-4.0-0.63","subject_id":"5e849bb9507a3503c9f3fd4c","study_id":"6197b3f67c2b5cd3b6d9596a","session_id":"619be31d28fdec7c2c10cb6c","condition":"full-information","relevant_dimensions":["pattern","legs"],"bee_group":{"antennae":"X","wings":"X","pattern":"D","legs":"M"},"action":"harvest","summary":"good-harvest","bonus":1.1600000000000008},{"rt":1038.8999999761581,"stimulus":"\n                    <p><b>Action: <em>harvest</em></b></p>\n                    <p>This is the bee that you just saw.</p>\n                    <img src=\"bees-with-color/bee-B1DF.svg\" width=\"200\">\n                    <p><span class=\"greenText\"><b>Successful harvest!</b></span><br>Your pay has increased by $0.02. Your bonus pay is now $0.90.</p>\n            ","response":0,"trial_type":"html-button-response","trial_index":138,"time_elapsed":1749904,"internal_node_id":"0.0-4.0-1.63","subject_id":"5e849bb9507a3503c9f3fd4c","study_id":"6197b3f67c2b5cd3b6d9596a","session_id":"619be31d28fdec7c2c10cb6c","condition":"full-information","relevant_dimensions":["pattern","legs"],"bee_group":{"antennae":"X","wings":"X","pattern":"D","legs":"M"},"bonus":1.1600000000000008},{"rt":8019.700000047684,"stimulus":"You have completed the first part of this experiment.<br><br>You will now begin a shorter second part, in which you will receive no feedback.<br>The same rules regarding bonus pay apply.<br><br>Press any key to begin.","response":"enter","trial_type":"html-keyboard-response","trial_index":139,"time_elapsed":1757925,"internal_node_id":"0.0-5.0","subject_id":"5e849bb9507a3503c9f3fd4c","study_id":"6197b3f67c2b5cd3b6d9596a","session_id":"619be31d28fdec7c2c10cb6c","condition":"full-information","relevant_dimensions":["pattern","legs"],"bee_group":{"antennae":"X","wings":"X","pattern":"D","legs":"M"},"bonus":1.1600000000000008},{"rt":9499.399999976158,"stimulus":"bees-with-color/bee-B2DF.svg","response":1,"trial_type":"image-button-response","trial_index":140,"time_elapsed":1767432,"internal_node_id":"0.0-6.0-0.0","subject_id":"5e849bb9507a3503c9f3fd4c","study_id":"6197b3f67c2b5cd3b6d9596a","session_id":"619be31d28fdec7c2c10cb6c","condition":"full-information","relevant_dimensions":["pattern","legs"],"bee_group":{"antennae":"X","wings":"X","pattern":"D","legs":"M"},"bonus":1.1600000000000008},{"rt":11803.799999952316,"stimulus":"bees-with-color/bee-A1SM.svg","response":0,"trial_type":"image-button-response","trial_index":141,"time_elapsed":1779238,"internal_node_id":"0.0-6.0-0.1","subject_id":"5e849bb9507a3503c9f3fd4c","study_id":"6197b3f67c2b5cd3b6d9596a","session_id":"619be31d28fdec7c2c10cb6c","condition":"full-information","relevant_dimensions":["pattern","legs"],"bee_group":{"antennae":"X","wings":"X","pattern":"D","legs":"M"},"bonus":1.1600000000000008},{"rt":14867.300000071526,"stimulus":"bees-with-color/bee-A1SF.svg","response":0,"trial_type":"image-button-response","trial_index":142,"time_elapsed":1794107,"internal_node_id":"0.0-6.0-0.2","subject_id":"5e849bb9507a3503c9f3fd4c","study_id":"6197b3f67c2b5cd3b6d9596a","session_id":"619be31d28fdec7c2c10cb6c","condition":"full-information","relevant_dimensions":["pattern","legs"],"bee_group":{"antennae":"X","wings":"X","pattern":"D","legs":"M"},"bonus":1.1600000000000008},{"rt":7730.899999976158,"stimulus":"bees-with-color/bee-A1DF.svg","response":0,"trial_type":"image-button-response","trial_index":143,"time_elapsed":1801840,"internal_node_id":"0.0-6.0-0.3","subject_id":"5e849bb9507a3503c9f3fd4c","study_id":"6197b3f67c2b5cd3b6d9596a","session_id":"619be31d28fdec7c2c10cb6c","condition":"full-information","relevant_dimensions":["pattern","legs"],"bee_group":{"antennae":"X","wings":"X","pattern":"D","legs":"M"},"bonus":1.1600000000000008},{"rt":5496.100000023842,"stimulus":"bees-with-color/bee-A2DM.svg","response":1,"trial_type":"image-button-response","trial_index":144,"time_elapsed":1807338,"internal_node_id":"0.0-6.0-0.4","subject_id":"5e849bb9507a3503c9f3fd4c","study_id":"6197b3f67c2b5cd3b6d9596a","session_id":"619be31d28fdec7c2c10cb6c","condition":"full-information","relevant_dimensions":["pattern","legs"],"bee_group":{"antennae":"X","wings":"X","pattern":"D","legs":"M"},"bonus":1.1600000000000008},{"rt":4674.399999976158,"stimulus":"bees-with-color/bee-B2DM.svg","response":1,"trial_type":"image-button-response","trial_index":145,"time_elapsed":1812014,"internal_node_id":"0.0-6.0-0.5","subject_id":"5e849bb9507a3503c9f3fd4c","study_id":"6197b3f67c2b5cd3b6d9596a","session_id":"619be31d28fdec7c2c10cb6c","condition":"full-information","relevant_dimensions":["pattern","legs"],"bee_group":{"antennae":"X","wings":"X","pattern":"D","legs":"M"},"bonus":1.1600000000000008},{"rt":13029.899999976158,"stimulus":"bees-with-color/bee-B2SM.svg","response":1,"trial_type":"image-button-response","trial_index":146,"time_elapsed":1825046,"internal_node_id":"0.0-6.0-0.6","subject_id":"5e849bb9507a3503c9f3fd4c","study_id":"6197b3f67c2b5cd3b6d9596a","session_id":"619be31d28fdec7c2c10cb6c","condition":"full-information","relevant_dimensions":["pattern","legs"],"bee_group":{"antennae":"X","wings":"X","pattern":"D","legs":"M"},"bonus":1.1600000000000008},{"rt":5960.199999928474,"stimulus":"bees-with-color/bee-A2SM.svg","response":1,"trial_type":"image-button-response","trial_index":147,"time_elapsed":1831008,"internal_node_id":"0.0-6.0-0.7","subject_id":"5e849bb9507a3503c9f3fd4c","study_id":"6197b3f67c2b5cd3b6d9596a","session_id":"619be31d28fdec7c2c10cb6c","condition":"full-information","relevant_dimensions":["pattern","legs"],"bee_group":{"antennae":"X","wings":"X","pattern":"D","legs":"M"},"bonus":1.1600000000000008},{"rt":6200.299999952316,"stimulus":"bees-with-color/bee-B1DF.svg","response":0,"trial_type":"image-button-response","trial_index":148,"time_elapsed":1837210,"internal_node_id":"0.0-6.0-0.8","subject_id":"5e849bb9507a3503c9f3fd4c","study_id":"6197b3f67c2b5cd3b6d9596a","session_id":"619be31d28fdec7c2c10cb6c","condition":"full-information","relevant_dimensions":["pattern","legs"],"bee_group":{"antennae":"X","wings":"X","pattern":"D","legs":"M"},"bonus":1.1600000000000008},{"rt":10655.699999928474,"stimulus":"bees-with-color/bee-B1SM.svg","response":1,"trial_type":"image-button-response","trial_index":149,"time_elapsed":1847868,"internal_node_id":"0.0-6.0-0.9","subject_id":"5e849bb9507a3503c9f3fd4c","study_id":"6197b3f67c2b5cd3b6d9596a","session_id":"619be31d28fdec7c2c10cb6c","condition":"full-information","relevant_dimensions":["pattern","legs"],"bee_group":{"antennae":"X","wings":"X","pattern":"D","legs":"M"},"bonus":1.1600000000000008},{"rt":5432.299999952316,"stimulus":"bees-with-color/bee-A2SF.svg","response":0,"trial_type":"image-button-response","trial_index":150,"time_elapsed":1853302,"internal_node_id":"0.0-6.0-0.10","subject_id":"5e849bb9507a3503c9f3fd4c","study_id":"6197b3f67c2b5cd3b6d9596a","session_id":"619be31d28fdec7c2c10cb6c","condition":"full-information","relevant_dimensions":["pattern","legs"],"bee_group":{"antennae":"X","wings":"X","pattern":"D","legs":"M"},"bonus":1.1600000000000008},{"rt":4956.099999904633,"stimulus":"bees-with-color/bee-B2SF.svg","response":0,"trial_type":"image-button-response","trial_index":151,"time_elapsed":1858260,"internal_node_id":"0.0-6.0-0.11","subject_id":"5e849bb9507a3503c9f3fd4c","study_id":"6197b3f67c2b5cd3b6d9596a","session_id":"619be31d28fdec7c2c10cb6c","condition":"full-information","relevant_dimensions":["pattern","legs"],"bee_group":{"antennae":"X","wings":"X","pattern":"D","legs":"M"},"bonus":1.1600000000000008},{"rt":12072.199999928474,"stimulus":"bees-with-color/bee-A2DF.svg","response":0,"trial_type":"image-button-response","trial_index":152,"time_elapsed":1870334,"internal_node_id":"0.0-6.0-0.12","subject_id":"5e849bb9507a3503c9f3fd4c","study_id":"6197b3f67c2b5cd3b6d9596a","session_id":"619be31d28fdec7c2c10cb6c","condition":"full-information","relevant_dimensions":["pattern","legs"],"bee_group":{"antennae":"X","wings":"X","pattern":"D","legs":"M"},"bonus":1.1600000000000008},{"rt":20986,"stimulus":"bees-with-color/bee-B1SF.svg","response":0,"trial_type":"image-button-response","trial_index":153,"time_elapsed":1891321,"internal_node_id":"0.0-6.0-0.13","subject_id":"5e849bb9507a3503c9f3fd4c","study_id":"6197b3f67c2b5cd3b6d9596a","session_id":"619be31d28fdec7c2c10cb6c","condition":"full-information","relevant_dimensions":["pattern","legs"],"bee_group":{"antennae":"X","wings":"X","pattern":"D","legs":"M"},"bonus":1.1600000000000008},{"rt":5185.800000071526,"stimulus":"bees-with-color/bee-B1DM.svg","response":1,"trial_type":"image-button-response","trial_index":154,"time_elapsed":18965