[{"success":true,"trial_type":"fullscreen","trial_index":0,"time_elapsed":53773,"internal_node_id":"0.0-0.0","subject_id":"5effa578fa024409d98c2b7a","study_id":"60edd13110225f80f9f3709b","session_id":"6196ba7b195756055445f906","condition":"full-information","relevant_dimensions":["wings","pattern"],"bee_group":{"antennae":"X","wings":"1","pattern":"S","legs":"X"},"bonus":1.740000000000001},{"success":true,"timeout":false,"failed_images":[],"failed_audio":[],"failed_video":[],"trial_type":"preload","trial_index":1,"time_elapsed":56076,"internal_node_id":"0.0-1.0","subject_id":"5effa578fa024409d98c2b7a","study_id":"60edd13110225f80f9f3709b","session_id":"6196ba7b195756055445f906","condition":"full-information","relevant_dimensions":["wings","pattern"],"bee_group":{"antennae":"X","wings":"1","pattern":"S","legs":"X"},"bonus":1.740000000000001},{"rt":7716.10000000149,"stimulus":"Welcome! Press any key to begin.","response":" ","trial_type":"html-keyboard-response","trial_index":2,"time_elapsed":63794,"internal_node_id":"0.0-2.0","subject_id":"5effa578fa024409d98c2b7a","study_id":"60edd13110225f80f9f3709b","session_id":"6196ba7b195756055445f906","condition":"full-information","relevant_dimensions":["wings","pattern"],"bee_group":{"antennae":"X","wings":"1","pattern":"S","legs":"X"},"bonus":1.740000000000001},{"view_history":[{"page_index":0,"viewing_time":34097.89999999851},{"page_index":1,"viewing_time":29122.89999999851},{"page_index":2,"viewing_time":37819.800000000745},{"page_index":3,"viewing_time":49711.900000002235},{"page_index":4,"viewing_time":20792.5},{"page_index":5,"viewing_time":20848.599999997765},{"page_index":6,"viewing_time":17020.800000000745},{"page_index":7,"viewing_time":20356.89999999851},{"page_index":8,"viewing_time":6974},{"page_index":9,"viewing_time":16040.900000002235},{"page_index":10,"viewing_time":14147.699999999255},{"page_index":11,"viewing_time":25948.89999999851},{"page_index":12,"viewing_time":10858.400000002235},{"page_index":13,"viewing_time":3146.199999999255},{"page_index":14,"viewing_time":2646.5}],"rt":309535.09999999776,"trial_type":"instructions","trial_index":3,"time_elapsed":373335,"internal_node_id":"0.0-3.0-0.0","subject_id":"5effa578fa024409d98c2b7a","study_id":"60edd13110225f80f9f3709b","session_id":"6196ba7b195756055445f906","condition":"full-information","relevant_dimensions":["wings","pattern"],"bee_group":{"antennae":"X","wings":"1","pattern":"S","legs":"X"},"bonus":1.740000000000001},{"rt":25222.60000000149,"response":{"Q0":["Two or six legs","Stripes or spots on body","Single or double wings","Antennae or no antennae"]},"question_order":[0],"trial_type":"survey-multi-select","trial_index":4,"time_elapsed":398589,"internal_node_id":"0.0-3.0-1.0","subject_id":"5effa578fa024409d98c2b7a","study_id":"60edd13110225f80f9f3709b","session_id":"6196ba7b195756055445f906","condition":"full-information","relevant_dimensions":["wings","pattern"],"bee_group":{"antennae":"X","wings":"1","pattern":"S","legs":"X"},"correct":true,"bonus":1.740000000000001},{"rt":35499,"response":{"Q1":"No.","Q2":"Based on the four features of the bee.","Q3":"You learn if it was friendly or dangerous, but do not alter your bonus."},"question_order":[0,1,2],"trial_type":"survey-multi-choice","trial_index":5,"time_elapsed":434104,"internal_node_id":"0.0-3.0-2.0","subject_id":"5effa578fa024409d98c2b7a","study_id":"60edd13110225f80f9f3709b","session_id":"6196ba7b195756055445f906","condition":"full-information","relevant_dimensions":["wings","pattern"],"bee_group":{"antennae":"X","wings":"1","pattern":"S","legs":"X"},"correct":true,"bonus":1.740000000000001},{"rt":3683.900000002235,"stimulus":"<p>Congrats, you got everything right<br>When you're ready, click the button below to continue to the experiment.</p>","response":0,"trial_type":"html-button-response","trial_index":6,"time_elapsed":437806,"internal_node_id":"0.0-3.0-3.0","subject_id":"5effa578fa024409d98c2b7a","study_id":"60edd13110225f80f9f3709b","session_id":"6196ba7b195756055445f906","condition":"full-information","relevant_dimensions":["wings","pattern"],"bee_group":{"antennae":"X","wings":"1","pattern":"S","legs":"X"},"bonus":1.740000000000001},{"rt":14943.89999999851,"stimulus":"bees-with-color/bee-A2DF.svg","response":0,"trial_type":"image-button-response","trial_index":7,"time_elapsed":452762,"internal_node_id":"0.0-4.0-0.0","subject_id":"5effa578fa024409d98c2b7a","study_id":"60edd13110225f80f9f3709b","session_id":"6196ba7b195756055445f906","condition":"full-information","relevant_dimensions":["wings","pattern"],"bee_group":{"antennae":"X","wings":"1","pattern":"S","legs":"X"},"action":"harvest","summary":"good-harvest","bonus":1.740000000000001},{"rt":4313.900000002235,"stimulus":"\n                    <p><b>Action: <em>harvest</em></b></p>\n                    <p>This is the bee that you just saw.</p>\n                    <img src=\"bees-with-color/bee-A2DF.svg\" width=\"200\">\n                    <p><span class=\"greenText\"><b>Successful harvest!</b></span><br>Your pay has increased by $0.02. Your bonus pay is now $0.56.</p>\n            ","response":0,"trial_type":"html-button-response","trial_index":8,"time_elapsed":457085,"internal_node_id":"0.0-4.0-1.0","subject_id":"5effa578fa024409d98c2b7a","study_id":"60edd13110225f80f9f3709b","session_id":"6196ba7b195756055445f906","condition":"full-information","relevant_dimensions":["wings","pattern"],"bee_group":{"antennae":"X","wings":"1","pattern":"S","legs":"X"},"bonus":1.740000000000001},{"rt":10502.699999999255,"stimulus":"bees-with-color/bee-A1SF.svg","response":0,"trial_type":"image-button-response","trial_index":9,"time_elapsed":467594,"internal_node_id":"0.0-4.0-0.1","subject_id":"5effa578fa024409d98c2b7a","study_id":"60edd13110225f80f9f3709b","session_id":"6196ba7b195756055445f906","condition":"full-information","relevant_dimensions":["wings","pattern"],"bee_group":{"antennae":"X","wings":"1","pattern":"S","legs":"X"},"action":"harvest","summary":"bad-harvest","bonus":1.740000000000001},{"rt":7878.199999999255,"stimulus":"\n                    <p><b>Action: <em>harvest</em></b></p>\n                    <p>This is the bee that you just saw.</p>\n                    <img src=\"bees-with-color/bee-A1SF.svg\" width=\"200\">\n                    <p><span class=\"redText\">Bad choice, the bee was angry.</span><br><b>You have been stung!</b><br>Your pay has been decreased by $0.10. Your bonus pay is now $0.46.</p>\n            ","response":0,"trial_type":"html-button-response","trial_index":10,"time_elapsed":475478,"internal_node_id":"0.0-4.0-1.1","subject_id":"5effa578fa024409d98c2b7a","study_id":"60edd13110225f80f9f3709b","session_id":"6196ba7b195756055445f906","condition":"full-information","relevant_dimensions":["wings","pattern"],"bee_group":{"antennae":"X","wings":"1","pattern":"S","legs":"X"},"bonus":1.740000000000001},{"rt":2994.300000000745,"stimulus":"bees-with-color/bee-A2SM.svg","response":0,"trial_type":"image-button-response","trial_index":11,"time_elapsed":478478,"internal_node_id":"0.0-4.0-0.2","subject_id":"5effa578fa024409d98c2b7a","study_id":"60edd13110225f80f9f3709b","session_id":"6196ba7b195756055445f906","condition":"full-information","relevant_dimensions":["wings","pattern"],"bee_group":{"antennae":"X","wings":"1","pattern":"S","legs":"X"},"action":"harvest","summary":"good-harvest","bonus":1.740000000000001},{"rt":6357.5,"stimulus":"\n                    <p><b>Action: <em>harvest</em></b></p>\n                    <p>This is the bee that you just saw.</p>\n                    <img src=\"bees-with-color/bee-A2SM.svg\" width=\"200\">\n                    <p><span class=\"greenText\"><b>Successful harvest!</b></span><br>Your pay has increased by $0.02. Your bonus pay is now $0.48.</p>\n            ","response":0,"trial_type":"html-button-response","trial_index":12,"time_elapsed":484841,"internal_node_id":"0.0-4.0-1.2","subject_id":"5effa578fa024409d98c2b7a","study_id":"60edd13110225f80f9f3709b","session_id":"6196ba7b195756055445f906","condition":"full-information","relevant_dimensions":["wings","pattern"],"bee_group":{"antennae":"X","wings":"1","pattern":"S","legs":"X"},"bonus":1.740000000000001},{"rt":9589.60000000149,"stimulus":"bees-with-color/bee-A1SM.svg","response":1,"trial_type":"image-button-response","trial_index":13,"time_elapsed":494436,"internal_node_id":"0.0-4.0-0.3","subject_id":"5effa578fa024409d98c2b7a","study_id":"60edd13110225f80f9f3709b","session_id":"6196ba7b195756055445f906","condition":"full-information","relevant_dimensions":["wings","pattern"],"bee_group":{"antennae":"X","wings":"1","pattern":"S","legs":"X"},"action":"avoid","summary":"good-avoid","bonus":1.740000000000001},{"rt":8987.5,"stimulus":"\n                    <p><b>Action: <em>avoid</em></b></p>\n                    <p>This is the bee that you just saw.</p>\n                    <img src=\"bees-with-color/bee-A1SM.svg\" width=\"200\">\n                    <p><span class=\"greenText\">Good choice!</span>  This bee would have stung you.<br>Your bonus pay is unchanged, and remains at $0.48.</p>\n            ","response":0,"trial_type":"html-button-response","trial_index":14,"time_elapsed":503431,"internal_node_id":"0.0-4.0-1.3","subject_id":"5effa578fa024409d98c2b7a","study_id":"60edd13110225f80f9f3709b","session_id":"6196ba7b195756055445f906","condition":"full-information","relevant_dimensions":["wings","pattern"],"bee_group":{"antennae":"X","wings":"1","pattern":"S","legs":"X"},"bonus":1.740000000000001},{"rt":7796.300000000745,"stimulus":"bees-with-color/bee-A2DM.svg","response":0,"trial_type":"image-button-response","trial_index":15,"time_elapsed":511233,"internal_node_id":"0.0-4.0-0.4","subject_id":"5effa578fa024409d98c2b7a","study_id":"60edd13110225f80f9f3709b","session_id":"6196ba7b195756055445f906","condition":"full-information","relevant_dimensions":["wings","pattern"],"bee_group":{"antennae":"X","wings":"1","pattern":"S","legs":"X"},"action":"harvest","summary":"good-harvest","bonus":1.740000000000001},{"rt":7869.800000000745,"stimulus":"\n                    <p><b>Action: <em>harvest</em></b></p>\n                    <p>This is the bee that you just saw.</p>\n                    <img src=\"bees-with-color/bee-A2DM.svg\" width=\"200\">\n                    <p><span class=\"greenText\"><b>Successful harvest!</b></span><br>Your pay has increased by $0.02. Your bonus pay is now $0.50.</p>\n            ","response":0,"trial_type":"html-button-response","trial_index":16,"time_elapsed":519108,"internal_node_id":"0.0-4.0-1.4","subject_id":"5effa578fa024409d98c2b7a","study_id":"60edd13110225f80f9f3709b","session_id":"6196ba7b195756055445f906","condition":"full-information","relevant_dimensions":["wings","pattern"],"bee_group":{"antennae":"X","wings":"1","pattern":"S","legs":"X"},"bonus":1.740000000000001},{"rt":6061.400000002235,"stimulus":"bees-with-color/bee-A1DM.svg","response":1,"trial_type":"image-button-response","trial_index":17,"time_elapsed":525176,"internal_node_id":"0.0-4.0-0.5","subject_id":"5effa578fa024409d98c2b7a","study_id":"60edd13110225f80f9f3709b","session_id":"6196ba7b195756055445f906","condition":"full-information","relevant_dimensions":["wings","pattern"],"bee_group":{"antennae":"X","wings":"1","pattern":"S","legs":"X"},"action":"avoid","summary":"bad-avoid","bonus":1.740000000000001},{"rt":6856.599999997765,"stimulus":"\n                    <p><b>Action: <em>avoid</em></b></p>\n                    <p>This is the bee that you just saw.</p>\n                    <img src=\"bees-with-color/bee-A1DM.svg\" width=\"200\">\n                    <p><span class=\"redText\">Bad choice,</span> the bee was friendly.<br>Your bonus pay is unchanged, and remains at $0.50.</p>\n            ","response":0,"trial_type":"html-button-response","trial_index":18,"time_elapsed":532037,"internal_node_id":"0.0-4.0-1.5","subject_id":"5effa578fa024409d98c2b7a","study_id":"60edd13110225f80f9f3709b","session_id":"6196ba7b195756055445f906","condition":"full-information","relevant_dimensions":["wings","pattern"],"bee_group":{"antennae":"X","wings":"1","pattern":"S","legs":"X"},"bonus":1.740000000000001},{"rt":57588.300000000745,"stimulus":"bees-with-color/bee-B1DM.svg","response":0,"trial_type":"image-button-response","trial_index":19,"time_elapsed":589635,"internal_node_id":"0.0-4.0-0.6","subject_id":"5effa578fa024409d98c2b7a","study_id":"60edd13110225f80f9f3709b","session_id":"6196ba7b195756055445f906","condition":"full-information","relevant_dimensions":["wings","pattern"],"bee_group":{"antennae":"X","wings":"1","pattern":"S","legs":"X"},"action":"harvest","summary":"good-harvest","bonus":1.740000000000001},{"rt":8434.5,"stimulus":"\n                    <p><b>Action: <em>harvest</em></b></p>\n                    <p>This is the bee that you just saw.</p>\n                    <img src=\"bees-with-color/bee-B1DM.svg\" width=\"200\">\n                    <p><span class=\"greenText\"><b>Successful harvest!</b></span><br>Your pay has increased by $0.02. Your bonus pay is now $0.52.</p>\n            ","response":0,"trial_type":"html-button-response","trial_index":20,"time_elapsed":598075,"internal_node_id":"0.0-4.0-1.6","subject_id":"5effa578fa024409d98c2b7a","study_id":"60edd13110225f80f9f3709b","session_id":"6196ba7b195756055445f906","condition":"full-information","relevant_dimensions":["wings","pattern"],"bee_group":{"antennae":"X","wings":"1","pattern":"S","legs":"X"},"bonus":1.740000000000001},{"rt":32113.699999999255,"stimulus":"bees-with-color/bee-B2DM.svg","response":0,"trial_type":"image-button-response","trial_index":21,"time_elapsed":630195,"internal_node_id":"0.0-4.0-0.7","subject_id":"5effa578fa024409d98c2b7a","study_id":"60edd13110225f80f9f3709b","session_id":"6196ba7b195756055445f906","condition":"full-information","relevant_dimensions":["wings","pattern"],"bee_group":{"antennae":"X","wings":"1","pattern":"S","legs":"X"},"action":"harvest","summary":"good-harvest","bonus":1.740000000000001},{"rt":2035.800000000745,"stimulus":"\n                    <p><b>Action: <em>harvest</em></b></p>\n                    <p>This is the bee that you just saw.</p>\n                    <img src=\"bees-with-color/bee-B2DM.svg\" width=\"200\">\n                    <p><span class=\"greenText\"><b>Successful harvest!</b></span><br>Your pay has increased by $0.02. Your bonus pay is now $0.54.</p>\n            ","response":0,"trial_type":"html-button-response","trial_index":22,"time_elapsed":632236,"internal_node_id":"0.0-4.0-1.7","subject_id":"5effa578fa024409d98c2b7a","study_id":"60edd13110225f80f9f3709b","session_id":"6196ba7b195756055445f906","condition":"full-information","relevant_dimensions":["wings","pattern"],"bee_group":{"antennae":"X","wings":"1","pattern":"S","legs":"X"},"bonus":1.740000000000001},{"rt":5865.800000000745,"stimulus":"bees-with-color/bee-A1DF.svg","response":1,"trial_type":"image-button-response","trial_index":23,"time_elapsed":638109,"internal_node_id":"0.0-4.0-0.8","subject_id":"5effa578fa024409d98c2b7a","study_id":"60edd13110225f80f9f3709b","session_id":"6196ba7b195756055445f906","condition":"full-information","relevant_dimensions":["wings","pattern"],"bee_group":{"antennae":"X","wings":"1","pattern":"S","legs":"X"},"action":"avoid","summary":"bad-avoid","bonus":1.740000000000001},{"rt":6211,"stimulus":"\n                    <p><b>Action: <em>avoid</em></b></p>\n                    <p>This is the bee that you just saw.</p>\n                    <img src=\"bees-with-color/bee-A1DF.svg\" width=\"200\">\n                    <p><span class=\"redText\">Bad choice,</span> the bee was friendly.<br>Your bonus pay is unchanged, and remains at $0.54.</p>\n            ","response":0,"trial_type":"html-button-response","trial_index":24,"time_elapsed":644325,"internal_node_id":"0.0-4.0-1.8","subject_id":"5effa578fa024409d98c2b7a","study_id":"60edd13110225f80f9f3709b","session_id":"6196ba7b195756055445f906","condition":"full-information","relevant_dimensions":["wings","pattern"],"bee_group":{"antennae":"X","wings":"1","pattern":"S","legs":"X"},"bonus":1.740000000000001},{"rt":18372.900000002235,"stimulus":"bees-with-color/bee-B2SM.svg","response":0,"trial_type":"image-button-response","trial_index":25,"time_elapsed":662708,"internal_node_id":"0.0-4.0-0.9","subject_id":"5effa578fa024409d98c2b7a","study_id":"60edd13110225f80f9f3709b","session_id":"6196ba7b195756055445f906","condition":"full-information","relevant_dimensions":["wings","pattern"],"bee_group":{"antennae":"X","wings":"1","pattern":"S","legs":"X"},"action":"harvest","summary":"good-harvest","bonus":1.740000000000001},{"rt":1906.300000000745,"stimulus":"\n                    <p><b>Action: <em>harvest</em></b></p>\n                    <p>This is the bee that you just saw.</p>\n                    <img src=\"bees-with-color/bee-B2SM.svg\" width=\"200\">\n                    <p><span class=\"greenText\"><b>Successful harvest!</b></span><br>Your pay has increased by $0.02. Your bonus pay is now $0.56.</p>\n            ","response":0,"trial_type":"html-button-response","trial_index":26,"time_elapsed":664619,"internal_node_id":"0.0-4.0-1.9","subject_id":"5effa578fa024409d98c2b7a","study_id":"60edd13110225f80f9f3709b","session_id":"6196ba7b195756055445f906","condition":"full-information","relevant_dimensions":["wings","pattern"],"bee_group":{"antennae":"X","wings":"1","pattern":"S","legs":"X"},"bonus":1.740000000000001},{"rt":14587.199999999255,"stimulus":"bees-with-color/bee-B1SF.svg","response":1,"trial_type":"image-button-response","trial_index":27,"time_elapsed":679214,"internal_node_id":"0.0-4.0-0.10","subject_id":"5effa578fa024409d98c2b7a","study_id":"60edd13110225f80f9f3709b","session_id":"6196ba7b195756055445f906","condition":"full-information","relevant_dimensions":["wings","pattern"],"bee_group":{"antennae":"X","wings":"1","pattern":"S","legs":"X"},"action":"avoid","summary":"good-avoid","bonus":1.740000000000001},{"rt":10518.699999999255,"stimulus":"\n                    <p><b>Action: <em>avoid</em></b></p>\n                    <p>This is the bee that you just saw.</p>\n                    <img src=\"bees-with-color/bee-B1SF.svg\" width=\"200\">\n                    <p><span class=\"greenText\">Good choice!</span>  This bee would have stung you.<br>Your bonus pay is unchanged, and remains at $0.56.</p>\n            ","response":0,"trial_type":"html-button-response","trial_index":28,"time_elapsed":689740,"internal_node_id":"0.0-4.0-1.10","subject_id":"5effa578fa024409d98c2b7a","study_id":"60edd13110225f80f9f3709b","session_id":"6196ba7b195756055445f906","condition":"full-information","relevant_dimensions":["wings","pattern"],"bee_group":{"antennae":"X","wings":"1","pattern":"S","legs":"X"},"bonus":1.740000000000001},{"rt":2321.699999999255,"stimulus":"bees-with-color/bee-A2SF.svg","response":0,"trial_type":"image-button-response","trial_index":29,"time_elapsed":692068,"internal_node_id":"0.0-4.0-0.11","subject_id":"5effa578fa024409d98c2b7a","study_id":"60edd13110225f80f9f3709b","session_id":"6196ba7b195756055445f906","condition":"full-information","relevant_dimensions":["wings","pattern"],"bee_group":{"antennae":"X","wings":"1","pattern":"S","legs":"X"},"action":"harvest","summary":"good-harvest","bonus":1.740000000000001},{"rt":1607.1000000014901,"stimulus":"\n                    <p><b>Action: <em>harvest</em></b></p>\n                    <p>This is the bee that you just saw.</p>\n                    <img src=\"bees-with-color/bee-A2SF.svg\" width=\"200\">\n                    <p><span class=\"greenText\"><b>Successful harvest!</b></span><br>Your pay has increased by $0.02. Your bonus pay is now $0.58.</p>\n            ","response":0,"trial_type":"html-button-response","trial_index":30,"time_elapsed":693680,"internal_node_id":"0.0-4.0-1.11","subject_id":"5effa578fa024409d98c2b7a","study_id":"60edd13110225f80f9f3709b","session_id":"6196ba7b195756055445f906","condition":"full-information","relevant_dimensions":["wings","pattern"],"bee_group":{"antennae":"X","wings":"1","pattern":"S","legs":"X"},"bonus":1.740000000000001},{"rt":2324.10000000149,"stimulus":"bees-with-color/bee-B1DF.svg","response":0,"trial_type":"image-button-response","trial_index":31,"time_elapsed":696010,"internal_node_id":"0.0-4.0-0.12","subject_id":"5effa578fa024409d98c2b7a","study_id":"60edd13110225f80f9f3709b","session_id":"6196ba7b195756055445f906","condition":"full-information","relevant_dimensions":["wings","pattern"],"bee_group":{"antennae":"X","wings":"1","pattern":"S","legs":"X"},"action":"harvest","summary":"good-harvest","bonus":1.740000000000001},{"rt":1313,"stimulus":"\n                    <p><b>Action: <em>harvest</em></b></p>\n                    <p>This is the bee that you just saw.</p>\n                    <img src=\"bees-with-color/bee-B1DF.svg\" width=\"200\">\n                    <p><span class=\"greenText\"><b>Successful harvest!</b></span><br>Your pay has increased by $0.02. Your bonus pay is now $0.60.</p>\n            ","response":0,"trial_type":"html-button-response","trial_index":32,"time_elapsed":697328,"internal_node_id":"0.0-4.0-1.12","subject_id":"5effa578fa024409d98c2b7a","study_id":"60edd13110225f80f9f3709b","session_id":"6196ba7b195756055445f906","condition":"full-information","relevant_dimensions":["wings","pattern"],"bee_group":{"antennae":"X","wings":"1","pattern":"S","legs":"X"},"bonus":1.740000000000001},{"rt":3134.900000002235,"stimulus":"bees-with-color/bee-B1SM.svg","response":1,"trial_type":"image-button-response","trial_index":33,"time_elapsed":700469,"internal_node_id":"0.0-4.0-0.13","subject_id":"5effa578fa024409d98c2b7a","study_id":"60edd13110225f80f9f3709b","session_id":"6196ba7b195756055445f906","condition":"full-information","relevant_dimensions":["wings","pattern"],"bee_group":{"antennae":"X","wings":"1","pattern":"S","legs":"X"},"action":"avoid","summary":"good-avoid","bonus":1.740000000000001},{"rt":2713,"stimulus":"\n                    <p><b>Action: <em>avoid</em></b></p>\n                    <p>This is the bee that you just saw.</p>\n                    <img src=\"bees-with-color/bee-B1SM.svg\" width=\"200\">\n                    <p><span class=\"greenText\">Good choice!</span>  This bee would have stung you.<br>Your bonus pay is unchanged, and remains at $0.60.</p>\n            ","response":0,"trial_type":"html-button-response","trial_index":34,"time_elapsed":703188,"internal_node_id":"0.0-4.0-1.13","subject_id":"5effa578fa024409d98c2b7a","study_id":"60edd13110225f80f9f3709b","session_id":"6196ba7b195756055445f906","condition":"full-information","relevant_dimensions":["wings","pattern"],"bee_group":{"antennae":"X","wings":"1","pattern":"S","legs":"X"},"bonus":1.740000000000001},{"rt":3631.89999999851,"stimulus":"bees-with-color/bee-B2DF.svg","response":0,"trial_type":"image-button-response","trial_index":35,"time_elapsed":706827,"internal_node_id":"0.0-4.0-0.14","subject_id":"5effa578fa024409d98c2b7a","study_id":"60edd13110225f80f9f3709b","session_id":"6196ba7b195756055445f906","condition":"full-information","relevant_dimensions":["wings","pattern"],"bee_group":{"antennae":"X","wings":"1","pattern":"S","legs":"X"},"action":"harvest","summary":"good-harvest","bonus":1.740000000000001},{"rt":1271.2999999970198,"stimulus":"\n                    <p><b>Action: <em>harvest</em></b></p>\n                    <p>This is the bee that you just saw.</p>\n                    <img src=\"bees-with-color/bee-B2DF.svg\" width=\"200\">\n                    <p><span class=\"greenText\"><b>Successful harvest!</b></span><br>Your pay has increased by $0.02. Your bonus pay is now $0.62.</p>\n            ","response":0,"trial_type":"html-button-response","trial_index":36,"time_elapsed":708107,"internal_node_id":"0.0-4.0-1.14","subject_id":"5effa578fa024409d98c2b7a","study_id":"60edd13110225f80f9f3709b","session_id":"6196ba7b195756055445f906","condition":"full-information","relevant_dimensions":["wings","pattern"],"bee_group":{"antennae":"X","wings":"1","pattern":"S","legs":"X"},"bonus":1.740000000000001},{"rt":2613.699999999255,"stimulus":"bees-with-color/bee-B2SF.svg","response":0,"trial_type":"image-button-response","trial_index":37,"time_elapsed":710727,"internal_node_id":"0.0-4.0-0.15","subject_id":"5effa578fa024409d98c2b7a","study_id":"60edd13110225f80f9f3709b","session_id":"6196ba7b195756055445f906","condition":"full-information","relevant_dimensions":["wings","pattern"],"bee_group":{"antennae":"X","wings":"1","pattern":"S","legs":"X"},"action":"harvest","summary":"good-harvest","bonus":1.740000000000001},{"rt":1484,"stimulus":"\n                    <p><b>Action: <em>harvest</em></b></p>\n                    <p>This is the bee that you just saw.</p>\n                    <img src=\"bees-with-color/bee-B2SF.svg\" width=\"200\">\n                    <p><span class=\"greenText\"><b>Successful harvest!</b></span><br>Your pay has increased by $0.02. Your bonus pay is now $0.64.</p>\n            ","response":0,"trial_type":"html-button-response","trial_index":38,"time_elapsed":712217,"internal_node_id":"0.0-4.0-1.15","subject_id":"5effa578fa024409d98c2b7a","study_id":"60edd13110225f80f9f3709b","session_id":"6196ba7b195756055445f906","condition":"full-information","relevant_dimensions":["wings","pattern"],"bee_group":{"antennae":"X","wings":"1","pattern":"S","legs":"X"},"bonus":1.740000000000001},{"rt":4115.29999999702,"stimulus":"bees-with-color/bee-B2DM.svg","response":0,"trial_type":"image-button-response","trial_index":39,"time_elapsed":716339,"internal_node_id":"0.0-4.0-0.16","subject_id":"5effa578fa024409d98c2b7a","study_id":"60edd13110225f80f9f3709b","session_id":"6196ba7b195756055445f906","condition":"full-information","relevant_dimensions":["wings","pattern"],"bee_group":{"antennae":"X","wings":"1","pattern":"S","legs":"X"},"action":"harvest","summary":"good-harvest","bonus":1.740000000000001},{"rt":1274.5,"stimulus":"\n                    <p><b>Action: <em>harvest</em></b></p>\n                    <p>This is the bee that you just saw.</p>\n                    <img src=\"bees-with-color/bee-B2DM.svg\" width=\"200\">\n                    <p><span class=\"greenText\"><b>Successful harvest!</b></span><br>Your pay has increased by $0.02. Your bonus pay is now $0.66.</p>\n            ","response":0,"trial_type":"html-button-response","trial_index":40,"time_elapsed":717619,"internal_node_id":"0.0-4.0-1.16","subject_id":"5effa578fa024409d98c2b7a","study_id":"60edd13110225f80f9f3709b","session_id":"6196ba7b195756055445f906","condition":"full-information","relevant_dimensions":["wings","pattern"],"bee_group":{"antennae":"X","wings":"1","pattern":"S","legs":"X"},"bonus":1.740000000000001},{"rt":1728.9000000022352,"stimulus":"bees-with-color/bee-A2SF.svg","response":0,"trial_type":"image-button-response","trial_index":41,"time_elapsed":719355,"internal_node_id":"0.0-4.0-0.17","subject_id":"5effa578fa024409d98c2b7a","study_id":"60edd13110225f80f9f3709b","session_id":"6196ba7b195756055445f906","condition":"full-information","relevant_dimensions":["wings","pattern"],"bee_group":{"antennae":"X","wings":"1","pattern":"S","legs":"X"},"action":"harvest","summary":"good-harvest","bonus":1.740000000000001},{"rt":1222.2000000029802,"stimulus":"\n                    <p><b>Action: <em>harvest</em></b></p>\n                    <p>This is the bee that you just saw.</p>\n                    <img src=\"bees-with-color/bee-A2SF.svg\" width=\"200\">\n                    <p><span class=\"greenText\"><b>Successful harvest!</b></span><br>Your pay has increased by $0.02. Your bonus pay is now $0.68.</p>\n            ","response":0,"trial_type":"html-button-response","trial_index":42,"time_elapsed":720583,"internal_node_id":"0.0-4.0-1.17","subject_id":"5effa578fa024409d98c2b7a","study_id":"60edd13110225f80f9f3709b","session_id":"6196ba7b195756055445f906","condition":"full-information","relevant_dimensions":["wings","pattern"],"bee_group":{"antennae":"X","wings":"1","pattern":"S","legs":"X"},"bonus":1.740000000000001},{"rt":1298.7000000029802,"stimulus":"bees-with-color/bee-B2DF.svg","response":0,"trial_type":"image-button-response","trial_index":43,"time_elapsed":721890,"internal_node_id":"0.0-4.0-0.18","subject_id":"5effa578fa024409d98c2b7a","study_id":"60edd13110225f80f9f3709b","session_id":"6196ba7b195756055445f906","condition":"full-information","relevant_dimensions":["wings","pattern"],"bee_group":{"antennae":"X","wings":"1","pattern":"S","legs":"X"},"action":"harvest","summary":"good-harvest","bonus":1.740000000000001},{"rt":1084.2000000029802,"stimulus":"\n                    <p><b>Action: <em>harvest</em></b></p>\n                    <p>This is the bee that you just saw.</p>\n                    <img src=\"bees-with-color/bee-B2DF.svg\" width=\"200\">\n                    <p><span class=\"greenText\"><b>Successful harvest!</b></span><br>Your pay has increased by $0.02. Your bonus pay is now $0.70.</p>\n            ","response":0,"trial_type":"html-button-response","trial_index":44,"time_elapsed":722980,"internal_node_id":"0.0-4.0-1.18","subject_id":"5effa578fa024409d98c2b7a","study_id":"60edd13110225f80f9f3709b","session_id":"6196ba7b195756055445f906","condition":"full-information","relevant_dimensions":["wings","pattern"],"bee_group":{"antennae":"X","wings":"1","pattern":"S","legs":"X"},"bonus":1.740000000000001},{"rt":2604.5,"stimulus":"bees-with-color/bee-B1SF.svg","response":1,"trial_type":"image-button-response","trial_index":45,"time_elapsed":725589,"internal_node_id":"0.0-4.0-0.19","subject_id":"5effa578fa024409d98c2b7a","study_id":"60edd13110225f80f9f3709b","session_id":"6196ba7b195756055445f906","condition":"full-information","relevant_dimensions":["wings","pattern"],"bee_group":{"antennae":"X","wings":"1","pattern":"S","legs":"X"},"action":"avoid","summary":"good-avoid","bonus":1.740000000000001},{"rt":6819.900000002235,"stimulus":"\n                    <p><b>Action: <em>avoid</em></b></p>\n                    <p>This is the bee that you just saw.</p>\n                    <img src=\"bees-with-color/bee-B1SF.svg\" width=\"200\">\n                    <p><span class=\"greenText\">Good choice!</span>  This bee would have stung you.<br>Your bonus pay is unchanged, and remains at $0.70.</p>\n            ","response":0,"trial_type":"html-button-response","trial_index":46,"time_elapsed":732414,"internal_node_id":"0.0-4.0-1.19","subject_id":"5effa578fa024409d98c2b7a","study_id":"60edd13110225f80f9f3709b","session_id":"6196ba7b195756055445f906","condition":"full-information","relevant_dimensions":["wings","pattern"],"bee_group":{"antennae":"X","wings":"1","pattern":"S","legs":"X"},"bonus":1.740000000000001},{"rt":2061,"stimulus":"bees-with-color/bee-A1DF.svg","response":0,"trial_type":"image-button-response","trial_index":47,"time_elapsed":734480,"internal_node_id":"0.0-4.0-0.20","subject_id":"5effa578fa024409d98c2b7a","study_id":"60edd13110225f80f9f3709b","session_id":"6196ba7b195756055445f906","condition":"full-information","relevant_dimensions":["wings","pattern"],"bee_group":{"antennae":"X","wings":"1","pattern":"S","legs":"X"},"action":"harvest","summary":"good-harvest","bonus":1.740000000000001},{"rt":1333.7999999970198,"stimulus":"\n                    <p><b>Action: <em>harvest</em></b></p>\n                    <p>This is the bee that you just saw.</p>\n                    <img src=\"bees-with-color/bee-A1DF.svg\" width=\"200\">\n                    <p><span class=\"greenText\"><b>Successful harvest!</b></span><br>Your pay has increased by $0.02. Your bonus pay is now $0.72.</p>\n            ","response":0,"trial_type":"html-button-response","trial_index":48,"time_elapsed":735818,"internal_node_id":"0.0-4.0-1.20","subject_id":"5effa578fa024409d98c2b7a","study_id":"60edd13110225f80f9f3709b","session_id":"6196ba7b195756055445f906","condition":"full-information","relevant_dimensions":["wings","pattern"],"bee_group":{"antennae":"X","wings":"1","pattern":"S","legs":"X"},"bonus":1.740000000000001},{"rt":1941.699999999255,"stimulus":"bees-with-color/bee-B2SM.svg","response":0,"trial_type":"image-button-response","trial_index":49,"time_elapsed":737764,"internal_node_id":"0.0-4.0-0.21","subject_id":"5effa578fa024409d98c2b7a","study_id":"60edd13110225f80f9f3709b","session_id":"6196ba7b195756055445f906","condition":"full-information","relevant_dimensions":["wings","pattern"],"bee_group":{"antennae":"X","wings":"1","pattern":"S","legs":"X"},"action":"harvest","summary":"good-harvest","bonus":1.740000000000001},{"rt":3493.199999999255,"stimulus":"\n                    <p><b>Action: <em>harvest</em></b></p>\n                    <p>This is the bee that you just saw.</p>\n                    <img src=\"bees-with-color/bee-B2SM.svg\" width=\"200\">\n                    <p><span class=\"greenText\"><b>Successful harvest!</b></span><br>Your pay has increased by $0.02. Your bonus pay is now $0.74.</p>\n            ","response":0,"trial_type":"html-button-response","trial_index":50,"time_elapsed":741261,"internal_node_id":"0.0-4.0-1.21","subject_id":"5effa578fa024409d98c2b7a","study_id":"60edd13110225f80f9f3709b","session_id":"6196ba7b195756055445f906","condition":"full-information","relevant_dimensions":["wings","pattern"],"bee_group":{"antennae":"X","wings":"1","pattern":"S","legs":"X"},"bonus":1.740000000000001},{"rt":1994.7000000029802,"stimulus":"bees-with-color/bee-A2DM.svg","response":0,"trial_type":"image-button-response","trial_index":51,"time_elapsed":743262,"internal_node_id":"0.0-4.0-0.22","subject_id":"5effa578fa024409d98c2b7a","study_id":"60edd13110225f80f9f3709b","session_id":"6196ba7b195756055445f906","condition":"full-information","relevant_dimensions":["wings","pattern"],"bee_group":{"antennae":"X","wings":"1","pattern":"S","legs":"X"},"action":"harvest","summary":"good-harvest","bonus":1.740000000000001},{"rt":1068.7999999970198,"stimulus":"\n                    <p><b>Action: <em>harvest</em></b></p>\n                    <p>This is the bee that you just saw.</p>\n                    <img src=\"bees-with-color/bee-A2DM.svg\" width=\"200\">\n                    <p><span class=\"greenText\"><b>Successful harvest!</b></span><br>Your pay has increased by $0.02. Your bonus pay is now $0.76.</p>\n            ","response":0,"trial_type":"html-button-response","trial_index":52,"time_elapsed":744335,"internal_node_id":"0.0-4.0-1.22","subject_id":"5effa578fa024409d98c2b7a","study_id":"60edd13110225f80f9f3709b","session_id":"6196ba7b195756055445f906","condition":"full-information","relevant_dimensions":["wings","pattern"],"bee_group":{"antennae":"X","wings":"1","pattern":"S","legs":"X"},"bonus":1.740000000000001},{"rt":2639.800000000745,"stimulus":"bees-with-color/bee-A1SF.svg","response":1,"trial_type":"image-button-response","trial_index":53,"time_elapsed":746979,"internal_node_id":"0.0-4.0-0.23","subject_id":"5effa578fa024409d98c2b7a","study_id":"60edd13110225f80f9f3709b","session_id":"6196ba7b195756055445f906","condition":"full-information","relevant_dimensions":["wings","pattern"],"bee_group":{"antennae":"X","wings":"1","pattern":"S","legs":"X"},"action":"avoid","summary":"good-avoid","bonus":1.740000000000001},{"rt":3281.699999999255,"stimulus":"\n                    <p><b>Action: <em>avoid</em></b></p>\n                    <p>This is the bee that you just saw.</p>\n                    <img src=\"bees-with-color/bee-A1SF.svg\" width=\"200\">\n                    <p><span class=\"greenText\">Good choice!</span>  This bee would have stung you.<br>Your bonus pay is unchanged, and remains at $0.76.</p>\n            ","response":0,"trial_type":"html-button-response","trial_index":54,"time_elapsed":750266,"internal_node_id":"0.0-4.0-1.23","subject_id":"5effa578fa024409d98c2b7a","study_id":"60edd13110225f80f9f3709b","session_id":"6196ba7b195756055445f906","condition":"full-information","relevant_dimensions":["wings","pattern"],"bee_group":{"antennae":"X","wings":"1","pattern":"S","legs":"X"},"bonus":1.740000000000001},{"rt":1750.800000000745,"stimulus":"bees-with-color/bee-A2SM.svg","response":0,"trial_type":"image-button-response","trial_index":55,"time_elapsed":752022,"internal_node_id":"0.0-4.0-0.24","subject_id":"5effa578fa024409d98c2b7a","study_id":"60edd13110225f80f9f3709b","session_id":"6196ba7b195756055445f906","condition":"full-information","relevant_dimensions":["wings","pattern"],"bee_group":{"antennae":"X","wings":"1","pattern":"S","legs":"X"},"action":"harvest","summary":"good-harvest","bonus":1.740000000000001},{"rt":1057.5,"stimulus":"\n                    <p><b>Action: <em>harvest</em></b></p>\n                    <p>This is the bee that you just saw.</p>\n                    <img src=\"bees-with-color/bee-A2SM.svg\" width=\"200\">\n                    <p><span class=\"greenText\"><b>Successful harvest!</b></span><br>Your pay has increased by $0.02. Your bonus pay is now $0.78.</p>\n            ","response":0,"trial_type":"html-button-response","trial_index":56,"time_elapsed":753084,"internal_node_id":"0.0-4.0-1.24","subject_id":"5effa578fa024409d98c2b7a","study_id":"60edd13110225f80f9f3709b","session_id":"6196ba7b195756055445f906","condition":"full-information","relevant_dimensions":["wings","pattern"],"bee_group":{"antennae":"X","wings":"1","pattern":"S","legs":"X"},"bonus":1.740000000000001},{"rt":1886.199999999255,"stimulus":"bees-with-color/bee-B1SM.svg","response":1,"trial_type":"image-button-response","trial_index":57,"time_elapsed":754976,"internal_node_id":"0.0-4.0-0.25","subject_id":"5effa578fa024409d98c2b7a","study_id":"60edd13110225f80f9f3709b","session_id":"6196ba7b195756055445f906","condition":"full-information","relevant_dimensions":["wings","pattern"],"bee_group":{"antennae":"X","wings":"1","pattern":"S","legs":"X"},"action":"avoid","summary":"good-avoid","bonus":1.740000000000001},{"rt":1082.699999999255,"stimulus":"\n                    <p><b>Action: <em>avoid</em></b></p>\n                    <p>This is the bee that you just saw.</p>\n                    <img src=\"bees-with-color/bee-B1SM.svg\" width=\"200\">\n                    <p><span class=\"greenText\">Good choice!</span>  This bee would have stung you.<br>Your bonus pay is unchanged, and remains at $0.78.</p>\n            ","response":0,"trial_type":"html-button-response","trial_index":58,"time_elapsed":756063,"internal_node_id":"0.0-4.0-1.25","subject_id":"5effa578fa024409d98c2b7a","study_id":"60edd13110225f80f9f3709b","session_id":"6196ba7b195756055445f906","condition":"full-information","relevant_dimensions":["wings","pattern"],"bee_group":{"antennae":"X","wings":"1","pattern":"S","legs":"X"},"bonus":1.740000000000001},{"rt":1099.8999999985099,"stimulus":"bees-with-color/bee-B2SF.svg","response":0,"trial_type":"image-button-response","trial_index":59,"time_elapsed":757169,"internal_node_id":"0.0-4.0-0.26","subject_id":"5effa578fa024409d98c2b7a","study_id":"60edd13110225f80f9f3709b","session_id":"6196ba7b195756055445f906","condition":"full-information","relevant_dimensions":["wings","pattern"],"bee_group":{"antennae":"X","wings":"1","pattern":"S","legs":"X"},"action":"harvest","summary":"good-harvest","bonus":1.740000000000001},{"rt":958.4000000022352,"stimulus":"\n                    <p><b>Action: <em>harvest</em></b></p>\n                    <p>This is the bee that you just saw.</p>\n                    <img src=\"bees-with-color/bee-B2SF.svg\" width=\"200\">\n                    <p><span class=\"greenText\"><b>Successful harvest!</b></span><br>Your pay has increased by $0.02. Your bonus pay is now $0.80.</p>\n            ","response":0,"trial_type":"html-button-response","trial_index":60,"time_elapsed":758132,"internal_node_id":"0.0-4.0-1.26","subject_id":"5effa578fa024409d98c2b7a","study_id":"60edd13110225f80f9f3709b","session_id":"6196ba7b195756055445f906","condition":"full-information","relevant_dimensions":["wings","pattern"],"bee_group":{"antennae":"X","wings":"1","pattern":"S","legs":"X"},"bonus":1.740000000000001},{"rt":1973.5999999977648,"stimulus":"bees-with-color/bee-B1DM.svg","response":0,"trial_type":"image-button-response","trial_index":61,"time_elapsed":760110,"internal_node_id":"0.0-4.0-0.27","subject_id":"5effa578fa024409d98c2b7a","study_id":"60edd13110225f80f9f3709b","session_id":"6196ba7b195756055445f906","condition":"full-information","relevant_dimensions":["wings","pattern"],"bee_group":{"antennae":"X","wings":"1","pattern":"S","legs":"X"},"action":"harvest","summary":"good-harvest","bonus":1.740000000000001},{"rt":1450.2999999970198,"stimulus":"\n                    <p><b>Action: <em>harvest</em></b></p>\n                    <p>This is the bee that you just saw.</p>\n                    <img src=\"bees-with-color/bee-B1DM.svg\" width=\"200\">\n                    <p><span class=\"greenText\"><b>Successful harvest!</b></span><br>Your pay has increased by $0.02. Your bonus pay is now $0.82.</p>\n            ","response":0,"trial_type":"html-button-response","trial_index":62,"time_elapsed":761565,"internal_node_id":"0.0-4.0-1.27","subject_id":"5effa578fa024409d98c2b7a","study_id":"60edd13110225f80f9f3709b","session_id":"6196ba7b195756055445f906","condition":"full-information","relevant_dimensions":["wings","pattern"],"bee_group":{"antennae":"X","wings":"1","pattern":"S","legs":"X"},"bonus":1.740000000000001},{"rt":1550.5,"stimulus":"bees-with-color/bee-B1DF.svg","response":0,"trial_type":"image-button-response","trial_index":63,"time_elapsed":763122,"internal_node_id":"0.0-4.0-0.28","subject_id":"5effa578fa024409d98c2b7a","study_id":"60edd13110225f80f9f3709b","session_id":"6196ba7b195756055445f906","condition":"full-information","relevant_dimensions":["wings","pattern"],"bee_group":{"antennae":"X","wings":"1","pattern":"S","legs":"X"},"action":"harvest","summary":"good-harvest","bonus":1.740000000000001},{"rt":1159.7999999970198,"stimulus":"\n                    <p><b>Action: <em>harvest</em></b></p>\n                    <p>This is the bee that you just saw.</p>\n                    <img src=\"bees-with-color/bee-B1DF.svg\" width=\"200\">\n                    <p><span class=\"greenText\"><b>Successful harvest!</b></span><br>Your pay has increased by $0.02. Your bonus pay is now $0.84.</p>\n            ","response":0,"trial_type":"html-button-response","trial_index":64,"time_elapsed":764286,"internal_node_id":"0.0-4.0-1.28","subject_id":"5effa578fa024409d98c2b7a","study_id":"60edd13110225f80f9f3709b","session_id":"6196ba7b195756055445f906","condition":"full-information","relevant_dimensions":["wings","pattern"],"bee_group":{"antennae":"X","wings":"1","pattern":"S","legs":"X"},"bonus":1.740000000000001},{"rt":1560.6000000014901,"stimulus":"bees-with-color/bee-A1DM.svg","response":0,"trial_type":"image-button-response","trial_index":65,"time_elapsed":765851,"internal_node_id":"0.0-4.0-0.29","subject_id":"5effa578fa024409d98c2b7a","study_id":"60edd13110225f80f9f3709b","session_id":"6196ba7b195756055445f906","condition":"full-information","relevant_dimensions":["wings","pattern"],"bee_group":{"antennae":"X","wings":"1","pattern":"S","legs":"X"},"action":"harvest","summary":"good-harvest","bonus":1.740000000000001},{"rt":1399,"stimulus":"\n                    <p><b>Action: <em>harvest</em></b></p>\n                    <p>This is the bee that you just saw.</p>\n                    <img src=\"bees-with-color/bee-A1DM.svg\" width=\"200\">\n                    <p><span class=\"greenText\"><b>Successful harvest!</b></span><br>Your pay has increased by $0.02. Your bonus pay is now $0.86.</p>\n            ","response":0,"trial_type":"html-button-response","trial_index":66,"time_elapsed":767255,"internal_node_id":"0.0-4.0-1.29","subject_id":"5effa578fa024409d98c2b7a","study_id":"60edd13110225f80f9f3709b","session_id":"6196ba7b195756055445f906","condition":"full-information","relevant_dimensions":["wings","pattern"],"bee_group":{"antennae":"X","wings":"1","pattern":"S","legs":"X"},"bonus":1.740000000000001},{"rt":1806,"stimulus":"bees-with-color/bee-A1SM.svg","response":1,"trial_type":"image-button-response","trial_index":67,"time_elapsed":769067,"internal_node_id":"0.0-4.0-0.30","subject_id":"5effa578fa024409d98c2b7a","study_id":"60edd13110225f80f9f3709b","session_id":"6196ba7b195756055445f906","condition":"full-information","relevant_dimensions":["wings","pattern"],"bee_group":{"antennae":"X","wings":"1","pattern":"S","legs":"X"},"action":"avoid","summary":"good-avoid","bonus":1.740000000000001},{"rt":1442.2999999970198,"stimulus":"\n                    <p><b>Action: <em>avoid</em></b></p>\n                    <p>This is the bee that you just saw.</p>\n                    <img src=\"bees-with-color/bee-A1SM.svg\" width=\"200\">\n                    <p><span class=\"greenText\">Good choice!</span>  This bee would have stung you.<br>Your bonus pay is unchanged, and remains at $0.86.</p>\n            ","response":0,"trial_type":"html-button-response","trial_index":68,"time_elapsed":770515,"internal_node_id":"0.0-4.0-1.30","subject_id":"5effa578fa024409d98c2b7a","study_id":"60edd13110225f80f9f3709b","session_id":"6196ba7b195756055445f906","condition":"full-information","relevant_dimensions":["wings","pattern"],"bee_group":{"antennae":"X","wings":"1","pattern":"S","legs":"X"},"bonus":1.740000000000001},{"rt":1473.2000000029802,"stimulus":"bees-with-color/bee-A2DF.svg","response":0,"trial_type":"image-button-response","trial_index":69,"time_elapsed":771994,"internal_node_id":"0.0-4.0-0.31","subject_id":"5effa578fa024409d98c2b7a","study_id":"60edd13110225f80f9f3709b","session_id":"6196ba7b195756055445f906","condition":"full-information","relevant_dimensions":["wings","pattern"],"bee_group":{"antennae":"X","wings":"1","pattern":"S","legs":"X"},"action":"harvest","summary":"good-harvest","bonus":1.740000000000001},{"rt":1094.8999999985099,"stimulus":"\n                    <p><b>Action: <em>harvest</em></b></p>\n                    <p>This is the bee that you just saw.</p>\n                    <img src=\"bees-with-color/bee-A2DF.svg\" width=\"200\">\n                    <p><span class=\"greenText\"><b>Successful harvest!</b></span><br>Your pay has increased by $0.02. Your bonus pay is now $0.88.</p>\n            ","response":0,"trial_type":"html-button-response","trial_index":70,"time_elapsed":773094,"internal_node_id":"0.0-4.0-1.31","subject_id":"5effa578fa024409d98c2b7a","study_id":"60edd13110225f80f9f3709b","session_id":"6196ba7b195756055445f906","condition":"full-information","relevant_dimensions":["wings","pattern"],"bee_group":{"antennae":"X","wings":"1","pattern":"S","legs":"X"},"bonus":1.740000000000001},{"rt":2267.099999997765,"stimulus":"bees-with-color/bee-B1SF.svg","response":1,"trial_type":"image-button-response","trial_index":71,"time_elapsed":775365,"internal_node_id":"0.0-4.0-0.32","subject_id":"5effa578fa024409d98c2b7a","study_id":"60edd13110225f80f9f3709b","session_id":"6196ba7b195756055445f906","condition":"full-information","relevant_dimensions":["wings","pattern"],"bee_group":{"antennae":"X","wings":"1","pattern":"S","legs":"X"},"action":"avoid","summary":"good-avoid","bonus":1.740000000000001},{"rt":1018.3999999985099,"stimulus":"\n                    <p><b>Action: <em>avoid</em></b></p>\n                    <p>This is the bee that you just saw.</p>\n                    <img src=\"bees-with-color/bee-B1SF.svg\" width=\"200\">\n                    <p><span class=\"greenText\">Good choice!</span>  This bee would have stung you.<br>Your bonus pay is unchanged, and remains at $0.88.</p>\n            ","response":0,"trial_type":"html-button-response","trial_index":72,"time_elapsed":776389,"internal_node_id":"0.0-4.0-1.32","subject_id":"5effa578fa024409d98c2b7a","study_id":"60edd13110225f80f9f3709b","session_id":"6196ba7b195756055445f906","condition":"full-information","relevant_dimensions":["wings","pattern"],"bee_group":{"antennae":"X","wings":"1","pattern":"S","legs":"X"},"bonus":1.740000000000001},{"rt":1892,"stimulus":"bees-with-color/bee-A2DF.svg","response":0,"trial_type":"image-button-response","trial_index":73,"time_elapsed":778286,"internal_node_id":"0.0-4.0-0.33","subject_id":"5effa578fa024409d98c2b7a","study_id":"60edd13110225f80f9f3709b","session_id":"6196ba7b195756055445f906","condition":"full-information","relevant_dimensions":["wings","pattern"],"bee_group":{"antennae":"X","wings":"1","pattern":"S","legs":"X"},"action":"harvest","summary":"good-harvest","bonus":1.740000000000001},{"rt":1587.300000000745,"stimulus":"\n                    <p><b>Action: <em>harvest</em></b></p>\n                    <p>This is the bee that you just saw.</p>\n                    <img src=\"bees-with-color/bee-A2DF.svg\" width=\"200\">\n                    <p><span class=\"greenText\"><b>Successful harvest!</b></span><br>Your pay has increased by $0.02. Your bonus pay is now $0.90.</p>\n            ","response":0,"trial_type":"html-button-response","trial_index":74,"time_elapsed":779878,"internal_node_id":"0.0-4.0-1.33","subject_id":"5effa578fa024409d98c2b7a","study_id":"60edd13110225f80f9f3709b","session_id":"6196ba7b195756055445f906","condition":"full-information","relevant_dimensions":["wings","pattern"],"bee_group":{"antennae":"X","wings":"1","pattern":"S","legs":"X"},"bonus":1.740000000000001},{"rt":2295.5,"stimulus":"bees-with-color/bee-A1DF.svg","response":0,"trial_type":"image-button-response","trial_index":75,"time_elapsed":782182,"internal_node_id":"0.0-4.0-0.34","subject_id":"5effa578fa024409d98c2b7a","study_id":"60edd13110225f80f9f3709b","session_id":"6196ba7b195756055445f906","condition":"full-information","relevant_dimensions":["wings","pattern"],"bee_group":{"antennae":"X","wings":"1","pattern":"S","legs":"X"},"action":"harvest","summary":"good-harvest","bonus":1.740000000000001},{"rt":1125.199999999255,"stimulus":"\n                    <p><b>Action: <em>harvest</em></b></p>\n                    <p>This is the bee that you just saw.</p>\n                    <img src=\"bees-with-color/bee-A1DF.svg\" width=\"200\">\n                    <p><span class=\"greenText\"><b>Successful harvest!</b></span><br>Your pay has increased by $0.02. Your bonus pay is now $0.92.</p>\n            ","response":0,"trial_type":"html-button-response","trial_index":76,"time_elapsed":783312,"internal_node_id":"0.0-4.0-1.34","subject_id":"5effa578fa024409d98c2b7a","study_id":"60edd13110225f80f9f3709b","session_id":"6196ba7b195756055445f906","condition":"full-information","relevant_dimensions":["wings","pattern"],"bee_group":{"antennae":"X","wings":"1","pattern":"S","legs":"X"},"bonus":1.740000000000001},{"rt":1364.300000000745,"stimulus":"bees-with-color/bee-B1DM.svg","response":0,"trial_type":"image-button-response","trial_index":77,"time_elapsed":784683,"internal_node_id":"0.0-4.0-0.35","subject_id":"5effa578fa024409d98c2b7a","study_id":"60edd13110225f80f9f3709b","session_id":"6196ba7b195756055445f906","condition":"full-information","relevant_dimensions":["wings","pattern"],"bee_group":{"antennae":"X","wings":"1","pattern":"S","legs":"X"},"action":"harvest","summary":"good-harvest","bonus":1.740000000000001},{"rt":1248.300000000745,"stimulus":"\n                    <p><b>Action: <em>harvest</em></b></p>\n                    <p>This is the bee that you just saw.</p>\n                    <img src=\"bees-with-color/bee-B1DM.svg\" width=\"200\">\n                    <p><span class=\"greenText\"><b>Successful harvest!</b></span><br>Your pay has increased by $0.02. Your bonus pay is now $0.94.</p>\n            ","response":0,"trial_type":"html-button-response","trial_index":78,"time_elapsed":785936,"internal_node_id":"0.0-4.0-1.35","subject_id":"5effa578fa024409d98c2b7a","study_id":"60edd13110225f80f9f3709b","session_id":"6196ba7b195756055445f906","condition":"full-information","relevant_dimensions":["wings","pattern"],"bee_group":{"antennae":"X","wings":"1","pattern":"S","legs":"X"},"bonus":1.740000000000001},{"rt":1539.6000000014901,"stimulus":"bees-with-color/bee-B1SM.svg","response":1,"trial_type":"image-button-response","trial_index":79,"time_elapsed":787481,"internal_node_id":"0.0-4.0-0.36","subject_id":"5effa578fa024409d98c2b7a","study_id":"60edd13110225f80f9f3709b","session_id":"6196ba7b195756055445f906","condition":"full-information","relevant_dimensions":["wings","pattern"],"bee_group":{"antennae":"X","wings":"1","pattern":"S","legs":"X"},"action":"avoid","summary":"good-avoid","bonus":1.740000000000001},{"rt":1378.300000000745,"stimulus":"\n                    <p><b>Action: <em>avoid</em></b></p>\n                    <p>This is the bee that you just saw.</p>\n                    <img src=\"bees-with-color/bee-B1SM.svg\" width=\"200\">\n                    <p><span class=\"greenText\">Good choice!</span>  This bee would have stung you.<br>Your bonus pay is unchanged, and remains at $0.94.</p>\n            ","response":0,"trial_type":"html-button-response","trial_index":80,"time_elapsed":788866,"internal_node_id":"0.0-4.0-1.36","subject_id":"5effa578fa024409d98c2b7a","study_id":"60edd13110225f80f9f3709b","session_id":"6196ba7b195756055445f906","condition":"full-information","relevant_dimensions":["wings","pattern"],"bee_group":{"antennae":"X","wings":"1","pattern":"S","legs":"X"},"bonus":1.740000000000001},{"rt":1631.6000000014901,"stimulus":"bees-with-color/bee-A2DM.svg","response":0,"trial_type":"image-button-response","trial_index":81,"time_elapsed":790508,"internal_node_id":"0.0-4.0-0.37","subject_id":"5effa578fa024409d98c2b7a","study_id":"60edd13110225f80f9f3709b","session_id":"6196ba7b195756055445f906","condition":"full-information","relevant_dimensions":["wings","pattern"],"bee_group":{"antennae":"X","wings":"1","pattern":"S","legs":"X"},"action":"harvest","summary":"good-harvest","bonus":1.740000000000001},{"rt":1180.7000000029802,"stimulus":"\n                    <p><b>Action: <em>harvest</em></b></p>\n                    <p>This is the bee that you just saw.</p>\n                    <img src=\"bees-with-color/bee-A2DM.svg\" width=\"200\">\n                    <p><span class=\"greenText\"><b>Successful harvest!</b></span><br>Your pay has increased by $0.02. Your bonus pay is now $0.96.</p>\n            ","response":0,"trial_type":"html-button-response","trial_index":82,"time_elapsed":791694,"internal_node_id":"0.0-4.0-1.37","subject_id":"5effa578fa024409d98c2b7a","study_id":"60edd13110225f80f9f3709b","session_id":"6196ba7b195756055445f906","condition":"full-information","relevant_dimensions":["wings","pattern"],"bee_group":{"antennae":"X","wings":"1","pattern":"S","legs":"X"},"bonus":1.740000000000001},{"rt":1519.4000000022352,"stimulus":"bees-with-color/bee-B2DF.svg","response":0,"trial_type":"image-button-response","trial_index":83,"time_elapsed":793218,"internal_node_id":"0.0-4.0-0.38","subject_id":"5effa578fa024409d98c2b7a","study_id":"60edd13110225f80f9f3709b","session_id":"6196ba7b195756055445f906","condition":"full-information","relevant_dimensions":["wings","pattern"],"bee_group":{"antennae":"X","wings":"1","pattern":"S","legs":"X"},"action":"harvest","summary":"good-harvest","bonus":1.740000000000001},{"rt":1079.800000000745,"stimulus":"\n                    <p><b>Action: <em>harvest</em></b></p>\n                    <p>This is the bee that you just saw.</p>\n                    <img src=\"bees-with-color/bee-B2DF.svg\" width=\"200\">\n                    <p><span class=\"greenText\"><b>Successful harvest!</b></span><br>Your pay has increased by $0.02. Your bonus pay is now $0.98.</p>\n            ","response":0,"trial_type":"html-button-response","trial_index":84,"time_elapsed":794304,"internal_node_id":"0.0-4.0-1.38","subject_id":"5effa578fa024409d98c2b7a","study_id":"60edd13110225f80f9f3709b","session_id":"6196ba7b195756055445f906","condition":"full-information","relevant_dimensions":["wings","pattern"],"bee_group":{"antennae":"X","wings":"1","pattern":"S","legs":"X"},"bonus":1.740000000000001},{"rt":1382.800000000745,"stimulus":"bees-with-color/bee-B2SF.svg","response":0,"trial_type":"image-button-response","trial_index":85,"time_elapsed":795691,"internal_node_id":"0.0-4.0-0.39","subject_id":"5effa578fa024409d98c2b7a","study_id":"60edd13110225f80f9f3709b","session_id":"6196ba7b195756055445f906","condition":"full-information","relevant_dimensions":["wings","pattern"],"bee_group":{"antennae":"X","wings":"1","pattern":"S","legs":"X"},"action":"harvest","summary":"good-harvest","bonus":1.740000000000001},{"rt":1237.4000000022352,"stimulus":"\n                    <p><b>Action: <em>harvest</em></b></p>\n                    <p>This is the bee that you just saw.</p>\n                    <img src=\"bees-with-color/bee-B2SF.svg\" width=\"200\">\n                    <p><span class=\"greenText\"><b>Successful harvest!</b></span><br>Your pay has increased by $0.02. Your bonus pay is now $1.00.</p>\n            ","response":0,"trial_type":"html-button-response","trial_index":86,"time_elapsed":796934,"internal_node_id":"0.0-4.0-1.39","subject_id":"5effa578fa024409d98c2b7a","study_id":"60edd13110225f80f9f3709b","session_id":"6196ba7b195756055445f906","condition":"full-information","relevant_dimensions":["wings","pattern"],"bee_group":{"antennae":"X","wings":"1","pattern":"S","legs":"X"},"bonus":1.740000000000001},{"rt":1796.699999999255,"stimulus":"bees-with-color/bee-A1SM.svg","response":1,"trial_type":"image-button-response","trial_index":87,"time_elapsed":798738,"internal_node_id":"0.0-4.0-0.40","subject_id":"5effa578fa024409d98c2b7a","study_id":"60edd13110225f80f9f3709b","session_id":"6196ba7b195756055445f906","condition":"full-information","relevant_dimensions":["wings","pattern"],"bee_group":{"antennae":"X","wings":"1","pattern":"S","legs":"X"},"action":"avoid","summary":"good-avoid","bonus":1.740000000000001},{"rt":1508.5,"stimulus":"\n                    <p><b>Action: <em>avoid</em></b></p>\n                    <p>This is the bee that you just saw.</p>\n                    <img src=\"bees-with-color/bee-A1SM.svg\" width=\"200\">\n                    <p><span class=\"greenText\">Good choice!</span>  This bee would have stung you.<br>Your bonus pay is unchanged, and remains at $1.00.</p>\n            ","response":0,"trial_type":"html-button-response","trial_index":88,"time_elapsed":800252,"internal_node_id":"0.0-4.0-1.40","subject_id":"5effa578fa024409d98c2b7a","study_id":"60edd13110225f80f9f3709b","session_id":"6196ba7b195756055445f906","condition":"full-information","relevant_dimensions":["wings","pattern"],"bee_group":{"antennae":"X","wings":"1","pattern":"S","legs":"X"},"bonus":1.740000000000001},{"rt":1791.3999999985099,"stimulus":"bees-with-color/bee-B2DM.svg","response":0,"trial_type":"image-button-response","trial_index":89,"time_elapsed":802049,"internal_node_id":"0.0-4.0-0.41","subject_id":"5effa578fa024409d98c2b7a","study_id":"60edd13110225f80f9f3709b","session_id":"6196ba7b195756055445f906","condition":"full-information","relevant_dimensions":["wings","pattern"],"bee_group":{"antennae":"X","wings":"1","pattern":"S","legs":"X"},"action":"harvest","summary":"good-harvest","bonus":1.740000000000001},{"rt":1315.0999999977648,"stimulus":"\n                    <p><b>Action: <em>harvest</em></b></p>\n                    <p>This is the bee that you just saw.</p>\n                    <img src=\"bees-with-color/bee-B2DM.svg\" width=\"200\">\n                    <p><span class=\"greenText\"><b>Successful harvest!</b></span><br>Your pay has increased by $0.02. Your bonus pay is now $1.02.</p>\n            ","response":0,"trial_type":"html-button-response","trial_index":90,"time_elapsed":803369,"internal_node_id":"0.0-4.0-1.41","subject_id":"5effa578fa024409d98c2b7a","study_id":"60edd13110225f80f9f3709b","session_id":"6196ba7b195756055445f906","condition":"full-information","relevant_dimensions":["wings","pattern"],"bee_group":{"antennae":"X","wings":"1","pattern":"S","legs":"X"},"bonus":1.740000000000001},{"rt":1892.199999999255,"stimulus":"bees-with-color/bee-A1SF.svg","response":1,"trial_type":"image-button-response","trial_index":91,"time_elapsed":805268,"internal_node_id":"0.0-4.0-0.42","subject_id":"5effa578fa024409d98c2b7a","study_id":"60edd13110225f80f9f3709b","session_id":"6196ba7b195756055445f906","condition":"full-information","relevant_dimensions":["wings","pattern"],"bee_group":{"antennae":"X","wings":"1","pattern":"S","legs":"X"},"action":"avoid","summary":"good-avoid","bonus":1.740000000000001},{"rt":1125,"stimulus":"\n                    <p><b>Action: <em>avoid</em></b></p>\n                    <p>This is the bee that you just saw.</p>\n                    <img src=\"bees-with-color/bee-A1SF.svg\" width=\"200\">\n                    <p><span class=\"greenText\">Good choice!</span>  This bee would have stung you.<br>Your bonus pay is unchanged, and remains at $1.02.</p>\n            ","response":0,"trial_type":"html-button-response","trial_index":92,"time_elapsed":806399,"internal_node_id":"0.0-4.0-1.42","subject_id":"5effa578fa024409d98c2b7a","study_id":"60edd13110225f80f9f3709b","session_id":"6196ba7b195756055445f906","condition":"full-information","relevant_dimensions":["wings","pattern"],"bee_group":{"antennae":"X","wings":"1","pattern":"S","legs":"X"},"bonus":1.740000000000001},{"rt":1522.800000000745,"stimulus":"bees-with-color/bee-A2SF.svg","response":0,"trial_type":"image-button-response","trial_index":93,"time_elapsed":807927,"internal_node_id":"0.0-4.0-0.43","subject_id":"5effa578fa024409d98c2b7a","study_id":"60edd13110225f80f9f3709b","session_id":"6196ba7b195756055445f906","condition":"full-information","relevant_dimensions":["wings","pattern"],"bee_group":{"antennae":"X","wings":"1","pattern":"S","legs":"X"},"action":"harvest","summary":"good-harvest","bonus":1.740000000000001},{"rt":1155.2000000029802,"stimulus":"\n                    <p><b>Action: <em>harvest</em></b></p>\n                    <p>This is the bee that you just saw.</p>\n                    <img src=\"bees-with-color/bee-A2SF.svg\" width=\"200\">\n                    <p><span class=\"greenText\"><b>Successful harvest!</b></span><br>Your pay has increased by $0.02. Your bonus pay is now $1.04.</p>\n            ","response":0,"trial_type":"html-button-response","trial_index":94,"time_elapsed":809088,"internal_node_id":"0.0-4.0-1.43","subject_id":"5effa578fa024409d98c2b7a","study_id":"60edd13110225f80f9f3709b","session_id":"6196ba7b195756055445f906","condition":"full-information","relevant_dimensions":["wings","pattern"],"bee_group":{"antennae":"X","wings":"1","pattern":"S","legs":"X"},"bonus":1.740000000000001},{"rt":1243.699999999255,"stimulus":"bees-with-color/bee-B2SM.svg","response":0,"trial_type":"image-button-response","trial_index":95,"time_elapsed":810337,"internal_node_id":"0.0-4.0-0.44","subject_id":"5effa578fa024409d98c2b7a","study_id":"60edd13110225f80f9f3709b","session_id":"6196ba7b195756055445f906","condition":"full-information","relevant_dimensions":["wings","pattern"],"bee_group":{"antennae":"X","wings":"1","pattern":"S","legs":"X"},"action":"harvest","summary":"good-harvest","bonus":1.740000000000001},{"rt":1191.0999999977648,"stimulus":"\n                    <p><b>Action: <em>harvest</em></b></p>\n                    <p>This is the bee that you just saw.</p>\n                    <img src=\"bees-with-color/bee-B2SM.svg\" width=\"200\">\n                    <p><span class=\"greenText\"><b>Successful harvest!</b></span><br>Your pay has increased by $0.02. Your bonus pay is now $1.06.</p>\n            ","response":0,"trial_type":"html-button-response","trial_index":96,"time_elapsed":811532,"internal_node_id":"0.0-4.0-1.44","subject_id":"5effa578fa024409d98c2b7a","study_id":"60edd13110225f80f9f3709b","session_id":"6196ba7b195756055445f906","condition":"full-information","relevant_dimensions":["wings","pattern"],"bee_group":{"antennae":"X","wings":"1","pattern":"S","legs":"X"},"bonus":1.740000000000001},{"rt":1413.6000000014901,"stimulus":"bees-with-color/bee-A2SM.svg","response":0,"trial_type":"image-button-response","trial_index":97,"time_elapsed":812949,"internal_node_id":"0.0-4.0-0.45","subject_id":"5effa578fa024409d98c2b7a","study_id":"60edd13110225f80f9f3709b","session_id":"6196ba7b195756055445f906","condition":"full-information","relevant_dimensions":["wings","pattern"],"bee_group":{"antennae":"X","wings":"1","pattern":"S","legs":"X"},"action":"harvest","summary":"good-harvest","bonus":1.740000000000001},{"rt":1491.2999999970198,"stimulus":"\n                    <p><b>Action: <em>harvest</em></b></p>\n                    <p>This is the bee that you just saw.</p>\n                    <img src=\"bees-with-color/bee-A2SM.svg\" width=\"200\">\n                    <p><span class=\"greenText\"><b>Successful harvest!</b></span><br>Your pay has increased by $0.02. Your bonus pay is now $1.08.</p>\n            ","response":0,"trial_type":"html-button-response","trial_index":98,"time_elapsed":814444,"internal_node_id":"0.0-4.0-1.45","subject_id":"5effa578fa024409d98c2b7a","study_id":"60edd13110225f80f9f3709b","session_id":"6196ba7b195756055445f906","condition":"full-information","relevant_dimensions":["wings","pattern"],"bee_group":{"antennae":"X","wings":"1","pattern":"S","legs":"X"},"bonus":1.740000000000001},{"rt":1928.699999999255,"stimulus":"bees-with-color/bee-A1DM.svg","response":0,"trial_type":"image-button-response","trial_index":99,"time_elapsed":816377,"internal_node_id":"0.0-4.0-0.46","subject_id":"5effa578fa024409d98c2b7a","study_id":"60edd13110225f80f9f3709b","session_id":"6196ba7b195756055445f906","condition":"full-information","relevant_dimensions":["wings","pattern"],"bee_group":{"antennae":"X","wings":"1","pattern":"S","legs":"X"},"action":"harvest","summary":"good-harvest","bonus":1.740000000000001},{"rt":1034.8999999985099,"stimulus":"\n                    <p><b>Action: <em>harvest</em></b></p>\n                    <p>This is the bee that you just saw.</p>\n                    <img src=\"bees-with-color/bee-A1DM.svg\" width=\"200\">\n                    <p><span class=\"greenText\"><b>Successful harvest!</b></span><br>Your pay has increased by $0.02. Your bonus pay is now $1.10.</p>\n            ","response":0,"trial_type":"html-button-response","trial_index":100,"time_elapsed":817416,"internal_node_id":"0.0-4.0-1.46","subject_id":"5effa578fa024409d98c2b7a","study_id":"60edd13110225f80f9f3709b","session_id":"6196ba7b195756055445f906","condition":"full-information","relevant_dimensions":["wings","pattern"],"bee_group":{"antennae":"X","wings":"1","pattern":"S","legs":"X"},"bonus":1.740000000000001},{"rt":2159.800000000745,"stimulus":"bees-with-color/bee-B1DF.svg","response":0,"trial_type":"image-button-response","trial_index":101,"time_elapsed":819579,"internal_node_id":"0.0-4.0-0.47","subject_id":"5effa578fa024409d98c2b7a","study_id":"60edd13110225f80f9f3709b","session_id":"6196ba7b195756055445f906","condition":"full-information","relevant_dimensions":["wings","pattern"],"bee_group":{"antennae":"X","wings":"1","pattern":"S","legs":"X"},"action":"harvest","summary":"good-harvest","bonus":1.740000000000001},{"rt":1004.2999999970198,"stimulus":"\n                    <p><b>Action: <em>harvest</em></b></p>\n                    <p>This is the bee that you just saw.</p>\n                    <img src=\"bees-with-color/bee-B1DF.svg\" width=\"200\">\n                    <p><span class=\"greenText\"><b>Successful harvest!</b></span><br>Your pay has increased by $0.02. Your bonus pay is now $1.12.</p>\n            ","response":0,"trial_type":"html-button-response","trial_index":102,"time_elapsed":820588,"internal_node_id":"0.0-4.0-1.47","subject_id":"5effa578fa024409d98c2b7a","study_id":"60edd13110225f80f9f3709b","session_id":"6196ba7b195756055445f906","condition":"full-information","relevant_dimensions":["wings","pattern"],"bee_group":{"antennae":"X","wings":"1","pattern":"S","legs":"X"},"bonus":1.740000000000001},{"rt":1833,"stimulus":"bees-with-color/bee-B2SM.svg","response":0,"trial_type":"image-button-response","trial_index":103,"time_elapsed":822426,"internal_node_id":"0.0-4.0-0.48","subject_id":"5effa578fa024409d98c2b7a","study_id":"60edd13110225f80f9f3709b","session_id":"6196ba7b195756055445f906","condition":"full-information","relevant_dimensions":["wings","pattern"],"bee_group":{"antennae":"X","wings":"1","pattern":"S","legs":"X"},"action":"harvest","summary":"good-harvest","bonus":1.740000000000001},{"rt":942.8000000007451,"stimulus":"\n                    <p><b>Action: <em>harvest</em></b></p>\n                    <p>This is the bee that you just saw.</p>\n                    <img src=\"bees-with-color/bee-B2SM.svg\" width=\"200\">\n                    <p><span class=\"greenText\"><b>Successful harvest!</b></span><br>Your pay has increased by $0.02. Your bonus pay is now $1.14.</p>\n            ","response":0,"trial_type":"html-button-response","trial_index":104,"time_elapsed":823373,"internal_node_id":"0.0-4.0-1.48","subject_id":"5effa578fa024409d98c2b7a","study_id":"60edd13110225f80f9f3709b","session_id":"6196ba7b195756055445f906","condition":"full-information","relevant_dimensions":["wings","pattern"],"bee_group":{"antennae":"X","wings":"1","pattern":"S","legs":"X"},"bonus":1.740000000000001},{"rt":4027.300000000745,"stimulus":"bees-with-color/bee-A1DF.svg","response":0,"trial_type":"image-button-response","trial_index":105,"time_elapsed":827404,"internal_node_id":"0.0-4.0-0.49","subject_id":"5effa578fa024409d98c2b7a","study_id":"60edd13110225f80f9f3709b","session_id":"6196ba7b195756055445f906","condition":"full-information","relevant_dimensions":["wings","pattern"],"bee_group":{"antennae":"X","wings":"1","pattern":"S","legs":"X"},"action":"harvest","summary":"good-harvest","bonus":1.740000000000001},{"rt":970.1999999992549,"stimulus":"\n                    <p><b>Action: <em>harvest</em></b></p>\n                    <p>This is the bee that you just saw.</p>\n                    <img src=\"bees-with-color/bee-A1DF.svg\" width=\"200\">\n                    <p><span class=\"greenText\"><b>Successful harvest!</b></span><br>Your pay has increased by $0.02. Your bonus pay is now $1.16.</p>\n            ","response":0,"trial_type":"html-button-response","trial_index":106,"time_elapsed":828379,"internal_node_id":"0.0-4.0-1.49","subject_id":"5effa578fa024409d98c2b7a","study_id":"60edd13110225f80f9f3709b","session_id":"6196ba7b195756055445f906","condition":"full-information","relevant_dimensions":["wings","pattern"],"bee_group":{"antennae":"X","wings":"1","pattern":"S","legs":"X"},"bonus":1.740000000000001},{"rt":2235.800000000745,"stimulus":"bees-with-color/bee-A1SM.svg","response":1,"trial_type":"image-button-response","trial_index":107,"time_elapsed":830620,"internal_node_id":"0.0-4.0-0.50","subject_id":"5effa578fa024409d98c2b7a","study_id":"60edd13110225f80f9f3709b","session_id":"6196ba7b195756055445f906","condition":"full-information","relevant_dimensions":["wings","pattern"],"bee_group":{"antennae":"X","wings":"1","pattern":"S","legs":"X"},"action":"avoid","summary":"good-avoid","bonus":1.740000000000001},{"rt":1443,"stimulus":"\n                    <p><b>Action: <em>avoid</em></b></p>\n                    <p>This is the bee that you just saw.</p>\n                    <img src=\"bees-with-color/bee-A1SM.svg\" width=\"200\">\n                    <p><span class=\"greenText\">Good choice!</span>  This bee would have stung you.<br>Your bonus pay is unchanged, and remains at $1.16.</p>\n            ","response":0,"trial_type":"html-button-response","trial_index":108,"time_elapsed":832067,"internal_node_id":"0.0-4.0-1.50","subject_id":"5effa578fa024409d98c2b7a","study_id":"60edd13110225f80f9f3709b","session_id":"6196ba7b195756055445f906","condition":"full-information","relevant_dimensions":["wings","pattern"],"bee_group":{"antennae":"X","wings":"1","pattern":"S","legs":"X"},"bonus":1.740000000000001},{"rt":1458.699999999255,"stimulus":"bees-with-color/bee-B1DF.svg","response":0,"trial_type":"image-button-response","trial_index":109,"time_elapsed":833532,"internal_node_id":"0.0-4.0-0.51","subject_id":"5effa578fa024409d98c2b7a","study_id":"60edd13110225f80f9f3709b","session_id":"6196ba7b195756055445f906","condition":"full-information","relevant_dimensions":["wings","pattern"],"bee_group":{"antennae":"X","wings":"1","pattern":"S","legs":"X"},"action":"harvest","summary":"good-harvest","bonus":1.740000000000001},{"rt":1534.300000000745,"stimulus":"\n                    <p><b>Action: <em>harvest</em></b></p>\n                    <p>This is the bee that you just saw.</p>\n                    <img src=\"bees-with-color/bee-B1DF.svg\" width=\"200\">\n                    <p><span class=\"greenText\"><b>Successful harvest!</b></span><br>Your pay has increased by $0.02. Your bonus pay is now $1.18.</p>\n            ","response":0,"trial_type":"html-button-response","trial_index":110,"time_elapsed":835071,"internal_node_id":"0.0-4.0-1.51","subject_id":"5effa578fa024409d98c2b7a","study_id":"60edd13110225f80f9f3709b","session_id":"6196ba7b195756055445f906","condition":"full-information","relevant_dimensions":["wings","pattern"],"bee_group":{"antennae":"X","wings":"1","pattern":"S","legs":"X"},"bonus":1.740000000000001},{"rt":1298.9000000022352,"stimulus":"bees-with-color/bee-A2SF.svg","response":0,"trial_type":"image-button-response","trial_index":111,"time_elapsed":836375,"internal_node_id":"0.0-4.0-0.52","subject_id":"5effa578fa024409d98c2b7a","study_id":"60edd13110225f80f9f3709b","session_id":"6196ba7b195756055445f906","condition":"full-information","relevant_dimensions":["wings","pattern"],"bee_group":{"antennae":"X","wings":"1","pattern":"S","legs":"X"},"action":"harvest","summary":"good-harvest","bonus":1.740000000000001},{"rt":1191.300000000745,"stimulus":"\n                    <p><b>Action: <em>harvest</em></b></p>\n                    <p>This is the bee that you just saw.</p>\n                    <img src=\"bees-with-color/bee-A2SF.svg\" width=\"200\">\n                    <p><span class=\"greenText\"><b>Successful harvest!</b></span><br>Your pay has increased by $0.02. Your bonus pay is now $1.20.</p>\n            ","response":0,"trial_type":"html-button-response","trial_index":112,"time_elapsed":837571,"internal_node_id":"0.0-4.0-1.52","subject_id":"5effa578fa024409d98c2b7a","study_id":"60edd13110225f80f9f3709b","session_id":"6196ba7b195756055445f906","condition":"full-information","relevant_dimensions":["wings","pattern"],"bee_group":{"antennae":"X","wings":"1","pattern":"S","legs":"X"},"bonus":1.740000000000001},{"rt":1229.5,"stimulus":"bees-with-color/bee-B1SF.svg","response":1,"trial_type":"image-button-response","trial_index":113,"time_elapsed":838805,"internal_node_id":"0.0-4.0-0.53","subject_id":"5effa578fa024409d98c2b7a","study_id":"60edd13110225f80f9f3709b","session_id":"6196ba7b195756055445f906","condition":"full-information","relevant_dimensions":["wings","pattern"],"bee_group":{"antennae":"X","wings":"1","pattern":"S","legs":"X"},"action":"avoid","summary":"good-avoid","bonus":1.740000000000001},{"rt":2886.5,"stimulus":"\n                    <p><b>Action: <em>avoid</em></b></p>\n                    <p>This is the bee that you just saw.</p>\n                    <img src=\"bees-with-color/bee-B1SF.svg\" width=\"200\">\n                    <p><span class=\"greenText\">Good choice!</span>  This bee would have stung you.<br>Your bonus pay is unchanged, and remains at $1.20.</p>\n            ","response":0,"trial_type":"html-button-response","trial_index":114,"time_elapsed":841696,"internal_node_id":"0.0-4.0-1.53","subject_id":"5effa578fa024409d98c2b7a","study_id":"60edd13110225f80f9f3709b","session_id":"6196ba7b195756055445f906","condition":"full-information","relevant_dimensions":["wings","pattern"],"bee_group":{"antennae":"X","wings":"1","pattern":"S","legs":"X"},"bonus":1.740000000000001},{"rt":1024.300000000745,"stimulus":"bees-with-color/bee-B2SF.svg","response":0,"trial_type":"image-button-response","trial_index":115,"time_elapsed":842727,"internal_node_id":"0.0-4.0-0.54","subject_id":"5effa578fa024409d98c2b7a","study_id":"60edd13110225f80f9f3709b","session_id":"6196ba7b195756055445f906","condition":"full-information","relevant_dimensions":["wings","pattern"],"bee_group":{"antennae":"X","wings":"1","pattern":"S","legs":"X"},"action":"harvest","summary":"good-harvest","bonus":1.740000000000001},{"rt":1233.5,"stimulus":"\n                    <p><b>Action: <em>harvest</em></b></p>\n                    <p>This is the bee that you just saw.</p>\n                    <img src=\"bees-with-color/bee-B2SF.svg\" width=\"200\">\n                    <p><span class=\"greenText\"><b>Successful harvest!</b></span><br>Your pay has increased by $0.02. Your bonus pay is now $1.22.</p>\n            ","response":0,"trial_type":"html-button-response","trial_index":116,"time_elapsed":843965,"internal_node_id":"0.0-4.0-1.54","subject_id":"5effa578fa024409d98c2b7a","study_id":"60edd13110225f80f9f3709b","session_id":"6196ba7b195756055445f906","condition":"full-information","relevant_dimensions":["wings","pattern"],"bee_group":{"antennae":"X","wings":"1","pattern":"S","legs":"X"},"bonus":1.740000000000001},{"rt":1228.199999999255,"stimulus":"bees-with-color/bee-B2DM.svg","response":0,"trial_type":"image-button-response","trial_index":117,"time_elapsed":845198,"internal_node_id":"0.0-4.0-0.55","subject_id":"5effa578fa024409d98c2b7a","study_id":"60edd13110225f80f9f3709b","session_id":"6196ba7b195756055445f906","condition":"full-information","relevant_dimensions":["wings","pattern"],"bee_group":{"antennae":"X","wings":"1","pattern":"S","legs":"X"},"action":"harvest","summary":"good-harvest","bonus":1.740000000000001},{"rt":1189.300000000745,"stimulus":"\n                    <p><b>Action: <em>harvest</em></b></p>\n                    <p>This is the bee that you just saw.</p>\n                    <img src=\"bees-with-color/bee-B2DM.svg\" width=\"200\">\n                    <p><span class=\"greenText\"><b>Successful harvest!</b></span><br>Your pay has increased by $0.02. Your bonus pay is now $1.24.</p>\n            ","response":0,"trial_type":"html-button-response","trial_index":118,"time_elapsed":846392,"internal_node_id":"0.0-4.0-1.55","subject_id":"5effa578fa024409d98c2b7a","study_id":"60edd13110225f80f9f3709b","session_id":"6196ba7b195756055445f906","condition":"full-information","relevant_dimensions":["wings","pattern"],"bee_group":{"antennae":"X","wings":"1","pattern":"S","legs":"X"},"bonus":1.740000000000001},{"rt":1235.699999999255,"stimulus":"bees-with-color/bee-A2DF.svg","response":0,"trial_type":"image-button-response","trial_index":119,"time_elapsed":847632,"internal_node_id":"0.0-4.0-0.56","subject_id":"5effa578fa024409d98c2b7a","study_id":"60edd13110225f80f9f3709b","session_id":"6196ba7b195756055445f906","condition":"full-information","relevant_dimensions":["wings","pattern"],"bee_group":{"antennae":"X","wings":"1","pattern":"S","legs":"X"},"action":"harvest","summary":"good-harvest","bonus":1.740000000000001},{"rt":1037.9000000022352,"stimulus":"\n                    <p><b>Action: <em>harvest</em></b></p>\n                    <p>This is the bee that you just saw.</p>\n                    <img src=\"bees-with-color/bee-A2DF.svg\" width=\"200\">\n                    <p><span class=\"greenText\"><b>Successful harvest!</b></span><br>Your pay has increased by $0.02. Your bonus pay is now $1.26.</p>\n            ","response":0,"trial_type":"html-button-response","trial_index":120,"time_elapsed":848675,"internal_node_id":"0.0-4.0-1.56","subject_id":"5effa578fa024409d98c2b7a","study_id":"60edd13110225f80f9f3709b","session_id":"6196ba7b195756055445f906","condition":"full-information","relevant_dimensions":["wings","pattern"],"bee_group":{"antennae":"X","wings":"1","pattern":"S","legs":"X"},"bonus":1.740000000000001},{"rt":1104.3999999985099,"stimulus":"bees-with-color/bee-B2DF.svg","response":0,"trial_type":"image-button-response","trial_index":121,"time_elapsed":849784,"internal_node_id":"0.0-4.0-0.57","subject_id":"5effa578fa024409d98c2b7a","study_id":"60edd13110225f80f9f3709b","session_id":"6196ba7b195756055445f906","condition":"full-information","relevant_dimensions":["wings","pattern"],"bee_group":{"antennae":"X","wings":"1","pattern":"S","legs":"X"},"action":"harvest","summary":"good-harvest","bonus":1.740000000000001},{"rt":968.3000000007451,"stimulus":"\n                    <p><b>Action: <em>harvest</em></b></p>\n                    <p>This is the bee that you just saw.</p>\n                    <img src=\"bees-with-color/bee-B2DF.svg\" width=\"200\">\n                    <p><span class=\"greenText\"><b>Successful harvest!</b></span><br>Your pay has increased by $0.02. Your bonus pay is now $1.28.</p>\n            ","response":0,"trial_type":"html-button-response","trial_index":122,"time_elapsed":850758,"internal_node_id":"0.0-4.0-1.57","subject_id":"5effa578fa024409d98c2b7a","study_id":"60edd13110225f80f9f3709b","session_id":"6196ba7b195756055445f906","condition":"full-information","relevant_dimensions":["wings","pattern"],"bee_group":{"antennae":"X","wings":"1","pattern":"S","legs":"X"},"bonus":1.740000000000001},{"rt":1293.2000000029802,"stimulus":"bees-with-color/bee-A2SM.svg","response":0,"trial_type":"image-button-response","trial_index":123,"time_elapsed":852055,"internal_node_id":"0.0-4.0-0.58","subject_id":"5effa578fa024409d98c2b7a","study_id":"60edd13110225f80f9f3709b","session_id":"6196ba7b195756055445f906","condition":"full-information","relevant_dimensions":["wings","pattern"],"bee_group":{"antennae":"X","wings":"1","pattern":"S","legs":"X"},"action":"harvest","summary":"good-harvest","bonus":1.740000000000001},{"rt":1043.5,"stimulus":"\n                    <p><b>Action: <em>harvest</em></b></p>\n                    <p>This is the bee that you just saw.</p>\n                    <img src=\"bees-with-color/bee-A2SM.svg\" width=\"200\">\n                    <p><span class=\"greenText\"><b>Successful harvest!</b></span><br>Your pay has increased by $0.02. Your bonus pay is now $1.30.</p>\n            ","response":0,"trial_type":"html-button-response","trial_index":124,"time_elapsed":853103,"internal_node_id":"0.0-4.0-1.58","subject_id":"5effa578fa024409d98c2b7a","study_id":"60edd13110225f80f9f3709b","session_id":"6196ba7b195756055445f906","condition":"full-information","relevant_dimensions":["wings","pattern"],"bee_group":{"antennae":"X","wings":"1","pattern":"S","legs":"X"},"bonus":1.740000000000001},{"rt":1235.1000000014901,"stimulus":"bees-with-color/bee-B1DM.svg","response":0,"trial_type":"image-button-response","trial_index":125,"time_elapsed":854343,"internal_node_id":"0.0-4.0-0.59","subject_id":"5effa578fa024409d98c2b7a","study_id":"60edd13110225f80f9f3709b","session_id":"6196ba7b195756055445f906","condition":"full-information","relevant_dimensions":["wings","pattern"],"bee_group":{"antennae":"X","wings":"1","pattern":"S","legs":"X"},"action":"harvest","summary":"good-harvest","bonus":1.740000000000001},{"rt":904.2000000029802,"stimulus":"\n                    <p><b>Action: <em>harvest</em></b></p>\n                    <p>This is the bee that you just saw.</p>\n                    <img src=\"bees-with-color/bee-B1DM.svg\" width=\"200\">\n                    <p><span class=\"greenText\"><b>Successful harvest!</b></span><br>Your pay has increased by $0.02. Your bonus pay is now $1.32.</p>\n            ","response":0,"trial_type":"html-button-response","trial_index":126,"time_elapsed":855252,"internal_node_id":"0.0-4.0-1.59","subject_id":"5effa578fa024409d98c2b7a","study_id":"60edd13110225f80f9f3709b","session_id":"6196ba7b195756055445f906","condition":"full-information","relevant_dimensions":["wings","pattern"],"bee_group":{"antennae":"X","wings":"1","pattern":"S","legs":"X"},"bonus":1.740000000000001},{"rt":1405.5999999977648,"stimulus":"bees-with-color/bee-A1SF.svg","response":1,"trial_type":"image-button-response","trial_index":127,"time_elapsed":856662,"internal_node_id":"0.0-4.0-0.60","subject_id":"5effa578fa024409d98c2b7a","study_id":"60edd13110225f80f9f3709b","session_id":"6196ba7b195756055445f906","condition":"full-information","relevant_dimensions":["wings","pattern"],"bee_group":{"antennae":"X","wings":"1","pattern":"S","legs":"X"},"action":"avoid","summary":"good-avoid","bonus":1.740000000000001},{"rt":1274.1000000014901,"stimulus":"\n                    <p><b>Action: <em>avoid</em></b></p>\n                    <p>This is the bee that you just saw.</p>\n                    <img src=\"bees-with-color/bee-A1SF.svg\" width=\"200\">\n                    <p><span class=\"greenText\">Good choice!</span>  This bee would have stung you.<br>Your bonus pay is unchanged, and remains at $1.32.</p>\n            ","response":0,"trial_type":"html-button-response","trial_index":128,"time_elapsed":857941,"internal_node_id":"0.0-4.0-1.60","subject_id":"5effa578fa024409d98c2b7a","study_id":"60edd13110225f80f9f3709b","session_id":"6196ba7b195756055445f906","condition":"full-information","relevant_dimensions":["wings","pattern"],"bee_group":{"antennae":"X","wings":"1","pattern":"S","legs":"X"},"bonus":1.740000000000001},{"rt":1458.4000000022352,"stimulus":"bees-with-color/bee-B1SM.svg","response":1,"trial_type":"image-button-response","trial_index":129,"time_elapsed":859403,"internal_node_id":"0.0-4.0-0.61","subject_id":"5effa578fa024409d98c2b7a","study_id":"60edd13110225f80f9f3709b","session_id":"6196ba7b195756055445f906","condition":"full-information","relevant_dimensions":["wings","pattern"],"bee_group":{"antennae":"X","wings":"1","pattern":"S","legs":"X"},"action":"avoid","summary":"good-avoid","bonus":1.740000000000001},{"rt":896.4000000022352,"stimulus":"\n                    <p><b>Action: <em>avoid</em></b></p>\n                    <p>This is the bee that you just saw.</p>\n                    <img src=\"bees-with-color/bee-B1SM.svg\" width=\"200\">\n                    <p><span class=\"greenText\">Good choice!</span>  This bee would have stung you.<br>Your bonus pay is unchanged, and remains at $1.32.</p>\n            ","response":0,"trial_type":"html-button-response","trial_index":130,"time_elapsed":860303,"internal_node_id":"0.0-4.0-1.61","subject_id":"5effa578fa024409d98c2b7a","study_id":"60edd13110225f80f9f3709b","session_id":"6196ba7b195756055445f906","condition":"full-information","relevant_dimensions":["wings","pattern"],"bee_group":{"antennae":"X","wings":"1","pattern":"S","legs":"X"},"bonus":1.740000000000001},{"rt":1201.6000000014901,"stimulus":"bees-with-color/bee-A1DM.svg","response":0,"trial_type":"image-button-response","trial_index":131,"time_elapsed":861509,"internal_node_id":"0.0-4.0-0.62","subject_id":"5effa578fa024409d98c2b7a","study_id":"60edd13110225f80f9f3709b","session_id":"6196ba7b195756055445f906","condition":"full-information","relevant_dimensions":["wings","pattern"],"bee_group":{"antennae":"X","wings":"1","pattern":"S","legs":"X"},"action":"harvest","summary":"good-harvest","bonus":1.740000000000001},{"rt":1309.199999999255,"stimulus":"\n                    <p><b>Action: <em>harvest</em></b></p>\n                    <p>This is the bee that you just saw.</p>\n                    <img src=\"bees-with-color/bee-A1DM.svg\" width=\"200\">\n                    <p><span class=\"greenText\"><b>Successful harvest!</b></span><br>Your pay has increased by $0.02. Your bonus pay is now $1.34.</p>\n            ","response":0,"trial_type":"html-button-response","trial_index":132,"time_elapsed":862823,"internal_node_id":"0.0-4.0-1.62","subject_id":"5effa578fa024409d98c2b7a","study_id":"60edd13110225f80f9f3709b","session_id":"6196ba7b195756055445f906","condition":"full-information","relevant_dimensions":["wings","pattern"],"bee_group":{"antennae":"X","wings":"1","pattern":"S","legs":"X"},"bonus":1.740000000000001},{"rt":1041.300000000745,"stimulus":"bees-with-color/bee-A2DM.svg","response":0,"trial_type":"image-button-response","trial_index":133,"time_elapsed":863871,"internal_node_id":"0.0-4.0-0.63","subject_id":"5effa578fa024409d98c2b7a","study_id":"60edd13110225f80f9f3709b","session_id":"6196ba7b195756055445f906","condition":"full-information","relevant_dimensions":["wings","pattern"],"bee_group":{"antennae":"X","wings":"1","pattern":"S","legs":"X"},"action":"harvest","summary":"good-harvest","bonus":1.740000000000001},{"rt":1014,"stimulus":"\n                    <p><b>Action: <em>harvest</em></b></p>\n                    <p>This is the bee that you just saw.</p>\n                    <img src=\"bees-with-color/bee-A2DM.svg\" width=\"200\">\n                    <p><span class=\"greenText\"><b>Successful harvest!</b></span><br>Your pay has increased by $0.02. Your bonus pay is now $1.36.</p>\n            ","response":0,"trial_type":"html-button-response","trial_index":134,"time_elapsed":864892,"internal_node_id":"0.0-4.0-1.63","subject_id":"5effa578fa024409d98c2b7a","study_id":"60edd13110225f80f9f3709b","session_id":"6196ba7b195756055445f906","condition":"full-information","relevant_dimensions":["wings","pattern"],"bee_group":{"antennae":"X","wings":"1","pattern":"S","legs":"X"},"bonus":1.740000000000001},{"rt":14298.699999999255,"stimulus":"You have completed the first part of this experiment.<br><br>You will now begin a shorter second part, in which you will receive no feedback.<br>The same rules regarding bonus pay apply.<br><br>Press any key to begin.","response":" ","trial_type":"html-keyboard-response","trial_index":135,"time_elapsed":879196,"internal_node_id":"0.0-5.0","subject_id":"5effa578fa024409d98c2b7a","study_id":"60edd13110225f80f9f3709b","session_id":"6196ba7b195756055445f906","condition":"full-information","relevant_dimensions":["wings","pattern"],"bee_group":{"antennae":"X","wings":"1","pattern":"S","legs":"X"},"bonus":1.740000000000001},{"rt":2878.199999999255,"stimulus":"bees-with-color/bee-A2SM.svg","response":0,"trial_type":"image-button-response","trial_index":136,"time_elapsed":882096,"internal_node_id":"0.0-6.0-0.0","subject_id":"5effa578fa024409d98c2b7a","study_id":"60edd13110225f80f9f3709b","session_id":"6196ba7b195756055445f906","condition":"full-information","relevant_dimensions":["wings","pattern"],"bee_group":{"antennae":"X","wings":"1","pattern":"S","legs":"X"},"bonus":1.740000000000001},{"rt":2273.699999999255,"stimulus":"bees-with-color/bee-A2SF.svg","response":0,"trial_type":"image-button-response","trial_index":137,"time_elapsed":884377,"internal_node_id":"0.0-6.0-0.1","subject_id":"5effa578fa024409d98c2b7a","study_id":"60edd13110225f80f9f3709b","session_id":"6196ba7b195756055445f906","condition":"full-information","relevant_dimensions":["wings","pattern"],"bee_group":{"antennae":"X","wings":"1","pattern":"S","legs":"X"},"bonus":1.740000000000001},{"rt":1466.2999999970198,"stimulus":"bees-with-color/bee-A1SM.svg","response":1,"trial_type":"image-button-response","trial_index":138,"time_elapsed":885851,"internal_node_id":"0.0-6.0-0.2","subject_id":"5effa578fa024409d98c2b7a","study_id":"60edd13110225f80f9f3709b","session_id":"6196ba7b195756055445f906","condition":"full-information","relevant_dimensions":["wings","pattern"],"bee_group":{"antennae":"X","wings":"1","pattern":"S","legs":"X"},"bonus":1.740000000000001},{"rt":1942.199999999255,"stimulus":"bees-with-color/bee-B1SM.svg","response":1,"trial_type":"image-button-response","trial_index":139,"time_elapsed":887801,"internal_node_id":"0.0-6.0-0.3","subject_id":"5effa578fa024409d98c2b7a","study_id":"60edd13110225f80f9f3709b","session_id":"6196ba7b195756055445f906","condition":"full-information","relevant_dimensions":["wings","pattern"],"bee_group":{"antennae":"X","wings":"1","pattern":"S","legs":"X"},"bonus":1.740000000000001},{"rt":11331.5,"stimulus":"bees-with-color/bee-B2DM.svg","response":0,"trial_type":"image-button-response","trial_index":140,"time_elapsed":899140,"internal_node_id":"0.0-6.0-0.4","subject_id":"5effa578fa024409d98c2b7a","study_id":"60edd13110225f80f9f3709b","session_id":"6196ba7b195756055445f906","condition":"full-information","relevant_dimensions":["wings","pattern"],"bee_group":{"antennae":"X","wings":"1","pattern":"S","legs":"X"},"bonus":1.740000000000001},{"rt":871.3999999985099,"stimulus":"bees-with-color/bee-A2DM.svg","response":0,"trial_type":"image-button-response","trial_index":141,"time_elapsed":900020,"internal_node_id":"0.0-6.0-0.5","subject_id":"5effa578fa024409d98c2b7a","study_id":"60edd13110225f80f9f3709b","session_id":"6196ba7b195756055445f906","condition":"full-information","relevant_dimensions":["wings","pattern"],"bee_group":{"antennae":"X","wings":"1","pattern":"S","legs":"X"},"bonus":1.740000000000001},{"rt":740.0999999977648,"stimulus":"bees-with-color/bee-A2DF.svg","response":0,"trial_type":"image-button-response","trial_index":142,"time_elapsed":900768,"internal_node_id":"0.0-6.0-0.6","subject_id":"5effa578fa024409d98c2b7a","study_id":"60edd13110225f80f9f3709b","session_id":"6196ba7b195756055445f906","condition":"full-information","relevant_dimensions":["wings","pattern"],"bee_group":{"antennae":"X","wings":"1","pattern":"S","legs":"X"},"bonus":1.740000000000001},{"rt":1426.3999999985099,"stimulus":"bees-with-color/bee-A1DF.svg","response":0,"trial_type":"image-button-response","trial_index":143,"time_elapsed":902204,"internal_node_id":"0.0-6.0-0.7","subject_id":"5effa578fa024409d98c2b7a","study_id":"60edd13110225f80f9f3709b","session_id":"6196ba7b195756055445f906","condition":"full-information","relevant_dimensions":["wings","pattern"],"bee_group":{"antennae":"X","wings":"1","pattern":"S","legs":"X"},"bonus":1.740000000000001},{"rt":1517.4000000022352,"stimulus":"bees-with-color/bee-B2SF.svg","response":0,"trial_type":"image-button-response","trial_index":144,"time_elapsed":903728,"internal_node_id":"0.0-6.0-0.8","subject_id":"5effa578fa024409d98c2b7a","study_id":"60edd13110225f80f9f3709b","session_id":"6196ba7b195756055445f906","condition":"full-information","relevant_dimensions":["wings","pattern"],"bee_group":{"antennae":"X","wings":"1","pattern":"S","legs":"X"},"bonus":1.740000000000001},{"rt":1112.9000000022352,"stimulus":"bees-with-color/bee-B1DM.svg","response":0,"trial_type":"image-button-response","trial_index":145,"time_elapsed":904848,"internal_node_id":"0.0-6.0-0.9","subject_id":"5effa578fa024409d98c2b7a","study_id":"60edd13110225f80f9f3709b","session_id":"6196ba7b195756055445f906","condition":"full-information","relevant_dimensions":["wings","pattern"],"bee_group":{"antennae":"X","wings":"1","pattern":"S","legs":"X"},"bonus":1.740000000000001},{"rt":1468.3999999985099,"stimulus":"bees-with-color/bee-A1DM.svg","response":0,"trial_type":"image-button-response","trial_index":146,"time_elapsed":906323,"internal_node_id":"0.0-6.0-0.10","subject_id":"5effa578fa024409d98c2b7a","study_id":"60edd13110225f80f9f3709b","session_id":"6196ba7b195756055445f906","condition":"full-information","relevant_dimensions":["wings","pattern"],"bee_group":{"antennae":"X","wings":"1","pattern":"S","legs":"X"},"bonus":1.740000000000001},{"rt":1844.5,"stimulus":"bees-with-color/bee-A1SF.svg","response":1,"trial_type":"image-button-response","trial_index":147,"time_elapsed":908173,"internal_node_id":"0.0-6.0-0.11","subject_id":"5effa578fa024409d98c2b7a","study_id":"60edd13110225f80f9f3709b","session_id":"6196ba7b195756055445f906","condition":"full-information","relevant_dimensions":["wings","pattern"],"bee_group":{"antennae":"X","wings":"1","pattern":"S","legs":"X"},"bonus":1.740000000000001},{"rt":927.9000000022352,"stimulus":"bees-with-color/bee-B2DF.svg","response":0,"trial_type":"image-button-response","trial_index":148,"time_elapsed":909107,"internal_node_id":"0.0-6.0-0.12","subject_id":"5effa578fa024409d98c2b7a","study_id":"60edd13110225f80f9f3709b","session_id":"6196ba7b195756055445f906","condition":"full-information","relevant_dimensions":["wings","pattern"],"bee_group":{"antennae":"X","wings":"1","pattern":"S","legs":"X"},"bonus":1.740000000000001},{"rt":1347.7000000029802,"stimulus":"bees-with-color/bee-B1SF.svg","response":1,"trial_type":"image-button-response","trial_index":149,"time_elapsed":910461,"internal_node_id":"0.0-6.0-0.13","subject_id":"5effa578fa024409d98c2b7a","study_id":"60edd13110225f80f9f3709b","session_id":"6196ba7b195756055445f906","condition":"full-information","relevant_dimensions":["wings","pattern"],"bee_group":{"antennae":"X","wings":"1","pattern":"S","legs":"X"},"bonus":1.740000000000001},{"rt":1390.5,"stimulus":"bees-with-color/bee-B1DF.svg","response":0,"trial_type":"image-button-response","trial_index":150,"time_elapsed":911857,"internal_node_id":"0.0-6.0-0.14","subject_id":"5effa578fa024409d98c2b7a","study_id":"60edd13110225f80f9f3709b","session_id":"6196ba7b195756055445f906","condition":"full-information","relevant_dimensions":["wings","pattern"],"bee_group":{"antennae":"X","wings":"1","pattern":"S","legs":"X"},"bonus":1.740000000000001},{"rt":1233.3999999985099,"stimulus":"bees-with-color/bee-B2SM.svg","response":0,"trial_type":"image-button-response","trial_index":151,"time_elapsed":913097,"internal_node_id":"0.0-6.0-0.15","subject_id":"5effa578fa024409d98c2b7a","study_id":"60edd13110225f80f9f3709b","session_id":"6196ba7b195756055445f906","condition":"full-information","relevant_dimensions":["wings","pattern"],"bee_group":{"antennae":"X","wings":"1","pattern":"S","legs":"X"},"bonus":1.740000000000001},{"rt":210.5,"stimulus":"bees-with-color/bee-B1SM.svg","response":0,"trial_type":"image-button-response","trial_index":152,"time_elapsed":913312,"internal_node_id":"0.0-6.0-0.16","subject_id":"5effa578fa024409d98c2b7a","study_id":"60edd13110225f80f9f3709b","session_id":"6196ba7b195756055445f906","condition":"full-information","relevant_dimensions":["wings","pattern"],"bee_group":{"antennae":"X","wings":"1","pattern":"S","legs":"X"},"bonus":1.740000000000001},{"rt":1624.300000000745,"stimulus":"bees-with-color/bee-A1SF.svg","response":1,"trial_type":"image-button-response","trial_index":153,"time_elapsed":914942,"internal_node_id":"0.0-6.0-0.17","subject_id":"5effa578fa024409d98c2b7a","study_id":"60edd13110225f80f9f3709b","session_id":"6196ba7b195756055445f906","condition":"full-information","relevant_dimensions":["wings","pattern"],"bee_group":{"antennae":"X","wings":"1","pattern":"S","legs":"X"},"bonus":1.740000000000001},{"rt":1238.0999999977648,"stimulus":"bees-with-color/bee-B2SM.svg","response":0,"trial_type":"image-button-response","trial_index":154,"time_elapsed":916185,"internal_node_id":"0.0-6.0-0.18","subject_id":"5effa578fa024409d98c2b7a","study_id":"60edd13110225f80f9f3709b","session_id":"6196ba7b195756055445f906","condition":"full-information","relevant_dimensions":["wings","pattern"],"bee_group":{"antennae":"X","wings":"1","pattern":"S","legs":"X"},"bonus":1.740000000000001},{"rt":1785.0999999977648,"stimulus":"bees-with-color/bee-B1DF.svg","response":0,"trial_type":"image-button-response","trial_index":155,"time_elapsed":917975,"internal_node_id":"0.0-6.0-0.19","subject_id":"5effa578fa024409d98c2b7a","study_id":"60edd13110225f80f9f3709b","session_id":"6196ba7b195756055445f906","condition":"full-information","relevant_dimensions":["wings","pattern"],"bee_group":{"antennae":"X","wings":"1","pattern":"S","legs":"X"},"bonus":1.740000000000001},{"rt":1491.1000000014901,"stimulus":"bees-with-color/bee-A2SM.svg","response":0,"trial_type":"image-button-response","trial_index":156,"time_elapsed":919472,"internal_node_id":"0.0-6.0-0.20","subject_id":"5effa578fa024409d98c2b7a","study_id":"60edd13110225f80f9f3709b","session_id":"6196ba7b195756055445f906","condition":"full-information","relevant_dimensions":["wings","pattern"],"bee_group":{"antennae":"X","wings":"1","pattern":"S","legs":"X"},"bonus":1.740000000000001},{"rt":967.5,"stimulus":"bees-with-color/bee-A2DM.svg","response":0,"trial_type":"image-button-response","trial_index":157,"time_elapsed":920446,"internal_node_id":"0.0-6.0-0.21","subject_id":"5effa578fa024409d98c2b7a","study_id":"60edd13110225f80f9f3709b","session_id":"6196ba7b195756055445f906","condition":"full-information","relevant_dimensions":["wings","pattern"],"bee_group":{"antennae":"X",