[{"success":true,"trial_type":"fullscreen","trial_index":0,"time_elapsed":14360,"internal_node_id":"0.0-0.0","subject_id":"614cfb8cfd0d0bc4b4a4268e","study_id":"6197b3f67c2b5cd3b6d9596a","session_id":"6197b8899c799b47e0f3881d","condition":"full-information","relevant_dimensions":["antennae","legs"],"bee_group":{"antennae":"B","wings":"X","pattern":"X","legs":"M"},"bonus":0.19999999999999998},{"success":true,"timeout":false,"failed_images":[],"failed_audio":[],"failed_video":[],"trial_type":"preload","trial_index":1,"time_elapsed":16009,"internal_node_id":"0.0-1.0","subject_id":"614cfb8cfd0d0bc4b4a4268e","study_id":"6197b3f67c2b5cd3b6d9596a","session_id":"6197b8899c799b47e0f3881d","condition":"full-information","relevant_dimensions":["antennae","legs"],"bee_group":{"antennae":"B","wings":"X","pattern":"X","legs":"M"},"bonus":0.19999999999999998},{"rt":3000.2000000029802,"stimulus":"Welcome! Press any key to begin.","response":" ","trial_type":"html-keyboard-response","trial_index":2,"time_elapsed":19011,"internal_node_id":"0.0-2.0","subject_id":"614cfb8cfd0d0bc4b4a4268e","study_id":"6197b3f67c2b5cd3b6d9596a","session_id":"6197b8899c799b47e0f3881d","condition":"full-information","relevant_dimensions":["antennae","legs"],"bee_group":{"antennae":"B","wings":"X","pattern":"X","legs":"M"},"bonus":0.19999999999999998},{"view_history":[{"page_index":0,"viewing_time":13139.300000011921},{"page_index":1,"viewing_time":21938.79999999702},{"page_index":2,"viewing_time":6060},{"page_index":3,"viewing_time":24064.70000000298},{"page_index":4,"viewing_time":9371.5},{"page_index":5,"viewing_time":10308.199999988079},{"page_index":6,"viewing_time":5198.600000008941},{"page_index":7,"viewing_time":5181.899999991059},{"page_index":6,"viewing_time":14839.800000011921},{"page_index":7,"viewing_time":6437.0999999940395},{"page_index":8,"viewing_time":6109.5999999940395},{"page_index":9,"viewing_time":3665.800000011921},{"page_index":10,"viewing_time":3594.2999999970198},{"page_index":11,"viewing_time":10076},{"page_index":12,"viewing_time":17842.09999999404},{"page_index":13,"viewing_time":2272.4000000059605},{"page_index":14,"viewing_time":4245.20000000298}],"rt":164345.90000000596,"trial_type":"instructions","trial_index":3,"time_elapsed":183354,"internal_node_id":"0.0-3.0-0.0","subject_id":"614cfb8cfd0d0bc4b4a4268e","study_id":"6197b3f67c2b5cd3b6d9596a","session_id":"6197b8899c799b47e0f3881d","condition":"full-information","relevant_dimensions":["antennae","legs"],"bee_group":{"antennae":"B","wings":"X","pattern":"X","legs":"M"},"bonus":0.19999999999999998},{"rt":20587,"response":{"Q0":["Two or six legs","Stripes or spots on body","Single or double wings","Antennae or no antennae"]},"question_order":[0],"trial_type":"survey-multi-select","trial_index":4,"time_elapsed":203950,"internal_node_id":"0.0-3.0-1.0","subject_id":"614cfb8cfd0d0bc4b4a4268e","study_id":"6197b3f67c2b5cd3b6d9596a","session_id":"6197b8899c799b47e0f3881d","condition":"full-information","relevant_dimensions":["antennae","legs"],"bee_group":{"antennae":"B","wings":"X","pattern":"X","legs":"M"},"correct":true,"bonus":0.19999999999999998},{"rt":26884,"response":{"Q1":"No.","Q2":"Based on the four features of the bee.","Q3":"You do not learn if it was friendly or dangerous, and do not alter your bonus."},"question_order":[0,1,2],"trial_type":"survey-multi-choice","trial_index":5,"time_elapsed":230837,"internal_node_id":"0.0-3.0-2.0","subject_id":"614cfb8cfd0d0bc4b4a4268e","study_id":"6197b3f67c2b5cd3b6d9596a","session_id":"6197b8899c799b47e0f3881d","condition":"full-information","relevant_dimensions":["antennae","legs"],"bee_group":{"antennae":"B","wings":"X","pattern":"X","legs":"M"},"correct":false,"bonus":0.19999999999999998},{"rt":5310.5,"stimulus":"<p>You did not answer all comprehension questions correctly.<br>Press <b>continue</b> to review the instructions again.</p>","response":0,"trial_type":"html-button-response","trial_index":6,"time_elapsed":236151,"internal_node_id":"0.0-3.0-3.0","subject_id":"614cfb8cfd0d0bc4b4a4268e","study_id":"6197b3f67c2b5cd3b6d9596a","session_id":"6197b8899c799b47e0f3881d","condition":"full-information","relevant_dimensions":["antennae","legs"],"bee_group":{"antennae":"B","wings":"X","pattern":"X","legs":"M"},"bonus":0.19999999999999998},{"view_history":[{"page_index":0,"viewing_time":10054.70000000298},{"page_index":1,"viewing_time":11520.29999999702},{"page_index":2,"viewing_time":11716},{"page_index":3,"viewing_time":15607.5},{"page_index":4,"viewing_time":5665.9000000059605},{"page_index":5,"viewing_time":8584.29999999702},{"page_index":6,"viewing_time":1462.7000000029802},{"page_index":5,"viewing_time":1843.7000000029802},{"page_index":6,"viewing_time":7159.399999991059},{"page_index":7,"viewing_time":8223},{"page_index":8,"viewing_time":2266.5},{"page_index":9,"viewing_time":1606.4000000059605},{"page_index":10,"viewing_time":1554.2000000029802},{"page_index":11,"viewing_time":7758.899999991059},{"page_index":12,"viewing_time":2418.6000000089407},{"page_index":13,"viewing_time":1645.199999988079},{"page_index":14,"viewing_time":2317.4000000059605}],"rt":101405.29999999702,"trial_type":"instructions","trial_index":7,"time_elapsed":337557,"internal_node_id":"0.0-3.0-4.0-0.0","subject_id":"614cfb8cfd0d0bc4b4a4268e","study_id":"6197b3f67c2b5cd3b6d9596a","session_id":"6197b8899c799b47e0f3881d","condition":"full-information","relevant_dimensions":["antennae","legs"],"bee_group":{"antennae":"B","wings":"X","pattern":"X","legs":"M"},"bonus":0.19999999999999998},{"rt":35830.90000000596,"response":{"Q0":["Two or six legs","Stripes or spots on body","Single or double wings","Antennae or no antennae"]},"question_order":[0],"trial_type":"survey-multi-select","trial_index":8,"time_elapsed":373401,"internal_node_id":"0.0-3.0-4.0-1.0","subject_id":"614cfb8cfd0d0bc4b4a4268e","study_id":"6197b3f67c2b5cd3b6d9596a","session_id":"6197b8899c799b47e0f3881d","condition":"full-information","relevant_dimensions":["antennae","legs"],"bee_group":{"antennae":"B","wings":"X","pattern":"X","legs":"M"},"correct":true,"bonus":0.19999999999999998},{"rt":30745.20000000298,"response":{"Q1":"No.","Q2":"Based on the four features of the bee.","Q3":"You learn if it was friendly or dangerous, but do not alter your bonus."},"question_order":[0,1,2],"trial_type":"survey-multi-choice","trial_index":9,"time_elapsed":404151,"internal_node_id":"0.0-3.0-4.0-2.0","subject_id":"614cfb8cfd0d0bc4b4a4268e","study_id":"6197b3f67c2b5cd3b6d9596a","session_id":"6197b8899c799b47e0f3881d","condition":"full-information","relevant_dimensions":["antennae","legs"],"bee_group":{"antennae":"B","wings":"X","pattern":"X","legs":"M"},"correct":true,"bonus":0.19999999999999998},{"rt":6681.899999991059,"stimulus":"<p>Congrats, you got everything right<br>When you're ready, click the button below to continue to the experiment.</p>","response":0,"trial_type":"html-button-response","trial_index":10,"time_elapsed":410835,"internal_node_id":"0.0-3.0-4.0-3.0","subject_id":"614cfb8cfd0d0bc4b4a4268e","study_id":"6197b3f67c2b5cd3b6d9596a","session_id":"6197b8899c799b47e0f3881d","condition":"full-information","relevant_dimensions":["antennae","legs"],"bee_group":{"antennae":"B","wings":"X","pattern":"X","legs":"M"},"bonus":0.19999999999999998},{"rt":12925.20000000298,"stimulus":"bees-with-color/bee-B2DF.svg","response":0,"trial_type":"image-button-response","trial_index":11,"time_elapsed":423770,"internal_node_id":"0.0-4.0-0.0","subject_id":"614cfb8cfd0d0bc4b4a4268e","study_id":"6197b3f67c2b5cd3b6d9596a","session_id":"6197b8899c799b47e0f3881d","condition":"full-information","relevant_dimensions":["antennae","legs"],"bee_group":{"antennae":"B","wings":"X","pattern":"X","legs":"M"},"action":"harvest","summary":"good-harvest","bonus":0.19999999999999998},{"rt":8504.29999999702,"stimulus":"\n                    <p><b>Action: <em>harvest</em></b></p>\n                    <p>This is the bee that you just saw.</p>\n                    <img src=\"bees-with-color/bee-B2DF.svg\" width=\"200\">\n                    <p><span class=\"greenText\"><b>Successful harvest!</b></span><br>Your pay has increased by $0.02. Your bonus pay is now $0.56.</p>\n            ","response":0,"trial_type":"html-button-response","trial_index":12,"time_elapsed":432288,"internal_node_id":"0.0-4.0-1.0","subject_id":"614cfb8cfd0d0bc4b4a4268e","study_id":"6197b3f67c2b5cd3b6d9596a","session_id":"6197b8899c799b47e0f3881d","condition":"full-information","relevant_dimensions":["antennae","legs"],"bee_group":{"antennae":"B","wings":"X","pattern":"X","legs":"M"},"bonus":0.19999999999999998},{"rt":2962.9000000059605,"stimulus":"bees-with-color/bee-A1DM.svg","response":1,"trial_type":"image-button-response","trial_index":13,"time_elapsed":435255,"internal_node_id":"0.0-4.0-0.1","subject_id":"614cfb8cfd0d0bc4b4a4268e","study_id":"6197b3f67c2b5cd3b6d9596a","session_id":"6197b8899c799b47e0f3881d","condition":"full-information","relevant_dimensions":["antennae","legs"],"bee_group":{"antennae":"B","wings":"X","pattern":"X","legs":"M"},"action":"avoid","summary":"bad-avoid","bonus":0.19999999999999998},{"rt":10184.79999999702,"stimulus":"\n                    <p><b>Action: <em>avoid</em></b></p>\n                    <p>This is the bee that you just saw.</p>\n                    <img src=\"bees-with-color/bee-A1DM.svg\" width=\"200\">\n                    <p><span class=\"redText\">Bad choice,</span> the bee was friendly.<br>Your bonus pay is unchanged, and remains at $0.56.</p>\n            ","response":0,"trial_type":"html-button-response","trial_index":14,"time_elapsed":445444,"internal_node_id":"0.0-4.0-1.1","subject_id":"614cfb8cfd0d0bc4b4a4268e","study_id":"6197b3f67c2b5cd3b6d9596a","session_id":"6197b8899c799b47e0f3881d","condition":"full-information","relevant_dimensions":["antennae","legs"],"bee_group":{"antennae":"B","wings":"X","pattern":"X","legs":"M"},"bonus":0.19999999999999998},{"rt":3210,"stimulus":"bees-with-color/bee-A2DM.svg","response":1,"trial_type":"image-button-response","trial_index":15,"time_elapsed":448658,"internal_node_id":"0.0-4.0-0.2","subject_id":"614cfb8cfd0d0bc4b4a4268e","study_id":"6197b3f67c2b5cd3b6d9596a","session_id":"6197b8899c799b47e0f3881d","condition":"full-information","relevant_dimensions":["antennae","legs"],"bee_group":{"antennae":"B","wings":"X","pattern":"X","legs":"M"},"action":"avoid","summary":"bad-avoid","bonus":0.19999999999999998},{"rt":5167.600000008941,"stimulus":"\n                    <p><b>Action: <em>avoid</em></b></p>\n                    <p>This is the bee that you just saw.</p>\n                    <img src=\"bees-with-color/bee-A2DM.svg\" width=\"200\">\n                    <p><span class=\"redText\">Bad choice,</span> the bee was friendly.<br>Your bonus pay is unchanged, and remains at $0.56.</p>\n            ","response":0,"trial_type":"html-button-response","trial_index":16,"time_elapsed":453830,"internal_node_id":"0.0-4.0-1.2","subject_id":"614cfb8cfd0d0bc4b4a4268e","study_id":"6197b3f67c2b5cd3b6d9596a","session_id":"6197b8899c799b47e0f3881d","condition":"full-information","relevant_dimensions":["antennae","legs"],"bee_group":{"antennae":"B","wings":"X","pattern":"X","legs":"M"},"bonus":0.19999999999999998},{"rt":1900.2999999970198,"stimulus":"bees-with-color/bee-A2SM.svg","response":0,"trial_type":"image-button-response","trial_index":17,"time_elapsed":455736,"internal_node_id":"0.0-4.0-0.3","subject_id":"614cfb8cfd0d0bc4b4a4268e","study_id":"6197b3f67c2b5cd3b6d9596a","session_id":"6197b8899c799b47e0f3881d","condition":"full-information","relevant_dimensions":["antennae","legs"],"bee_group":{"antennae":"B","wings":"X","pattern":"X","legs":"M"},"action":"harvest","summary":"good-harvest","bonus":0.19999999999999998},{"rt":4423.699999988079,"stimulus":"\n                    <p><b>Action: <em>harvest</em></b></p>\n                    <p>This is the bee that you just saw.</p>\n                    <img src=\"bees-with-color/bee-A2SM.svg\" width=\"200\">\n                    <p><span class=\"greenText\"><b>Successful harvest!</b></span><br>Your pay has increased by $0.02. Your bonus pay is now $0.58.</p>\n            ","response":0,"trial_type":"html-button-response","trial_index":18,"time_elapsed":460163,"internal_node_id":"0.0-4.0-1.3","subject_id":"614cfb8cfd0d0bc4b4a4268e","study_id":"6197b3f67c2b5cd3b6d9596a","session_id":"6197b8899c799b47e0f3881d","condition":"full-information","relevant_dimensions":["antennae","legs"],"bee_group":{"antennae":"B","wings":"X","pattern":"X","legs":"M"},"bonus":0.19999999999999998},{"rt":1567.800000011921,"stimulus":"bees-with-color/bee-B2DM.svg","response":0,"trial_type":"image-button-response","trial_index":19,"time_elapsed":461736,"internal_node_id":"0.0-4.0-0.4","subject_id":"614cfb8cfd0d0bc4b4a4268e","study_id":"6197b3f67c2b5cd3b6d9596a","session_id":"6197b8899c799b47e0f3881d","condition":"full-information","relevant_dimensions":["antennae","legs"],"bee_group":{"antennae":"B","wings":"X","pattern":"X","legs":"M"},"action":"harvest","summary":"bad-harvest","bonus":0.19999999999999998},{"rt":2930.1000000089407,"stimulus":"\n                    <p><b>Action: <em>harvest</em></b></p>\n                    <p>This is the bee that you just saw.</p>\n                    <img src=\"bees-with-color/bee-B2DM.svg\" width=\"200\">\n                    <p><span class=\"redText\">Bad choice, the bee was angry.</span><br><b>You have been stung!</b><br>Your pay has been decreased by $0.10. Your bonus pay is now $0.48.</p>\n            ","response":0,"trial_type":"html-button-response","trial_index":20,"time_elapsed":464670,"internal_node_id":"0.0-4.0-1.4","subject_id":"614cfb8cfd0d0bc4b4a4268e","study_id":"6197b3f67c2b5cd3b6d9596a","session_id":"6197b8899c799b47e0f3881d","condition":"full-information","relevant_dimensions":["antennae","legs"],"bee_group":{"antennae":"B","wings":"X","pattern":"X","legs":"M"},"bonus":0.19999999999999998},{"rt":6411.899999991059,"stimulus":"bees-with-color/bee-A1SF.svg","response":1,"trial_type":"image-button-response","trial_index":21,"time_elapsed":471086,"internal_node_id":"0.0-4.0-0.5","subject_id":"614cfb8cfd0d0bc4b4a4268e","study_id":"6197b3f67c2b5cd3b6d9596a","session_id":"6197b8899c799b47e0f3881d","condition":"full-information","relevant_dimensions":["antennae","legs"],"bee_group":{"antennae":"B","wings":"X","pattern":"X","legs":"M"},"action":"avoid","summary":"bad-avoid","bonus":0.19999999999999998},{"rt":4100.300000011921,"stimulus":"\n                    <p><b>Action: <em>avoid</em></b></p>\n                    <p>This is the bee that you just saw.</p>\n                    <img src=\"bees-with-color/bee-A1SF.svg\" width=\"200\">\n                    <p><span class=\"redText\">Bad choice,</span> the bee was friendly.<br>Your bonus pay is unchanged, and remains at $0.48.</p>\n            ","response":0,"trial_type":"html-button-response","trial_index":22,"time_elapsed":475190,"internal_node_id":"0.0-4.0-1.5","subject_id":"614cfb8cfd0d0bc4b4a4268e","study_id":"6197b3f67c2b5cd3b6d9596a","session_id":"6197b8899c799b47e0f3881d","condition":"full-information","relevant_dimensions":["antennae","legs"],"bee_group":{"antennae":"B","wings":"X","pattern":"X","legs":"M"},"bonus":0.19999999999999998},{"rt":1911.800000011921,"stimulus":"bees-with-color/bee-B1DF.svg","response":1,"trial_type":"image-button-response","trial_index":23,"time_elapsed":477105,"internal_node_id":"0.0-4.0-0.6","subject_id":"614cfb8cfd0d0bc4b4a4268e","study_id":"6197b3f67c2b5cd3b6d9596a","session_id":"6197b8899c799b47e0f3881d","condition":"full-information","relevant_dimensions":["antennae","legs"],"bee_group":{"antennae":"B","wings":"X","pattern":"X","legs":"M"},"action":"avoid","summary":"bad-avoid","bonus":0.19999999999999998},{"rt":2728.9000000059605,"stimulus":"\n                    <p><b>Action: <em>avoid</em></b></p>\n                    <p>This is the bee that you just saw.</p>\n                    <img src=\"bees-with-color/bee-B1DF.svg\" width=\"200\">\n                    <p><span class=\"redText\">Bad choice,</span> the bee was friendly.<br>Your bonus pay is unchanged, and remains at $0.48.</p>\n            ","response":0,"trial_type":"html-button-response","trial_index":24,"time_elapsed":479836,"internal_node_id":"0.0-4.0-1.6","subject_id":"614cfb8cfd0d0bc4b4a4268e","study_id":"6197b3f67c2b5cd3b6d9596a","session_id":"6197b8899c799b47e0f3881d","condition":"full-information","relevant_dimensions":["antennae","legs"],"bee_group":{"antennae":"B","wings":"X","pattern":"X","legs":"M"},"bonus":0.19999999999999998},{"rt":2513.9000000059605,"stimulus":"bees-with-color/bee-B1DM.svg","response":0,"trial_type":"image-button-response","trial_index":25,"time_elapsed":482354,"internal_node_id":"0.0-4.0-0.7","subject_id":"614cfb8cfd0d0bc4b4a4268e","study_id":"6197b3f67c2b5cd3b6d9596a","session_id":"6197b8899c799b47e0f3881d","condition":"full-information","relevant_dimensions":["antennae","legs"],"bee_group":{"antennae":"B","wings":"X","pattern":"X","legs":"M"},"action":"harvest","summary":"bad-harvest","bonus":0.19999999999999998},{"rt":3047.0999999940395,"stimulus":"\n                    <p><b>Action: <em>harvest</em></b></p>\n                    <p>This is the bee that you just saw.</p>\n                    <img src=\"bees-with-color/bee-B1DM.svg\" width=\"200\">\n                    <p><span class=\"redText\">Bad choice, the bee was angry.</span><br><b>You have been stung!</b><br>Your pay has been decreased by $0.10. Your bonus pay is now $0.38.</p>\n            ","response":0,"trial_type":"html-button-response","trial_index":26,"time_elapsed":485405,"internal_node_id":"0.0-4.0-1.7","subject_id":"614cfb8cfd0d0bc4b4a4268e","study_id":"6197b3f67c2b5cd3b6d9596a","session_id":"6197b8899c799b47e0f3881d","condition":"full-information","relevant_dimensions":["antennae","legs"],"bee_group":{"antennae":"B","wings":"X","pattern":"X","legs":"M"},"bonus":0.19999999999999998},{"rt":6331,"stimulus":"bees-with-color/bee-A2SF.svg","response":0,"trial_type":"image-button-response","trial_index":27,"time_elapsed":491740,"internal_node_id":"0.0-4.0-0.8","subject_id":"614cfb8cfd0d0bc4b4a4268e","study_id":"6197b3f67c2b5cd3b6d9596a","session_id":"6197b8899c799b47e0f3881d","condition":"full-information","relevant_dimensions":["antennae","legs"],"bee_group":{"antennae":"B","wings":"X","pattern":"X","legs":"M"},"action":"harvest","summary":"good-harvest","bonus":0.19999999999999998},{"rt":2054.9000000059605,"stimulus":"\n                    <p><b>Action: <em>harvest</em></b></p>\n                    <p>This is the bee that you just saw.</p>\n                    <img src=\"bees-with-color/bee-A2SF.svg\" width=\"200\">\n                    <p><span class=\"greenText\"><b>Successful harvest!</b></span><br>Your pay has increased by $0.02. Your bonus pay is now $0.40.</p>\n            ","response":0,"trial_type":"html-button-response","trial_index":28,"time_elapsed":493797,"internal_node_id":"0.0-4.0-1.8","subject_id":"614cfb8cfd0d0bc4b4a4268e","study_id":"6197b3f67c2b5cd3b6d9596a","session_id":"6197b8899c799b47e0f3881d","condition":"full-information","relevant_dimensions":["antennae","legs"],"bee_group":{"antennae":"B","wings":"X","pattern":"X","legs":"M"},"bonus":0.19999999999999998},{"rt":9605.20000000298,"stimulus":"bees-with-color/bee-B1SM.svg","response":0,"trial_type":"image-button-response","trial_index":29,"time_elapsed":503407,"internal_node_id":"0.0-4.0-0.9","subject_id":"614cfb8cfd0d0bc4b4a4268e","study_id":"6197b3f67c2b5cd3b6d9596a","session_id":"6197b8899c799b47e0f3881d","condition":"full-information","relevant_dimensions":["antennae","legs"],"bee_group":{"antennae":"B","wings":"X","pattern":"X","legs":"M"},"action":"harvest","summary":"bad-harvest","bonus":0.19999999999999998},{"rt":1956.199999988079,"stimulus":"\n                    <p><b>Action: <em>harvest</em></b></p>\n                    <p>This is the bee that you just saw.</p>\n                    <img src=\"bees-with-color/bee-B1SM.svg\" width=\"200\">\n                    <p><span class=\"redText\">Bad choice, the bee was angry.</span><br><b>You have been stung!</b><br>Your pay has been decreased by $0.10. Your bonus pay is now $0.30.</p>\n            ","response":0,"trial_type":"html-button-response","trial_index":30,"time_elapsed":505366,"internal_node_id":"0.0-4.0-1.9","subject_id":"614cfb8cfd0d0bc4b4a4268e","study_id":"6197b3f67c2b5cd3b6d9596a","session_id":"6197b8899c799b47e0f3881d","condition":"full-information","relevant_dimensions":["antennae","legs"],"bee_group":{"antennae":"B","wings":"X","pattern":"X","legs":"M"},"bonus":0.19999999999999998},{"rt":2000.6000000089407,"stimulus":"bees-with-color/bee-B2SM.svg","response":0,"trial_type":"image-button-response","trial_index":31,"time_elapsed":507371,"internal_node_id":"0.0-4.0-0.10","subject_id":"614cfb8cfd0d0bc4b4a4268e","study_id":"6197b3f67c2b5cd3b6d9596a","session_id":"6197b8899c799b47e0f3881d","condition":"full-information","relevant_dimensions":["antennae","legs"],"bee_group":{"antennae":"B","wings":"X","pattern":"X","legs":"M"},"action":"harvest","summary":"bad-harvest","bonus":0.19999999999999998},{"rt":1541.9000000059605,"stimulus":"\n                    <p><b>Action: <em>harvest</em></b></p>\n                    <p>This is the bee that you just saw.</p>\n                    <img src=\"bees-with-color/bee-B2SM.svg\" width=\"200\">\n                    <p><span class=\"redText\">Bad choice, the bee was angry.</span><br><b>You have been stung!</b><br>Your pay has been decreased by $0.10. Your bonus pay is now $0.20.</p>\n            ","response":0,"trial_type":"html-button-response","trial_index":32,"time_elapsed":508917,"internal_node_id":"0.0-4.0-1.10","subject_id":"614cfb8cfd0d0bc4b4a4268e","study_id":"6197b3f67c2b5cd3b6d9596a","session_id":"6197b8899c799b47e0f3881d","condition":"full-information","relevant_dimensions":["antennae","legs"],"bee_group":{"antennae":"B","wings":"X","pattern":"X","legs":"M"},"bonus":0.19999999999999998},{"rt":1924,"stimulus":"bees-with-color/bee-A1SM.svg","response":1,"trial_type":"image-button-response","trial_index":33,"time_elapsed":510845,"internal_node_id":"0.0-4.0-0.11","subject_id":"614cfb8cfd0d0bc4b4a4268e","study_id":"6197b3f67c2b5cd3b6d9596a","session_id":"6197b8899c799b47e0f3881d","condition":"full-information","relevant_dimensions":["antennae","legs"],"bee_group":{"antennae":"B","wings":"X","pattern":"X","legs":"M"},"action":"avoid","summary":"bad-avoid","bonus":0.19999999999999998},{"rt":1243.0999999940395,"stimulus":"\n                    <p><b>Action: <em>avoid</em></b></p>\n                    <p>This is the bee that you just saw.</p>\n                    <img src=\"bees-with-color/bee-A1SM.svg\" width=\"200\">\n                    <p><span class=\"redText\">Bad choice,</span> the bee was friendly.<br>Your bonus pay is unchanged, and remains at $0.20.</p>\n            ","response":0,"trial_type":"html-button-response","trial_index":34,"time_elapsed":512091,"internal_node_id":"0.0-4.0-1.11","subject_id":"614cfb8cfd0d0bc4b4a4268e","study_id":"6197b3f67c2b5cd3b6d9596a","session_id":"6197b8899c799b47e0f3881d","condition":"full-information","relevant_dimensions":["antennae","legs"],"bee_group":{"antennae":"B","wings":"X","pattern":"X","legs":"M"},"bonus":0.19999999999999998},{"rt":2069.7000000029802,"stimulus":"bees-with-color/bee-A2DF.svg","response":0,"trial_type":"image-button-response","trial_index":35,"time_elapsed":514165,"internal_node_id":"0.0-4.0-0.12","subject_id":"614cfb8cfd0d0bc4b4a4268e","study_id":"6197b3f67c2b5cd3b6d9596a","session_id":"6197b8899c799b47e0f3881d","condition":"full-information","relevant_dimensions":["antennae","legs"],"bee_group":{"antennae":"B","wings":"X","pattern":"X","legs":"M"},"action":"harvest","summary":"good-harvest","bonus":0.19999999999999998},{"rt":1831.3999999910593,"stimulus":"\n                    <p><b>Action: <em>harvest</em></b></p>\n                    <p>This is the bee that you just saw.</p>\n                    <img src=\"bees-with-color/bee-A2DF.svg\" width=\"200\">\n                    <p><span class=\"greenText\"><b>Successful harvest!</b></span><br>Your pay has increased by $0.02. Your bonus pay is now $0.22.</p>\n            ","response":0,"trial_type":"html-button-response","trial_index":36,"time_elapsed":516000,"internal_node_id":"0.0-4.0-1.12","subject_id":"614cfb8cfd0d0bc4b4a4268e","study_id":"6197b3f67c2b5cd3b6d9596a","session_id":"6197b8899c799b47e0f3881d","condition":"full-information","relevant_dimensions":["antennae","legs"],"bee_group":{"antennae":"B","wings":"X","pattern":"X","legs":"M"},"bonus":0.19999999999999998},{"rt":20012.60000000894,"stimulus":"bees-with-color/bee-A1DF.svg","response":1,"trial_type":"image-button-response","trial_index":37,"time_elapsed":536015,"internal_node_id":"0.0-4.0-0.13","subject_id":"614cfb8cfd0d0bc4b4a4268e","study_id":"6197b3f67c2b5cd3b6d9596a","session_id":"6197b8899c799b47e0f3881d","condition":"full-information","relevant_dimensions":["antennae","legs"],"bee_group":{"antennae":"B","wings":"X","pattern":"X","legs":"M"},"action":"avoid","summary":"bad-avoid","bonus":0.19999999999999998},{"rt":3794.2000000029802,"stimulus":"\n                    <p><b>Action: <em>avoid</em></b></p>\n                    <p>This is the bee that you just saw.</p>\n                    <img src=\"bees-with-color/bee-A1DF.svg\" width=\"200\">\n                    <p><span class=\"redText\">Bad choice,</span> the bee was friendly.<br>Your bonus pay is unchanged, and remains at $0.22.</p>\n            ","response":0,"trial_type":"html-button-response","trial_index":38,"time_elapsed":539812,"internal_node_id":"0.0-4.0-1.13","subject_id":"614cfb8cfd0d0bc4b4a4268e","study_id":"6197b3f67c2b5cd3b6d9596a","session_id":"6197b8899c799b47e0f3881d","condition":"full-information","relevant_dimensions":["antennae","legs"],"bee_group":{"antennae":"B","wings":"X","pattern":"X","legs":"M"},"bonus":0.19999999999999998},{"rt":10958,"stimulus":"bees-with-color/bee-B2SF.svg","response":0,"trial_type":"image-button-response","trial_index":39,"time_elapsed":550774,"internal_node_id":"0.0-4.0-0.14","subject_id":"614cfb8cfd0d0bc4b4a4268e","study_id":"6197b3f67c2b5cd3b6d9596a","session_id":"6197b8899c799b47e0f3881d","condition":"full-information","relevant_dimensions":["antennae","legs"],"bee_group":{"antennae":"B","wings":"X","pattern":"X","legs":"M"},"action":"harvest","summary":"good-harvest","bonus":0.19999999999999998},{"rt":1910.7999999970198,"stimulus":"\n                    <p><b>Action: <em>harvest</em></b></p>\n                    <p>This is the bee that you just saw.</p>\n                    <img src=\"bees-with-color/bee-B2SF.svg\" width=\"200\">\n                    <p><span class=\"greenText\"><b>Successful harvest!</b></span><br>Your pay has increased by $0.02. Your bonus pay is now $0.24.</p>\n            ","response":0,"trial_type":"html-button-response","trial_index":40,"time_elapsed":552688,"internal_node_id":"0.0-4.0-1.14","subject_id":"614cfb8cfd0d0bc4b4a4268e","study_id":"6197b3f67c2b5cd3b6d9596a","session_id":"6197b8899c799b47e0f3881d","condition":"full-information","relevant_dimensions":["antennae","legs"],"bee_group":{"antennae":"B","wings":"X","pattern":"X","legs":"M"},"bonus":0.19999999999999998},{"rt":8051,"stimulus":"bees-with-color/bee-B1SF.svg","response":0,"trial_type":"image-button-response","trial_index":41,"time_elapsed":560744,"internal_node_id":"0.0-4.0-0.15","subject_id":"614cfb8cfd0d0bc4b4a4268e","study_id":"6197b3f67c2b5cd3b6d9596a","session_id":"6197b8899c799b47e0f3881d","condition":"full-information","relevant_dimensions":["antennae","legs"],"bee_group":{"antennae":"B","wings":"X","pattern":"X","legs":"M"},"action":"harvest","summary":"good-harvest","bonus":0.19999999999999998},{"rt":1826.2999999970198,"stimulus":"\n                    <p><b>Action: <em>harvest</em></b></p>\n                    <p>This is the bee that you just saw.</p>\n                    <img src=\"bees-with-color/bee-B1SF.svg\" width=\"200\">\n                    <p><span class=\"greenText\"><b>Successful harvest!</b></span><br>Your pay has increased by $0.02. Your bonus pay is now $0.26.</p>\n            ","response":0,"trial_type":"html-button-response","trial_index":42,"time_elapsed":562573,"internal_node_id":"0.0-4.0-1.15","subject_id":"614cfb8cfd0d0bc4b4a4268e","study_id":"6197b3f67c2b5cd3b6d9596a","session_id":"6197b8899c799b47e0f3881d","condition":"full-information","relevant_dimensions":["antennae","legs"],"bee_group":{"antennae":"B","wings":"X","pattern":"X","legs":"M"},"bonus":0.19999999999999998},{"rt":9747.5,"stimulus":"bees-with-color/bee-B2SM.svg","response":0,"trial_type":"image-button-response","trial_index":43,"time_elapsed":572325,"internal_node_id":"0.0-4.0-0.16","subject_id":"614cfb8cfd0d0bc4b4a4268e","study_id":"6197b3f67c2b5cd3b6d9596a","session_id":"6197b8899c799b47e0f3881d","condition":"full-information","relevant_dimensions":["antennae","legs"],"bee_group":{"antennae":"B","wings":"X","pattern":"X","legs":"M"},"action":"harvest","summary":"bad-harvest","bonus":0.19999999999999998},{"rt":11072.5,"stimulus":"\n                    <p><b>Action: <em>harvest</em></b></p>\n                    <p>This is the bee that you just saw.</p>\n                    <img src=\"bees-with-color/bee-B2SM.svg\" width=\"200\">\n                    <p><span class=\"redText\">Bad choice, the bee was angry.</span><br><b>You have been stung!</b><br>Your pay has been decreased by $0.10. Your bonus pay is now $0.16.</p>\n            ","response":0,"trial_type":"html-button-response","trial_index":44,"time_elapsed":583400,"internal_node_id":"0.0-4.0-1.16","subject_id":"614cfb8cfd0d0bc4b4a4268e","study_id":"6197b3f67c2b5cd3b6d9596a","session_id":"6197b8899c799b47e0f3881d","condition":"full-information","relevant_dimensions":["antennae","legs"],"bee_group":{"antennae":"B","wings":"X","pattern":"X","legs":"M"},"bonus":0.19999999999999998},{"rt":8227.20000000298,"stimulus":"bees-with-color/bee-B2DF.svg","response":0,"trial_type":"image-button-response","trial_index":45,"time_elapsed":591632,"internal_node_id":"0.0-4.0-0.17","subject_id":"614cfb8cfd0d0bc4b4a4268e","study_id":"6197b3f67c2b5cd3b6d9596a","session_id":"6197b8899c799b47e0f3881d","condition":"full-information","relevant_dimensions":["antennae","legs"],"bee_group":{"antennae":"B","wings":"X","pattern":"X","legs":"M"},"action":"harvest","summary":"good-harvest","bonus":0.19999999999999998},{"rt":3478,"stimulus":"\n                    <p><b>Action: <em>harvest</em></b></p>\n                    <p>This is the bee that you just saw.</p>\n                    <img src=\"bees-with-color/bee-B2DF.svg\" width=\"200\">\n                    <p><span class=\"greenText\"><b>Successful harvest!</b></span><br>Your pay has increased by $0.02. Your bonus pay is now $0.18.</p>\n            ","response":0,"trial_type":"html-button-response","trial_index":46,"time_elapsed":595113,"internal_node_id":"0.0-4.0-1.17","subject_id":"614cfb8cfd0d0bc4b4a4268e","study_id":"6197b3f67c2b5cd3b6d9596a","session_id":"6197b8899c799b47e0f3881d","condition":"full-information","relevant_dimensions":["antennae","legs"],"bee_group":{"antennae":"B","wings":"X","pattern":"X","legs":"M"},"bonus":0.19999999999999998},{"rt":1552.5,"stimulus":"bees-with-color/bee-A2SM.svg","response":0,"trial_type":"image-button-response","trial_index":47,"time_elapsed":596670,"internal_node_id":"0.0-4.0-0.18","subject_id":"614cfb8cfd0d0bc4b4a4268e","study_id":"6197b3f67c2b5cd3b6d9596a","session_id":"6197b8899c799b47e0f3881d","condition":"full-information","relevant_dimensions":["antennae","legs"],"bee_group":{"antennae":"B","wings":"X","pattern":"X","legs":"M"},"action":"harvest","summary":"good-harvest","bonus":0.19999999999999998},{"rt":1251.0999999940395,"stimulus":"\n                    <p><b>Action: <em>harvest</em></b></p>\n                    <p>This is the bee that you just saw.</p>\n                    <img src=\"bees-with-color/bee-A2SM.svg\" width=\"200\">\n                    <p><span class=\"greenText\"><b>Successful harvest!</b></span><br>Your pay has increased by $0.02. Your bonus pay is now $0.20.</p>\n            ","response":0,"trial_type":"html-button-response","trial_index":48,"time_elapsed":597924,"internal_node_id":"0.0-4.0-1.18","subject_id":"614cfb8cfd0d0bc4b4a4268e","study_id":"6197b3f67c2b5cd3b6d9596a","session_id":"6197b8899c799b47e0f3881d","condition":"full-information","relevant_dimensions":["antennae","legs"],"bee_group":{"antennae":"B","wings":"X","pattern":"X","legs":"M"},"bonus":0.19999999999999998},{"rt":1569.3999999910593,"stimulus":"bees-with-color/bee-A2DF.svg","response":0,"trial_type":"image-button-response","trial_index":49,"time_elapsed":599496,"internal_node_id":"0.0-4.0-0.19","subject_id":"614cfb8cfd0d0bc4b4a4268e","study_id":"6197b3f67c2b5cd3b6d9596a","session_id":"6197b8899c799b47e0f3881d","condition":"full-information","relevant_dimensions":["antennae","legs"],"bee_group":{"antennae":"B","wings":"X","pattern":"X","legs":"M"},"action":"harvest","summary":"good-harvest","bonus":0.19999999999999998},{"rt":1371.4000000059605,"stimulus":"\n                    <p><b>Action: <em>harvest</em></b></p>\n                    <p>This is the bee that you just saw.</p>\n                    <img src=\"bees-with-color/bee-A2DF.svg\" width=\"200\">\n                    <p><span class=\"greenText\"><b>Successful harvest!</b></span><br>Your pay has increased by $0.02. Your bonus pay is now $0.22.</p>\n            ","response":0,"trial_type":"html-button-response","trial_index":50,"time_elapsed":600871,"internal_node_id":"0.0-4.0-1.19","subject_id":"614cfb8cfd0d0bc4b4a4268e","study_id":"6197b3f67c2b5cd3b6d9596a","session_id":"6197b8899c799b47e0f3881d","condition":"full-information","relevant_dimensions":["antennae","legs"],"bee_group":{"antennae":"B","wings":"X","pattern":"X","legs":"M"},"bonus":0.19999999999999998},{"rt":9321,"stimulus":"bees-with-color/bee-B1DF.svg","response":1,"trial_type":"image-button-response","trial_index":51,"time_elapsed":610194,"internal_node_id":"0.0-4.0-0.20","subject_id":"614cfb8cfd0d0bc4b4a4268e","study_id":"6197b3f67c2b5cd3b6d9596a","session_id":"6197b8899c799b47e0f3881d","condition":"full-information","relevant_dimensions":["antennae","legs"],"bee_group":{"antennae":"B","wings":"X","pattern":"X","legs":"M"},"action":"avoid","summary":"bad-avoid","bonus":0.19999999999999998},{"rt":3560,"stimulus":"\n                    <p><b>Action: <em>avoid</em></b></p>\n                    <p>This is the bee that you just saw.</p>\n                    <img src=\"bees-with-color/bee-B1DF.svg\" width=\"200\">\n                    <p><span class=\"redText\">Bad choice,</span> the bee was friendly.<br>Your bonus pay is unchanged, and remains at $0.22.</p>\n            ","response":0,"trial_type":"html-button-response","trial_index":52,"time_elapsed":613756,"internal_node_id":"0.0-4.0-1.20","subject_id":"614cfb8cfd0d0bc4b4a4268e","study_id":"6197b3f67c2b5cd3b6d9596a","session_id":"6197b8899c799b47e0f3881d","condition":"full-information","relevant_dimensions":["antennae","legs"],"bee_group":{"antennae":"B","wings":"X","pattern":"X","legs":"M"},"bonus":0.19999999999999998},{"rt":1366.7999999970198,"stimulus":"bees-with-color/bee-B1SM.svg","response":0,"trial_type":"image-button-response","trial_index":53,"time_elapsed":615126,"internal_node_id":"0.0-4.0-0.21","subject_id":"614cfb8cfd0d0bc4b4a4268e","study_id":"6197b3f67c2b5cd3b6d9596a","session_id":"6197b8899c799b47e0f3881d","condition":"full-information","relevant_dimensions":["antennae","legs"],"bee_group":{"antennae":"B","wings":"X","pattern":"X","legs":"M"},"action":"harvest","summary":"bad-harvest","bonus":0.19999999999999998},{"rt":1926.4000000059605,"stimulus":"\n                    <p><b>Action: <em>harvest</em></b></p>\n                    <p>This is the bee that you just saw.</p>\n                    <img src=\"bees-with-color/bee-B1SM.svg\" width=\"200\">\n                    <p><span class=\"redText\">Bad choice, the bee was angry.</span><br><b>You have been stung!</b><br>Your pay has been decreased by $0.10. Your bonus pay is now $0.12.</p>\n            ","response":0,"trial_type":"html-button-response","trial_index":54,"time_elapsed":617056,"internal_node_id":"0.0-4.0-1.21","subject_id":"614cfb8cfd0d0bc4b4a4268e","study_id":"6197b3f67c2b5cd3b6d9596a","session_id":"6197b8899c799b47e0f3881d","condition":"full-information","relevant_dimensions":["antennae","legs"],"bee_group":{"antennae":"B","wings":"X","pattern":"X","legs":"M"},"bonus":0.19999999999999998},{"rt":1079.2999999970198,"stimulus":"bees-with-color/bee-A1DM.svg","response":0,"trial_type":"image-button-response","trial_index":55,"time_elapsed":618138,"internal_node_id":"0.0-4.0-0.22","subject_id":"614cfb8cfd0d0bc4b4a4268e","study_id":"6197b3f67c2b5cd3b6d9596a","session_id":"6197b8899c799b47e0f3881d","condition":"full-information","relevant_dimensions":["antennae","legs"],"bee_group":{"antennae":"B","wings":"X","pattern":"X","legs":"M"},"action":"harvest","summary":"good-harvest","bonus":0.19999999999999998},{"rt":1169.2999999970198,"stimulus":"\n                    <p><b>Action: <em>harvest</em></b></p>\n                    <p>This is the bee that you just saw.</p>\n                    <img src=\"bees-with-color/bee-A1DM.svg\" width=\"200\">\n                    <p><span class=\"greenText\"><b>Successful harvest!</b></span><br>Your pay has increased by $0.02. Your bonus pay is now $0.14.</p>\n            ","response":0,"trial_type":"html-button-response","trial_index":56,"time_elapsed":619310,"internal_node_id":"0.0-4.0-1.22","subject_id":"614cfb8cfd0d0bc4b4a4268e","study_id":"6197b3f67c2b5cd3b6d9596a","session_id":"6197b8899c799b47e0f3881d","condition":"full-information","relevant_dimensions":["antennae","legs"],"bee_group":{"antennae":"B","wings":"X","pattern":"X","legs":"M"},"bonus":0.19999999999999998},{"rt":1486,"stimulus":"bees-with-color/bee-A2DM.svg","response":0,"trial_type":"image-button-response","trial_index":57,"time_elapsed":620801,"internal_node_id":"0.0-4.0-0.23","subject_id":"614cfb8cfd0d0bc4b4a4268e","study_id":"6197b3f67c2b5cd3b6d9596a","session_id":"6197b8899c799b47e0f3881d","condition":"full-information","relevant_dimensions":["antennae","legs"],"bee_group":{"antennae":"B","wings":"X","pattern":"X","legs":"M"},"action":"harvest","summary":"good-harvest","bonus":0.19999999999999998},{"rt":1191.6000000089407,"stimulus":"\n                    <p><b>Action: <em>harvest</em></b></p>\n                    <p>This is the bee that you just saw.</p>\n                    <img src=\"bees-with-color/bee-A2DM.svg\" width=\"200\">\n                    <p><span class=\"greenText\"><b>Successful harvest!</b></span><br>Your pay has increased by $0.02. Your bonus pay is now $0.16.</p>\n            ","response":0,"trial_type":"html-button-response","trial_index":58,"time_elapsed":621995,"internal_node_id":"0.0-4.0-1.23","subject_id":"614cfb8cfd0d0bc4b4a4268e","study_id":"6197b3f67c2b5cd3b6d9596a","session_id":"6197b8899c799b47e0f3881d","condition":"full-information","relevant_dimensions":["antennae","legs"],"bee_group":{"antennae":"B","wings":"X","pattern":"X","legs":"M"},"bonus":0.19999999999999998},{"rt":2251.6000000089407,"stimulus":"bees-with-color/bee-A1DF.svg","response":0,"trial_type":"image-button-response","trial_index":59,"time_elapsed":624250,"internal_node_id":"0.0-4.0-0.24","subject_id":"614cfb8cfd0d0bc4b4a4268e","study_id":"6197b3f67c2b5cd3b6d9596a","session_id":"6197b8899c799b47e0f3881d","condition":"full-information","relevant_dimensions":["antennae","legs"],"bee_group":{"antennae":"B","wings":"X","pattern":"X","legs":"M"},"action":"harvest","summary":"good-harvest","bonus":0.19999999999999998},{"rt":1441,"stimulus":"\n                    <p><b>Action: <em>harvest</em></b></p>\n                    <p>This is the bee that you just saw.</p>\n                    <img src=\"bees-with-color/bee-A1DF.svg\" width=\"200\">\n                    <p><span class=\"greenText\"><b>Successful harvest!</b></span><br>Your pay has increased by $0.02. Your bonus pay is now $0.18.</p>\n            ","response":0,"trial_type":"html-button-response","trial_index":60,"time_elapsed":625693,"internal_node_id":"0.0-4.0-1.24","subject_id":"614cfb8cfd0d0bc4b4a4268e","study_id":"6197b3f67c2b5cd3b6d9596a","session_id":"6197b8899c799b47e0f3881d","condition":"full-information","relevant_dimensions":["antennae","legs"],"bee_group":{"antennae":"B","wings":"X","pattern":"X","legs":"M"},"bonus":0.19999999999999998},{"rt":2223.7000000029802,"stimulus":"bees-with-color/bee-A2SF.svg","response":0,"trial_type":"image-button-response","trial_index":61,"time_elapsed":627920,"internal_node_id":"0.0-4.0-0.25","subject_id":"614cfb8cfd0d0bc4b4a4268e","study_id":"6197b3f67c2b5cd3b6d9596a","session_id":"6197b8899c799b47e0f3881d","condition":"full-information","relevant_dimensions":["antennae","legs"],"bee_group":{"antennae":"B","wings":"X","pattern":"X","legs":"M"},"action":"harvest","summary":"good-harvest","bonus":0.19999999999999998},{"rt":1268.4000000059605,"stimulus":"\n                    <p><b>Action: <em>harvest</em></b></p>\n                    <p>This is the bee that you just saw.</p>\n                    <img src=\"bees-with-color/bee-A2SF.svg\" width=\"200\">\n                    <p><span class=\"greenText\"><b>Successful harvest!</b></span><br>Your pay has increased by $0.02. Your bonus pay is now $0.20.</p>\n            ","response":0,"trial_type":"html-button-response","trial_index":62,"time_elapsed":629191,"internal_node_id":"0.0-4.0-1.25","subject_id":"614cfb8cfd0d0bc4b4a4268e","study_id":"6197b3f67c2b5cd3b6d9596a","session_id":"6197b8899c799b47e0f3881d","condition":"full-information","relevant_dimensions":["antennae","legs"],"bee_group":{"antennae":"B","wings":"X","pattern":"X","legs":"M"},"bonus":0.19999999999999998},{"rt":8898.29999999702,"stimulus":"bees-with-color/bee-B2DM.svg","response":0,"trial_type":"image-button-response","trial_index":63,"time_elapsed":638092,"internal_node_id":"0.0-4.0-0.26","subject_id":"614cfb8cfd0d0bc4b4a4268e","study_id":"6197b3f67c2b5cd3b6d9596a","session_id":"6197b8899c799b47e0f3881d","condition":"full-information","relevant_dimensions":["antennae","legs"],"bee_group":{"antennae":"B","wings":"X","pattern":"X","legs":"M"},"action":"harvest","summary":"bad-harvest","bonus":0.19999999999999998},{"rt":1574.4000000059605,"stimulus":"\n                    <p><b>Action: <em>harvest</em></b></p>\n                    <p>This is the bee that you just saw.</p>\n                    <img src=\"bees-with-color/bee-B2DM.svg\" width=\"200\">\n                    <p><span class=\"redText\">Bad choice, the bee was angry.</span><br><b>You have been stung!</b><br>Your pay has been decreased by $0.10. Your bonus pay is now $0.10.</p>\n            ","response":0,"trial_type":"html-button-response","trial_index":64,"time_elapsed":639670,"internal_node_id":"0.0-4.0-1.26","subject_id":"614cfb8cfd0d0bc4b4a4268e","study_id":"6197b3f67c2b5cd3b6d9596a","session_id":"6197b8899c799b47e0f3881d","condition":"full-information","relevant_dimensions":["antennae","legs"],"bee_group":{"antennae":"B","wings":"X","pattern":"X","legs":"M"},"bonus":0.19999999999999998},{"rt":1319.9000000059605,"stimulus":"bees-with-color/bee-A1SM.svg","response":0,"trial_type":"image-button-response","trial_index":65,"time_elapsed":641000,"internal_node_id":"0.0-4.0-0.27","subject_id":"614cfb8cfd0d0bc4b4a4268e","study_id":"6197b3f67c2b5cd3b6d9596a","session_id":"6197b8899c799b47e0f3881d","condition":"full-information","relevant_dimensions":["antennae","legs"],"bee_group":{"antennae":"B","wings":"X","pattern":"X","legs":"M"},"action":"harvest","summary":"good-harvest","bonus":0.19999999999999998},{"rt":1703.7999999970198,"stimulus":"\n                    <p><b>Action: <em>harvest</em></b></p>\n                    <p>This is the bee that you just saw.</p>\n                    <img src=\"bees-with-color/bee-A1SM.svg\" width=\"200\">\n                    <p><span class=\"greenText\"><b>Successful harvest!</b></span><br>Your pay has increased by $0.02. Your bonus pay is now $0.12.</p>\n            ","response":0,"trial_type":"html-button-response","trial_index":66,"time_elapsed":642707,"internal_node_id":"0.0-4.0-1.27","subject_id":"614cfb8cfd0d0bc4b4a4268e","study_id":"6197b3f67c2b5cd3b6d9596a","session_id":"6197b8899c799b47e0f3881d","condition":"full-information","relevant_dimensions":["antennae","legs"],"bee_group":{"antennae":"B","wings":"X","pattern":"X","legs":"M"},"bonus":0.19999999999999998},{"rt":746.2999999970198,"stimulus":"bees-with-color/bee-B2SF.svg","response":0,"trial_type":"image-button-response","trial_index":67,"time_elapsed":643456,"internal_node_id":"0.0-4.0-0.28","subject_id":"614cfb8cfd0d0bc4b4a4268e","study_id":"6197b3f67c2b5cd3b6d9596a","session_id":"6197b8899c799b47e0f3881d","condition":"full-information","relevant_dimensions":["antennae","legs"],"bee_group":{"antennae":"B","wings":"X","pattern":"X","legs":"M"},"action":"harvest","summary":"good-harvest","bonus":0.19999999999999998},{"rt":1030.6000000089407,"stimulus":"\n                    <p><b>Action: <em>harvest</em></b></p>\n                    <p>This is the bee that you just saw.</p>\n                    <img src=\"bees-with-color/bee-B2SF.svg\" width=\"200\">\n                    <p><span class=\"greenText\"><b>Successful harvest!</b></span><br>Your pay has increased by $0.02. Your bonus pay is now $0.14.</p>\n            ","response":0,"trial_type":"html-button-response","trial_index":68,"time_elapsed":644491,"internal_node_id":"0.0-4.0-1.28","subject_id":"614cfb8cfd0d0bc4b4a4268e","study_id":"6197b3f67c2b5cd3b6d9596a","session_id":"6197b8899c799b47e0f3881d","condition":"full-information","relevant_dimensions":["antennae","legs"],"bee_group":{"antennae":"B","wings":"X","pattern":"X","legs":"M"},"bonus":0.19999999999999998},{"rt":1151.5,"stimulus":"bees-with-color/bee-B1DM.svg","response":0,"trial_type":"image-button-response","trial_index":69,"time_elapsed":645645,"internal_node_id":"0.0-4.0-0.29","subject_id":"614cfb8cfd0d0bc4b4a4268e","study_id":"6197b3f67c2b5cd3b6d9596a","session_id":"6197b8899c799b47e0f3881d","condition":"full-information","relevant_dimensions":["antennae","legs"],"bee_group":{"antennae":"B","wings":"X","pattern":"X","legs":"M"},"action":"harvest","summary":"bad-harvest","bonus":0.19999999999999998},{"rt":1158.0999999940395,"stimulus":"\n                    <p><b>Action: <em>harvest</em></b></p>\n                    <p>This is the bee that you just saw.</p>\n                    <img src=\"bees-with-color/bee-B1DM.svg\" width=\"200\">\n                    <p><span class=\"redText\">Bad choice, the bee was angry.</span><br><b>You have been stung!</b><br>Your pay has been decreased by $0.10. Your bonus pay is now $0.04.</p>\n            ","response":0,"trial_type":"html-button-response","trial_index":70,"time_elapsed":646806,"internal_node_id":"0.0-4.0-1.29","subject_id":"614cfb8cfd0d0bc4b4a4268e","study_id":"6197b3f67c2b5cd3b6d9596a","session_id":"6197b8899c799b47e0f3881d","condition":"full-information","relevant_dimensions":["antennae","legs"],"bee_group":{"antennae":"B","wings":"X","pattern":"X","legs":"M"},"bonus":0.19999999999999998},{"rt":959.4000000059605,"stimulus":"bees-with-color/bee-A1SF.svg","response":0,"trial_type":"image-button-response","trial_index":71,"time_elapsed":647768,"internal_node_id":"0.0-4.0-0.30","subject_id":"614cfb8cfd0d0bc4b4a4268e","study_id":"6197b3f67c2b5cd3b6d9596a","session_id":"6197b8899c799b47e0f3881d","condition":"full-information","relevant_dimensions":["antennae","legs"],"bee_group":{"antennae":"B","wings":"X","pattern":"X","legs":"M"},"action":"harvest","summary":"good-harvest","bonus":0.19999999999999998},{"rt":1122.2999999970198,"stimulus":"\n                    <p><b>Action: <em>harvest</em></b></p>\n                    <p>This is the bee that you just saw.</p>\n                    <img src=\"bees-with-color/bee-A1SF.svg\" width=\"200\">\n                    <p><span class=\"greenText\"><b>Successful harvest!</b></span><br>Your pay has increased by $0.02. Your bonus pay is now $0.06.</p>\n            ","response":0,"trial_type":"html-button-response","trial_index":72,"time_elapsed":648894,"internal_node_id":"0.0-4.0-1.30","subject_id":"614cfb8cfd0d0bc4b4a4268e","study_id":"6197b3f67c2b5cd3b6d9596a","session_id":"6197b8899c799b47e0f3881d","condition":"full-information","relevant_dimensions":["antennae","legs"],"bee_group":{"antennae":"B","wings":"X","pattern":"X","legs":"M"},"bonus":0.19999999999999998},{"rt":10242.89999999106,"stimulus":"bees-with-color/bee-B1SF.svg","response":0,"trial_type":"image-button-response","trial_index":73,"time_elapsed":659139,"internal_node_id":"0.0-4.0-0.31","subject_id":"614cfb8cfd0d0bc4b4a4268e","study_id":"6197b3f67c2b5cd3b6d9596a","session_id":"6197b8899c799b47e0f3881d","condition":"full-information","relevant_dimensions":["antennae","legs"],"bee_group":{"antennae":"B","wings":"X","pattern":"X","legs":"M"},"action":"harvest","summary":"good-harvest","bonus":0.19999999999999998},{"rt":3864.0999999940395,"stimulus":"\n                    <p><b>Action: <em>harvest</em></b></p>\n                    <p>This is the bee that you just saw.</p>\n                    <img src=\"bees-with-color/bee-B1SF.svg\" width=\"200\">\n                    <p><span class=\"greenText\"><b>Successful harvest!</b></span><br>Your pay has increased by $0.02. Your bonus pay is now $0.08.</p>\n            ","response":0,"trial_type":"html-button-response","trial_index":74,"time_elapsed":663007,"internal_node_id":"0.0-4.0-1.31","subject_id":"614cfb8cfd0d0bc4b4a4268e","study_id":"6197b3f67c2b5cd3b6d9596a","session_id":"6197b8899c799b47e0f3881d","condition":"full-information","relevant_dimensions":["antennae","legs"],"bee_group":{"antennae":"B","wings":"X","pattern":"X","legs":"M"},"bonus":0.19999999999999998},{"rt":10158.40000000596,"stimulus":"bees-with-color/bee-A1DF.svg","response":0,"trial_type":"image-button-response","trial_index":75,"time_elapsed":673169,"internal_node_id":"0.0-4.0-0.32","subject_id":"614cfb8cfd0d0bc4b4a4268e","study_id":"6197b3f67c2b5cd3b6d9596a","session_id":"6197b8899c799b47e0f3881d","condition":"full-information","relevant_dimensions":["antennae","legs"],"bee_group":{"antennae":"B","wings":"X","pattern":"X","legs":"M"},"action":"harvest","summary":"good-harvest","bonus":0.19999999999999998},{"rt":1420,"stimulus":"\n                    <p><b>Action: <em>harvest</em></b></p>\n                    <p>This is the bee that you just saw.</p>\n                    <img src=\"bees-with-color/bee-A1DF.svg\" width=\"200\">\n                    <p><span class=\"greenText\"><b>Successful harvest!</b></span><br>Your pay has increased by $0.02. Your bonus pay is now $0.10.</p>\n            ","response":0,"trial_type":"html-button-response","trial_index":76,"time_elapsed":674592,"internal_node_id":"0.0-4.0-1.32","subject_id":"614cfb8cfd0d0bc4b4a4268e","study_id":"6197b3f67c2b5cd3b6d9596a","session_id":"6197b8899c799b47e0f3881d","condition":"full-information","relevant_dimensions":["antennae","legs"],"bee_group":{"antennae":"B","wings":"X","pattern":"X","legs":"M"},"bonus":0.19999999999999998},{"rt":4549,"stimulus":"bees-with-color/bee-B1DF.svg","response":1,"trial_type":"image-button-response","trial_index":77,"time_elapsed":679146,"internal_node_id":"0.0-4.0-0.33","subject_id":"614cfb8cfd0d0bc4b4a4268e","study_id":"6197b3f67c2b5cd3b6d9596a","session_id":"6197b8899c799b47e0f3881d","condition":"full-information","relevant_dimensions":["antennae","legs"],"bee_group":{"antennae":"B","wings":"X","pattern":"X","legs":"M"},"action":"avoid","summary":"bad-avoid","bonus":0.19999999999999998},{"rt":3072.0999999940395,"stimulus":"\n                    <p><b>Action: <em>avoid</em></b></p>\n                    <p>This is the bee that you just saw.</p>\n                    <img src=\"bees-with-color/bee-B1DF.svg\" width=\"200\">\n                    <p><span class=\"redText\">Bad choice,</span> the bee was friendly.<br>Your bonus pay is unchanged, and remains at $0.10.</p>\n            ","response":0,"trial_type":"html-button-response","trial_index":78,"time_elapsed":682222,"internal_node_id":"0.0-4.0-1.33","subject_id":"614cfb8cfd0d0bc4b4a4268e","study_id":"6197b3f67c2b5cd3b6d9596a","session_id":"6197b8899c799b47e0f3881d","condition":"full-information","relevant_dimensions":["antennae","legs"],"bee_group":{"antennae":"B","wings":"X","pattern":"X","legs":"M"},"bonus":0.19999999999999998},{"rt":1608.0999999940395,"stimulus":"bees-with-color/bee-A1SF.svg","response":1,"trial_type":"image-button-response","trial_index":79,"time_elapsed":683835,"internal_node_id":"0.0-4.0-0.34","subject_id":"614cfb8cfd0d0bc4b4a4268e","study_id":"6197b3f67c2b5cd3b6d9596a","session_id":"6197b8899c799b47e0f3881d","condition":"full-information","relevant_dimensions":["antennae","legs"],"bee_group":{"antennae":"B","wings":"X","pattern":"X","legs":"M"},"action":"avoid","summary":"bad-avoid","bonus":0.19999999999999998},{"rt":2753.7000000029802,"stimulus":"\n                    <p><b>Action: <em>avoid</em></b></p>\n                    <p>This is the bee that you just saw.</p>\n                    <img src=\"bees-with-color/bee-A1SF.svg\" width=\"200\">\n                    <p><span class=\"redText\">Bad choice,</span> the bee was friendly.<br>Your bonus pay is unchanged, and remains at $0.10.</p>\n            ","response":0,"trial_type":"html-button-response","trial_index":80,"time_elapsed":686591,"internal_node_id":"0.0-4.0-1.34","subject_id":"614cfb8cfd0d0bc4b4a4268e","study_id":"6197b3f67c2b5cd3b6d9596a","session_id":"6197b8899c799b47e0f3881d","condition":"full-information","relevant_dimensions":["antennae","legs"],"bee_group":{"antennae":"B","wings":"X","pattern":"X","legs":"M"},"bonus":0.19999999999999998},{"rt":2759.2000000029802,"stimulus":"bees-with-color/bee-A1SM.svg","response":1,"trial_type":"image-button-response","trial_index":81,"time_elapsed":689359,"internal_node_id":"0.0-4.0-0.35","subject_id":"614cfb8cfd0d0bc4b4a4268e","study_id":"6197b3f67c2b5cd3b6d9596a","session_id":"6197b8899c799b47e0f3881d","condition":"full-information","relevant_dimensions":["antennae","legs"],"bee_group":{"antennae":"B","wings":"X","pattern":"X","legs":"M"},"action":"avoid","summary":"bad-avoid","bonus":0.19999999999999998},{"rt":2253.2999999970198,"stimulus":"\n                    <p><b>Action: <em>avoid</em></b></p>\n                    <p>This is the bee that you just saw.</p>\n                    <img src=\"bees-with-color/bee-A1SM.svg\" width=\"200\">\n                    <p><span class=\"redText\">Bad choice,</span> the bee was friendly.<br>Your bonus pay is unchanged, and remains at $0.10.</p>\n            ","response":0,"trial_type":"html-button-response","trial_index":82,"time_elapsed":691615,"internal_node_id":"0.0-4.0-1.35","subject_id":"614cfb8cfd0d0bc4b4a4268e","study_id":"6197b3f67c2b5cd3b6d9596a","session_id":"6197b8899c799b47e0f3881d","condition":"full-information","relevant_dimensions":["antennae","legs"],"bee_group":{"antennae":"B","wings":"X","pattern":"X","legs":"M"},"bonus":0.19999999999999998},{"rt":2861.6000000089407,"stimulus":"bees-with-color/bee-A2SM.svg","response":1,"trial_type":"image-button-response","trial_index":83,"time_elapsed":694480,"internal_node_id":"0.0-4.0-0.36","subject_id":"614cfb8cfd0d0bc4b4a4268e","study_id":"6197b3f67c2b5cd3b6d9596a","session_id":"6197b8899c799b47e0f3881d","condition":"full-information","relevant_dimensions":["antennae","legs"],"bee_group":{"antennae":"B","wings":"X","pattern":"X","legs":"M"},"action":"avoid","summary":"bad-avoid","bonus":0.19999999999999998},{"rt":1153.2000000029802,"stimulus":"\n                    <p><b>Action: <em>avoid</em></b></p>\n                    <p>This is the bee that you just saw.</p>\n                    <img src=\"bees-with-color/bee-A2SM.svg\" width=\"200\">\n                    <p><span class=\"redText\">Bad choice,</span> the bee was friendly.<br>Your bonus pay is unchanged, and remains at $0.10.</p>\n            ","response":0,"trial_type":"html-button-response","trial_index":84,"time_elapsed":695635,"internal_node_id":"0.0-4.0-1.36","subject_id":"614cfb8cfd0d0bc4b4a4268e","study_id":"6197b3f67c2b5cd3b6d9596a","session_id":"6197b8899c799b47e0f3881d","condition":"full-information","relevant_dimensions":["antennae","legs"],"bee_group":{"antennae":"B","wings":"X","pattern":"X","legs":"M"},"bonus":0.19999999999999998},{"rt":1973.2000000029802,"stimulus":"bees-with-color/bee-B2SF.svg","response":0,"trial_type":"image-button-response","trial_index":85,"time_elapsed":697612,"internal_node_id":"0.0-4.0-0.37","subject_id":"614cfb8cfd0d0bc4b4a4268e","study_id":"6197b3f67c2b5cd3b6d9596a","session_id":"6197b8899c799b47e0f3881d","condition":"full-information","relevant_dimensions":["antennae","legs"],"bee_group":{"antennae":"B","wings":"X","pattern":"X","legs":"M"},"action":"harvest","summary":"good-harvest","bonus":0.19999999999999998},{"rt":1339.2999999970198,"stimulus":"\n                    <p><b>Action: <em>harvest</em></b></p>\n                    <p>This is the bee that you just saw.</p>\n                    <img src=\"bees-with-color/bee-B2SF.svg\" width=\"200\">\n                    <p><span class=\"greenText\"><b>Successful harvest!</b></span><br>Your pay has increased by $0.02. Your bonus pay is now $0.12.</p>\n            ","response":0,"trial_type":"html-button-response","trial_index":86,"time_elapsed":698954,"internal_node_id":"0.0-4.0-1.37","subject_id":"614cfb8cfd0d0bc4b4a4268e","study_id":"6197b3f67c2b5cd3b6d9596a","session_id":"6197b8899c799b47e0f3881d","condition":"full-information","relevant_dimensions":["antennae","legs"],"bee_group":{"antennae":"B","wings":"X","pattern":"X","legs":"M"},"bonus":0.19999999999999998},{"rt":1348,"stimulus":"bees-with-color/bee-B1SM.svg","response":0,"trial_type":"image-button-response","trial_index":87,"time_elapsed":700305,"internal_node_id":"0.0-4.0-0.38","subject_id":"614cfb8cfd0d0bc4b4a4268e","study_id":"6197b3f67c2b5cd3b6d9596a","session_id":"6197b8899c799b47e0f3881d","condition":"full-information","relevant_dimensions":["antennae","legs"],"bee_group":{"antennae":"B","wings":"X","pattern":"X","legs":"M"},"action":"harvest","summary":"bad-harvest","bonus":0.19999999999999998},{"rt":1062.699999988079,"stimulus":"\n                    <p><b>Action: <em>harvest</em></b></p>\n                    <p>This is the bee that you just saw.</p>\n                    <img src=\"bees-with-color/bee-B1SM.svg\" width=\"200\">\n                    <p><span class=\"redText\">Bad choice, the bee was angry.</span><br><b>You have been stung!</b><br>Your pay has been decreased by $0.10. Your bonus pay is now $0.02.</p>\n            ","response":0,"trial_type":"html-button-response","trial_index":88,"time_elapsed":701370,"internal_node_id":"0.0-4.0-1.38","subject_id":"614cfb8cfd0d0bc4b4a4268e","study_id":"6197b3f67c2b5cd3b6d9596a","session_id":"6197b8899c799b47e0f3881d","condition":"full-information","relevant_dimensions":["antennae","legs"],"bee_group":{"antennae":"B","wings":"X","pattern":"X","legs":"M"},"bonus":0.19999999999999998},{"rt":1529.8999999910593,"stimulus":"bees-with-color/bee-B2DM.svg","response":0,"trial_type":"image-button-response","trial_index":89,"time_elapsed":702903,"internal_node_id":"0.0-4.0-0.39","subject_id":"614cfb8cfd0d0bc4b4a4268e","study_id":"6197b3f67c2b5cd3b6d9596a","session_id":"6197b8899c799b47e0f3881d","condition":"full-information","relevant_dimensions":["antennae","legs"],"bee_group":{"antennae":"B","wings":"X","pattern":"X","legs":"M"},"action":"harvest","summary":"bad-harvest","bonus":0.19999999999999998},{"rt":1142.7999999970198,"stimulus":"\n                    <p><b>Action: <em>harvest</em></b></p>\n                    <p>This is the bee that you just saw.</p>\n                    <img src=\"bees-with-color/bee-B2DM.svg\" width=\"200\">\n                    <p><span class=\"redText\">Bad choice, the bee was angry.</span><br><b>You have been stung!</b><br>Your pay has been decreased by $0.10. Your bonus pay is now $0.00.</p>\n            ","response":0,"trial_type":"html-button-response","trial_index":90,"time_elapsed":704048,"internal_node_id":"0.0-4.0-1.39","subject_id":"614cfb8cfd0d0bc4b4a4268e","study_id":"6197b3f67c2b5cd3b6d9596a","session_id":"6197b8899c799b47e0f3881d","condition":"full-information","relevant_dimensions":["antennae","legs"],"bee_group":{"antennae":"B","wings":"X","pattern":"X","legs":"M"},"bonus":0.19999999999999998},{"rt":691.4000000059605,"stimulus":"bees-with-color/bee-B1DM.svg","response":0,"trial_type":"image-button-response","trial_index":91,"time_elapsed":704742,"internal_node_id":"0.0-4.0-0.40","subject_id":"614cfb8cfd0d0bc4b4a4268e","study_id":"6197b3f67c2b5cd3b6d9596a","session_id":"6197b8899c799b47e0f3881d","condition":"full-information","relevant_dimensions":["antennae","legs"],"bee_group":{"antennae":"B","wings":"X","pattern":"X","legs":"M"},"action":"harvest","summary":"bad-harvest","bonus":0.19999999999999998},{"rt":1542,"stimulus":"\n                    <p><b>Action: <em>harvest</em></b></p>\n                    <p>This is the bee that you just saw.</p>\n                    <img src=\"bees-with-color/bee-B1DM.svg\" width=\"200\">\n                    <p><span class=\"redText\">Bad choice, the bee was angry.</span><br><b>You have been stung!</b><br>Your pay has been decreased by $0.10. Your bonus pay is now $0.00.</p>\n            ","response":0,"trial_type":"html-button-response","trial_index":92,"time_elapsed":706287,"internal_node_id":"0.0-4.0-1.40","subject_id":"614cfb8cfd0d0bc4b4a4268e","study_id":"6197b3f67c2b5cd3b6d9596a","session_id":"6197b8899c799b47e0f3881d","condition":"full-information","relevant_dimensions":["antennae","legs"],"bee_group":{"antennae":"B","wings":"X","pattern":"X","legs":"M"},"bonus":0.19999999999999998},{"rt":982.7999999970198,"stimulus":"bees-with-color/bee-B2SM.svg","response":0,"trial_type":"image-button-response","trial_index":93,"time_elapsed":707273,"internal_node_id":"0.0-4.0-0.41","subject_id":"614cfb8cfd0d0bc4b4a4268e","study_id":"6197b3f67c2b5cd3b6d9596a","session_id":"6197b8899c799b47e0f3881d","condition":"full-information","relevant_dimensions":["antennae","legs"],"bee_group":{"antennae":"B","wings":"X","pattern":"X","legs":"M"},"action":"harvest","summary":"bad-harvest","bonus":0.19999999999999998},{"rt":1115.4000000059605,"stimulus":"\n                    <p><b>Action: <em>harvest</em></b></p>\n                    <p>This is the bee that you just saw.</p>\n                    <img src=\"bees-with-color/bee-B2SM.svg\" width=\"200\">\n                    <p><span class=\"redText\">Bad choice, the bee was angry.</span><br><b>You have been stung!</b><br>Your pay has been decreased by $0.10. Your bonus pay is now $0.00.</p>\n            ","response":0,"trial_type":"html-button-response","trial_index":94,"time_elapsed":708391,"internal_node_id":"0.0-4.0-1.41","subject_id":"614cfb8cfd0d0bc4b4a4268e","study_id":"6197b3f67c2b5cd3b6d9596a","session_id":"6197b8899c799b47e0f3881d","condition":"full-information","relevant_dimensions":["antennae","legs"],"bee_group":{"antennae":"B","wings":"X","pattern":"X","legs":"M"},"bonus":0.19999999999999998},{"rt":918.1000000089407,"stimulus":"bees-with-color/bee-A2DM.svg","response":1,"trial_type":"image-button-response","trial_index":95,"time_elapsed":709311,"internal_node_id":"0.0-4.0-0.42","subject_id":"614cfb8cfd0d0bc4b4a4268e","study_id":"6197b3f67c2b5cd3b6d9596a","session_id":"6197b8899c799b47e0f3881d","condition":"full-information","relevant_dimensions":["antennae","legs"],"bee_group":{"antennae":"B","wings":"X","pattern":"X","legs":"M"},"action":"avoid","summary":"bad-avoid","bonus":0.19999999999999998},{"rt":870.2000000029802,"stimulus":"\n                    <p><b>Action: <em>avoid</em></b></p>\n                    <p>This is the bee that you just saw.</p>\n                    <img src=\"bees-with-color/bee-A2DM.svg\" width=\"200\">\n                    <p><span class=\"redText\">Bad choice,</span> the bee was friendly.<br>Your bonus pay is unchanged, and remains at $0.00.</p>\n            ","response":0,"trial_type":"html-button-response","trial_index":96,"time_elapsed":710184,"internal_node_id":"0.0-4.0-1.42","subject_id":"614cfb8cfd0d0bc4b4a4268e","study_id":"6197b3f67c2b5cd3b6d9596a","session_id":"6197b8899c799b47e0f3881d","condition":"full-information","relevant_dimensions":["antennae","legs"],"bee_group":{"antennae":"B","wings":"X","pattern":"X","legs":"M"},"bonus":0.19999999999999998},{"rt":673.3999999910593,"stimulus":"bees-with-color/bee-A2SF.svg","response":0,"trial_type":"image-button-response","trial_index":97,"time_elapsed":710860,"internal_node_id":"0.0-4.0-0.43","subject_id":"614cfb8cfd0d0bc4b4a4268e","study_id":"6197b3f67c2b5cd3b6d9596a","session_id":"6197b8899c799b47e0f3881d","condition":"full-information","relevant_dimensions":["antennae","legs"],"bee_group":{"antennae":"B","wings":"X","pattern":"X","legs":"M"},"action":"harvest","summary":"good-harvest","bonus":0.19999999999999998},{"rt":1282.2999999970198,"stimulus":"\n                    <p><b>Action: <em>harvest</em></b></p>\n                    <p>This is the bee that you just saw.</p>\n                    <img src=\"bees-with-color/bee-A2SF.svg\" width=\"200\">\n                    <p><span class=\"greenText\"><b>Successful harvest!</b></span><br>Your pay has increased by $0.02. Your bonus pay is now $0.02.</p>\n            ","response":0,"trial_type":"html-button-response","trial_index":98,"time_elapsed":712146,"internal_node_id":"0.0-4.0-1.43","subject_id":"614cfb8cfd0d0bc4b4a4268e","study_id":"6197b3f67c2b5cd3b6d9596a","session_id":"6197b8899c799b47e0f3881d","condition":"full-information","relevant_dimensions":["antennae","legs"],"bee_group":{"antennae":"B","wings":"X","pattern":"X","legs":"M"},"bonus":0.19999999999999998},{"rt":914.4000000059605,"stimulus":"bees-with-color/bee-A1DM.svg","response":0,"trial_type":"image-button-response","trial_index":99,"time_elapsed":713063,"internal_node_id":"0.0-4.0-0.44","subject_id":"614cfb8cfd0d0bc4b4a4268e","study_id":"6197b3f67c2b5cd3b6d9596a","session_id":"6197b8899c799b47e0f3881d","condition":"full-information","relevant_dimensions":["antennae","legs"],"bee_group":{"antennae":"B","wings":"X","pattern":"X","legs":"M"},"action":"harvest","summary":"good-harvest","bonus":0.19999999999999998},{"rt":967.7000000029802,"stimulus":"\n                    <p><b>Action: <em>harvest</em></b></p>\n                    <p>This is the bee that you just saw.</p>\n                    <img src=\"bees-with-color/bee-A1DM.svg\" width=\"200\">\n                    <p><span class=\"greenText\"><b>Successful harvest!</b></span><br>Your pay has increased by $0.02. Your bonus pay is now $0.04.</p>\n            ","response":0,"trial_type":"html-button-response","trial_index":100,"time_elapsed":714034,"internal_node_id":"0.0-4.0-1.44","subject_id":"614cfb8cfd0d0bc4b4a4268e","study_id":"6197b3f67c2b5cd3b6d9596a","session_id":"6197b8899c799b47e0f3881d","condition":"full-information","relevant_dimensions":["antennae","legs"],"bee_group":{"antennae":"B","wings":"X","pattern":"X","legs":"M"},"bonus":0.19999999999999998},{"rt":778.2000000029802,"stimulus":"bees-with-color/bee-B1SF.svg","response":0,"trial_type":"image-button-response","trial_index":101,"time_elapsed":714815,"internal_node_id":"0.0-4.0-0.45","subject_id":"614cfb8cfd0d0bc4b4a4268e","study_id":"6197b3f67c2b5cd3b6d9596a","session_id":"6197b8899c799b47e0f3881d","condition":"full-information","relevant_dimensions":["antennae","legs"],"bee_group":{"antennae":"B","wings":"X","pattern":"X","legs":"M"},"action":"harvest","summary":"good-harvest","bonus":0.19999999999999998},{"rt":927.2999999970198,"stimulus":"\n                    <p><b>Action: <em>harvest</em></b></p>\n                    <p>This is the bee that you just saw.</p>\n                    <img src=\"bees-with-color/bee-B1SF.svg\" width=\"200\">\n                    <p><span class=\"greenText\"><b>Successful harvest!</b></span><br>Your pay has increased by $0.02. Your bonus pay is now $0.06.</p>\n            ","response":0,"trial_type":"html-button-response","trial_index":102,"time_elapsed":715745,"internal_node_id":"0.0-4.0-1.45","subject_id":"614cfb8cfd0d0bc4b4a4268e","study_id":"6197b3f67c2b5cd3b6d9596a","session_id":"6197b8899c799b47e0f3881d","condition":"full-information","relevant_dimensions":["antennae","legs"],"bee_group":{"antennae":"B","wings":"X","pattern":"X","legs":"M"},"bonus":0.19999999999999998},{"rt":8871.800000011921,"stimulus":"bees-with-color/bee-B2DF.svg","response":0,"trial_type":"image-button-response","trial_index":103,"time_elapsed":724620,"internal_node_id":"0.0-4.0-0.46","subject_id":"614cfb8cfd0d0bc4b4a4268e","study_id":"6197b3f67c2b5cd3b6d9596a","session_id":"6197b8899c799b47e0f3881d","condition":"full-information","relevant_dimensions":["antennae","legs"],"bee_group":{"antennae":"B","wings":"X","pattern":"X","legs":"M"},"action":"harvest","summary":"good-harvest","bonus":0.19999999999999998},{"rt":1646.5,"stimulus":"\n                    <p><b>Action: <em>harvest</em></b></p>\n                    <p>This is the bee that you just saw.</p>\n                    <img src=\"bees-with-color/bee-B2DF.svg\" width=\"200\">\n                    <p><span class=\"greenText\"><b>Successful harvest!</b></span><br>Your pay has increased by $0.02. Your bonus pay is now $0.08.</p>\n            ","response":0,"trial_type":"html-button-response","trial_index":104,"time_elapsed":726269,"internal_node_id":"0.0-4.0-1.46","subject_id":"614cfb8cfd0d0bc4b4a4268e","study_id":"6197b3f67c2b5cd3b6d9596a","session_id":"6197b8899c799b47e0f3881d","condition":"full-information","relevant_dimensions":["antennae","legs"],"bee_group":{"antennae":"B","wings":"X","pattern":"X","legs":"M"},"bonus":0.19999999999999998},{"rt":9117.89999999106,"stimulus":"bees-with-color/bee-A2DF.svg","response":1,"trial_type":"image-button-response","trial_index":105,"time_elapsed":735391,"internal_node_id":"0.0-4.0-0.47","subject_id":"614cfb8cfd0d0bc4b4a4268e","study_id":"6197b3f67c2b5cd3b6d9596a","session_id":"6197b8899c799b47e0f3881d","condition":"full-information","relevant_dimensions":["antennae","legs"],"bee_group":{"antennae":"B","wings":"X","pattern":"X","legs":"M"},"action":"avoid","summary":"bad-avoid","bonus":0.19999999999999998},{"rt":1339.2999999970198,"stimulus":"\n                    <p><b>Action: <em>avoid</em></b></p>\n                    <p>This is the bee that you just saw.</p>\n                    <img src=\"bees-with-color/bee-A2DF.svg\" width=\"200\">\n                    <p><span class=\"redText\">Bad choice,</span> the bee was friendly.<br>Your bonus pay is unchanged, and remains at $0.08.</p>\n            ","response":0,"trial_type":"html-button-response","trial_index":106,"time_elapsed":736733,"internal_node_id":"0.0-4.0-1.47","subject_id":"614cfb8cfd0d0bc4b4a4268e","study_id":"6197b3f67c2b5cd3b6d9596a","session_id":"6197b8899c799b47e0f3881d","condition":"full-information","relevant_dimensions":["antennae","legs"],"bee_group":{"antennae":"B","wings":"X","pattern":"X","legs":"M"},"bonus":0.19999999999999998},{"rt":2441.9000000059605,"stimulus":"bees-with-color/bee-B1SM.svg","response":0,"trial_type":"image-button-response","trial_index":107,"time_elapsed":739179,"internal_node_id":"0.0-4.0-0.48","subject_id":"614cfb8cfd0d0bc4b4a4268e","study_id":"6197b3f67c2b5cd3b6d9596a","session_id":"6197b8899c799b47e0f3881d","condition":"full-information","relevant_dimensions":["antennae","legs"],"bee_group":{"antennae":"B","wings":"X","pattern":"X","legs":"M"},"action":"harvest","summary":"bad-harvest","bonus":0.19999999999999998},{"rt":1201,"stimulus":"\n                    <p><b>Action: <em>harvest</em></b></p>\n                    <p>This is the bee that you just saw.</p>\n                    <img src=\"bees-with-color/bee-B1SM.svg\" width=\"200\">\n                    <p><span class=\"redText\">Bad choice, the bee was angry.</span><br><b>You have been stung!</b><br>Your pay has been decreased by $0.10. Your bonus pay is now $0.00.</p>\n            ","response":0,"trial_type":"html-button-response","trial_index":108,"time_elapsed":740383,"internal_node_id":"0.0-4.0-1.48","subject_id":"614cfb8cfd0d0bc4b4a4268e","study_id":"6197b3f67c2b5cd3b6d9596a","session_id":"6197b8899c799b47e0f3881d","condition":"full-information","relevant_dimensions":["antennae","legs"],"bee_group":{"antennae":"B","wings":"X","pattern":"X","legs":"M"},"bonus":0.19999999999999998},{"rt":2211.5,"stimulus":"bees-with-color/bee-B1DM.svg","response":0,"trial_type":"image-button-response","trial_index":109,"time_elapsed":742598,"internal_node_id":"0.0-4.0-0.49","subject_id":"614cfb8cfd0d0bc4b4a4268e","study_id":"6197b3f67c2b5cd3b6d9596a","session_id":"6197b8899c799b47e0f3881d","condition":"full-information","relevant_dimensions":["antennae","legs"],"bee_group":{"antennae":"B","wings":"X","pattern":"X","legs":"M"},"action":"harvest","summary":"bad-harvest","bonus":0.19999999999999998},{"rt":1096.300000011921,"stimulus":"\n                    <p><b>Action: <em>harvest</em></b></p>\n                    <p>This is the bee that you just saw.</p>\n                    <img src=\"bees-with-color/bee-B1DM.svg\" width=\"200\">\n                    <p><span class=\"redText\">Bad choice, the bee was angry.</span><br><b>You have been stung!</b><br>Your pay has been decreased by $0.10. Your bonus pay is now $0.00.</p>\n            ","response":0,"trial_type":"html-button-response","trial_index":110,"time_elapsed":743698,"internal_node_id":"0.0-4.0-1.49","subject_id":"614cfb8cfd0d0bc4b4a4268e","study_id":"6197b3f67c2b5cd3b6d9596a","session_id":"6197b8899c799b47e0f3881d","condition":"full-information","relevant_dimensions":["antennae","legs"],"bee_group":{"antennae":"B","wings":"X","pattern":"X","legs":"M"},"bonus":0.19999999999999998},{"rt":925.2000000029802,"stimulus":"bees-with-color/bee-B2DF.svg","response":1,"trial_type":"image-button-response","trial_index":111,"time_elapsed":744627,"internal_node_id":"0.0-4.0-0.50","subject_id":"614cfb8cfd0d0bc4b4a4268e","study_id":"6197b3f67c2b5cd3b6d9596a","session_id":"6197b8899c799b47e0f3881d","condition":"full-information","relevant_dimensions":["antennae","legs"],"bee_group":{"antennae":"B","wings":"X","pattern":"X","legs":"M"},"action":"avoid","summary":"bad-avoid","bonus":0.19999999999999998},{"rt":1280.7000000029802,"stimulus":"\n                    <p><b>Action: <em>avoid</em></b></p>\n                    <p>This is the bee that you just saw.</p>\n                    <img src=\"bees-with-color/bee-B2DF.svg\" width=\"200\">\n                    <p><span class=\"redText\">Bad choice,</span> the bee was friendly.<br>Your bonus pay is unchanged, and remains at $0.00.</p>\n            ","response":0,"trial_type":"html-button-response","trial_index":112,"time_elapsed":745911,"internal_node_id":"0.0-4.0-1.50","subject_id":"614cfb8cfd0d0bc4b4a4268e","study_id":"6197b3f67c2b5cd3b6d9596a","session_id":"6197b8899c799b47e0f3881d","condition":"full-information","relevant_dimensions":["antennae","legs"],"bee_group":{"antennae":"B","wings":"X","pattern":"X","legs":"M"},"bonus":0.19999999999999998},{"rt":672.0999999940395,"stimulus":"bees-with-color/bee-A2DF.svg","response":0,"trial_type":"image-button-response","trial_index":113,"time_elapsed":746586,"internal_node_id":"0.0-4.0-0.51","subject_id":"614cfb8cfd0d0bc4b4a4268e","study_id":"6197b3f67c2b5cd3b6d9596a","session_id":"6197b8899c799b47e0f3881d","condition":"full-information","relevant_dimensions":["antennae","legs"],"bee_group":{"antennae":"B","wings":"X","pattern":"X","legs":"M"},"action":"harvest","summary":"good-harvest","bonus":0.19999999999999998},{"rt":1755,"stimulus":"\n                    <p><b>Action: <em>harvest</em></b></p>\n                    <p>This is the bee that you just saw.</p>\n                    <img src=\"bees-with-color/bee-A2DF.svg\" width=\"200\">\n                    <p><span class=\"greenText\"><b>Successful harvest!</b></span><br>Your pay has increased by $0.02. Your bonus pay is now $0.02.</p>\n            ","response":0,"trial_type":"html-button-response","trial_index":114,"time_elapsed":748345,"internal_node_id":"0.0-4.0-1.51","subject_id":"614cfb8cfd0d0bc4b4a4268e","study_id":"6197b3f67c2b5cd3b6d9596a","session_id":"6197b8899c799b47e0f3881d","condition":"full-information","relevant_dimensions":["antennae","legs"],"bee_group":{"antennae":"B","wings":"X","pattern":"X","legs":"M"},"bonus":0.19999999999999998},{"rt":4316.79999999702,"stimulus":"bees-with-color/bee-A1DM.svg","response":0,"trial_type":"image-button-response","trial_index":115,"time_elapsed":752665,"internal_node_id":"0.0-4.0-0.52","subject_id":"614cfb8cfd0d0bc4b4a4268e","study_id":"6197b3f67c2b5cd3b6d9596a","session_id":"6197b8899c799b47e0f3881d","condition":"full-information","relevant_dimensions":["antennae","legs"],"bee_group":{"antennae":"B","wings":"X","pattern":"X","legs":"M"},"action":"harvest","summary":"good-harvest","bonus":0.19999999999999998},{"rt":1056.4000000059605,"stimulus":"\n                    <p><b>Action: <em>harvest</em></b></p>\n                    <p>This is the bee that you just saw.</p>\n                    <img src=\"bees-with-color/bee-A1DM.svg\" width=\"200\">\n                    <p><span class=\"greenText\"><b>Successful harvest!</b></span><br>Your pay has increased by $0.02. Your bonus pay is now $0.04.</p>\n            ","response":0,"trial_type":"html-button-response","trial_index":116,"time_elapsed":753725,"internal_node_id":"0.0-4.0-1.52","subject_id":"614cfb8cfd0d0bc4b4a4268e","study_id":"6197b3f67c2b5cd3b6d9596a","session_id":"6197b8899c799b47e0f3881d","condition":"full-information","relevant_dimensions":["antennae","legs"],"bee_group":{"antennae":"B","wings":"X","pattern":"X","legs":"M"},"bonus":0.19999999999999998},{"rt":15994.300000011921,"stimulus":"bees-with-color/bee-A2SM.svg","response":0,"trial_type":"image-button-response","trial_index":117,"time_elapsed":769722,"internal_node_id":"0.0-4.0-0.53","subject_id":"614cfb8cfd0d0bc4b4a4268e","study_id":"6197b3f67c2b5cd3b6d9596a","session_id":"6197b8899c799b47e0f3881d","condition":"full-information","relevant_dimensions":["antennae","legs"],"bee_group":{"antennae":"B","wings":"X","pattern":"X","legs":"M"},"action":"harvest","summary":"good-harvest","bonus":0.19999999999999998},{"rt":3907.7999999970198,"stimulus":"\n                    <p><b>Action: <em>harvest</em></b></p>\n                    <p>This is the bee that you just saw.</p>\n                    <img src=\"bees-with-color/bee-A2SM.svg\" width=\"200\">\n                    <p><span class=\"greenText\"><b>Successful harvest!</b></span><br>Your pay has increased by $0.02. Your bonus pay is now $0.06.</p>\n            ","response":0,"trial_type":"html-button-response","trial_index":118,"time_elapsed":773633,"internal_node_id":"0.0-4.0-1.53","subject_id":"614cfb8cfd0d0bc4b4a4268e","study_id":"6197b3f67c2b5cd3b6d9596a","session_id":"6197b8899c799b47e0f3881d","condition":"full-information","relevant_dimensions":["antennae","legs"],"bee_group":{"antennae":"B","wings":"X","pattern":"X","legs":"M"},"bonus":0.19999999999999998},{"rt":2727.7000000029802,"stimulus":"bees-with-color/bee-A2DM.svg","response":0,"trial_type":"image-button-response","trial_index":119,"time_elapsed":776364,"internal_node_id":"0.0-4.0-0.54","subject_id":"614cfb8cfd0d0bc4b4a4268e","study_id":"6197b3f67c2b5cd3b6d9596a","session_id":"6197b8899c799b47e0f3881d","condition":"full-information","relevant_dimensions":["antennae","legs"],"bee_group":{"antennae":"B","wings":"X","pattern":"X","legs":"M"},"action":"harvest","summary":"good-harvest","bonus":0.19999999999999998},{"rt":1445.800000011921,"stimulus":"\n                    <p><b>Action: <em>harvest</em></b></p>\n                    <p>This is the bee that you just saw.</p>\n                    <img src=\"bees-with-color/bee-A2DM.svg\" width=\"200\">\n                    <p><span class=\"greenText\"><b>Successful harvest!</b></span><br>Your pay has increased by $0.02. Your bonus pay is now $0.08.</p>\n            ","response":0,"trial_type":"html-button-response","trial_index":120,"time_elapsed":777813,"internal_node_id":"0.0-4.0-1.54","subject_id":"614cfb8cfd0d0bc4b4a4268e","study_id":"6197b3f67c2b5cd3b6d9596a","session_id":"6197b8899c799b47e0f3881d","condition":"full-information","relevant_dimensions":["antennae","legs"],"bee_group":{"antennae":"B","wings":"X","pattern":"X","legs":"M"},"bonus":0.19999999999999998},{"rt":2704.3999999910593,"stimulus":"bees-with-color/bee-A2SF.svg","response":0,"trial_type":"image-button-response","trial_index":121,"time_elapsed":780521,"internal_node_id":"0.0-4.0-0.55","subject_id":"614cfb8cfd0d0bc4b4a4268e","study_id":"6197b3f67c2b5cd3b6d9596a","session_id":"6197b8899c799b47e0f3881d","condition":"full-information","relevant_dimensions":["antennae","legs"],"bee_group":{"antennae":"B","wings":"X","pattern":"X","legs":"M"},"action":"harvest","summary":"good-harvest","bonus":0.19999999999999998},{"rt":1423.6000000089407,"stimulus":"\n                    <p><b>Action: <em>harvest</em></b></p>\n                    <p>This is the bee that you just saw.</p>\n                    <img src=\"bees-with-color/bee-A2SF.svg\" width=\"200\">\n                    <p><span class=\"greenText\"><b>Successful harvest!</b></span><br>Your pay has increased by $0.02. Your bonus pay is now $0.10.</p>\n            ","response":0,"trial_type":"html-button-response","trial_index":122,"time_elapsed":781947,"internal_node_id":"0.0-4.0-1.55","subject_id":"614cfb8cfd0d0bc4b4a4268e","study_id":"6197b3f67c2b5cd3b6d9596a","session_id":"6197b8899c799b47e0f3881d","condition":"full-information","relevant_dimensions":["antennae","legs"],"bee_group":{"antennae":"B","wings":"X","pattern":"X","legs":"M"},"bonus":0.19999999999999998},{"rt":1650.5,"stimulus":"bees-with-color/bee-A1SF.svg","response":1,"trial_type":"image-button-response","trial_index":123,"time_elapsed":783601,"internal_node_id":"0.0-4.0-0.56","subject_id":"614cfb8cfd0d0bc4b4a4268e","study_id":"6197b3f67c2b5cd3b6d9596a","session_id":"6197b8899c799b47e0f3881d","condition":"full-information","relevant_dimensions":["antennae","legs"],"bee_group":{"antennae":"B","wings":"X","pattern":"X","legs":"M"},"action":"avoid","summary":"bad-avoid","bonus":0.19999999999999998},{"rt":1627.5999999940395,"stimulus":"\n                    <p><b>Action: <em>avoid</em></b></p>\n                    <p>This is the bee that you just saw.</p>\n                    <img src=\"bees-with-color/bee-A1SF.svg\" width=\"200\">\n                    <p><span class=\"redText\">Bad choice,</span> the bee was friendly.<br>Your bonus pay is unchanged, and remains at $0.10.</p>\n            ","response":0,"trial_type":"html-button-response","trial_index":124,"time_elapsed":785230,"internal_node_id":"0.0-4.0-1.56","subject_id":"614cfb8cfd0d0bc4b4a4268e","study_id":"6197b3f67c2b5cd3b6d9596a","session_id":"6197b8899c799b47e0f3881d","condition":"full-information","relevant_dimensions":["antennae","legs"],"bee_group":{"antennae":"B","wings":"X","pattern":"X","legs":"M"},"bonus":0.19999999999999998},{"rt":1997.7999999970198,"stimulus":"bees-with-color/bee-B2DM.svg","response":1,"trial_type":"image-button-response","trial_index":125,"time_elapsed":787230,"internal_node_id":"0.0-4.0-0.57","subject_id":"614cfb8cfd0d0bc4b4a4268e","study_id":"6197b3f67c2b5cd3b6d9596a","session_id":"6197b8899c799b47e0f3881d","condition":"full-information","relevant_dimensions":["antennae","legs"],"bee_group":{"antennae":"B","wings":"X","pattern":"X","legs":"M"},"action":"avoid","summary":"good-avoid","bonus":0.19999999999999998},{"rt":5292,"stimulus":"\n                    <p><b>Action: <em>avoid</em></b></p>\n                    <p>This is the bee that you just saw.</p>\n                    <img src=\"bees-with-color/bee-B2DM.svg\" width=\"200\">\n                    <p><span class=\"greenText\">Good choice!</span>  This bee would have stung you.<br>Your bonus pay is unchanged, and remains at $0.10.</p>\n            ","response":0,"trial_type":"html-button-response","trial_index":126,"time_elapsed":792525,"internal_node_id":"0.0-4.0-1.57","subject_id":"614cfb8cfd0d0bc4b4a4268e","study_id":"6197b3f67c2b5cd3b6d9596a","session_id":"6197b8899c799b47e0f3881d","condition":"full-information","relevant_dimensions":["antennae","legs"],"bee_group":{"antennae":"B","wings":"X","pattern":"X","legs":"M"},"bonus":0.19999999999999998},{"rt":12210.300000011921,"stimulus":"bees-with-color/bee-B1DF.svg","response":0,"trial_type":"image-button-response","trial_index":127,"time_elapsed":804737,"internal_node_id":"0.0-4.0-0.58","subject_id":"614cfb8cfd0d0bc4b4a4268e","study_id":"6197b3f67c2b5cd3b6d9596a","session_id":"6197b8899c799b47e0f3881d","condition":"full-information","relevant_dimensions":["antennae","legs"],"bee_group":{"antennae":"B","wings":"X","pattern":"X","legs":"M"},"action":"harvest","summary":"good-harvest","bonus":0.19999999999999998},{"rt":1771.2000000029802,"stimulus":"\n                    <p><b>Action: <em>harvest</em></b></p>\n                    <p>This is the bee that you just saw.</p>\n                    <img src=\"bees-with-color/bee-B1DF.svg\" width=\"200\">\n                    <p><span class=\"greenText\"><b>Successful harvest!</b></span><br>Your pay has increased by $0.02. Your bonus pay is now $0.12.</p>\n            ","response":0,"trial_type":"html-button-response","trial_index":128,"time_elapsed":806512,"internal_node_id":"0.0-4.0-1.58","subject_id":"614cfb8cfd0d0bc4b4a4268e","study_id":"6197b3f67c2b5cd3b6d9596a","session_id":"6197b8899c799b47e0f3881d","condition":"full-information","relevant_dimensions":["antennae","legs"],"bee_group":{"antennae":"B","wings":"X","pattern":"X","legs":"M"},"bonus":0.19999999999999998},{"rt":21705.29999999702,"stimulus":"bees-with-color/bee-B2SF.svg","response":1,"trial_type":"image-button-response","trial_index":129,"time_elapsed":828220,"internal_node_id":"0.0-4.0-0.59","subject_id":"614cfb8cfd0d0bc4b4a4268e","study_id":"6197b3f67c2b5cd3b6d9596a","session_id":"6197b8899c799b47e0f3881d","condition":"full-information","relevant_dimensions":["antennae","legs"],"bee_group":{"antennae":"B","wings":"X","pattern":"X","legs":"M"},"action":"avoid","summary":"bad-avoid","bonus":0.19999999999999998},{"rt":1102.5,"stimulus":"\n                    <p><b>Action: <em>avoid</em></b></p>\n                    <p>This is the bee that you just saw.</p>\n                    <img src=\"bees-with-color/bee-B2SF.svg\" width=\"200\">\n                    <p><span class=\"redText\">Bad choice,</span> the bee was friendly.<br>Your bonus pay is unchanged, and remains at $0.12.</p>\n            ","response":0,"trial_type":"html-button-response","trial_index":130,"time_elapsed":829325,"internal_node_id":"0.0-4.0-1.59","subject_id":"614cfb8cfd0d0bc4b4a4268e","study_id":"6197b3f67c2b5cd3b6d9596a","session_id":"6197b8899c799b47e0f3881d","condition":"full-information","relevant_dimensions":["antennae","legs"],"bee_group":{"antennae":"B","wings":"X","pattern":"X","legs":"M"},"bonus":0.19999999999999998},{"rt":3145,"stimulus":"bees-with-color/bee-B2SM.svg","response":1,"trial_type":"image-button-response","trial_index":131,"time_elapsed":832473,"internal_node_id":"0.0-4.0-0.60","subject_id":"614cfb8cfd0d0bc4b4a4268e","study_id":"6197b3f67c2b5cd3b6d9596a","session_id":"6197b8899c799b47e0f3881d","condition":"full-information","relevant_dimensions":["antennae","legs"],"bee_group":{"antennae":"B","wings":"X","pattern":"X","legs":"M"},"action":"avoid","summary":"good-avoid","bonus":0.19999999999999998},{"rt":2177.2000000029802,"stimulus":"\n                    <p><b>Action: <em>avoid</em></b></p>\n                    <p>This is the bee that you just saw.</p>\n                    <img src=\"bees-with-color/bee-B2SM.svg\" width=\"200\">\n                    <p><span class=\"greenText\">Good choice!</span>  This bee would have stung you.<br>Your bonus pay is unchanged, and remains at $0.12.</p>\n            ","response":0,"trial_type":"html-button-response","trial_index":132,"time_elapsed":834653,"internal_node_id":"0.0-4.0-1.60","subject_id":"614cfb8cfd0d0bc4b4a4268e","study_id":"6197b3f67c2b5cd3b6d9596a","session_id":"6197b8899c799b47e0f3881d","condition":"full-information","relevant_dimensions":["antennae","legs"],"bee_group":{"antennae":"B","wings":"X","pattern":"X","legs":"M"},"bonus":0.19999999999999998},{"rt":20658.5,"stimulus":"bees-with-color/bee-B1SF.svg","response":0,"trial_type":"image-button-response","trial_index":133,"time_elapsed":855315,"internal_node_id":"0.0-4.0-0.61","subject_id":"614cfb8cfd0d0bc4b4a4268e","study_id":"6197b3f67c2b5cd3b6d9596a","session_id":"6197b8899c799b47e0f3881d","condition":"full-information","relevant_dimensions":["antennae","legs"],"bee_group":{"antennae":"B","wings":"X","pattern":"X","legs":"M"},"action":"harvest","summary":"good-harvest","bonus":0.19999999999999998},{"rt":1796.5,"stimulus":"\n                    <p><b>Action: <em>harvest</em></b></p>\n                    <p>This is the bee that you just saw.</p>\n                    <img src=\"bees-with-color/bee-B1SF.svg\" width=\"200\">\n                    <p><span class=\"greenText\"><b>Successful harvest!</b></span><br>Your pay has increased by $0.02. Your bonus pay is now $0.14.</p>\n            ","response":0,"trial_type":"html-button-response","trial_index":134,"time_elapsed":857115,"internal_node_id":"0.0-4.0-1.61","subject_id":"614cfb8cfd0d0bc4b4a4268e","study_id":"6197b3f67c2b5cd3b6d9596a","session_id":"6197b8899c799b47e0f3881d","condition":"full-information","relevant_dimensions":["antennae","legs"],"bee_group":{"antennae":"B","wings":"X","pattern":"X","legs":"M"},"bonus":0.19999999999999998},{"rt":14663,"stimulus":"bees-with-color/bee-A1SM.svg","response":0,"trial_type":"image-button-response","trial_index":135,"time_elapsed":871781,"internal_node_id":"0.0-4.0-0.62","subject_id":"614cfb8cfd0d0bc4b4a4268e","study_id":"6197b3f67c2b5cd3b6d9596a","session_id":"6197b8899c799b47e0f3881d","condition":"full-information","relevant_dimensions":["antennae","legs"],"bee_group":{"antennae":"B","wings":"X","pattern":"X","legs":"M"},"action":"harvest","summary":"good-harvest","bonus":0.19999999999999998},{"rt":1828.1000000089407,"stimulus":"\n                    <p><b>Action: <em>harvest</em></b></p>\n                    <p>This is the bee that you just saw.</p>\n                    <img src=\"bees-with-color/bee-A1SM.svg\" width=\"200\">\n                    <p><span class=\"greenText\"><b>Successful harvest!</b></span><br>Your pay has increased by $0.02. Your bonus pay is now $0.16.</p>\n            ","response":0,"trial_type":"html-button-response","trial_index":136,"time_elapsed":873612,"internal_node_id":"0.0-4.0-1.62","subject_id":"614cfb8cfd0d0bc4b4a4268e","study_id":"6197b3f67c2b5cd3b6d9596a","session_id":"6197b8899c799b47e0f3881d","condition":"full-information","relevant_dimensions":["antennae","legs"],"bee_group":{"antennae":"B","wings":"X","pattern":"X","legs":"M"},"bonus":0.19999999999999998},{"rt":15776.09999999404,"stimulus":"bees-with-color/bee-A1DF.svg","response":0,"trial_type":"image-button-response","trial_index":137,"time_elapsed":889392,"internal_node_id":"0.0-4.0-0.63","subject_id":"614cfb8cfd0d0bc4b4a4268e","study_id":"6197b3f67c2b5cd3b6d9596a","session_id":"6197b8899c799b47e0f3881d","condition":"full-information","relevant_dimensions":["antennae","legs"],"bee_group":{"antennae":"B","wings":"X","pattern":"X","legs":"M"},"action":"harvest","summary":"good-harvest","bonus":0.19999999999999998},{"rt":5635.29999999702,"stimulus":"\n                    <p><b>Action: <em>harvest</em></b></p>\n                    <p>This is the bee that you just saw.</p>\n                    <img src=\"bees-with-color/bee-A1DF.svg\" width=\"200\">\n                    <p><span class=\"greenText\"><b>Successful harvest!</b></span><br>Your pay has increased by $0.02. Your bonus pay is now $0.18.</p>\n            ","response":0,"trial_type":"html-button-response","trial_index":138,"time_elapsed":895030,"internal_node_id":"0.0-4.0-1.63","subject_id":"614cfb8cfd0d0bc4b4a4268e","study_id":"6197b3f67c2b5cd3b6d9596a","session_id":"6197b8899c799b47e0f3881d","condition":"full-information","relevant_dimensions":["antennae","legs"],"bee_group":{"antennae":"B","wings":"X","pattern":"X","legs":"M"},"bonus":0.19999999999999998},{"rt":10955.10000000894,"stimulus":"You have completed the first part of this experiment.<br><br>You will now begin a shorter second part, in which you will receive no feedback.<br>The same rules regarding bonus pay apply.<br><br>Press any key to begin.","response":" ","trial_type":"html-keyboard-response","trial_index":139,"time_elapsed":905988,"internal_node_id":"0.0-5.0","subject_id":"614cfb8cfd0d0bc4b4a4268e","study_id":"6197b3f67c2b5cd3b6d9596a","session_id":"6197b8899c799b47e0f3881d","condition":"full-information","relevant_dimensions":["antennae","legs"],"bee_group":{"antennae":"B","wings":"X","pattern":"X","legs":"M"},"bonus":0.19999999999999998},{"rt":17217.79999999702,"stimulus":"bees-with-color/bee-A2SM.svg","response":0,"trial_type":"image-button-response","trial_index":140,"time_elapsed":923221,"internal_node_id":"0.0-6.0-0.0","subject_id":"614cfb8cfd0d0bc4b4a4268e","study_id":"6197b3f67c2b5cd3b6d9596a","session_id":"6197b8899c799b47e0f3881d","condition":"full-information","relevant_dimensions":["antennae","legs"],"bee_group":{"antennae":"B","wings":"X","pattern":"X","legs":"M"},"bonus":0.19999999999999998},{"rt":17641,"stimulus":"bees-with-color/bee-A1SM.svg","response":0,"trial_type":"image-button-response","trial_index":141,"time_elapsed":940867,"internal_node_id":"0.0-6.0-0.1","subject_id":"614cfb8cfd0d0bc4b4a4268e","study_id":"6197b3f67c2b5cd3b6d9596a","session_id":"6197b8899c799b47e0f3881d","condition":"full-information","relevant_dimensions":["antennae","legs"],"bee_group":{"antennae":"B","wings":"X","pattern":"X","legs":"M"},"bonus":0.19999999999999998},{"rt":21799.70000000298,"stimulus":"bees-with-color/bee-B1DF.svg","response":1,"trial_type":"image-button-response","trial_index":142,"time_elapsed":962673,"internal_node_id":"0.0-6.0-0.2","subject_id":"614cfb8cfd0d0bc4b4a4268e","study_id":"6197b3f67c2b5cd3b6d9596a","session_id":"6197b8899c799b47e0f3881d","condition":"full-information","relevant_dimensions":["antennae","legs"],"bee_group":{"antennae":"B","wings":"X","pattern":"X","legs":"M"},"bonus":0.19999999999999998},{"rt":1410.5,"stimulus":"bees-with-color/bee-B2SM.svg","response":1,"trial_type":"image-button-response","trial_index":143,"time_elapsed":964091,"internal_node_id":"0.0-6.0-0.3","subject_id":"614cfb8cfd0d0bc4b4a4268e","study_id":"6197b3f67c2b5cd3b6d9596a","session_id":"6197b8899c799b47e0f3881d","condition":"full-information","relevant_dimensions":["antennae","legs"],"bee_group":{"antennae":"B","wings":"X","pattern":"X","legs":"M"},"bonus":0.19999999999999998},{"rt":2460.5999999940395,"stimulus":"bees-with-color/bee-B1DM.svg","response":1,"trial_type":"image-button-response","trial_index":144,"time_elapsed":966559,"internal_node_id":"0.0-6.0-0.4","subject_id":"614cfb8cfd0d0bc4b4a4268e","study_id":"6197b3f67c2b5cd3b6d9596a","session_id":"6197b8899c799b47e0f3881d","condition":"full-information","relevant_dimensions":["antennae","legs"],"bee_group":{"antennae":"B","wings":"X","pattern":"X","legs":"M"},"bonus":0.19999999999999998},{"rt":766.7999999970198,"stimulus":"bees-with-color/bee-A1SF.svg","response":0,"trial_type":"image-button-response","trial_index":145,"time_elapsed":967332,"internal_node_id":"0.0-6.0-0.5","subject_id":"614cfb8cfd0d0bc4b4a4268e","study_id":"6197b3f67c2b5cd3b6d9596a","session_id":"6197b8899c799b47e0f3881d","condition":"full-information","relevant_dimensions":["antennae","legs"],"bee_group":{"antennae":"B","wings":"X","pattern":"X","legs":"M"},"bonus":0.19999999999999998},{"rt":27517.29999999702,"stimulus":"bees-with-color/bee-A1DM.svg","response":1,"trial_type":"image-button-response","trial_index":146,"time_elapsed":994871,"internal_node_id":"0.0-6.0-0.6","subject_id":"614cfb8cfd0d0bc4b4a4268e","study_id":"6197b3f67c2b5cd3b6d9596a","session_id":"6197b8899c799b47e0f3881d","condition":"full-information","relevant_dimensions":["antennae","legs"],"bee_group":{"antennae":"B","wings":"X","pattern":"X","legs":"M"},"bonus":0.19999999999999998},{"rt":1718.2999999970198,"stimulus":"bees-with-color/bee-A2DM.svg","response":0,"trial_type":"image-button-response","trial_index":147,"time_elapsed":996596,"internal_node_id":"0.0-6.0-0.7","subject_id":"614cfb8cfd0d0bc4b4a4268e","study_id":"6197b3f67c2b5cd3b6d9596a","session_id":"6197b8899c799b47e0f3881d","condition":"full-information","relevant_dimensions":["antennae","legs"],"bee_group":{"antennae":"B","wings":"X","pattern":"X","legs":"M"},"bonus":0.19999999999999998},{"rt":3786.7000000029802,"stimulus":"bees-with-color/bee-B2SF.svg","response":0,"trial_type":"image-button-response","trial_index":148,"time_elapsed":1000388,"internal_node_id":"0.0-6.0-0.8","subject_id":"614cfb8cfd0d0bc4b4a4268e","study_id":"6197b3f67c2b5cd3b6d9596a","session_id":"6197b8899c799b47e0f3881d","condition":"full-information","relevant_dimensions":["antennae","legs"],"bee_group":{"antennae":"B","wings":"X","pattern":"X","legs":"M"},"bonus":0.19999999999999998},{"rt":5450.20000000298,"stimulus":"bees-with-color/bee-A1DF.svg","response":1,"trial_type":"image-button-response","trial_index":149,"time_elapsed":1005844,"internal_node_id":"0.0-6.0-0.9","subject_id":"614cfb8cfd0d0bc4b4a4268e","study_id":"6197b3f67c2b5cd3b6d9596a","session_id":"6197b8899c799b47e0f3881d","condition":"full-information","relevant_dimensions":["antennae","legs"],"bee_group":{"antennae":"B","wings":"X","pattern":"X","legs":"M"},"bonus":0.19999999999999998},{"rt":3958.8999999910593,"stimulus":"bees-with-color/bee-B1SM.svg","response":1,"trial_type":"image-button-response","trial_index":150,"time_elapsed":1009807,"internal_node_id":"0.0-6.0-0.10","subject_id":"614cfb8cfd0d0bc4b4a4268e","study_id":"6197b3f67c2b5cd3b6d9596a","session_id":"6197b8899c799b47e0f3881d","condition":"full-information","relevant_dimensions":["antennae","legs"],"bee_group":{"antennae":"B","wings":"X","pattern":"X","legs":"M"},"bonus":0.19999999999999998},{"rt":13368.300000011921,"stimulus":"bees-with-color/bee-A2SF.svg","response":1,"trial_type":"image-button-response","trial_index":151,"time_elapsed":1023182,"internal_node_id":"0.0-6.0-0.11","subject_id":"614cfb8cfd0d0bc4b4a4268e","study_id":"6197b3f67c2b5cd3b6d9596a","session_id":"6197b8899c799b47e0f3881d","condition":"full-information","relevant_dimensions":["antennae","legs"],"bee_group":{"antennae":"B","wings":"X","pattern":"X","legs":"M"},"bonus":0.19999999999999998},{"rt":1299.7000000029802,"stimulus":"bees-with-color/bee-B2DM.svg","response":0,"trial_type":"image-button-response","trial_index":152,"time_elapsed":1024486,"internal_node_id":"0.0-6.0-0.12","subject_id":"614cfb8cfd0d0bc4b4a4268e","study_id":"6197b3f67c2b5cd3b6d9596a","session_id":"6197b8899c799b47e0f3881d","condition":"full-information","relevant_dimensions":["antennae","legs"],"bee_group":{"antennae":"B","wings":"X","pattern":"X","legs":"M"},"bonus":0.19999999999999998},{"rt":5237.5,"stimulus":"bees-with-color/bee-B2DF.svg","response":0,"trial_type":"image-button-response","trial_index":153,"time_elapsed":1029727,"internal_node_id":"0.0-6.0-0.13","subject_id":"614cfb8cfd0d0bc4b4a4268e","study_id":"6197b3f67c2b5cd3b6d9596a","session_id":"6197b8899c799b47e0f3881d","condition":"full-information","relevant_dimensions":["antennae","legs"],"bee_group":{"antennae":"B","wings":"X","pattern":"X","legs":"M"},"bonus":0.19999999999999998},{"rt":2768,"stimulus":"bees-with-color/bee-B1SF.svg","response":0,"tria