[{"success":true,"trial_type":"fullscreen","trial_index":0,"time_elapsed":7819,"internal_node_id":"0.0-0.0","subject_id":"608d86abc2dbca8aef197914","study_id":"6197b3f67c2b5cd3b6d9596a","session_id":"619be5883b3526a319543ce3","condition":"full-information","relevant_dimensions":["antennae","legs"],"bee_group":{"antennae":"B","wings":"X","pattern":"X","legs":"M"},"bonus":0.1},{"success":true,"timeout":false,"failed_images":[],"failed_audio":[],"failed_video":[],"trial_type":"preload","trial_index":1,"time_elapsed":9808,"internal_node_id":"0.0-1.0","subject_id":"608d86abc2dbca8aef197914","study_id":"6197b3f67c2b5cd3b6d9596a","session_id":"619be5883b3526a319543ce3","condition":"full-information","relevant_dimensions":["antennae","legs"],"bee_group":{"antennae":"B","wings":"X","pattern":"X","legs":"M"},"bonus":0.1},{"rt":5622.699999999255,"stimulus":"Welcome! Press any key to begin.","response":" ","trial_type":"html-keyboard-response","trial_index":2,"time_elapsed":15433,"internal_node_id":"0.0-2.0","subject_id":"608d86abc2dbca8aef197914","study_id":"6197b3f67c2b5cd3b6d9596a","session_id":"619be5883b3526a319543ce3","condition":"full-information","relevant_dimensions":["antennae","legs"],"bee_group":{"antennae":"B","wings":"X","pattern":"X","legs":"M"},"bonus":0.1},{"view_history":[{"page_index":0,"viewing_time":2752.5999999996275},{"page_index":1,"viewing_time":9271.800000000745},{"page_index":2,"viewing_time":6752.39999999851},{"page_index":3,"viewing_time":9607.5},{"page_index":4,"viewing_time":7296.4000000003725},{"page_index":5,"viewing_time":3807.800000000745},{"page_index":6,"viewing_time":9879.900000000373},{"page_index":7,"viewing_time":4335.89999999851},{"page_index":8,"viewing_time":3008.10000000149},{"page_index":9,"viewing_time":2712.0999999996275},{"page_index":10,"viewing_time":1856.199999999255},{"page_index":11,"viewing_time":6342.5},{"page_index":12,"viewing_time":12497.400000000373},{"page_index":13,"viewing_time":1471.5999999996275},{"page_index":14,"viewing_time":1911.9000000003725}],"rt":83504.90000000037,"trial_type":"instructions","trial_index":3,"time_elapsed":98940,"internal_node_id":"0.0-3.0-0.0","subject_id":"608d86abc2dbca8aef197914","study_id":"6197b3f67c2b5cd3b6d9596a","session_id":"619be5883b3526a319543ce3","condition":"full-information","relevant_dimensions":["antennae","legs"],"bee_group":{"antennae":"B","wings":"X","pattern":"X","legs":"M"},"bonus":0.1},{"rt":8238,"response":{"Q0":["Two or six legs","Stripes or spots on body","Single or double wings","Antennae or no antennae"]},"question_order":[0],"trial_type":"survey-multi-select","trial_index":4,"time_elapsed":107190,"internal_node_id":"0.0-3.0-1.0","subject_id":"608d86abc2dbca8aef197914","study_id":"6197b3f67c2b5cd3b6d9596a","session_id":"619be5883b3526a319543ce3","condition":"full-information","relevant_dimensions":["antennae","legs"],"bee_group":{"antennae":"B","wings":"X","pattern":"X","legs":"M"},"correct":true,"bonus":0.1},{"rt":17041.700000001118,"response":{"Q1":"No.","Q2":"Based on the four features of the bee.","Q3":"You learn if it was friendly or dangerous, but do not alter your bonus."},"question_order":[0,1,2],"trial_type":"survey-multi-choice","trial_index":5,"time_elapsed":124237,"internal_node_id":"0.0-3.0-2.0","subject_id":"608d86abc2dbca8aef197914","study_id":"6197b3f67c2b5cd3b6d9596a","session_id":"619be5883b3526a319543ce3","condition":"full-information","relevant_dimensions":["antennae","legs"],"bee_group":{"antennae":"B","wings":"X","pattern":"X","legs":"M"},"correct":true,"bonus":0.1},{"rt":2035.0999999996275,"stimulus":"<p>Congrats, you got everything right<br>When you're ready, click the button below to continue to the experiment.</p>","response":0,"trial_type":"html-button-response","trial_index":6,"time_elapsed":126277,"internal_node_id":"0.0-3.0-3.0","subject_id":"608d86abc2dbca8aef197914","study_id":"6197b3f67c2b5cd3b6d9596a","session_id":"619be5883b3526a319543ce3","condition":"full-information","relevant_dimensions":["antennae","legs"],"bee_group":{"antennae":"B","wings":"X","pattern":"X","legs":"M"},"bonus":0.1},{"rt":2720.5999999996275,"stimulus":"bees-with-color/bee-A2DF.svg","response":0,"trial_type":"image-button-response","trial_index":7,"time_elapsed":129005,"internal_node_id":"0.0-4.0-0.0","subject_id":"608d86abc2dbca8aef197914","study_id":"6197b3f67c2b5cd3b6d9596a","session_id":"619be5883b3526a319543ce3","condition":"full-information","relevant_dimensions":["antennae","legs"],"bee_group":{"antennae":"B","wings":"X","pattern":"X","legs":"M"},"action":"harvest","summary":"good-harvest","bonus":0.1},{"rt":6624.799999998882,"stimulus":"\n                    <p><b>Action: <em>harvest</em></b></p>\n                    <p>This is the bee that you just saw.</p>\n                    <img src=\"bees-with-color/bee-A2DF.svg\" width=\"200\">\n                    <p><span class=\"greenText\"><b>Successful harvest!</b></span><br>Your pay has increased by $0.02. Your bonus pay is now $0.56.</p>\n            ","response":0,"trial_type":"html-button-response","trial_index":8,"time_elapsed":135636,"internal_node_id":"0.0-4.0-1.0","subject_id":"608d86abc2dbca8aef197914","study_id":"6197b3f67c2b5cd3b6d9596a","session_id":"619be5883b3526a319543ce3","condition":"full-information","relevant_dimensions":["antennae","legs"],"bee_group":{"antennae":"B","wings":"X","pattern":"X","legs":"M"},"bonus":0.1},{"rt":3305.5,"stimulus":"bees-with-color/bee-B2DF.svg","response":0,"trial_type":"image-button-response","trial_index":9,"time_elapsed":138948,"internal_node_id":"0.0-4.0-0.1","subject_id":"608d86abc2dbca8aef197914","study_id":"6197b3f67c2b5cd3b6d9596a","session_id":"619be5883b3526a319543ce3","condition":"full-information","relevant_dimensions":["antennae","legs"],"bee_group":{"antennae":"B","wings":"X","pattern":"X","legs":"M"},"action":"harvest","summary":"good-harvest","bonus":0.1},{"rt":6113.5999999996275,"stimulus":"\n                    <p><b>Action: <em>harvest</em></b></p>\n                    <p>This is the bee that you just saw.</p>\n                    <img src=\"bees-with-color/bee-B2DF.svg\" width=\"200\">\n                    <p><span class=\"greenText\"><b>Successful harvest!</b></span><br>Your pay has increased by $0.02. Your bonus pay is now $0.58.</p>\n            ","response":0,"trial_type":"html-button-response","trial_index":10,"time_elapsed":145068,"internal_node_id":"0.0-4.0-1.1","subject_id":"608d86abc2dbca8aef197914","study_id":"6197b3f67c2b5cd3b6d9596a","session_id":"619be5883b3526a319543ce3","condition":"full-information","relevant_dimensions":["antennae","legs"],"bee_group":{"antennae":"B","wings":"X","pattern":"X","legs":"M"},"bonus":0.1},{"rt":4986.0999999996275,"stimulus":"bees-with-color/bee-A1SM.svg","response":1,"trial_type":"image-button-response","trial_index":11,"time_elapsed":150060,"internal_node_id":"0.0-4.0-0.2","subject_id":"608d86abc2dbca8aef197914","study_id":"6197b3f67c2b5cd3b6d9596a","session_id":"619be5883b3526a319543ce3","condition":"full-information","relevant_dimensions":["antennae","legs"],"bee_group":{"antennae":"B","wings":"X","pattern":"X","legs":"M"},"action":"avoid","summary":"bad-avoid","bonus":0.1},{"rt":6995.800000000745,"stimulus":"\n                    <p><b>Action: <em>avoid</em></b></p>\n                    <p>This is the bee that you just saw.</p>\n                    <img src=\"bees-with-color/bee-A1SM.svg\" width=\"200\">\n                    <p><span class=\"redText\">Bad choice,</span> the bee was friendly.<br>Your bonus pay is unchanged, and remains at $0.58.</p>\n            ","response":0,"trial_type":"html-button-response","trial_index":12,"time_elapsed":157060,"internal_node_id":"0.0-4.0-1.2","subject_id":"608d86abc2dbca8aef197914","study_id":"6197b3f67c2b5cd3b6d9596a","session_id":"619be5883b3526a319543ce3","condition":"full-information","relevant_dimensions":["antennae","legs"],"bee_group":{"antennae":"B","wings":"X","pattern":"X","legs":"M"},"bonus":0.1},{"rt":4562.300000000745,"stimulus":"bees-with-color/bee-B1DF.svg","response":1,"trial_type":"image-button-response","trial_index":13,"time_elapsed":161628,"internal_node_id":"0.0-4.0-0.3","subject_id":"608d86abc2dbca8aef197914","study_id":"6197b3f67c2b5cd3b6d9596a","session_id":"619be5883b3526a319543ce3","condition":"full-information","relevant_dimensions":["antennae","legs"],"bee_group":{"antennae":"B","wings":"X","pattern":"X","legs":"M"},"action":"avoid","summary":"bad-avoid","bonus":0.1},{"rt":5139.300000000745,"stimulus":"\n                    <p><b>Action: <em>avoid</em></b></p>\n                    <p>This is the bee that you just saw.</p>\n                    <img src=\"bees-with-color/bee-B1DF.svg\" width=\"200\">\n                    <p><span class=\"redText\">Bad choice,</span> the bee was friendly.<br>Your bonus pay is unchanged, and remains at $0.58.</p>\n            ","response":0,"trial_type":"html-button-response","trial_index":14,"time_elapsed":166772,"internal_node_id":"0.0-4.0-1.3","subject_id":"608d86abc2dbca8aef197914","study_id":"6197b3f67c2b5cd3b6d9596a","session_id":"619be5883b3526a319543ce3","condition":"full-information","relevant_dimensions":["antennae","legs"],"bee_group":{"antennae":"B","wings":"X","pattern":"X","legs":"M"},"bonus":0.1},{"rt":5042.300000000745,"stimulus":"bees-with-color/bee-B1SM.svg","response":0,"trial_type":"image-button-response","trial_index":15,"time_elapsed":171820,"internal_node_id":"0.0-4.0-0.4","subject_id":"608d86abc2dbca8aef197914","study_id":"6197b3f67c2b5cd3b6d9596a","session_id":"619be5883b3526a319543ce3","condition":"full-information","relevant_dimensions":["antennae","legs"],"bee_group":{"antennae":"B","wings":"X","pattern":"X","legs":"M"},"action":"harvest","summary":"bad-harvest","bonus":0.1},{"rt":6082.699999999255,"stimulus":"\n                    <p><b>Action: <em>harvest</em></b></p>\n                    <p>This is the bee that you just saw.</p>\n                    <img src=\"bees-with-color/bee-B1SM.svg\" width=\"200\">\n                    <p><span class=\"redText\">Bad choice, the bee was angry.</span><br><b>You have been stung!</b><br>Your pay has been decreased by $0.10. Your bonus pay is now $0.48.</p>\n            ","response":0,"trial_type":"html-button-response","trial_index":16,"time_elapsed":177908,"internal_node_id":"0.0-4.0-1.4","subject_id":"608d86abc2dbca8aef197914","study_id":"6197b3f67c2b5cd3b6d9596a","session_id":"619be5883b3526a319543ce3","condition":"full-information","relevant_dimensions":["antennae","legs"],"bee_group":{"antennae":"B","wings":"X","pattern":"X","legs":"M"},"bonus":0.1},{"rt":4466.5999999996275,"stimulus":"bees-with-color/bee-B2DM.svg","response":1,"trial_type":"image-button-response","trial_index":17,"time_elapsed":182381,"internal_node_id":"0.0-4.0-0.5","subject_id":"608d86abc2dbca8aef197914","study_id":"6197b3f67c2b5cd3b6d9596a","session_id":"619be5883b3526a319543ce3","condition":"full-information","relevant_dimensions":["antennae","legs"],"bee_group":{"antennae":"B","wings":"X","pattern":"X","legs":"M"},"action":"avoid","summary":"good-avoid","bonus":0.1},{"rt":2738.199999999255,"stimulus":"\n                    <p><b>Action: <em>avoid</em></b></p>\n                    <p>This is the bee that you just saw.</p>\n                    <img src=\"bees-with-color/bee-B2DM.svg\" width=\"200\">\n                    <p><span class=\"greenText\">Good choice!</span>  This bee would have stung you.<br>Your bonus pay is unchanged, and remains at $0.48.</p>\n            ","response":0,"trial_type":"html-button-response","trial_index":18,"time_elapsed":185124,"internal_node_id":"0.0-4.0-1.5","subject_id":"608d86abc2dbca8aef197914","study_id":"6197b3f67c2b5cd3b6d9596a","session_id":"619be5883b3526a319543ce3","condition":"full-information","relevant_dimensions":["antennae","legs"],"bee_group":{"antennae":"B","wings":"X","pattern":"X","legs":"M"},"bonus":0.1},{"rt":6041.800000000745,"stimulus":"bees-with-color/bee-A2SM.svg","response":1,"trial_type":"image-button-response","trial_index":19,"time_elapsed":191172,"internal_node_id":"0.0-4.0-0.6","subject_id":"608d86abc2dbca8aef197914","study_id":"6197b3f67c2b5cd3b6d9596a","session_id":"619be5883b3526a319543ce3","condition":"full-information","relevant_dimensions":["antennae","legs"],"bee_group":{"antennae":"B","wings":"X","pattern":"X","legs":"M"},"action":"avoid","summary":"bad-avoid","bonus":0.1},{"rt":5867.299999998882,"stimulus":"\n                    <p><b>Action: <em>avoid</em></b></p>\n                    <p>This is the bee that you just saw.</p>\n                    <img src=\"bees-with-color/bee-A2SM.svg\" width=\"200\">\n                    <p><span class=\"redText\">Bad choice,</span> the bee was friendly.<br>Your bonus pay is unchanged, and remains at $0.48.</p>\n            ","response":0,"trial_type":"html-button-response","trial_index":20,"time_elapsed":197044,"internal_node_id":"0.0-4.0-1.6","subject_id":"608d86abc2dbca8aef197914","study_id":"6197b3f67c2b5cd3b6d9596a","session_id":"619be5883b3526a319543ce3","condition":"full-information","relevant_dimensions":["antennae","legs"],"bee_group":{"antennae":"B","wings":"X","pattern":"X","legs":"M"},"bonus":0.1},{"rt":8905.400000000373,"stimulus":"bees-with-color/bee-B2SF.svg","response":1,"trial_type":"image-button-response","trial_index":21,"time_elapsed":205954,"internal_node_id":"0.0-4.0-0.7","subject_id":"608d86abc2dbca8aef197914","study_id":"6197b3f67c2b5cd3b6d9596a","session_id":"619be5883b3526a319543ce3","condition":"full-information","relevant_dimensions":["antennae","legs"],"bee_group":{"antennae":"B","wings":"X","pattern":"X","legs":"M"},"action":"avoid","summary":"bad-avoid","bonus":0.1},{"rt":4511,"stimulus":"\n                    <p><b>Action: <em>avoid</em></b></p>\n                    <p>This is the bee that you just saw.</p>\n                    <img src=\"bees-with-color/bee-B2SF.svg\" width=\"200\">\n                    <p><span class=\"redText\">Bad choice,</span> the bee was friendly.<br>Your bonus pay is unchanged, and remains at $0.48.</p>\n            ","response":0,"trial_type":"html-button-response","trial_index":22,"time_elapsed":210468,"internal_node_id":"0.0-4.0-1.7","subject_id":"608d86abc2dbca8aef197914","study_id":"6197b3f67c2b5cd3b6d9596a","session_id":"619be5883b3526a319543ce3","condition":"full-information","relevant_dimensions":["antennae","legs"],"bee_group":{"antennae":"B","wings":"X","pattern":"X","legs":"M"},"bonus":0.1},{"rt":6143.9000000003725,"stimulus":"bees-with-color/bee-A1DF.svg","response":0,"trial_type":"image-button-response","trial_index":23,"time_elapsed":216618,"internal_node_id":"0.0-4.0-0.8","subject_id":"608d86abc2dbca8aef197914","study_id":"6197b3f67c2b5cd3b6d9596a","session_id":"619be5883b3526a319543ce3","condition":"full-information","relevant_dimensions":["antennae","legs"],"bee_group":{"antennae":"B","wings":"X","pattern":"X","legs":"M"},"action":"harvest","summary":"good-harvest","bonus":0.1},{"rt":2485.9000000003725,"stimulus":"\n                    <p><b>Action: <em>harvest</em></b></p>\n                    <p>This is the bee that you just saw.</p>\n                    <img src=\"bees-with-color/bee-A1DF.svg\" width=\"200\">\n                    <p><span class=\"greenText\"><b>Successful harvest!</b></span><br>Your pay has increased by $0.02. Your bonus pay is now $0.50.</p>\n            ","response":0,"trial_type":"html-button-response","trial_index":24,"time_elapsed":219106,"internal_node_id":"0.0-4.0-1.8","subject_id":"608d86abc2dbca8aef197914","study_id":"6197b3f67c2b5cd3b6d9596a","session_id":"619be5883b3526a319543ce3","condition":"full-information","relevant_dimensions":["antennae","legs"],"bee_group":{"antennae":"B","wings":"X","pattern":"X","legs":"M"},"bonus":0.1},{"rt":8735.799999998882,"stimulus":"bees-with-color/bee-B2SM.svg","response":1,"trial_type":"image-button-response","trial_index":25,"time_elapsed":227845,"internal_node_id":"0.0-4.0-0.9","subject_id":"608d86abc2dbca8aef197914","study_id":"6197b3f67c2b5cd3b6d9596a","session_id":"619be5883b3526a319543ce3","condition":"full-information","relevant_dimensions":["antennae","legs"],"bee_group":{"antennae":"B","wings":"X","pattern":"X","legs":"M"},"action":"avoid","summary":"good-avoid","bonus":0.1},{"rt":3331.699999999255,"stimulus":"\n                    <p><b>Action: <em>avoid</em></b></p>\n                    <p>This is the bee that you just saw.</p>\n                    <img src=\"bees-with-color/bee-B2SM.svg\" width=\"200\">\n                    <p><span class=\"greenText\">Good choice!</span>  This bee would have stung you.<br>Your bonus pay is unchanged, and remains at $0.50.</p>\n            ","response":0,"trial_type":"html-button-response","trial_index":26,"time_elapsed":231180,"internal_node_id":"0.0-4.0-1.9","subject_id":"608d86abc2dbca8aef197914","study_id":"6197b3f67c2b5cd3b6d9596a","session_id":"619be5883b3526a319543ce3","condition":"full-information","relevant_dimensions":["antennae","legs"],"bee_group":{"antennae":"B","wings":"X","pattern":"X","legs":"M"},"bonus":0.1},{"rt":13154.200000001118,"stimulus":"bees-with-color/bee-A1DM.svg","response":1,"trial_type":"image-button-response","trial_index":27,"time_elapsed":244339,"internal_node_id":"0.0-4.0-0.10","subject_id":"608d86abc2dbca8aef197914","study_id":"6197b3f67c2b5cd3b6d9596a","session_id":"619be5883b3526a319543ce3","condition":"full-information","relevant_dimensions":["antennae","legs"],"bee_group":{"antennae":"B","wings":"X","pattern":"X","legs":"M"},"action":"avoid","summary":"bad-avoid","bonus":0.1},{"rt":4221.800000000745,"stimulus":"\n                    <p><b>Action: <em>avoid</em></b></p>\n                    <p>This is the bee that you just saw.</p>\n                    <img src=\"bees-with-color/bee-A1DM.svg\" width=\"200\">\n                    <p><span class=\"redText\">Bad choice,</span> the bee was friendly.<br>Your bonus pay is unchanged, and remains at $0.50.</p>\n            ","response":0,"trial_type":"html-button-response","trial_index":28,"time_elapsed":248564,"internal_node_id":"0.0-4.0-1.10","subject_id":"608d86abc2dbca8aef197914","study_id":"6197b3f67c2b5cd3b6d9596a","session_id":"619be5883b3526a319543ce3","condition":"full-information","relevant_dimensions":["antennae","legs"],"bee_group":{"antennae":"B","wings":"X","pattern":"X","legs":"M"},"bonus":0.1},{"rt":9899.599999999627,"stimulus":"bees-with-color/bee-A2SF.svg","response":1,"trial_type":"image-button-response","trial_index":29,"time_elapsed":258468,"internal_node_id":"0.0-4.0-0.11","subject_id":"608d86abc2dbca8aef197914","study_id":"6197b3f67c2b5cd3b6d9596a","session_id":"619be5883b3526a319543ce3","condition":"full-information","relevant_dimensions":["antennae","legs"],"bee_group":{"antennae":"B","wings":"X","pattern":"X","legs":"M"},"action":"avoid","summary":"bad-avoid","bonus":0.1},{"rt":4267.199999999255,"stimulus":"\n                    <p><b>Action: <em>avoid</em></b></p>\n                    <p>This is the bee that you just saw.</p>\n                    <img src=\"bees-with-color/bee-A2SF.svg\" width=\"200\">\n                    <p><span class=\"redText\">Bad choice,</span> the bee was friendly.<br>Your bonus pay is unchanged, and remains at $0.50.</p>\n            ","response":0,"trial_type":"html-button-response","trial_index":30,"time_elapsed":262738,"internal_node_id":"0.0-4.0-1.11","subject_id":"608d86abc2dbca8aef197914","study_id":"6197b3f67c2b5cd3b6d9596a","session_id":"619be5883b3526a319543ce3","condition":"full-information","relevant_dimensions":["antennae","legs"],"bee_group":{"antennae":"B","wings":"X","pattern":"X","legs":"M"},"bonus":0.1},{"rt":5727.9000000003725,"stimulus":"bees-with-color/bee-A2DM.svg","response":0,"trial_type":"image-button-response","trial_index":31,"time_elapsed":268468,"internal_node_id":"0.0-4.0-0.12","subject_id":"608d86abc2dbca8aef197914","study_id":"6197b3f67c2b5cd3b6d9596a","session_id":"619be5883b3526a319543ce3","condition":"full-information","relevant_dimensions":["antennae","legs"],"bee_group":{"antennae":"B","wings":"X","pattern":"X","legs":"M"},"action":"harvest","summary":"good-harvest","bonus":0.1},{"rt":1867.800000000745,"stimulus":"\n                    <p><b>Action: <em>harvest</em></b></p>\n                    <p>This is the bee that you just saw.</p>\n                    <img src=\"bees-with-color/bee-A2DM.svg\" width=\"200\">\n                    <p><span class=\"greenText\"><b>Successful harvest!</b></span><br>Your pay has increased by $0.02. Your bonus pay is now $0.52.</p>\n            ","response":0,"trial_type":"html-button-response","trial_index":32,"time_elapsed":270340,"internal_node_id":"0.0-4.0-1.12","subject_id":"608d86abc2dbca8aef197914","study_id":"6197b3f67c2b5cd3b6d9596a","session_id":"619be5883b3526a319543ce3","condition":"full-information","relevant_dimensions":["antennae","legs"],"bee_group":{"antennae":"B","wings":"X","pattern":"X","legs":"M"},"bonus":0.1},{"rt":14490.89999999851,"stimulus":"bees-with-color/bee-B1SF.svg","response":1,"trial_type":"image-button-response","trial_index":33,"time_elapsed":284835,"internal_node_id":"0.0-4.0-0.13","subject_id":"608d86abc2dbca8aef197914","study_id":"6197b3f67c2b5cd3b6d9596a","session_id":"619be5883b3526a319543ce3","condition":"full-information","relevant_dimensions":["antennae","legs"],"bee_group":{"antennae":"B","wings":"X","pattern":"X","legs":"M"},"action":"avoid","summary":"bad-avoid","bonus":0.1},{"rt":3934.5999999996275,"stimulus":"\n                    <p><b>Action: <em>avoid</em></b></p>\n                    <p>This is the bee that you just saw.</p>\n                    <img src=\"bees-with-color/bee-B1SF.svg\" width=\"200\">\n                    <p><span class=\"redText\">Bad choice,</span> the bee was friendly.<br>Your bonus pay is unchanged, and remains at $0.52.</p>\n            ","response":0,"trial_type":"html-button-response","trial_index":34,"time_elapsed":288772,"internal_node_id":"0.0-4.0-1.13","subject_id":"608d86abc2dbca8aef197914","study_id":"6197b3f67c2b5cd3b6d9596a","session_id":"619be5883b3526a319543ce3","condition":"full-information","relevant_dimensions":["antennae","legs"],"bee_group":{"antennae":"B","wings":"X","pattern":"X","legs":"M"},"bonus":0.1},{"rt":10947.300000000745,"stimulus":"bees-with-color/bee-A1SF.svg","response":1,"trial_type":"image-button-response","trial_index":35,"time_elapsed":299724,"internal_node_id":"0.0-4.0-0.14","subject_id":"608d86abc2dbca8aef197914","study_id":"6197b3f67c2b5cd3b6d9596a","session_id":"619be5883b3526a319543ce3","condition":"full-information","relevant_dimensions":["antennae","legs"],"bee_group":{"antennae":"B","wings":"X","pattern":"X","legs":"M"},"action":"avoid","summary":"bad-avoid","bonus":0.1},{"rt":1603.5,"stimulus":"\n                    <p><b>Action: <em>avoid</em></b></p>\n                    <p>This is the bee that you just saw.</p>\n                    <img src=\"bees-with-color/bee-A1SF.svg\" width=\"200\">\n                    <p><span class=\"redText\">Bad choice,</span> the bee was friendly.<br>Your bonus pay is unchanged, and remains at $0.52.</p>\n            ","response":0,"trial_type":"html-button-response","trial_index":36,"time_elapsed":301332,"internal_node_id":"0.0-4.0-1.14","subject_id":"608d86abc2dbca8aef197914","study_id":"6197b3f67c2b5cd3b6d9596a","session_id":"619be5883b3526a319543ce3","condition":"full-information","relevant_dimensions":["antennae","legs"],"bee_group":{"antennae":"B","wings":"X","pattern":"X","legs":"M"},"bonus":0.1},{"rt":1531.5999999996275,"stimulus":"bees-with-color/bee-B1DM.svg","response":0,"trial_type":"image-button-response","trial_index":37,"time_elapsed":302868,"internal_node_id":"0.0-4.0-0.15","subject_id":"608d86abc2dbca8aef197914","study_id":"6197b3f67c2b5cd3b6d9596a","session_id":"619be5883b3526a319543ce3","condition":"full-information","relevant_dimensions":["antennae","legs"],"bee_group":{"antennae":"B","wings":"X","pattern":"X","legs":"M"},"action":"harvest","summary":"bad-harvest","bonus":0.1},{"rt":1180.199999999255,"stimulus":"\n                    <p><b>Action: <em>harvest</em></b></p>\n                    <p>This is the bee that you just saw.</p>\n                    <img src=\"bees-with-color/bee-B1DM.svg\" width=\"200\">\n                    <p><span class=\"redText\">Bad choice, the bee was angry.</span><br><b>You have been stung!</b><br>Your pay has been decreased by $0.10. Your bonus pay is now $0.42.</p>\n            ","response":0,"trial_type":"html-button-response","trial_index":38,"time_elapsed":304052,"internal_node_id":"0.0-4.0-1.15","subject_id":"608d86abc2dbca8aef197914","study_id":"6197b3f67c2b5cd3b6d9596a","session_id":"619be5883b3526a319543ce3","condition":"full-information","relevant_dimensions":["antennae","legs"],"bee_group":{"antennae":"B","wings":"X","pattern":"X","legs":"M"},"bonus":0.1},{"rt":3083.9000000003725,"stimulus":"bees-with-color/bee-B2SM.svg","response":0,"trial_type":"image-button-response","trial_index":39,"time_elapsed":307140,"internal_node_id":"0.0-4.0-0.16","subject_id":"608d86abc2dbca8aef197914","study_id":"6197b3f67c2b5cd3b6d9596a","session_id":"619be5883b3526a319543ce3","condition":"full-information","relevant_dimensions":["antennae","legs"],"bee_group":{"antennae":"B","wings":"X","pattern":"X","legs":"M"},"action":"harvest","summary":"bad-harvest","bonus":0.1},{"rt":1395.800000000745,"stimulus":"\n                    <p><b>Action: <em>harvest</em></b></p>\n                    <p>This is the bee that you just saw.</p>\n                    <img src=\"bees-with-color/bee-B2SM.svg\" width=\"200\">\n                    <p><span class=\"redText\">Bad choice, the bee was angry.</span><br><b>You have been stung!</b><br>Your pay has been decreased by $0.10. Your bonus pay is now $0.32.</p>\n            ","response":0,"trial_type":"html-button-response","trial_index":40,"time_elapsed":308540,"internal_node_id":"0.0-4.0-1.16","subject_id":"608d86abc2dbca8aef197914","study_id":"6197b3f67c2b5cd3b6d9596a","session_id":"619be5883b3526a319543ce3","condition":"full-information","relevant_dimensions":["antennae","legs"],"bee_group":{"antennae":"B","wings":"X","pattern":"X","legs":"M"},"bonus":0.1},{"rt":2908.10000000149,"stimulus":"bees-with-color/bee-B2DF.svg","response":0,"trial_type":"image-button-response","trial_index":41,"time_elapsed":311452,"internal_node_id":"0.0-4.0-0.17","subject_id":"608d86abc2dbca8aef197914","study_id":"6197b3f67c2b5cd3b6d9596a","session_id":"619be5883b3526a319543ce3","condition":"full-information","relevant_dimensions":["antennae","legs"],"bee_group":{"antennae":"B","wings":"X","pattern":"X","legs":"M"},"action":"harvest","summary":"good-harvest","bonus":0.1},{"rt":1083.2000000011176,"stimulus":"\n                    <p><b>Action: <em>harvest</em></b></p>\n                    <p>This is the bee that you just saw.</p>\n                    <img src=\"bees-with-color/bee-B2DF.svg\" width=\"200\">\n                    <p><span class=\"greenText\"><b>Successful harvest!</b></span><br>Your pay has increased by $0.02. Your bonus pay is now $0.34.</p>\n            ","response":0,"trial_type":"html-button-response","trial_index":42,"time_elapsed":312540,"internal_node_id":"0.0-4.0-1.17","subject_id":"608d86abc2dbca8aef197914","study_id":"6197b3f67c2b5cd3b6d9596a","session_id":"619be5883b3526a319543ce3","condition":"full-information","relevant_dimensions":["antennae","legs"],"bee_group":{"antennae":"B","wings":"X","pattern":"X","legs":"M"},"bonus":0.1},{"rt":9378.799999998882,"stimulus":"bees-with-color/bee-B1SM.svg","response":0,"trial_type":"image-button-response","trial_index":43,"time_elapsed":321922,"internal_node_id":"0.0-4.0-0.18","subject_id":"608d86abc2dbca8aef197914","study_id":"6197b3f67c2b5cd3b6d9596a","session_id":"619be5883b3526a319543ce3","condition":"full-information","relevant_dimensions":["antennae","legs"],"bee_group":{"antennae":"B","wings":"X","pattern":"X","legs":"M"},"action":"harvest","summary":"bad-harvest","bonus":0.1},{"rt":822.6000000014901,"stimulus":"\n                    <p><b>Action: <em>harvest</em></b></p>\n                    <p>This is the bee that you just saw.</p>\n                    <img src=\"bees-with-color/bee-B1SM.svg\" width=\"200\">\n                    <p><span class=\"redText\">Bad choice, the bee was angry.</span><br><b>You have been stung!</b><br>Your pay has been decreased by $0.10. Your bonus pay is now $0.24.</p>\n            ","response":0,"trial_type":"html-button-response","trial_index":44,"time_elapsed":322746,"internal_node_id":"0.0-4.0-1.18","subject_id":"608d86abc2dbca8aef197914","study_id":"6197b3f67c2b5cd3b6d9596a","session_id":"619be5883b3526a319543ce3","condition":"full-information","relevant_dimensions":["antennae","legs"],"bee_group":{"antennae":"B","wings":"X","pattern":"X","legs":"M"},"bonus":0.1},{"rt":3215.199999999255,"stimulus":"bees-with-color/bee-B1DF.svg","response":0,"trial_type":"image-button-response","trial_index":45,"time_elapsed":325964,"internal_node_id":"0.0-4.0-0.19","subject_id":"608d86abc2dbca8aef197914","study_id":"6197b3f67c2b5cd3b6d9596a","session_id":"619be5883b3526a319543ce3","condition":"full-information","relevant_dimensions":["antennae","legs"],"bee_group":{"antennae":"B","wings":"X","pattern":"X","legs":"M"},"action":"harvest","summary":"good-harvest","bonus":0.1},{"rt":1203.5,"stimulus":"\n                    <p><b>Action: <em>harvest</em></b></p>\n                    <p>This is the bee that you just saw.</p>\n                    <img src=\"bees-with-color/bee-B1DF.svg\" width=\"200\">\n                    <p><span class=\"greenText\"><b>Successful harvest!</b></span><br>Your pay has increased by $0.02. Your bonus pay is now $0.26.</p>\n            ","response":0,"trial_type":"html-button-response","trial_index":46,"time_elapsed":327172,"internal_node_id":"0.0-4.0-1.19","subject_id":"608d86abc2dbca8aef197914","study_id":"6197b3f67c2b5cd3b6d9596a","session_id":"619be5883b3526a319543ce3","condition":"full-information","relevant_dimensions":["antennae","legs"],"bee_group":{"antennae":"B","wings":"X","pattern":"X","legs":"M"},"bonus":0.1},{"rt":3427.5,"stimulus":"bees-with-color/bee-A2DF.svg","response":0,"trial_type":"image-button-response","trial_index":47,"time_elapsed":330604,"internal_node_id":"0.0-4.0-0.20","subject_id":"608d86abc2dbca8aef197914","study_id":"6197b3f67c2b5cd3b6d9596a","session_id":"619be5883b3526a319543ce3","condition":"full-information","relevant_dimensions":["antennae","legs"],"bee_group":{"antennae":"B","wings":"X","pattern":"X","legs":"M"},"action":"harvest","summary":"good-harvest","bonus":0.1},{"rt":947.5,"stimulus":"\n                    <p><b>Action: <em>harvest</em></b></p>\n                    <p>This is the bee that you just saw.</p>\n                    <img src=\"bees-with-color/bee-A2DF.svg\" width=\"200\">\n                    <p><span class=\"greenText\"><b>Successful harvest!</b></span><br>Your pay has increased by $0.02. Your bonus pay is now $0.28.</p>\n            ","response":0,"trial_type":"html-button-response","trial_index":48,"time_elapsed":331556,"internal_node_id":"0.0-4.0-1.20","subject_id":"608d86abc2dbca8aef197914","study_id":"6197b3f67c2b5cd3b6d9596a","session_id":"619be5883b3526a319543ce3","condition":"full-information","relevant_dimensions":["antennae","legs"],"bee_group":{"antennae":"B","wings":"X","pattern":"X","legs":"M"},"bonus":0.1},{"rt":4451.0999999996275,"stimulus":"bees-with-color/bee-B2SF.svg","response":1,"trial_type":"image-button-response","trial_index":49,"time_elapsed":336012,"internal_node_id":"0.0-4.0-0.21","subject_id":"608d86abc2dbca8aef197914","study_id":"6197b3f67c2b5cd3b6d9596a","session_id":"619be5883b3526a319543ce3","condition":"full-information","relevant_dimensions":["antennae","legs"],"bee_group":{"antennae":"B","wings":"X","pattern":"X","legs":"M"},"action":"avoid","summary":"bad-avoid","bonus":0.1},{"rt":1475.9000000003725,"stimulus":"\n                    <p><b>Action: <em>avoid</em></b></p>\n                    <p>This is the bee that you just saw.</p>\n                    <img src=\"bees-with-color/bee-B2SF.svg\" width=\"200\">\n                    <p><span class=\"redText\">Bad choice,</span> the bee was friendly.<br>Your bonus pay is unchanged, and remains at $0.28.</p>\n            ","response":0,"trial_type":"html-button-response","trial_index":50,"time_elapsed":337492,"internal_node_id":"0.0-4.0-1.21","subject_id":"608d86abc2dbca8aef197914","study_id":"6197b3f67c2b5cd3b6d9596a","session_id":"619be5883b3526a319543ce3","condition":"full-information","relevant_dimensions":["antennae","legs"],"bee_group":{"antennae":"B","wings":"X","pattern":"X","legs":"M"},"bonus":0.1},{"rt":4795.300000000745,"stimulus":"bees-with-color/bee-A1DF.svg","response":0,"trial_type":"image-button-response","trial_index":51,"time_elapsed":342292,"internal_node_id":"0.0-4.0-0.22","subject_id":"608d86abc2dbca8aef197914","study_id":"6197b3f67c2b5cd3b6d9596a","session_id":"619be5883b3526a319543ce3","condition":"full-information","relevant_dimensions":["antennae","legs"],"bee_group":{"antennae":"B","wings":"X","pattern":"X","legs":"M"},"action":"harvest","summary":"good-harvest","bonus":0.1},{"rt":915.6999999992549,"stimulus":"\n                    <p><b>Action: <em>harvest</em></b></p>\n                    <p>This is the bee that you just saw.</p>\n                    <img src=\"bees-with-color/bee-A1DF.svg\" width=\"200\">\n                    <p><span class=\"greenText\"><b>Successful harvest!</b></span><br>Your pay has increased by $0.02. Your bonus pay is now $0.30.</p>\n            ","response":0,"trial_type":"html-button-response","trial_index":52,"time_elapsed":343213,"internal_node_id":"0.0-4.0-1.22","subject_id":"608d86abc2dbca8aef197914","study_id":"6197b3f67c2b5cd3b6d9596a","session_id":"619be5883b3526a319543ce3","condition":"full-information","relevant_dimensions":["antennae","legs"],"bee_group":{"antennae":"B","wings":"X","pattern":"X","legs":"M"},"bonus":0.1},{"rt":2249.699999999255,"stimulus":"bees-with-color/bee-A2SM.svg","response":0,"trial_type":"image-button-response","trial_index":53,"time_elapsed":345468,"internal_node_id":"0.0-4.0-0.23","subject_id":"608d86abc2dbca8aef197914","study_id":"6197b3f67c2b5cd3b6d9596a","session_id":"619be5883b3526a319543ce3","condition":"full-information","relevant_dimensions":["antennae","legs"],"bee_group":{"antennae":"B","wings":"X","pattern":"X","legs":"M"},"action":"harvest","summary":"good-harvest","bonus":0.1},{"rt":1371.4000000003725,"stimulus":"\n                    <p><b>Action: <em>harvest</em></b></p>\n                    <p>This is the bee that you just saw.</p>\n                    <img src=\"bees-with-color/bee-A2SM.svg\" width=\"200\">\n                    <p><span class=\"greenText\"><b>Successful harvest!</b></span><br>Your pay has increased by $0.02. Your bonus pay is now $0.32.</p>\n            ","response":0,"trial_type":"html-button-response","trial_index":54,"time_elapsed":346844,"internal_node_id":"0.0-4.0-1.23","subject_id":"608d86abc2dbca8aef197914","study_id":"6197b3f67c2b5cd3b6d9596a","session_id":"619be5883b3526a319543ce3","condition":"full-information","relevant_dimensions":["antennae","legs"],"bee_group":{"antennae":"B","wings":"X","pattern":"X","legs":"M"},"bonus":0.1},{"rt":3651.5,"stimulus":"bees-with-color/bee-A1SM.svg","response":0,"trial_type":"image-button-response","trial_index":55,"time_elapsed":350501,"internal_node_id":"0.0-4.0-0.24","subject_id":"608d86abc2dbca8aef197914","study_id":"6197b3f67c2b5cd3b6d9596a","session_id":"619be5883b3526a319543ce3","condition":"full-information","relevant_dimensions":["antennae","legs"],"bee_group":{"antennae":"B","wings":"X","pattern":"X","legs":"M"},"action":"harvest","summary":"good-harvest","bonus":0.1},{"rt":1522.0999999996275,"stimulus":"\n                    <p><b>Action: <em>harvest</em></b></p>\n                    <p>This is the bee that you just saw.</p>\n                    <img src=\"bees-with-color/bee-A1SM.svg\" width=\"200\">\n                    <p><span class=\"greenText\"><b>Successful harvest!</b></span><br>Your pay has increased by $0.02. Your bonus pay is now $0.34.</p>\n            ","response":0,"trial_type":"html-button-response","trial_index":56,"time_elapsed":352028,"internal_node_id":"0.0-4.0-1.24","subject_id":"608d86abc2dbca8aef197914","study_id":"6197b3f67c2b5cd3b6d9596a","session_id":"619be5883b3526a319543ce3","condition":"full-information","relevant_dimensions":["antennae","legs"],"bee_group":{"antennae":"B","wings":"X","pattern":"X","legs":"M"},"bonus":0.1},{"rt":3722.5999999996275,"stimulus":"bees-with-color/bee-B2DM.svg","response":0,"trial_type":"image-button-response","trial_index":57,"time_elapsed":355756,"internal_node_id":"0.0-4.0-0.25","subject_id":"608d86abc2dbca8aef197914","study_id":"6197b3f67c2b5cd3b6d9596a","session_id":"619be5883b3526a319543ce3","condition":"full-information","relevant_dimensions":["antennae","legs"],"bee_group":{"antennae":"B","wings":"X","pattern":"X","legs":"M"},"action":"harvest","summary":"bad-harvest","bonus":0.1},{"rt":1171.199999999255,"stimulus":"\n                    <p><b>Action: <em>harvest</em></b></p>\n                    <p>This is the bee that you just saw.</p>\n                    <img src=\"bees-with-color/bee-B2DM.svg\" width=\"200\">\n                    <p><span class=\"redText\">Bad choice, the bee was angry.</span><br><b>You have been stung!</b><br>Your pay has been decreased by $0.10. Your bonus pay is now $0.24.</p>\n            ","response":0,"trial_type":"html-button-response","trial_index":58,"time_elapsed":356932,"internal_node_id":"0.0-4.0-1.25","subject_id":"608d86abc2dbca8aef197914","study_id":"6197b3f67c2b5cd3b6d9596a","session_id":"619be5883b3526a319543ce3","condition":"full-information","relevant_dimensions":["antennae","legs"],"bee_group":{"antennae":"B","wings":"X","pattern":"X","legs":"M"},"bonus":0.1},{"rt":2282.699999999255,"stimulus":"bees-with-color/bee-A2SF.svg","response":0,"trial_type":"image-button-response","trial_index":59,"time_elapsed":359221,"internal_node_id":"0.0-4.0-0.26","subject_id":"608d86abc2dbca8aef197914","study_id":"6197b3f67c2b5cd3b6d9596a","session_id":"619be5883b3526a319543ce3","condition":"full-information","relevant_dimensions":["antennae","legs"],"bee_group":{"antennae":"B","wings":"X","pattern":"X","legs":"M"},"action":"harvest","summary":"good-harvest","bonus":0.1},{"rt":1611.199999999255,"stimulus":"\n                    <p><b>Action: <em>harvest</em></b></p>\n                    <p>This is the bee that you just saw.</p>\n                    <img src=\"bees-with-color/bee-A2SF.svg\" width=\"200\">\n                    <p><span class=\"greenText\"><b>Successful harvest!</b></span><br>Your pay has increased by $0.02. Your bonus pay is now $0.26.</p>\n            ","response":0,"trial_type":"html-button-response","trial_index":60,"time_elapsed":360837,"internal_node_id":"0.0-4.0-1.26","subject_id":"608d86abc2dbca8aef197914","study_id":"6197b3f67c2b5cd3b6d9596a","session_id":"619be5883b3526a319543ce3","condition":"full-information","relevant_dimensions":["antennae","legs"],"bee_group":{"antennae":"B","wings":"X","pattern":"X","legs":"M"},"bonus":0.1},{"rt":2602.800000000745,"stimulus":"bees-with-color/bee-B1SF.svg","response":0,"trial_type":"image-button-response","trial_index":61,"time_elapsed":363444,"internal_node_id":"0.0-4.0-0.27","subject_id":"608d86abc2dbca8aef197914","study_id":"6197b3f67c2b5cd3b6d9596a","session_id":"619be5883b3526a319543ce3","condition":"full-information","relevant_dimensions":["antennae","legs"],"bee_group":{"antennae":"B","wings":"X","pattern":"X","legs":"M"},"action":"harvest","summary":"good-harvest","bonus":0.1},{"rt":2635.300000000745,"stimulus":"\n                    <p><b>Action: <em>harvest</em></b></p>\n                    <p>This is the bee that you just saw.</p>\n                    <img src=\"bees-with-color/bee-B1SF.svg\" width=\"200\">\n                    <p><span class=\"greenText\"><b>Successful harvest!</b></span><br>Your pay has increased by $0.02. Your bonus pay is now $0.28.</p>\n            ","response":0,"trial_type":"html-button-response","trial_index":62,"time_elapsed":366084,"internal_node_id":"0.0-4.0-1.27","subject_id":"608d86abc2dbca8aef197914","study_id":"6197b3f67c2b5cd3b6d9596a","session_id":"619be5883b3526a319543ce3","condition":"full-information","relevant_dimensions":["antennae","legs"],"bee_group":{"antennae":"B","wings":"X","pattern":"X","legs":"M"},"bonus":0.1},{"rt":4145.9000000003725,"stimulus":"bees-with-color/bee-A2DM.svg","response":0,"trial_type":"image-button-response","trial_index":63,"time_elapsed":370235,"internal_node_id":"0.0-4.0-0.28","subject_id":"608d86abc2dbca8aef197914","study_id":"6197b3f67c2b5cd3b6d9596a","session_id":"619be5883b3526a319543ce3","condition":"full-information","relevant_dimensions":["antennae","legs"],"bee_group":{"antennae":"B","wings":"X","pattern":"X","legs":"M"},"action":"harvest","summary":"good-harvest","bonus":0.1},{"rt":1204.300000000745,"stimulus":"\n                    <p><b>Action: <em>harvest</em></b></p>\n                    <p>This is the bee that you just saw.</p>\n                    <img src=\"bees-with-color/bee-A2DM.svg\" width=\"200\">\n                    <p><span class=\"greenText\"><b>Successful harvest!</b></span><br>Your pay has increased by $0.02. Your bonus pay is now $0.30.</p>\n            ","response":0,"trial_type":"html-button-response","trial_index":64,"time_elapsed":371443,"internal_node_id":"0.0-4.0-1.28","subject_id":"608d86abc2dbca8aef197914","study_id":"6197b3f67c2b5cd3b6d9596a","session_id":"619be5883b3526a319543ce3","condition":"full-information","relevant_dimensions":["antennae","legs"],"bee_group":{"antennae":"B","wings":"X","pattern":"X","legs":"M"},"bonus":0.1},{"rt":3572.300000000745,"stimulus":"bees-with-color/bee-A1SF.svg","response":0,"trial_type":"image-button-response","trial_index":65,"time_elapsed":375020,"internal_node_id":"0.0-4.0-0.29","subject_id":"608d86abc2dbca8aef197914","study_id":"6197b3f67c2b5cd3b6d9596a","session_id":"619be5883b3526a319543ce3","condition":"full-information","relevant_dimensions":["antennae","legs"],"bee_group":{"antennae":"B","wings":"X","pattern":"X","legs":"M"},"action":"harvest","summary":"good-harvest","bonus":0.1},{"rt":1947.0999999996275,"stimulus":"\n                    <p><b>Action: <em>harvest</em></b></p>\n                    <p>This is the bee that you just saw.</p>\n                    <img src=\"bees-with-color/bee-A1SF.svg\" width=\"200\">\n                    <p><span class=\"greenText\"><b>Successful harvest!</b></span><br>Your pay has increased by $0.02. Your bonus pay is now $0.32.</p>\n            ","response":0,"trial_type":"html-button-response","trial_index":66,"time_elapsed":376971,"internal_node_id":"0.0-4.0-1.29","subject_id":"608d86abc2dbca8aef197914","study_id":"6197b3f67c2b5cd3b6d9596a","session_id":"619be5883b3526a319543ce3","condition":"full-information","relevant_dimensions":["antennae","legs"],"bee_group":{"antennae":"B","wings":"X","pattern":"X","legs":"M"},"bonus":0.1},{"rt":2236.10000000149,"stimulus":"bees-with-color/bee-A1DM.svg","response":0,"trial_type":"image-button-response","trial_index":67,"time_elapsed":379212,"internal_node_id":"0.0-4.0-0.30","subject_id":"608d86abc2dbca8aef197914","study_id":"6197b3f67c2b5cd3b6d9596a","session_id":"619be5883b3526a319543ce3","condition":"full-information","relevant_dimensions":["antennae","legs"],"bee_group":{"antennae":"B","wings":"X","pattern":"X","legs":"M"},"action":"harvest","summary":"good-harvest","bonus":0.1},{"rt":4131.199999999255,"stimulus":"\n                    <p><b>Action: <em>harvest</em></b></p>\n                    <p>This is the bee that you just saw.</p>\n                    <img src=\"bees-with-color/bee-A1DM.svg\" width=\"200\">\n                    <p><span class=\"greenText\"><b>Successful harvest!</b></span><br>Your pay has increased by $0.02. Your bonus pay is now $0.34.</p>\n            ","response":0,"trial_type":"html-button-response","trial_index":68,"time_elapsed":383346,"internal_node_id":"0.0-4.0-1.30","subject_id":"608d86abc2dbca8aef197914","study_id":"6197b3f67c2b5cd3b6d9596a","session_id":"619be5883b3526a319543ce3","condition":"full-information","relevant_dimensions":["antennae","legs"],"bee_group":{"antennae":"B","wings":"X","pattern":"X","legs":"M"},"bonus":0.1},{"rt":2591.699999999255,"stimulus":"bees-with-color/bee-B1DM.svg","response":0,"trial_type":"image-button-response","trial_index":69,"time_elapsed":385939,"internal_node_id":"0.0-4.0-0.31","subject_id":"608d86abc2dbca8aef197914","study_id":"6197b3f67c2b5cd3b6d9596a","session_id":"619be5883b3526a319543ce3","condition":"full-information","relevant_dimensions":["antennae","legs"],"bee_group":{"antennae":"B","wings":"X","pattern":"X","legs":"M"},"action":"harvest","summary":"bad-harvest","bonus":0.1},{"rt":2364.4000000003725,"stimulus":"\n                    <p><b>Action: <em>harvest</em></b></p>\n                    <p>This is the bee that you just saw.</p>\n                    <img src=\"bees-with-color/bee-B1DM.svg\" width=\"200\">\n                    <p><span class=\"redText\">Bad choice, the bee was angry.</span><br><b>You have been stung!</b><br>Your pay has been decreased by $0.10. Your bonus pay is now $0.24.</p>\n            ","response":0,"trial_type":"html-button-response","trial_index":70,"time_elapsed":388308,"internal_node_id":"0.0-4.0-1.31","subject_id":"608d86abc2dbca8aef197914","study_id":"6197b3f67c2b5cd3b6d9596a","session_id":"619be5883b3526a319543ce3","condition":"full-information","relevant_dimensions":["antennae","legs"],"bee_group":{"antennae":"B","wings":"X","pattern":"X","legs":"M"},"bonus":0.1},{"rt":3411.800000000745,"stimulus":"bees-with-color/bee-A2SM.svg","response":0,"trial_type":"image-button-response","trial_index":71,"time_elapsed":391724,"internal_node_id":"0.0-4.0-0.32","subject_id":"608d86abc2dbca8aef197914","study_id":"6197b3f67c2b5cd3b6d9596a","session_id":"619be5883b3526a319543ce3","condition":"full-information","relevant_dimensions":["antennae","legs"],"bee_group":{"antennae":"B","wings":"X","pattern":"X","legs":"M"},"action":"harvest","summary":"good-harvest","bonus":0.1},{"rt":1860.300000000745,"stimulus":"\n                    <p><b>Action: <em>harvest</em></b></p>\n                    <p>This is the bee that you just saw.</p>\n                    <img src=\"bees-with-color/bee-A2SM.svg\" width=\"200\">\n                    <p><span class=\"greenText\"><b>Successful harvest!</b></span><br>Your pay has increased by $0.02. Your bonus pay is now $0.26.</p>\n            ","response":0,"trial_type":"html-button-response","trial_index":72,"time_elapsed":393588,"internal_node_id":"0.0-4.0-1.32","subject_id":"608d86abc2dbca8aef197914","study_id":"6197b3f67c2b5cd3b6d9596a","session_id":"619be5883b3526a319543ce3","condition":"full-information","relevant_dimensions":["antennae","legs"],"bee_group":{"antennae":"B","wings":"X","pattern":"X","legs":"M"},"bonus":0.1},{"rt":3170.5,"stimulus":"bees-with-color/bee-A1DM.svg","response":0,"trial_type":"image-button-response","trial_index":73,"time_elapsed":396763,"internal_node_id":"0.0-4.0-0.33","subject_id":"608d86abc2dbca8aef197914","study_id":"6197b3f67c2b5cd3b6d9596a","session_id":"619be5883b3526a319543ce3","condition":"full-information","relevant_dimensions":["antennae","legs"],"bee_group":{"antennae":"B","wings":"X","pattern":"X","legs":"M"},"action":"harvest","summary":"good-harvest","bonus":0.1},{"rt":2276,"stimulus":"\n                    <p><b>Action: <em>harvest</em></b></p>\n                    <p>This is the bee that you just saw.</p>\n                    <img src=\"bees-with-color/bee-A1DM.svg\" width=\"200\">\n                    <p><span class=\"greenText\"><b>Successful harvest!</b></span><br>Your pay has increased by $0.02. Your bonus pay is now $0.28.</p>\n            ","response":0,"trial_type":"html-button-response","trial_index":74,"time_elapsed":399044,"internal_node_id":"0.0-4.0-1.33","subject_id":"608d86abc2dbca8aef197914","study_id":"6197b3f67c2b5cd3b6d9596a","session_id":"619be5883b3526a319543ce3","condition":"full-information","relevant_dimensions":["antennae","legs"],"bee_group":{"antennae":"B","wings":"X","pattern":"X","legs":"M"},"bonus":0.1},{"rt":2572.10000000149,"stimulus":"bees-with-color/bee-A1DF.svg","response":0,"trial_type":"image-button-response","trial_index":75,"time_elapsed":401620,"internal_node_id":"0.0-4.0-0.34","subject_id":"608d86abc2dbca8aef197914","study_id":"6197b3f67c2b5cd3b6d9596a","session_id":"619be5883b3526a319543ce3","condition":"full-information","relevant_dimensions":["antennae","legs"],"bee_group":{"antennae":"B","wings":"X","pattern":"X","legs":"M"},"action":"harvest","summary":"good-harvest","bonus":0.1},{"rt":1283.4000000003725,"stimulus":"\n                    <p><b>Action: <em>harvest</em></b></p>\n                    <p>This is the bee that you just saw.</p>\n                    <img src=\"bees-with-color/bee-A1DF.svg\" width=\"200\">\n                    <p><span class=\"greenText\"><b>Successful harvest!</b></span><br>Your pay has increased by $0.02. Your bonus pay is now $0.30.</p>\n            ","response":0,"trial_type":"html-button-response","trial_index":76,"time_elapsed":402907,"internal_node_id":"0.0-4.0-1.34","subject_id":"608d86abc2dbca8aef197914","study_id":"6197b3f67c2b5cd3b6d9596a","session_id":"619be5883b3526a319543ce3","condition":"full-information","relevant_dimensions":["antennae","legs"],"bee_group":{"antennae":"B","wings":"X","pattern":"X","legs":"M"},"bonus":0.1},{"rt":2484.7999999988824,"stimulus":"bees-with-color/bee-A2DM.svg","response":0,"trial_type":"image-button-response","trial_index":77,"time_elapsed":405395,"internal_node_id":"0.0-4.0-0.35","subject_id":"608d86abc2dbca8aef197914","study_id":"6197b3f67c2b5cd3b6d9596a","session_id":"619be5883b3526a319543ce3","condition":"full-information","relevant_dimensions":["antennae","legs"],"bee_group":{"antennae":"B","wings":"X","pattern":"X","legs":"M"},"action":"harvest","summary":"good-harvest","bonus":0.1},{"rt":1523.699999999255,"stimulus":"\n                    <p><b>Action: <em>harvest</em></b></p>\n                    <p>This is the bee that you just saw.</p>\n                    <img src=\"bees-with-color/bee-A2DM.svg\" width=\"200\">\n                    <p><span class=\"greenText\"><b>Successful harvest!</b></span><br>Your pay has increased by $0.02. Your bonus pay is now $0.32.</p>\n            ","response":0,"trial_type":"html-button-response","trial_index":78,"time_elapsed":406923,"internal_node_id":"0.0-4.0-1.35","subject_id":"608d86abc2dbca8aef197914","study_id":"6197b3f67c2b5cd3b6d9596a","session_id":"619be5883b3526a319543ce3","condition":"full-information","relevant_dimensions":["antennae","legs"],"bee_group":{"antennae":"B","wings":"X","pattern":"X","legs":"M"},"bonus":0.1},{"rt":5452.4000000003725,"stimulus":"bees-with-color/bee-B1SF.svg","response":0,"trial_type":"image-button-response","trial_index":79,"time_elapsed":412380,"internal_node_id":"0.0-4.0-0.36","subject_id":"608d86abc2dbca8aef197914","study_id":"6197b3f67c2b5cd3b6d9596a","session_id":"619be5883b3526a319543ce3","condition":"full-information","relevant_dimensions":["antennae","legs"],"bee_group":{"antennae":"B","wings":"X","pattern":"X","legs":"M"},"action":"harvest","summary":"good-harvest","bonus":0.1},{"rt":1843,"stimulus":"\n                    <p><b>Action: <em>harvest</em></b></p>\n                    <p>This is the bee that you just saw.</p>\n                    <img src=\"bees-with-color/bee-B1SF.svg\" width=\"200\">\n                    <p><span class=\"greenText\"><b>Successful harvest!</b></span><br>Your pay has increased by $0.02. Your bonus pay is now $0.34.</p>\n            ","response":0,"trial_type":"html-button-response","trial_index":80,"time_elapsed":414228,"internal_node_id":"0.0-4.0-1.36","subject_id":"608d86abc2dbca8aef197914","study_id":"6197b3f67c2b5cd3b6d9596a","session_id":"619be5883b3526a319543ce3","condition":"full-information","relevant_dimensions":["antennae","legs"],"bee_group":{"antennae":"B","wings":"X","pattern":"X","legs":"M"},"bonus":0.1},{"rt":3194.89999999851,"stimulus":"bees-with-color/bee-A2SF.svg","response":0,"trial_type":"image-button-response","trial_index":81,"time_elapsed":417428,"internal_node_id":"0.0-4.0-0.37","subject_id":"608d86abc2dbca8aef197914","study_id":"6197b3f67c2b5cd3b6d9596a","session_id":"619be5883b3526a319543ce3","condition":"full-information","relevant_dimensions":["antennae","legs"],"bee_group":{"antennae":"B","wings":"X","pattern":"X","legs":"M"},"action":"harvest","summary":"good-harvest","bonus":0.1},{"rt":1820.5,"stimulus":"\n                    <p><b>Action: <em>harvest</em></b></p>\n                    <p>This is the bee that you just saw.</p>\n                    <img src=\"bees-with-color/bee-A2SF.svg\" width=\"200\">\n                    <p><span class=\"greenText\"><b>Successful harvest!</b></span><br>Your pay has increased by $0.02. Your bonus pay is now $0.36.</p>\n            ","response":0,"trial_type":"html-button-response","trial_index":82,"time_elapsed":419252,"internal_node_id":"0.0-4.0-1.37","subject_id":"608d86abc2dbca8aef197914","study_id":"6197b3f67c2b5cd3b6d9596a","session_id":"619be5883b3526a319543ce3","condition":"full-information","relevant_dimensions":["antennae","legs"],"bee_group":{"antennae":"B","wings":"X","pattern":"X","legs":"M"},"bonus":0.1},{"rt":2897,"stimulus":"bees-with-color/bee-B2SM.svg","response":0,"trial_type":"image-button-response","trial_index":83,"time_elapsed":422153,"internal_node_id":"0.0-4.0-0.38","subject_id":"608d86abc2dbca8aef197914","study_id":"6197b3f67c2b5cd3b6d9596a","session_id":"619be5883b3526a319543ce3","condition":"full-information","relevant_dimensions":["antennae","legs"],"bee_group":{"antennae":"B","wings":"X","pattern":"X","legs":"M"},"action":"harvest","summary":"bad-harvest","bonus":0.1},{"rt":1191.800000000745,"stimulus":"\n                    <p><b>Action: <em>harvest</em></b></p>\n                    <p>This is the bee that you just saw.</p>\n                    <img src=\"bees-with-color/bee-B2SM.svg\" width=\"200\">\n                    <p><span class=\"redText\">Bad choice, the bee was angry.</span><br><b>You have been stung!</b><br>Your pay has been decreased by $0.10. Your bonus pay is now $0.26.</p>\n            ","response":0,"trial_type":"html-button-response","trial_index":84,"time_elapsed":423347,"internal_node_id":"0.0-4.0-1.38","subject_id":"608d86abc2dbca8aef197914","study_id":"6197b3f67c2b5cd3b6d9596a","session_id":"619be5883b3526a319543ce3","condition":"full-information","relevant_dimensions":["antennae","legs"],"bee_group":{"antennae":"B","wings":"X","pattern":"X","legs":"M"},"bonus":0.1},{"rt":2162.4000000003725,"stimulus":"bees-with-color/bee-B1SM.svg","response":0,"trial_type":"image-button-response","trial_index":85,"time_elapsed":425515,"internal_node_id":"0.0-4.0-0.39","subject_id":"608d86abc2dbca8aef197914","study_id":"6197b3f67c2b5cd3b6d9596a","session_id":"619be5883b3526a319543ce3","condition":"full-information","relevant_dimensions":["antennae","legs"],"bee_group":{"antennae":"B","wings":"X","pattern":"X","legs":"M"},"action":"harvest","summary":"bad-harvest","bonus":0.1},{"rt":1789.699999999255,"stimulus":"\n                    <p><b>Action: <em>harvest</em></b></p>\n                    <p>This is the bee that you just saw.</p>\n                    <img src=\"bees-with-color/bee-B1SM.svg\" width=\"200\">\n                    <p><span class=\"redText\">Bad choice, the bee was angry.</span><br><b>You have been stung!</b><br>Your pay has been decreased by $0.10. Your bonus pay is now $0.16.</p>\n            ","response":0,"trial_type":"html-button-response","trial_index":86,"time_elapsed":427308,"internal_node_id":"0.0-4.0-1.39","subject_id":"608d86abc2dbca8aef197914","study_id":"6197b3f67c2b5cd3b6d9596a","session_id":"619be5883b3526a319543ce3","condition":"full-information","relevant_dimensions":["antennae","legs"],"bee_group":{"antennae":"B","wings":"X","pattern":"X","legs":"M"},"bonus":0.1},{"rt":2627.2999999988824,"stimulus":"bees-with-color/bee-B2DF.svg","response":0,"trial_type":"image-button-response","trial_index":87,"time_elapsed":429940,"internal_node_id":"0.0-4.0-0.40","subject_id":"608d86abc2dbca8aef197914","study_id":"6197b3f67c2b5cd3b6d9596a","session_id":"619be5883b3526a319543ce3","condition":"full-information","relevant_dimensions":["antennae","legs"],"bee_group":{"antennae":"B","wings":"X","pattern":"X","legs":"M"},"action":"harvest","summary":"good-harvest","bonus":0.1},{"rt":1979.5,"stimulus":"\n                    <p><b>Action: <em>harvest</em></b></p>\n                    <p>This is the bee that you just saw.</p>\n                    <img src=\"bees-with-color/bee-B2DF.svg\" width=\"200\">\n                    <p><span class=\"greenText\"><b>Successful harvest!</b></span><br>Your pay has increased by $0.02. Your bonus pay is now $0.18.</p>\n            ","response":0,"trial_type":"html-button-response","trial_index":88,"time_elapsed":431924,"internal_node_id":"0.0-4.0-1.40","subject_id":"608d86abc2dbca8aef197914","study_id":"6197b3f67c2b5cd3b6d9596a","session_id":"619be5883b3526a319543ce3","condition":"full-information","relevant_dimensions":["antennae","legs"],"bee_group":{"antennae":"B","wings":"X","pattern":"X","legs":"M"},"bonus":0.1},{"rt":1833,"stimulus":"bees-with-color/bee-B2DM.svg","response":0,"trial_type":"image-button-response","trial_index":89,"time_elapsed":433762,"internal_node_id":"0.0-4.0-0.41","subject_id":"608d86abc2dbca8aef197914","study_id":"6197b3f67c2b5cd3b6d9596a","session_id":"619be5883b3526a319543ce3","condition":"full-information","relevant_dimensions":["antennae","legs"],"bee_group":{"antennae":"B","wings":"X","pattern":"X","legs":"M"},"action":"harvest","summary":"bad-harvest","bonus":0.1},{"rt":1190.8999999985099,"stimulus":"\n                    <p><b>Action: <em>harvest</em></b></p>\n                    <p>This is the bee that you just saw.</p>\n                    <img src=\"bees-with-color/bee-B2DM.svg\" width=\"200\">\n                    <p><span class=\"redText\">Bad choice, the bee was angry.</span><br><b>You have been stung!</b><br>Your pay has been decreased by $0.10. Your bonus pay is now $0.08.</p>\n            ","response":0,"trial_type":"html-button-response","trial_index":90,"time_elapsed":434956,"internal_node_id":"0.0-4.0-1.41","subject_id":"608d86abc2dbca8aef197914","study_id":"6197b3f67c2b5cd3b6d9596a","session_id":"619be5883b3526a319543ce3","condition":"full-information","relevant_dimensions":["antennae","legs"],"bee_group":{"antennae":"B","wings":"X","pattern":"X","legs":"M"},"bonus":0.1},{"rt":1780.800000000745,"stimulus":"bees-with-color/bee-A2DF.svg","response":0,"trial_type":"image-button-response","trial_index":91,"time_elapsed":436741,"internal_node_id":"0.0-4.0-0.42","subject_id":"608d86abc2dbca8aef197914","study_id":"6197b3f67c2b5cd3b6d9596a","session_id":"619be5883b3526a319543ce3","condition":"full-information","relevant_dimensions":["antennae","legs"],"bee_group":{"antennae":"B","wings":"X","pattern":"X","legs":"M"},"action":"harvest","summary":"good-harvest","bonus":0.1},{"rt":1546.7999999988824,"stimulus":"\n                    <p><b>Action: <em>harvest</em></b></p>\n                    <p>This is the bee that you just saw.</p>\n                    <img src=\"bees-with-color/bee-A2DF.svg\" width=\"200\">\n                    <p><span class=\"greenText\"><b>Successful harvest!</b></span><br>Your pay has increased by $0.02. Your bonus pay is now $0.10.</p>\n            ","response":0,"trial_type":"html-button-response","trial_index":92,"time_elapsed":438292,"internal_node_id":"0.0-4.0-1.42","subject_id":"608d86abc2dbca8aef197914","study_id":"6197b3f67c2b5cd3b6d9596a","session_id":"619be5883b3526a319543ce3","condition":"full-information","relevant_dimensions":["antennae","legs"],"bee_group":{"antennae":"B","wings":"X","pattern":"X","legs":"M"},"bonus":0.1},{"rt":2139.5999999996275,"stimulus":"bees-with-color/bee-B1DM.svg","response":0,"trial_type":"image-button-response","trial_index":93,"time_elapsed":440437,"internal_node_id":"0.0-4.0-0.43","subject_id":"608d86abc2dbca8aef197914","study_id":"6197b3f67c2b5cd3b6d9596a","session_id":"619be5883b3526a319543ce3","condition":"full-information","relevant_dimensions":["antennae","legs"],"bee_group":{"antennae":"B","wings":"X","pattern":"X","legs":"M"},"action":"harvest","summary":"bad-harvest","bonus":0.1},{"rt":3425.300000000745,"stimulus":"\n                    <p><b>Action: <em>harvest</em></b></p>\n                    <p>This is the bee that you just saw.</p>\n                    <img src=\"bees-with-color/bee-B1DM.svg\" width=\"200\">\n                    <p><span class=\"redText\">Bad choice, the bee was angry.</span><br><b>You have been stung!</b><br>Your pay has been decreased by $0.10. Your bonus pay is now $0.00.</p>\n            ","response":0,"trial_type":"html-button-response","trial_index":94,"time_elapsed":443868,"internal_node_id":"0.0-4.0-1.43","subject_id":"608d86abc2dbca8aef197914","study_id":"6197b3f67c2b5cd3b6d9596a","session_id":"619be5883b3526a319543ce3","condition":"full-information","relevant_dimensions":["antennae","legs"],"bee_group":{"antennae":"B","wings":"X","pattern":"X","legs":"M"},"bonus":0.1},{"rt":2018.699999999255,"stimulus":"bees-with-color/bee-B1DF.svg","response":0,"trial_type":"image-button-response","trial_index":95,"time_elapsed":445892,"internal_node_id":"0.0-4.0-0.44","subject_id":"608d86abc2dbca8aef197914","study_id":"6197b3f67c2b5cd3b6d9596a","session_id":"619be5883b3526a319543ce3","condition":"full-information","relevant_dimensions":["antennae","legs"],"bee_group":{"antennae":"B","wings":"X","pattern":"X","legs":"M"},"action":"harvest","summary":"good-harvest","bonus":0.1},{"rt":2098.5999999996275,"stimulus":"\n                    <p><b>Action: <em>harvest</em></b></p>\n                    <p>This is the bee that you just saw.</p>\n                    <img src=\"bees-with-color/bee-B1DF.svg\" width=\"200\">\n                    <p><span class=\"greenText\"><b>Successful harvest!</b></span><br>Your pay has increased by $0.02. Your bonus pay is now $0.02.</p>\n            ","response":0,"trial_type":"html-button-response","trial_index":96,"time_elapsed":447995,"internal_node_id":"0.0-4.0-1.44","subject_id":"608d86abc2dbca8aef197914","study_id":"6197b3f67c2b5cd3b6d9596a","session_id":"619be5883b3526a319543ce3","condition":"full-information","relevant_dimensions":["antennae","legs"],"bee_group":{"antennae":"B","wings":"X","pattern":"X","legs":"M"},"bonus":0.1},{"rt":2966.4000000003725,"stimulus":"bees-with-color/bee-A1SF.svg","response":0,"trial_type":"image-button-response","trial_index":97,"time_elapsed":450964,"internal_node_id":"0.0-4.0-0.45","subject_id":"608d86abc2dbca8aef197914","study_id":"6197b3f67c2b5cd3b6d9596a","session_id":"619be5883b3526a319543ce3","condition":"full-information","relevant_dimensions":["antennae","legs"],"bee_group":{"antennae":"B","wings":"X","pattern":"X","legs":"M"},"action":"harvest","summary":"good-harvest","bonus":0.1},{"rt":1651.199999999255,"stimulus":"\n                    <p><b>Action: <em>harvest</em></b></p>\n                    <p>This is the bee that you just saw.</p>\n                    <img src=\"bees-with-color/bee-A1SF.svg\" width=\"200\">\n                    <p><span class=\"greenText\"><b>Successful harvest!</b></span><br>Your pay has increased by $0.02. Your bonus pay is now $0.04.</p>\n            ","response":0,"trial_type":"html-button-response","trial_index":98,"time_elapsed":452620,"internal_node_id":"0.0-4.0-1.45","subject_id":"608d86abc2dbca8aef197914","study_id":"6197b3f67c2b5cd3b6d9596a","session_id":"619be5883b3526a319543ce3","condition":"full-information","relevant_dimensions":["antennae","legs"],"bee_group":{"antennae":"B","wings":"X","pattern":"X","legs":"M"},"bonus":0.1},{"rt":1346.5999999996275,"stimulus":"bees-with-color/bee-B2SF.svg","response":0,"trial_type":"image-button-response","trial_index":99,"time_elapsed":453972,"internal_node_id":"0.0-4.0-0.46","subject_id":"608d86abc2dbca8aef197914","study_id":"6197b3f67c2b5cd3b6d9596a","session_id":"619be5883b3526a319543ce3","condition":"full-information","relevant_dimensions":["antennae","legs"],"bee_group":{"antennae":"B","wings":"X","pattern":"X","legs":"M"},"action":"harvest","summary":"good-harvest","bonus":0.1},{"rt":1395,"stimulus":"\n                    <p><b>Action: <em>harvest</em></b></p>\n                    <p>This is the bee that you just saw.</p>\n                    <img src=\"bees-with-color/bee-B2SF.svg\" width=\"200\">\n                    <p><span class=\"greenText\"><b>Successful harvest!</b></span><br>Your pay has increased by $0.02. Your bonus pay is now $0.06.</p>\n            ","response":0,"trial_type":"html-button-response","trial_index":100,"time_elapsed":455372,"internal_node_id":"0.0-4.0-1.46","subject_id":"608d86abc2dbca8aef197914","study_id":"6197b3f67c2b5cd3b6d9596a","session_id":"619be5883b3526a319543ce3","condition":"full-information","relevant_dimensions":["antennae","legs"],"bee_group":{"antennae":"B","wings":"X","pattern":"X","legs":"M"},"bonus":0.1},{"rt":1411.0999999996275,"stimulus":"bees-with-color/bee-A1SM.svg","response":0,"trial_type":"image-button-response","trial_index":101,"time_elapsed":456789,"internal_node_id":"0.0-4.0-0.47","subject_id":"608d86abc2dbca8aef197914","study_id":"6197b3f67c2b5cd3b6d9596a","session_id":"619be5883b3526a319543ce3","condition":"full-information","relevant_dimensions":["antennae","legs"],"bee_group":{"antennae":"B","wings":"X","pattern":"X","legs":"M"},"action":"harvest","summary":"good-harvest","bonus":0.1},{"rt":1370.4000000003725,"stimulus":"\n                    <p><b>Action: <em>harvest</em></b></p>\n                    <p>This is the bee that you just saw.</p>\n                    <img src=\"bees-with-color/bee-A1SM.svg\" width=\"200\">\n                    <p><span class=\"greenText\"><b>Successful harvest!</b></span><br>Your pay has increased by $0.02. Your bonus pay is now $0.08.</p>\n            ","response":0,"trial_type":"html-button-response","trial_index":102,"time_elapsed":458164,"internal_node_id":"0.0-4.0-1.47","subject_id":"608d86abc2dbca8aef197914","study_id":"6197b3f67c2b5cd3b6d9596a","session_id":"619be5883b3526a319543ce3","condition":"full-information","relevant_dimensions":["antennae","legs"],"bee_group":{"antennae":"B","wings":"X","pattern":"X","legs":"M"},"bonus":0.1},{"rt":1100.199999999255,"stimulus":"bees-with-color/bee-A1SF.svg","response":0,"trial_type":"image-button-response","trial_index":103,"time_elapsed":459268,"internal_node_id":"0.0-4.0-0.48","subject_id":"608d86abc2dbca8aef197914","study_id":"6197b3f67c2b5cd3b6d9596a","session_id":"619be5883b3526a319543ce3","condition":"full-information","relevant_dimensions":["antennae","legs"],"bee_group":{"antennae":"B","wings":"X","pattern":"X","legs":"M"},"action":"harvest","summary":"good-harvest","bonus":0.1},{"rt":1836.2000000011176,"stimulus":"\n                    <p><b>Action: <em>harvest</em></b></p>\n                    <p>This is the bee that you just saw.</p>\n                    <img src=\"bees-with-color/bee-A1SF.svg\" width=\"200\">\n                    <p><span class=\"greenText\"><b>Successful harvest!</b></span><br>Your pay has increased by $0.02. Your bonus pay is now $0.10.</p>\n            ","response":0,"trial_type":"html-button-response","trial_index":104,"time_elapsed":461108,"internal_node_id":"0.0-4.0-1.48","subject_id":"608d86abc2dbca8aef197914","study_id":"6197b3f67c2b5cd3b6d9596a","session_id":"619be5883b3526a319543ce3","condition":"full-information","relevant_dimensions":["antennae","legs"],"bee_group":{"antennae":"B","wings":"X","pattern":"X","legs":"M"},"bonus":0.1},{"rt":1308.0999999996275,"stimulus":"bees-with-color/bee-B2DF.svg","response":0,"trial_type":"image-button-response","trial_index":105,"time_elapsed":462420,"internal_node_id":"0.0-4.0-0.49","subject_id":"608d86abc2dbca8aef197914","study_id":"6197b3f67c2b5cd3b6d9596a","session_id":"619be5883b3526a319543ce3","condition":"full-information","relevant_dimensions":["antennae","legs"],"bee_group":{"antennae":"B","wings":"X","pattern":"X","legs":"M"},"action":"harvest","summary":"good-harvest","bonus":0.1},{"rt":2012.5999999996275,"stimulus":"\n                    <p><b>Action: <em>harvest</em></b></p>\n                    <p>This is the bee that you just saw.</p>\n                    <img src=\"bees-with-color/bee-B2DF.svg\" width=\"200\">\n                    <p><span class=\"greenText\"><b>Successful harvest!</b></span><br>Your pay has increased by $0.02. Your bonus pay is now $0.12.</p>\n            ","response":0,"trial_type":"html-button-response","trial_index":106,"time_elapsed":464436,"internal_node_id":"0.0-4.0-1.49","subject_id":"608d86abc2dbca8aef197914","study_id":"6197b3f67c2b5cd3b6d9596a","session_id":"619be5883b3526a319543ce3","condition":"full-information","relevant_dimensions":["antennae","legs"],"bee_group":{"antennae":"B","wings":"X","pattern":"X","legs":"M"},"bonus":0.1},{"rt":1038,"stimulus":"bees-with-color/bee-B2SM.svg","response":0,"trial_type":"image-button-response","trial_index":107,"time_elapsed":465477,"internal_node_id":"0.0-4.0-0.50","subject_id":"608d86abc2dbca8aef197914","study_id":"6197b3f67c2b5cd3b6d9596a","session_id":"619be5883b3526a319543ce3","condition":"full-information","relevant_dimensions":["antennae","legs"],"bee_group":{"antennae":"B","wings":"X","pattern":"X","legs":"M"},"action":"harvest","summary":"bad-harvest","bonus":0.1},{"rt":1411.4000000003725,"stimulus":"\n                    <p><b>Action: <em>harvest</em></b></p>\n                    <p>This is the bee that you just saw.</p>\n                    <img src=\"bees-with-color/bee-B2SM.svg\" width=\"200\">\n                    <p><span class=\"redText\">Bad choice, the bee was angry.</span><br><b>You have been stung!</b><br>Your pay has been decreased by $0.10. Your bonus pay is now $0.02.</p>\n            ","response":0,"trial_type":"html-button-response","trial_index":108,"time_elapsed":466892,"internal_node_id":"0.0-4.0-1.50","subject_id":"608d86abc2dbca8aef197914","study_id":"6197b3f67c2b5cd3b6d9596a","session_id":"619be5883b3526a319543ce3","condition":"full-information","relevant_dimensions":["antennae","legs"],"bee_group":{"antennae":"B","wings":"X","pattern":"X","legs":"M"},"bonus":0.1},{"rt":1236.5,"stimulus":"bees-with-color/bee-B1DF.svg","response":0,"trial_type":"image-button-response","trial_index":109,"time_elapsed":468132,"internal_node_id":"0.0-4.0-0.51","subject_id":"608d86abc2dbca8aef197914","study_id":"6197b3f67c2b5cd3b6d9596a","session_id":"619be5883b3526a319543ce3","condition":"full-information","relevant_dimensions":["antennae","legs"],"bee_group":{"antennae":"B","wings":"X","pattern":"X","legs":"M"},"action":"harvest","summary":"good-harvest","bonus":0.1},{"rt":1388.7000000011176,"stimulus":"\n                    <p><b>Action: <em>harvest</em></b></p>\n                    <p>This is the bee that you just saw.</p>\n                    <img src=\"bees-with-color/bee-B1DF.svg\" width=\"200\">\n                    <p><span class=\"greenText\"><b>Successful harvest!</b></span><br>Your pay has increased by $0.02. Your bonus pay is now $0.04.</p>\n            ","response":0,"trial_type":"html-button-response","trial_index":110,"time_elapsed":469524,"internal_node_id":"0.0-4.0-1.51","subject_id":"608d86abc2dbca8aef197914","study_id":"6197b3f67c2b5cd3b6d9596a","session_id":"619be5883b3526a319543ce3","condition":"full-information","relevant_dimensions":["antennae","legs"],"bee_group":{"antennae":"B","wings":"X","pattern":"X","legs":"M"},"bonus":0.1},{"rt":1187.300000000745,"stimulus":"bees-with-color/bee-A1SM.svg","response":0,"trial_type":"image-button-response","trial_index":111,"time_elapsed":470716,"internal_node_id":"0.0-4.0-0.52","subject_id":"608d86abc2dbca8aef197914","study_id":"6197b3f67c2b5cd3b6d9596a","session_id":"619be5883b3526a319543ce3","condition":"full-information","relevant_dimensions":["antennae","legs"],"bee_group":{"antennae":"B","wings":"X","pattern":"X","legs":"M"},"action":"harvest","summary":"good-harvest","bonus":0.1},{"rt":1347.800000000745,"stimulus":"\n                    <p><b>Action: <em>harvest</em></b></p>\n                    <p>This is the bee that you just saw.</p>\n                    <img src=\"bees-with-color/bee-A1SM.svg\" width=\"200\">\n                    <p><span class=\"greenText\"><b>Successful harvest!</b></span><br>Your pay has increased by $0.02. Your bonus pay is now $0.06.</p>\n            ","response":0,"trial_type":"html-button-response","trial_index":112,"time_elapsed":472068,"internal_node_id":"0.0-4.0-1.52","subject_id":"608d86abc2dbca8aef197914","study_id":"6197b3f67c2b5cd3b6d9596a","session_id":"619be5883b3526a319543ce3","condition":"full-information","relevant_dimensions":["antennae","legs"],"bee_group":{"antennae":"B","wings":"X","pattern":"X","legs":"M"},"bonus":0.1},{"rt":996.2999999988824,"stimulus":"bees-with-color/bee-B2DM.svg","response":0,"trial_type":"image-button-response","trial_index":113,"time_elapsed":473068,"internal_node_id":"0.0-4.0-0.53","subject_id":"608d86abc2dbca8aef197914","study_id":"6197b3f67c2b5cd3b6d9596a","session_id":"619be5883b3526a319543ce3","condition":"full-information","relevant_dimensions":["antennae","legs"],"bee_group":{"antennae":"B","wings":"X","pattern":"X","legs":"M"},"action":"harvest","summary":"bad-harvest","bonus":0.1},{"rt":1580.4000000003725,"stimulus":"\n                    <p><b>Action: <em>harvest</em></b></p>\n                    <p>This is the bee that you just saw.</p>\n                    <img src=\"bees-with-color/bee-B2DM.svg\" width=\"200\">\n                    <p><span class=\"redText\">Bad choice, the bee was angry.</span><br><b>You have been stung!</b><br>Your pay has been decreased by $0.10. Your bonus pay is now $0.00.</p>\n            ","response":0,"trial_type":"html-button-response","trial_index":114,"time_elapsed":474652,"internal_node_id":"0.0-4.0-1.53","subject_id":"608d86abc2dbca8aef197914","study_id":"6197b3f67c2b5cd3b6d9596a","session_id":"619be5883b3526a319543ce3","condition":"full-information","relevant_dimensions":["antennae","legs"],"bee_group":{"antennae":"B","wings":"X","pattern":"X","legs":"M"},"bonus":0.1},{"rt":956.5,"stimulus":"bees-with-color/bee-B2SF.svg","response":0,"trial_type":"image-button-response","trial_index":115,"time_elapsed":475612,"internal_node_id":"0.0-4.0-0.54","subject_id":"608d86abc2dbca8aef197914","study_id":"6197b3f67c2b5cd3b6d9596a","session_id":"619be5883b3526a319543ce3","condition":"full-information","relevant_dimensions":["antennae","legs"],"bee_group":{"antennae":"B","wings":"X","pattern":"X","legs":"M"},"action":"harvest","summary":"good-harvest","bonus":0.1},{"rt":1156.199999999255,"stimulus":"\n                    <p><b>Action: <em>harvest</em></b></p>\n                    <p>This is the bee that you just saw.</p>\n                    <img src=\"bees-with-color/bee-B2SF.svg\" width=\"200\">\n                    <p><span class=\"greenText\"><b>Successful harvest!</b></span><br>Your pay has increased by $0.02. Your bonus pay is now $0.02.</p>\n            ","response":0,"trial_type":"html-button-response","trial_index":116,"time_elapsed":476772,"internal_node_id":"0.0-4.0-1.54","subject_id":"608d86abc2dbca8aef197914","study_id":"6197b3f67c2b5cd3b6d9596a","session_id":"619be5883b3526a319543ce3","condition":"full-information","relevant_dimensions":["antennae","legs"],"bee_group":{"antennae":"B","wings":"X","pattern":"X","legs":"M"},"bonus":0.1},{"rt":1676.5,"stimulus":"bees-with-color/bee-A1DM.svg","response":0,"trial_type":"image-button-response","trial_index":117,"time_elapsed":478452,"internal_node_id":"0.0-4.0-0.55","subject_id":"608d86abc2dbca8aef197914","study_id":"6197b3f67c2b5cd3b6d9596a","session_id":"619be5883b3526a319543ce3","condition":"full-information","relevant_dimensions":["antennae","legs"],"bee_group":{"antennae":"B","wings":"X","pattern":"X","legs":"M"},"action":"harvest","summary":"good-harvest","bonus":0.1},{"rt":1692.199999999255,"stimulus":"\n                    <p><b>Action: <em>harvest</em></b></p>\n                    <p>This is the bee that you just saw.</p>\n                    <img src=\"bees-with-color/bee-A1DM.svg\" width=\"200\">\n                    <p><span class=\"greenText\"><b>Successful harvest!</b></span><br>Your pay has increased by $0.02. Your bonus pay is now $0.04.</p>\n            ","response":0,"trial_type":"html-button-response","trial_index":118,"time_elapsed":480148,"internal_node_id":"0.0-4.0-1.55","subject_id":"608d86abc2dbca8aef197914","study_id":"6197b3f67c2b5cd3b6d9596a","session_id":"619be5883b3526a319543ce3","condition":"full-information","relevant_dimensions":["antennae","legs"],"bee_group":{"antennae":"B","wings":"X","pattern":"X","legs":"M"},"bonus":0.1},{"rt":3563.5,"stimulus":"bees-with-color/bee-A2DM.svg","response":0,"trial_type":"image-button-response","trial_index":119,"time_elapsed":483716,"internal_node_id":"0.0-4.0-0.56","subject_id":"608d86abc2dbca8aef197914","study_id":"6197b3f67c2b5cd3b6d9596a","session_id":"619be5883b3526a319543ce3","condition":"full-information","relevant_dimensions":["antennae","legs"],"bee_group":{"antennae":"B","wings":"X","pattern":"X","legs":"M"},"action":"harvest","summary":"good-harvest","bonus":0.1},{"rt":1363.9000000003725,"stimulus":"\n                    <p><b>Action: <em>harvest</em></b></p>\n                    <p>This is the bee that you just saw.</p>\n                    <img src=\"bees-with-color/bee-A2DM.svg\" width=\"200\">\n                    <p><span class=\"greenText\"><b>Successful harvest!</b></span><br>Your pay has increased by $0.02. Your bonus pay is now $0.06.</p>\n            ","response":0,"trial_type":"html-button-response","trial_index":120,"time_elapsed":485084,"internal_node_id":"0.0-4.0-1.56","subject_id":"608d86abc2dbca8aef197914","study_id":"6197b3f67c2b5cd3b6d9596a","session_id":"619be5883b3526a319543ce3","condition":"full-information","relevant_dimensions":["antennae","legs"],"bee_group":{"antennae":"B","wings":"X","pattern":"X","legs":"M"},"bonus":0.1},{"rt":2787.5,"stimulus":"bees-with-color/bee-B1SM.svg","response":0,"trial_type":"image-button-response","trial_index":121,"time_elapsed":487876,"internal_node_id":"0.0-4.0-0.57","subject_id":"608d86abc2dbca8aef197914","study_id":"6197b3f67c2b5cd3b6d9596a","session_id":"619be5883b3526a319543ce3","condition":"full-information","relevant_dimensions":["antennae","legs"],"bee_group":{"antennae":"B","wings":"X","pattern":"X","legs":"M"},"action":"harvest","summary":"bad-harvest","bonus":0.1},{"rt":1195.5999999996275,"stimulus":"\n                    <p><b>Action: <em>harvest</em></b></p>\n                    <p>This is the bee that you just saw.</p>\n                    <img src=\"bees-with-color/bee-B1SM.svg\" width=\"200\">\n                    <p><span class=\"redText\">Bad choice, the bee was angry.</span><br><b>You have been stung!</b><br>Your pay has been decreased by $0.10. Your bonus pay is now $0.00.</p>\n            ","response":0,"trial_type":"html-button-response","trial_index":122,"time_elapsed":489076,"internal_node_id":"0.0-4.0-1.57","subject_id":"608d86abc2dbca8aef197914","study_id":"6197b3f67c2b5cd3b6d9596a","session_id":"619be5883b3526a319543ce3","condition":"full-information","relevant_dimensions":["antennae","legs"],"bee_group":{"antennae":"B","wings":"X","pattern":"X","legs":"M"},"bonus":0.1},{"rt":2730.699999999255,"stimulus":"bees-with-color/bee-A1DF.svg","response":0,"trial_type":"image-button-response","trial_index":123,"time_elapsed":491812,"internal_node_id":"0.0-4.0-0.58","subject_id":"608d86abc2dbca8aef197914","study_id":"6197b3f67c2b5cd3b6d9596a","session_id":"619be5883b3526a319543ce3","condition":"full-information","relevant_dimensions":["antennae","legs"],"bee_group":{"antennae":"B","wings":"X","pattern":"X","legs":"M"},"action":"harvest","summary":"good-harvest","bonus":0.1},{"rt":1810.5,"stimulus":"\n                    <p><b>Action: <em>harvest</em></b></p>\n                    <p>This is the bee that you just saw.</p>\n                    <img src=\"bees-with-color/bee-A1DF.svg\" width=\"200\">\n                    <p><span class=\"greenText\"><b>Successful harvest!</b></span><br>Your pay has increased by $0.02. Your bonus pay is now $0.02.</p>\n            ","response":0,"trial_type":"html-button-response","trial_index":124,"time_elapsed":493626,"internal_node_id":"0.0-4.0-1.58","subject_id":"608d86abc2dbca8aef197914","study_id":"6197b3f67c2b5cd3b6d9596a","session_id":"619be5883b3526a319543ce3","condition":"full-information","relevant_dimensions":["antennae","legs"],"bee_group":{"antennae":"B","wings":"X","pattern":"X","legs":"M"},"bonus":0.1},{"rt":2079.699999999255,"stimulus":"bees-with-color/bee-A2DF.svg","response":0,"trial_type":"image-button-response","trial_index":125,"time_elapsed":495708,"internal_node_id":"0.0-4.0-0.59","subject_id":"608d86abc2dbca8aef197914","study_id":"6197b3f67c2b5cd3b6d9596a","session_id":"619be5883b3526a319543ce3","condition":"full-information","relevant_dimensions":["antennae","legs"],"bee_group":{"antennae":"B","wings":"X","pattern":"X","legs":"M"},"action":"harvest","summary":"good-harvest","bonus":0.1},{"rt":1243.7999999988824,"stimulus":"\n                    <p><b>Action: <em>harvest</em></b></p>\n                    <p>This is the bee that you just saw.</p>\n                    <img src=\"bees-with-color/bee-A2DF.svg\" width=\"200\">\n                    <p><span class=\"greenText\"><b>Successful harvest!</b></span><br>Your pay has increased by $0.02. Your bonus pay is now $0.04.</p>\n            ","response":0,"trial_type":"html-button-response","trial_index":126,"time_elapsed":496956,"internal_node_id":"0.0-4.0-1.59","subject_id":"608d86abc2dbca8aef197914","study_id":"6197b3f67c2b5cd3b6d9596a","session_id":"619be5883b3526a319543ce3","condition":"full-information","relevant_dimensions":["antennae","legs"],"bee_group":{"antennae":"B","wings":"X","pattern":"X","legs":"M"},"bonus":0.1},{"rt":1836.0999999996275,"stimulus":"bees-with-color/bee-B1DM.svg","response":0,"trial_type":"image-button-response","trial_index":127,"time_elapsed":498796,"internal_node_id":"0.0-4.0-0.60","subject_id":"608d86abc2dbca8aef197914","study_id":"6197b3f67c2b5cd3b6d9596a","session_id":"619be5883b3526a319543ce3","condition":"full-information","relevant_dimensions":["antennae","legs"],"bee_group":{"antennae":"B","wings":"X","pattern":"X","legs":"M"},"action":"harvest","summary":"bad-harvest","bonus":0.1},{"rt":1011.5,"stimulus":"\n                    <p><b>Action: <em>harvest</em></b></p>\n                    <p>This is the bee that you just saw.</p>\n                    <img src=\"bees-with-color/bee-B1DM.svg\" width=\"200\">\n                    <p><span class=\"redText\">Bad choice, the bee was angry.</span><br><b>You have been stung!</b><br>Your pay has been decreased by $0.10. Your bonus pay is now $0.00.</p>\n            ","response":0,"trial_type":"html-button-response","trial_index":128,"time_elapsed":499812,"internal_node_id":"0.0-4.0-1.60","subject_id":"608d86abc2dbca8aef197914","study_id":"6197b3f67c2b5cd3b6d9596a","session_id":"619be5883b3526a319543ce3","condition":"full-information","relevant_dimensions":["antennae","legs"],"bee_group":{"antennae":"B","wings":"X","pattern":"X","legs":"M"},"bonus":0.1},{"rt":1444.199999999255,"stimulus":"bees-with-color/bee-B1SF.svg","response":0,"trial_type":"image-button-response","trial_index":129,"time_elapsed":501260,"internal_node_id":"0.0-4.0-0.61","subject_id":"608d86abc2dbca8aef197914","study_id":"6197b3f67c2b5cd3b6d9596a","session_id":"619be5883b3526a319543ce3","condition":"full-information","relevant_dimensions":["antennae","legs"],"bee_group":{"antennae":"B","wings":"X","pattern":"X","legs":"M"},"action":"harvest","summary":"good-harvest","bonus":0.1},{"rt":1235.300000000745,"stimulus":"\n                    <p><b>Action: <em>harvest</em></b></p>\n                    <p>This is the bee that you just saw.</p>\n                    <img src=\"bees-with-color/bee-B1SF.svg\" width=\"200\">\n                    <p><span class=\"greenText\"><b>Successful harvest!</b></span><br>Your pay has increased by $0.02. Your bonus pay is now $0.02.</p>\n            ","response":0,"trial_type":"html-button-response","trial_index":130,"time_elapsed":502500,"internal_node_id":"0.0-4.0-1.61","subject_id":"608d86abc2dbca8aef197914","study_id":"6197b3f67c2b5cd3b6d9596a","session_id":"619be5883b3526a319543ce3","condition":"full-information","relevant_dimensions":["antennae","legs"],"bee_group":{"antennae":"B","wings":"X","pattern":"X","legs":"M"},"bonus":0.1},{"rt":1140.0999999996275,"stimulus":"bees-with-color/bee-A2SM.svg","response":0,"trial_type":"image-button-response","trial_index":131,"time_elapsed":503644,"internal_node_id":"0.0-4.0-0.62","subject_id":"608d86abc2dbca8aef197914","study_id":"6197b3f67c2b5cd3b6d9596a","session_id":"619be5883b3526a319543ce3","condition":"full-information","relevant_dimensions":["antennae","legs"],"bee_group":{"antennae":"B","wings":"X","pattern":"X","legs":"M"},"action":"harvest","summary":"good-harvest","bonus":0.1},{"rt":1083.7000000011176,"stimulus":"\n                    <p><b>Action: <em>harvest</em></b></p>\n                    <p>This is the bee that you just saw.</p>\n                    <img src=\"bees-with-color/bee-A2SM.svg\" width=\"200\">\n                    <p><span class=\"greenText\"><b>Successful harvest!</b></span><br>Your pay has increased by $0.02. Your bonus pay is now $0.04.</p>\n            ","response":0,"trial_type":"html-button-response","trial_index":132,"time_elapsed":504732,"internal_node_id":"0.0-4.0-1.62","subject_id":"608d86abc2dbca8aef197914","study_id":"6197b3f67c2b5cd3b6d9596a","session_id":"619be5883b3526a319543ce3","condition":"full-information","relevant_dimensions":["antennae","legs"],"bee_group":{"antennae":"B","wings":"X","pattern":"X","legs":"M"},"bonus":0.1},{"rt":1108.4000000003725,"stimulus":"bees-with-color/bee-A2SF.svg","response":0,"trial_type":"image-button-response","trial_index":133,"time_elapsed":505844,"internal_node_id":"0.0-4.0-0.63","subject_id":"608d86abc2dbca8aef197914","study_id":"6197b3f67c2b5cd3b6d9596a","session_id":"619be5883b3526a319543ce3","condition":"full-information","relevant_dimensions":["antennae","legs"],"bee_group":{"antennae":"B","wings":"X","pattern":"X","legs":"M"},"action":"harvest","summary":"good-harvest","bonus":0.1},{"rt":996,"stimulus":"\n                    <p><b>Action: <em>harvest</em></b></p>\n                    <p>This is the bee that you just saw.</p>\n                    <img src=\"bees-with-color/bee-A2SF.svg\" width=\"200\">\n                    <p><span class=\"greenText\"><b>Successful harvest!</b></span><br>Your pay has increased by $0.02. Your bonus pay is now $0.06.</p>\n            ","response":0,"trial_type":"html-button-response","trial_index":134,"time_elapsed":506844,"internal_node_id":"0.0-4.0-1.63","subject_id":"608d86abc2dbca8aef197914","study_id":"6197b3f67c2b5cd3b6d9596a","session_id":"619be5883b3526a319543ce3","condition":"full-information","relevant_dimensions":["antennae","legs"],"bee_group":{"antennae":"B","wings":"X","pattern":"X","legs":"M"},"bonus":0.1},{"rt":4176.699999999255,"stimulus":"You have completed the first part of this experiment.<br><br>You will now begin a shorter second part, in which you will receive no feedback.<br>The same rules regarding bonus pay apply.<br><br>Press any key to begin.","response":" ","trial_type":"html-keyboard-response","trial_index":135,"time_elapsed":511025,"internal_node_id":"0.0-5.0","subject_id":"608d86abc2dbca8aef197914","study_id":"6197b3f67c2b5cd3b6d9596a","session_id":"619be5883b3526a319543ce3","condition":"full-information","relevant_dimensions":["antennae","legs"],"bee_group":{"antennae":"B","wings":"X","pattern":"X","legs":"M"},"bonus":0.1},{"rt":2025.4000000003725,"stimulus":"bees-with-color/bee-B2DF.svg","response":0,"trial_type":"image-button-response","trial_index":136,"time_elapsed":513076,"internal_node_id":"0.0-6.0-0.0","subject_id":"608d86abc2dbca8aef197914","study_id":"6197b3f67c2b5cd3b6d9596a","session_id":"619be5883b3526a319543ce3","condition":"full-information","relevant_dimensions":["antennae","legs"],"bee_group":{"antennae":"B","wings":"X","pattern":"X","legs":"M"},"bonus":0.1},{"rt":4265.9000000003725,"stimulus":"bees-with-color/bee-B2DM.svg","response":0,"trial_type":"image-button-response","trial_index":137,"time_elapsed":517348,"internal_node_id":"0.0-6.0-0.1","subject_id":"608d86abc2dbca8aef197914","study_id":"6197b3f67c2b5cd3b6d9596a","session_id":"619be5883b3526a319543ce3","condition":"full-information","relevant_dimensions":["antennae","legs"],"bee_group":{"antennae":"B","wings":"X","pattern":"X","legs":"M"},"bonus":0.1},{"rt":2105.199999999255,"stimulus":"bees-with-color/bee-A2SF.svg","response":1,"trial_type":"image-button-response","trial_index":138,"time_elapsed":519460,"internal_node_id":"0.0-6.0-0.2","subject_id":"608d86abc2dbca8aef197914","study_id":"6197b3f67c2b5cd3b6d9596a","session_id":"619be5883b3526a319543ce3","condition":"full-information","relevant_dimensions":["antennae","legs"],"bee_group":{"antennae":"B","wings":"X","pattern":"X","legs":"M"},"bonus":0.1},{"rt":1330.199999999255,"stimulus":"bees-with-color/bee-A2SM.svg","response":1,"trial_type":"image-button-response","trial_index":139,"time_elapsed":520796,"internal_node_id":"0.0-6.0-0.3","subject_id":"608d86abc2dbca8aef197914","study_id":"6197b3f67c2b5cd3b6d9596a","session_id":"619be5883b3526a319543ce3","condition":"full-information","relevant_dimensions":["antennae","legs"],"bee_group":{"antennae":"B","wings":"X","pattern":"X","legs":"M"},"bonus":0.1},{"rt":1786.300000000745,"stimulus":"bees-with-color/bee-B1DM.svg","response":0,"trial_type":"image-button-response","trial_index":140,"time_elapsed":522588,"internal_node_id":"0.0-6.0-0.4","subject_id":"608d86abc2dbca8aef197914","study_id":"6197b3f67c2b5cd3b6d9596a","session_id":"619be5883b3526a319543ce3","condition":"full-information","relevant_dimensions":["antennae","legs"],"bee_group":{"antennae":"B","wings":"X","pattern":"X","legs":"M"},"bonus":0.1},{"rt":3233.7999999988824,"stimulus":"bees-with-color/bee-B1SF.svg","response":0,"trial_type":"image-button-response","trial_index":141,"time_elapsed":525827,"internal_node_id":"0.0-6.0-0.5","subject_id":"608d86abc2dbca8aef197914","study_id":"6197b3f67c2b5cd3b6d9596a","session_id":"619be5883b3526a319543ce3","condition":"full-information","relevant_dimensions":["antennae","legs"],"bee_group":{"antennae":"B","wings":"X","pattern":"X","legs":"M"},"bonus":0.1},{"rt":2385.4000000003725,"stimulus":"bees-with-color/bee-A2DM.svg","response":1,"trial_type":"image-button-response","trial_index":142,"time_elapsed":528220,"internal_node_id":"0.0-6.0-0.6","subject_id":"608d86abc2dbca8aef197914","study_id":"6197b3f67c2b5cd3b6d9596a","session_id":"619be5883b3526a319543ce3","condition":"full-information","relevant_dimensions":["antennae","legs"],"bee_group":{"antennae":"B","wings":"X","pattern":"X","legs":"M"},"bonus":0.1},{"rt":1722.4000000003725,"stimulus":"bees-with-color/bee-A1SF.svg","response":0,"trial_type":"image-button-response","trial_index":143,"time_elapsed":529948,"internal_node_id":"0.0-6.0-0.7","subject_id":"608d86abc2dbca8aef197914","study_id":"6197b3f67c2b5cd3b6d9596a","session_id":"619be5883b3526a319543ce3","condition":"full-information","relevant_dimensions":["antennae","legs"],"bee_group":{"antennae":"B","wings":"X","pattern":"X","legs":"M"},"bonus":0.1},{"rt":1698,"stimulus":"bees-with-color/bee-B1DF.svg","response":0,"trial_type":"image-button-response","trial_index":144,"time_elapsed":531652,"internal_node_id":"0.0-6.0-0.8","subject_id":"608d86abc2dbca8aef197914","study_id":"6197b3f67c2b5cd3b6d9596a","session_id":"619be5883b3526a319543ce3","condition":"full-information","relevant_dimensions":["antennae","legs"],"bee_group":{"antennae":"B","wings":"X","pattern":"X","legs":"M"},"bonus":0.1},{"rt":1763.4000000003725,"stimulus":"bees-with-color/bee-B2SF.svg","response":1,"trial_type":"image-button-response","trial_index":145,"time_elapsed":533419,"internal_node_id":"0.0-6.0-0.9","subject_id":"608d86abc2dbca8aef197914","study_id":"6197b3f67c2b5cd3b6d9596a","session_id":"619be5883b3526a319543ce3","condition":"full-information","relevant_dimensions":["antennae","legs"],"bee_group":{"antennae":"B","wings":"X","pattern":"X","legs":"M"},"bonus":0.1},{"rt":2611.5,"stimulus":"bees-with-color/bee-A2DF.svg","response":0,"trial_type":"image-button-response","trial_index":146,"time_elapsed":536036,"internal_node_id":"0.0-6.0-0.10","subject_id":"608d86abc2dbca8aef197914","study_id":"6197b3f67c2b5cd3b6d9596a","session_id":"619be5883b3526a319543ce3","condition":"full-information","relevant_dimensions":["antennae","legs"],"bee_group":{"antennae":"B","wings":"X","pattern":"X","legs":"M"},"bonus":0.1},{"rt":1523,"stimulus":"bees-with-color/bee-A1DF.svg","response":0,"trial_type":"image-button-response","trial_index":147,"time_elapsed":537564,"internal_node_id":"0.0-6.0-0.11","subject_id":"608d86abc2dbca8aef197914","study_id":"6197b3f67c2b5cd3b6d9596a","session_id":"619be5883b3526a319543ce3","condition":"full-information","relevant_dimensions":["antennae","legs"],"bee_group":{"antennae":"B","wings":"X","pattern":"X","legs":"M"},"bonus":0.1},{"rt":2578.9000000003725,"stimulus":"bees-with-color/bee-B2SM.svg","response":1,"trial_type":"image-button-response","trial_index":148,"time_elapsed":540148,"internal_node_id":"0.0-6.0-0.12","subject_id":"608d86abc2dbca8aef197914","study_id":"6197b3f67c2b5cd3b6d9596a","session_id":"619be5883b3526a319543ce3","condition":"full-information","relevant_dimensions":["antennae","legs"],"bee_group":{"antennae":"B","wings":"X","pattern":"X","legs":"M"},"bonus":0.1},{"rt":1674.800000000745,"stimulus":"bees-with-color/bee-B1SM.svg","response":0,"trial_type":"image-button-response","trial_index":149,"time_elapsed":541827,"internal_node_id":"0.0-6.0-0.13","subject_id":"608d86abc2dbca8aef197914","study_id":"6197b3f67c2b5cd3b6d9596a","session_id":"619be5883b3526a319543ce3","condition":"full-information","relevant_dimensions":["antennae","legs"],"bee_group":{"antennae":"B","wings":"X","pattern":"X","legs":"M"},"bonus":0.1},{"rt":4418.9000000003725,"stimulus":"bees-with-color/bee-A1SM.svg","response":0,"trial_type":"image-button-response","trial_index":150,"time_elapsed":546252,"internal_node_id":"0.0-6.0-0.14","subject_id":"608d86abc2dbca8aef197914","study_id":"6197b3f67c2b5cd3b6d9596a","session_id":"619be5883b3526a319543ce3","condition":"full-information","relevant_dimensions":["antennae","legs"],"bee_group":{"antennae":"B","wings":"X","pattern":"X","legs":"M"},"bonus":0.1},{"rt":1463.7000000011176,"stimulus":"bees-with-color/bee-A1DM.svg","response":1,"trial_type":"image-button-response","trial_index":151,"time_elapsed":547723,"internal_node_id":"0.0-6.0-0.15","subject_id":"608d86abc2dbca8aef197914","study_id":"6197b3f67c2b5cd3b6d9596a","session_id":"619be5883b3526a319543ce3","condition":"full-information","relevant_dimensions":["antennae","legs"],"bee_group":{"antennae":"B","wings":"X","pattern":"X","legs":"M"},"bonus":0.1},{"rt":3276,"stimulus":"bees-with-color/bee-B2DF.svg","response":1,"trial_type":"image-button-response","trial_index":152,"time_elapsed":551004,"internal_node_id":"0.0-6.0-0.16","subject_id":"608d86abc2dbca8aef197914","study_id":"6197b3f67c2b5cd3b6d9596a","session_id":"619be5883b3526a319543ce3","condition":"full-information","relevant_dimensions":["antennae","legs"],"bee_group":{"antennae":"B","wings":"X","pattern":"X","legs":"M"},"bonus":0.1},{"rt":1635.5,"stimulus":"bees-with-color/bee-B1SM.svg","response":0,"trial_type":"image-button-response","trial_index":153,"time_elapsed":552644,"internal_node_id":"0.0-6.0-0.17","subject_id":"608d86abc2dbca8aef197914","study_id":"6197b3f67c2b5cd3b6d9596a","session_id":"619be5883b3526a319543ce3","condition":"full-information","relevant_dimensions":["antennae","legs"],"bee_group":{"antennae":"B","wings":"X","pattern":"X","legs":"M"},"bonus":0.1},{"rt":1900.2000000011176,"stimulus":"bees-with-color/bee-A1SF.svg","response":0,"trial_type":"image-button-response","trial_index":154,"time_elapsed":554549,"internal_node_id":"0.0-6.0-0.18","subject_id":"608d86abc2dbca8aef197914","study_id":"6197b3f67c2b5cd3b6d9596a","session_id":"619be5883b3526a319543ce3","condition":"full-information","relevant_dimensions":["antennae","legs"],"bee_group":{"antennae":"B","wings":"X","pattern":"X","legs":"M"},"bonus":0.1},{"rt":1177.699999999255,"stimulus":"bees-with-color/bee-B1DF.svg","response":0,"trial_type":"image-button-response","trial_index":155,"time_elapsed":555732,"internal_node_id":"0.0-6.0-0.19","subject_id":"608d86abc2dbca8aef197914","study_id":"6197b3f67c2b5cd3b6d9596a","session_id":"619be5883b3526a319543ce3","condition":"full-information","relevant_dimensions":["antennae","legs"],"bee_group":{"antennae":"B","wings":"X","pattern":"X","legs":"M"},"bonus":0.1},{"rt":1578.300000000745,"stimulus":"bees-with-color/bee-A1DM.svg","response":1,"trial_type":"image-button-response","trial_index":156,"time_elapsed":557316,"internal_node_id":"0.0-6.0-0.20","subject_id":"608d86abc2dbca8aef197914","study_id":"6197b3f67c2b5cd3b6d9596a","session_id":"619be5883b3526a319543ce3","condition":"full-information","relevant_dimensions":["antennae","legs"],"bee_group":{"antennae":"B","wings":"X","pattern":"X","legs":"M"},"bonus":0.1},{"rt":1476.2999999988824,"stimulus":"bees-with-color/bee-B1DM.svg","response":1,"trial_type":"image-button-response","trial_index":157,"time_elapsed":558797,"internal_node_id":"0.0-6.0-0.21","subject_id":"608d86abc2dbca8aef197914","study_id":"6197b3f67c2b5cd3b6d9596a","session_id":"619be5883b3526a319543ce3","condition":"full-information","relevant_dimensions":["antennae","legs"],"bee_group":{"antennae":"B","wings":"X","pattern":"X","legs":"M"},"bonus":0.1},{"rt":1818.5,"stimulus":"bees-with-color/bee-A2DF.svg","response":1,"trial_type":"image-button-response","trial_index":158,"time_elapsed":560621,"internal_node_id":"0.0-6.0-0.22","subject_id":"608d86abc2dbca8aef197914","study_id":"6197b3f67c2b5cd3b6d9596a","session_id":"619be5883b3526a319543ce3","condition":"full-information","relevant_dimensions":["antennae","legs"],"bee_group":{"antennae":"B","wings":"X","pattern":"X","legs":"M"},"bonus":0.1},{"rt":1792.300000000745,"stimulus":"bees-with-color/bee-A1DF.svg","response":0,"trial_type":"image-button-response","trial_index":159,"time_elapsed":562419,"internal_node_id":"0.0-6.0-0.23","subject_id":"608d86abc2dbca8aef197914","study_id":"6197b3f67c2b5cd3b6d9596a","session_id":"619be5883b3526a319543ce3","condition":"full-information","relevant_dimensions":["antennae","legs"],"bee_group":{"antennae":"B","wings":"X","pattern":"X","legs":"M"},"bonus":0.1},{"rt":1874.3999999985099,"stimulus":"bees-with-color/bee-B2DM.svg","response":1,"trial_type":"image-button-response","trial_index":160,"time_elapsed":564297,"internal_node_id":"0.0-6.0-0.24","subject_id":"608d86abc2dbca8aef197914","study_id":"6197b3f67c2b5cd3b6d9596a","session_id":"619be5883b3526a319543ce3","condition":"full-information","relevant_dimensions":["antennae","legs"],"bee_group":{"antennae":"B","wings":"X","pattern":"X","legs":"M"},"bonus":0.1},{"rt":2119.5999999996275,"stimulus":"bees-with-color/bee-B1SF.svg","response":0,"trial_type":"image-button-response","trial_index":161,"time_elapsed":566419,"internal_node_id":"0.0-6.0-0.25","subject_id":"608d86abc2dbca8aef197914","study_id":"6197b3f67c2b5cd3b6d9596a","session_id":"619be5883b3526a319543ce3","condition":"full-information","relevant_dimensions":["antennae","legs"],