[{"success":true,"trial_type":"fullscreen","trial_index":0,"time_elapsed":4635,"internal_node_id":"0.0-0.0","subject_id":"616f579cd112c371f862e1f6","study_id":"6197b3f67c2b5cd3b6d9596a","session_id":"6197b9f095023eb426347427","condition":"full-information","relevant_dimensions":["wings","legs"],"bee_group":{"antennae":"X","wings":"2","pattern":"X","legs":"F"},"bonus":1.8000000000000012},{"success":true,"timeout":false,"failed_images":[],"failed_audio":[],"failed_video":[],"trial_type":"preload","trial_index":1,"time_elapsed":7538,"internal_node_id":"0.0-1.0","subject_id":"616f579cd112c371f862e1f6","study_id":"6197b3f67c2b5cd3b6d9596a","session_id":"6197b9f095023eb426347427","condition":"full-information","relevant_dimensions":["wings","legs"],"bee_group":{"antennae":"X","wings":"2","pattern":"X","legs":"F"},"bonus":1.8000000000000012},{"rt":3004.300000011921,"stimulus":"Welcome! Press any key to begin.","response":" ","trial_type":"html-keyboard-response","trial_index":2,"time_elapsed":10545,"internal_node_id":"0.0-2.0","subject_id":"616f579cd112c371f862e1f6","study_id":"6197b3f67c2b5cd3b6d9596a","session_id":"6197b9f095023eb426347427","condition":"full-information","relevant_dimensions":["wings","legs"],"bee_group":{"antennae":"X","wings":"2","pattern":"X","legs":"F"},"bonus":1.8000000000000012},{"view_history":[{"page_index":0,"viewing_time":8468.09999999404},{"page_index":1,"viewing_time":17931.90000000596},{"page_index":2,"viewing_time":19357.29999998212},{"page_index":3,"viewing_time":18666.80000001192},{"page_index":4,"viewing_time":7651.5},{"page_index":5,"viewing_time":8586.699999988079},{"page_index":6,"viewing_time":19652.5},{"page_index":7,"viewing_time":35458.40000000596},{"page_index":8,"viewing_time":10757.59999999404},{"page_index":9,"viewing_time":8395.59999999404},{"page_index":10,"viewing_time":6122.200000017881},{"page_index":11,"viewing_time":26973.19999998808},{"page_index":12,"viewing_time":40400.09999999404},{"page_index":13,"viewing_time":11018.40000000596},{"page_index":12,"viewing_time":470477.90000000596},{"page_index":13,"viewing_time":5378.9000000059605},{"page_index":14,"viewing_time":4339.0999999940395}],"rt":719636.6999999881,"trial_type":"instructions","trial_index":3,"time_elapsed":730182,"internal_node_id":"0.0-3.0-0.0","subject_id":"616f579cd112c371f862e1f6","study_id":"6197b3f67c2b5cd3b6d9596a","session_id":"6197b9f095023eb426347427","condition":"full-information","relevant_dimensions":["wings","legs"],"bee_group":{"antennae":"X","wings":"2","pattern":"X","legs":"F"},"bonus":1.8000000000000012},{"rt":48554.90000000596,"response":{"Q0":["Two or six legs","Single or double wings","Antennae or no antennae"]},"question_order":[0],"trial_type":"survey-multi-select","trial_index":4,"time_elapsed":778743,"internal_node_id":"0.0-3.0-1.0","subject_id":"616f579cd112c371f862e1f6","study_id":"6197b3f67c2b5cd3b6d9596a","session_id":"6197b9f095023eb426347427","condition":"full-information","relevant_dimensions":["wings","legs"],"bee_group":{"antennae":"X","wings":"2","pattern":"X","legs":"F"},"correct":false,"bonus":1.8000000000000012},{"rt":45403.80000001192,"response":{"Q1":"Yes.","Q2":"Based on the four features of the bee.","Q3":"You learn if it was friendly or dangerous, but do not alter your bonus."},"question_order":[0,1,2],"trial_type":"survey-multi-choice","trial_index":5,"time_elapsed":824153,"internal_node_id":"0.0-3.0-2.0","subject_id":"616f579cd112c371f862e1f6","study_id":"6197b3f67c2b5cd3b6d9596a","session_id":"6197b9f095023eb426347427","condition":"full-information","relevant_dimensions":["wings","legs"],"bee_group":{"antennae":"X","wings":"2","pattern":"X","legs":"F"},"correct":false,"bonus":1.8000000000000012},{"rt":7111.800000011921,"stimulus":"<p>You did not answer all comprehension questions correctly.<br>Press <b>continue</b> to review the instructions again.</p>","response":0,"trial_type":"html-button-response","trial_index":6,"time_elapsed":831272,"internal_node_id":"0.0-3.0-3.0","subject_id":"616f579cd112c371f862e1f6","study_id":"6197b3f67c2b5cd3b6d9596a","session_id":"6197b9f095023eb426347427","condition":"full-information","relevant_dimensions":["wings","legs"],"bee_group":{"antennae":"X","wings":"2","pattern":"X","legs":"F"},"bonus":1.8000000000000012},{"view_history":[{"page_index":0,"viewing_time":8707.09999999404},{"page_index":1,"viewing_time":16681.90000000596},{"page_index":2,"viewing_time":8663.699999988079},{"page_index":3,"viewing_time":23171.20000001788},{"page_index":4,"viewing_time":7516.299999982119},{"page_index":5,"viewing_time":18526.90000000596},{"page_index":6,"viewing_time":12374.40000000596},{"page_index":7,"viewing_time":2768},{"page_index":8,"viewing_time":1251.5},{"page_index":9,"viewing_time":751},{"page_index":10,"viewing_time":2223},{"page_index":9,"viewing_time":1244.5},{"page_index":10,"viewing_time":780.1999999880791},{"page_index":11,"viewing_time":9885.40000000596},{"page_index":12,"viewing_time":2613.9000000059605},{"page_index":13,"viewing_time":1789.5},{"page_index":14,"viewing_time":2540}],"rt":121488.80000001192,"trial_type":"instructions","trial_index":7,"time_elapsed":952762,"internal_node_id":"0.0-3.0-4.0-0.0","subject_id":"616f579cd112c371f862e1f6","study_id":"6197b3f67c2b5cd3b6d9596a","session_id":"6197b9f095023eb426347427","condition":"full-information","relevant_dimensions":["wings","legs"],"bee_group":{"antennae":"X","wings":"2","pattern":"X","legs":"F"},"bonus":1.8000000000000012},{"rt":25113.79999998212,"response":{"Q0":["Two or six legs","Stripes or spots on body","Single or double wings","Antennae or no antennae"]},"question_order":[0],"trial_type":"survey-multi-select","trial_index":8,"time_elapsed":977881,"internal_node_id":"0.0-3.0-4.0-1.0","subject_id":"616f579cd112c371f862e1f6","study_id":"6197b3f67c2b5cd3b6d9596a","session_id":"6197b9f095023eb426347427","condition":"full-information","relevant_dimensions":["wings","legs"],"bee_group":{"antennae":"X","wings":"2","pattern":"X","legs":"F"},"correct":true,"bonus":1.8000000000000012},{"rt":14409,"response":{"Q1":"No.","Q2":"Based on the four features of the bee.","Q3":"You learn if it was friendly or dangerous, but do not alter your bonus."},"question_order":[0,1,2],"trial_type":"survey-multi-choice","trial_index":9,"time_elapsed":992297,"internal_node_id":"0.0-3.0-4.0-2.0","subject_id":"616f579cd112c371f862e1f6","study_id":"6197b3f67c2b5cd3b6d9596a","session_id":"6197b9f095023eb426347427","condition":"full-information","relevant_dimensions":["wings","legs"],"bee_group":{"antennae":"X","wings":"2","pattern":"X","legs":"F"},"correct":true,"bonus":1.8000000000000012},{"rt":4794.800000011921,"stimulus":"<p>Congrats, you got everything right<br>When you're ready, click the button below to continue to the experiment.</p>","response":0,"trial_type":"html-button-response","trial_index":10,"time_elapsed":997097,"internal_node_id":"0.0-3.0-4.0-3.0","subject_id":"616f579cd112c371f862e1f6","study_id":"6197b3f67c2b5cd3b6d9596a","session_id":"6197b9f095023eb426347427","condition":"full-information","relevant_dimensions":["wings","legs"],"bee_group":{"antennae":"X","wings":"2","pattern":"X","legs":"F"},"bonus":1.8000000000000012},{"rt":12082.399999976158,"stimulus":"bees-with-color/bee-B1SM.svg","response":1,"trial_type":"image-button-response","trial_index":11,"time_elapsed":1009184,"internal_node_id":"0.0-4.0-0.0","subject_id":"616f579cd112c371f862e1f6","study_id":"6197b3f67c2b5cd3b6d9596a","session_id":"6197b9f095023eb426347427","condition":"full-information","relevant_dimensions":["wings","legs"],"bee_group":{"antennae":"X","wings":"2","pattern":"X","legs":"F"},"action":"avoid","summary":"bad-avoid","bonus":1.8000000000000012},{"rt":48238,"stimulus":"\n                    <p><b>Action: <em>avoid</em></b></p>\n                    <p>This is the bee that you just saw.</p>\n                    <img src=\"bees-with-color/bee-B1SM.svg\" width=\"200\">\n                    <p><span class=\"redText\">Bad choice,</span> the bee was friendly.<br>Your bonus pay is unchanged, and remains at $0.54.</p>\n            ","response":0,"trial_type":"html-button-response","trial_index":12,"time_elapsed":1057426,"internal_node_id":"0.0-4.0-1.0","subject_id":"616f579cd112c371f862e1f6","study_id":"6197b3f67c2b5cd3b6d9596a","session_id":"6197b9f095023eb426347427","condition":"full-information","relevant_dimensions":["wings","legs"],"bee_group":{"antennae":"X","wings":"2","pattern":"X","legs":"F"},"bonus":1.8000000000000012},{"rt":4054.5,"stimulus":"bees-with-color/bee-B1DF.svg","response":1,"trial_type":"image-button-response","trial_index":13,"time_elapsed":1061483,"internal_node_id":"0.0-4.0-0.1","subject_id":"616f579cd112c371f862e1f6","study_id":"6197b3f67c2b5cd3b6d9596a","session_id":"6197b9f095023eb426347427","condition":"full-information","relevant_dimensions":["wings","legs"],"bee_group":{"antennae":"X","wings":"2","pattern":"X","legs":"F"},"action":"avoid","summary":"bad-avoid","bonus":1.8000000000000012},{"rt":12829,"stimulus":"\n                    <p><b>Action: <em>avoid</em></b></p>\n                    <p>This is the bee that you just saw.</p>\n                    <img src=\"bees-with-color/bee-B1DF.svg\" width=\"200\">\n                    <p><span class=\"redText\">Bad choice,</span> the bee was friendly.<br>Your bonus pay is unchanged, and remains at $0.54.</p>\n            ","response":0,"trial_type":"html-button-response","trial_index":14,"time_elapsed":1074314,"internal_node_id":"0.0-4.0-1.1","subject_id":"616f579cd112c371f862e1f6","study_id":"6197b3f67c2b5cd3b6d9596a","session_id":"6197b9f095023eb426347427","condition":"full-information","relevant_dimensions":["wings","legs"],"bee_group":{"antennae":"X","wings":"2","pattern":"X","legs":"F"},"bonus":1.8000000000000012},{"rt":2889.5,"stimulus":"bees-with-color/bee-B2SF.svg","response":1,"trial_type":"image-button-response","trial_index":15,"time_elapsed":1077207,"internal_node_id":"0.0-4.0-0.2","subject_id":"616f579cd112c371f862e1f6","study_id":"6197b3f67c2b5cd3b6d9596a","session_id":"6197b9f095023eb426347427","condition":"full-information","relevant_dimensions":["wings","legs"],"bee_group":{"antennae":"X","wings":"2","pattern":"X","legs":"F"},"action":"avoid","summary":"good-avoid","bonus":1.8000000000000012},{"rt":20649.29999998212,"stimulus":"\n                    <p><b>Action: <em>avoid</em></b></p>\n                    <p>This is the bee that you just saw.</p>\n                    <img src=\"bees-with-color/bee-B2SF.svg\" width=\"200\">\n                    <p><span class=\"greenText\">Good choice!</span>  This bee would have stung you.<br>Your bonus pay is unchanged, and remains at $0.54.</p>\n            ","response":0,"trial_type":"html-button-response","trial_index":16,"time_elapsed":1097858,"internal_node_id":"0.0-4.0-1.2","subject_id":"616f579cd112c371f862e1f6","study_id":"6197b3f67c2b5cd3b6d9596a","session_id":"6197b9f095023eb426347427","condition":"full-information","relevant_dimensions":["wings","legs"],"bee_group":{"antennae":"X","wings":"2","pattern":"X","legs":"F"},"bonus":1.8000000000000012},{"rt":2736.4000000059605,"stimulus":"bees-with-color/bee-B2DF.svg","response":1,"trial_type":"image-button-response","trial_index":17,"time_elapsed":1100597,"internal_node_id":"0.0-4.0-0.3","subject_id":"616f579cd112c371f862e1f6","study_id":"6197b3f67c2b5cd3b6d9596a","session_id":"6197b9f095023eb426347427","condition":"full-information","relevant_dimensions":["wings","legs"],"bee_group":{"antennae":"X","wings":"2","pattern":"X","legs":"F"},"action":"avoid","summary":"good-avoid","bonus":1.8000000000000012},{"rt":3149.7000000178814,"stimulus":"\n                    <p><b>Action: <em>avoid</em></b></p>\n                    <p>This is the bee that you just saw.</p>\n                    <img src=\"bees-with-color/bee-B2DF.svg\" width=\"200\">\n                    <p><span class=\"greenText\">Good choice!</span>  This bee would have stung you.<br>Your bonus pay is unchanged, and remains at $0.54.</p>\n            ","response":0,"trial_type":"html-button-response","trial_index":18,"time_elapsed":1103748,"internal_node_id":"0.0-4.0-1.3","subject_id":"616f579cd112c371f862e1f6","study_id":"6197b3f67c2b5cd3b6d9596a","session_id":"6197b9f095023eb426347427","condition":"full-information","relevant_dimensions":["wings","legs"],"bee_group":{"antennae":"X","wings":"2","pattern":"X","legs":"F"},"bonus":1.8000000000000012},{"rt":9970.300000011921,"stimulus":"bees-with-color/bee-A1SM.svg","response":0,"trial_type":"image-button-response","trial_index":19,"time_elapsed":1113721,"internal_node_id":"0.0-4.0-0.4","subject_id":"616f579cd112c371f862e1f6","study_id":"6197b3f67c2b5cd3b6d9596a","session_id":"6197b9f095023eb426347427","condition":"full-information","relevant_dimensions":["wings","legs"],"bee_group":{"antennae":"X","wings":"2","pattern":"X","legs":"F"},"action":"harvest","summary":"good-harvest","bonus":1.8000000000000012},{"rt":5114,"stimulus":"\n                    <p><b>Action: <em>harvest</em></b></p>\n                    <p>This is the bee that you just saw.</p>\n                    <img src=\"bees-with-color/bee-A1SM.svg\" width=\"200\">\n                    <p><span class=\"greenText\"><b>Successful harvest!</b></span><br>Your pay has increased by $0.02. Your bonus pay is now $0.56.</p>\n            ","response":0,"trial_type":"html-button-response","trial_index":20,"time_elapsed":1118837,"internal_node_id":"0.0-4.0-1.4","subject_id":"616f579cd112c371f862e1f6","study_id":"6197b3f67c2b5cd3b6d9596a","session_id":"6197b9f095023eb426347427","condition":"full-information","relevant_dimensions":["wings","legs"],"bee_group":{"antennae":"X","wings":"2","pattern":"X","legs":"F"},"bonus":1.8000000000000012},{"rt":1775.7999999821186,"stimulus":"bees-with-color/bee-B1DM.svg","response":0,"trial_type":"image-button-response","trial_index":21,"time_elapsed":1120615,"internal_node_id":"0.0-4.0-0.5","subject_id":"616f579cd112c371f862e1f6","study_id":"6197b3f67c2b5cd3b6d9596a","session_id":"6197b9f095023eb426347427","condition":"full-information","relevant_dimensions":["wings","legs"],"bee_group":{"antennae":"X","wings":"2","pattern":"X","legs":"F"},"action":"harvest","summary":"good-harvest","bonus":1.8000000000000012},{"rt":4344.5999999940395,"stimulus":"\n                    <p><b>Action: <em>harvest</em></b></p>\n                    <p>This is the bee that you just saw.</p>\n                    <img src=\"bees-with-color/bee-B1DM.svg\" width=\"200\">\n                    <p><span class=\"greenText\"><b>Successful harvest!</b></span><br>Your pay has increased by $0.02. Your bonus pay is now $0.58.</p>\n            ","response":0,"trial_type":"html-button-response","trial_index":22,"time_elapsed":1124963,"internal_node_id":"0.0-4.0-1.5","subject_id":"616f579cd112c371f862e1f6","study_id":"6197b3f67c2b5cd3b6d9596a","session_id":"6197b9f095023eb426347427","condition":"full-information","relevant_dimensions":["wings","legs"],"bee_group":{"antennae":"X","wings":"2","pattern":"X","legs":"F"},"bonus":1.8000000000000012},{"rt":1477.5,"stimulus":"bees-with-color/bee-B2SM.svg","response":1,"trial_type":"image-button-response","trial_index":23,"time_elapsed":1126443,"internal_node_id":"0.0-4.0-0.6","subject_id":"616f579cd112c371f862e1f6","study_id":"6197b3f67c2b5cd3b6d9596a","session_id":"6197b9f095023eb426347427","condition":"full-information","relevant_dimensions":["wings","legs"],"bee_group":{"antennae":"X","wings":"2","pattern":"X","legs":"F"},"action":"avoid","summary":"bad-avoid","bonus":1.8000000000000012},{"rt":21408,"stimulus":"\n                    <p><b>Action: <em>avoid</em></b></p>\n                    <p>This is the bee that you just saw.</p>\n                    <img src=\"bees-with-color/bee-B2SM.svg\" width=\"200\">\n                    <p><span class=\"redText\">Bad choice,</span> the bee was friendly.<br>Your bonus pay is unchanged, and remains at $0.58.</p>\n            ","response":0,"trial_type":"html-button-response","trial_index":24,"time_elapsed":1147853,"internal_node_id":"0.0-4.0-1.6","subject_id":"616f579cd112c371f862e1f6","study_id":"6197b3f67c2b5cd3b6d9596a","session_id":"6197b9f095023eb426347427","condition":"full-information","relevant_dimensions":["wings","legs"],"bee_group":{"antennae":"X","wings":"2","pattern":"X","legs":"F"},"bonus":1.8000000000000012},{"rt":1630.5999999940395,"stimulus":"bees-with-color/bee-B2DM.svg","response":0,"trial_type":"image-button-response","trial_index":25,"time_elapsed":1149486,"internal_node_id":"0.0-4.0-0.7","subject_id":"616f579cd112c371f862e1f6","study_id":"6197b3f67c2b5cd3b6d9596a","session_id":"6197b9f095023eb426347427","condition":"full-information","relevant_dimensions":["wings","legs"],"bee_group":{"antennae":"X","wings":"2","pattern":"X","legs":"F"},"action":"harvest","summary":"good-harvest","bonus":1.8000000000000012},{"rt":4120.300000011921,"stimulus":"\n                    <p><b>Action: <em>harvest</em></b></p>\n                    <p>This is the bee that you just saw.</p>\n                    <img src=\"bees-with-color/bee-B2DM.svg\" width=\"200\">\n                    <p><span class=\"greenText\"><b>Successful harvest!</b></span><br>Your pay has increased by $0.02. Your bonus pay is now $0.60.</p>\n            ","response":0,"trial_type":"html-button-response","trial_index":26,"time_elapsed":1153609,"internal_node_id":"0.0-4.0-1.7","subject_id":"616f579cd112c371f862e1f6","study_id":"6197b3f67c2b5cd3b6d9596a","session_id":"6197b9f095023eb426347427","condition":"full-information","relevant_dimensions":["wings","legs"],"bee_group":{"antennae":"X","wings":"2","pattern":"X","legs":"F"},"bonus":1.8000000000000012},{"rt":2036.9000000059605,"stimulus":"bees-with-color/bee-A2SF.svg","response":1,"trial_type":"image-button-response","trial_index":27,"time_elapsed":1155648,"internal_node_id":"0.0-4.0-0.8","subject_id":"616f579cd112c371f862e1f6","study_id":"6197b3f67c2b5cd3b6d9596a","session_id":"6197b9f095023eb426347427","condition":"full-information","relevant_dimensions":["wings","legs"],"bee_group":{"antennae":"X","wings":"2","pattern":"X","legs":"F"},"action":"avoid","summary":"good-avoid","bonus":1.8000000000000012},{"rt":3612.4000000059605,"stimulus":"\n                    <p><b>Action: <em>avoid</em></b></p>\n                    <p>This is the bee that you just saw.</p>\n                    <img src=\"bees-with-color/bee-A2SF.svg\" width=\"200\">\n                    <p><span class=\"greenText\">Good choice!</span>  This bee would have stung you.<br>Your bonus pay is unchanged, and remains at $0.60.</p>\n            ","response":0,"trial_type":"html-button-response","trial_index":28,"time_elapsed":1159263,"internal_node_id":"0.0-4.0-1.8","subject_id":"616f579cd112c371f862e1f6","study_id":"6197b3f67c2b5cd3b6d9596a","session_id":"6197b9f095023eb426347427","condition":"full-information","relevant_dimensions":["wings","legs"],"bee_group":{"antennae":"X","wings":"2","pattern":"X","legs":"F"},"bonus":1.8000000000000012},{"rt":1816.5999999940395,"stimulus":"bees-with-color/bee-B1SF.svg","response":1,"trial_type":"image-button-response","trial_index":29,"time_elapsed":1161081,"internal_node_id":"0.0-4.0-0.9","subject_id":"616f579cd112c371f862e1f6","study_id":"6197b3f67c2b5cd3b6d9596a","session_id":"6197b9f095023eb426347427","condition":"full-information","relevant_dimensions":["wings","legs"],"bee_group":{"antennae":"X","wings":"2","pattern":"X","legs":"F"},"action":"avoid","summary":"bad-avoid","bonus":1.8000000000000012},{"rt":20878.30000001192,"stimulus":"\n                    <p><b>Action: <em>avoid</em></b></p>\n                    <p>This is the bee that you just saw.</p>\n                    <img src=\"bees-with-color/bee-B1SF.svg\" width=\"200\">\n                    <p><span class=\"redText\">Bad choice,</span> the bee was friendly.<br>Your bonus pay is unchanged, and remains at $0.60.</p>\n            ","response":0,"trial_type":"html-button-response","trial_index":30,"time_elapsed":1181962,"internal_node_id":"0.0-4.0-1.9","subject_id":"616f579cd112c371f862e1f6","study_id":"6197b3f67c2b5cd3b6d9596a","session_id":"6197b9f095023eb426347427","condition":"full-information","relevant_dimensions":["wings","legs"],"bee_group":{"antennae":"X","wings":"2","pattern":"X","legs":"F"},"bonus":1.8000000000000012},{"rt":3383.699999988079,"stimulus":"bees-with-color/bee-A1SF.svg","response":0,"trial_type":"image-button-response","trial_index":31,"time_elapsed":1185348,"internal_node_id":"0.0-4.0-0.10","subject_id":"616f579cd112c371f862e1f6","study_id":"6197b3f67c2b5cd3b6d9596a","session_id":"6197b9f095023eb426347427","condition":"full-information","relevant_dimensions":["wings","legs"],"bee_group":{"antennae":"X","wings":"2","pattern":"X","legs":"F"},"action":"harvest","summary":"good-harvest","bonus":1.8000000000000012},{"rt":5622.0999999940395,"stimulus":"\n                    <p><b>Action: <em>harvest</em></b></p>\n                    <p>This is the bee that you just saw.</p>\n                    <img src=\"bees-with-color/bee-A1SF.svg\" width=\"200\">\n                    <p><span class=\"greenText\"><b>Successful harvest!</b></span><br>Your pay has increased by $0.02. Your bonus pay is now $0.62.</p>\n            ","response":0,"trial_type":"html-button-response","trial_index":32,"time_elapsed":1190972,"internal_node_id":"0.0-4.0-1.10","subject_id":"616f579cd112c371f862e1f6","study_id":"6197b3f67c2b5cd3b6d9596a","session_id":"6197b9f095023eb426347427","condition":"full-information","relevant_dimensions":["wings","legs"],"bee_group":{"antennae":"X","wings":"2","pattern":"X","legs":"F"},"bonus":1.8000000000000012},{"rt":1786.4000000059605,"stimulus":"bees-with-color/bee-A1DF.svg","response":0,"trial_type":"image-button-response","trial_index":33,"time_elapsed":1192761,"internal_node_id":"0.0-4.0-0.11","subject_id":"616f579cd112c371f862e1f6","study_id":"6197b3f67c2b5cd3b6d9596a","session_id":"6197b9f095023eb426347427","condition":"full-information","relevant_dimensions":["wings","legs"],"bee_group":{"antennae":"X","wings":"2","pattern":"X","legs":"F"},"action":"harvest","summary":"good-harvest","bonus":1.8000000000000012},{"rt":2213.9000000059605,"stimulus":"\n                    <p><b>Action: <em>harvest</em></b></p>\n                    <p>This is the bee that you just saw.</p>\n                    <img src=\"bees-with-color/bee-A1DF.svg\" width=\"200\">\n                    <p><span class=\"greenText\"><b>Successful harvest!</b></span><br>Your pay has increased by $0.02. Your bonus pay is now $0.64.</p>\n            ","response":0,"trial_type":"html-button-response","trial_index":34,"time_elapsed":1194977,"internal_node_id":"0.0-4.0-1.11","subject_id":"616f579cd112c371f862e1f6","study_id":"6197b3f67c2b5cd3b6d9596a","session_id":"6197b9f095023eb426347427","condition":"full-information","relevant_dimensions":["wings","legs"],"bee_group":{"antennae":"X","wings":"2","pattern":"X","legs":"F"},"bonus":1.8000000000000012},{"rt":3376.5999999940395,"stimulus":"bees-with-color/bee-A1DM.svg","response":1,"trial_type":"image-button-response","trial_index":35,"time_elapsed":1198356,"internal_node_id":"0.0-4.0-0.12","subject_id":"616f579cd112c371f862e1f6","study_id":"6197b3f67c2b5cd3b6d9596a","session_id":"6197b9f095023eb426347427","condition":"full-information","relevant_dimensions":["wings","legs"],"bee_group":{"antennae":"X","wings":"2","pattern":"X","legs":"F"},"action":"avoid","summary":"bad-avoid","bonus":1.8000000000000012},{"rt":10508.300000011921,"stimulus":"\n                    <p><b>Action: <em>avoid</em></b></p>\n                    <p>This is the bee that you just saw.</p>\n                    <img src=\"bees-with-color/bee-A1DM.svg\" width=\"200\">\n                    <p><span class=\"redText\">Bad choice,</span> the bee was friendly.<br>Your bonus pay is unchanged, and remains at $0.64.</p>\n            ","response":0,"trial_type":"html-button-response","trial_index":36,"time_elapsed":1208867,"internal_node_id":"0.0-4.0-1.12","subject_id":"616f579cd112c371f862e1f6","study_id":"6197b3f67c2b5cd3b6d9596a","session_id":"6197b9f095023eb426347427","condition":"full-information","relevant_dimensions":["wings","legs"],"bee_group":{"antennae":"X","wings":"2","pattern":"X","legs":"F"},"bonus":1.8000000000000012},{"rt":2376.199999988079,"stimulus":"bees-with-color/bee-A2DM.svg","response":1,"trial_type":"image-button-response","trial_index":37,"time_elapsed":1211245,"internal_node_id":"0.0-4.0-0.13","subject_id":"616f579cd112c371f862e1f6","study_id":"6197b3f67c2b5cd3b6d9596a","session_id":"6197b9f095023eb426347427","condition":"full-information","relevant_dimensions":["wings","legs"],"bee_group":{"antennae":"X","wings":"2","pattern":"X","legs":"F"},"action":"avoid","summary":"bad-avoid","bonus":1.8000000000000012},{"rt":4590.899999976158,"stimulus":"\n                    <p><b>Action: <em>avoid</em></b></p>\n                    <p>This is the bee that you just saw.</p>\n                    <img src=\"bees-with-color/bee-A2DM.svg\" width=\"200\">\n                    <p><span class=\"redText\">Bad choice,</span> the bee was friendly.<br>Your bonus pay is unchanged, and remains at $0.64.</p>\n            ","response":0,"trial_type":"html-button-response","trial_index":38,"time_elapsed":1215838,"internal_node_id":"0.0-4.0-1.13","subject_id":"616f579cd112c371f862e1f6","study_id":"6197b3f67c2b5cd3b6d9596a","session_id":"6197b9f095023eb426347427","condition":"full-information","relevant_dimensions":["wings","legs"],"bee_group":{"antennae":"X","wings":"2","pattern":"X","legs":"F"},"bonus":1.8000000000000012},{"rt":1639.699999988079,"stimulus":"bees-with-color/bee-A2SM.svg","response":0,"trial_type":"image-button-response","trial_index":39,"time_elapsed":1217480,"internal_node_id":"0.0-4.0-0.14","subject_id":"616f579cd112c371f862e1f6","study_id":"6197b3f67c2b5cd3b6d9596a","session_id":"6197b9f095023eb426347427","condition":"full-information","relevant_dimensions":["wings","legs"],"bee_group":{"antennae":"X","wings":"2","pattern":"X","legs":"F"},"action":"harvest","summary":"good-harvest","bonus":1.8000000000000012},{"rt":3317.699999988079,"stimulus":"\n                    <p><b>Action: <em>harvest</em></b></p>\n                    <p>This is the bee that you just saw.</p>\n                    <img src=\"bees-with-color/bee-A2SM.svg\" width=\"200\">\n                    <p><span class=\"greenText\"><b>Successful harvest!</b></span><br>Your pay has increased by $0.02. Your bonus pay is now $0.66.</p>\n            ","response":0,"trial_type":"html-button-response","trial_index":40,"time_elapsed":1220800,"internal_node_id":"0.0-4.0-1.14","subject_id":"616f579cd112c371f862e1f6","study_id":"6197b3f67c2b5cd3b6d9596a","session_id":"6197b9f095023eb426347427","condition":"full-information","relevant_dimensions":["wings","legs"],"bee_group":{"antennae":"X","wings":"2","pattern":"X","legs":"F"},"bonus":1.8000000000000012},{"rt":1507.5,"stimulus":"bees-with-color/bee-A2DF.svg","response":1,"trial_type":"image-button-response","trial_index":41,"time_elapsed":1222310,"internal_node_id":"0.0-4.0-0.15","subject_id":"616f579cd112c371f862e1f6","study_id":"6197b3f67c2b5cd3b6d9596a","session_id":"6197b9f095023eb426347427","condition":"full-information","relevant_dimensions":["wings","legs"],"bee_group":{"antennae":"X","wings":"2","pattern":"X","legs":"F"},"action":"avoid","summary":"good-avoid","bonus":1.8000000000000012},{"rt":2523.5999999940395,"stimulus":"\n                    <p><b>Action: <em>avoid</em></b></p>\n                    <p>This is the bee that you just saw.</p>\n                    <img src=\"bees-with-color/bee-A2DF.svg\" width=\"200\">\n                    <p><span class=\"greenText\">Good choice!</span>  This bee would have stung you.<br>Your bonus pay is unchanged, and remains at $0.66.</p>\n            ","response":0,"trial_type":"html-button-response","trial_index":42,"time_elapsed":1224835,"internal_node_id":"0.0-4.0-1.15","subject_id":"616f579cd112c371f862e1f6","study_id":"6197b3f67c2b5cd3b6d9596a","session_id":"6197b9f095023eb426347427","condition":"full-information","relevant_dimensions":["wings","legs"],"bee_group":{"antennae":"X","wings":"2","pattern":"X","legs":"F"},"bonus":1.8000000000000012},{"rt":1286,"stimulus":"bees-with-color/bee-A2SF.svg","response":1,"trial_type":"image-button-response","trial_index":43,"time_elapsed":1226123,"internal_node_id":"0.0-4.0-0.16","subject_id":"616f579cd112c371f862e1f6","study_id":"6197b3f67c2b5cd3b6d9596a","session_id":"6197b9f095023eb426347427","condition":"full-information","relevant_dimensions":["wings","legs"],"bee_group":{"antennae":"X","wings":"2","pattern":"X","legs":"F"},"action":"avoid","summary":"good-avoid","bonus":1.8000000000000012},{"rt":1993.300000011921,"stimulus":"\n                    <p><b>Action: <em>avoid</em></b></p>\n                    <p>This is the bee that you just saw.</p>\n                    <img src=\"bees-with-color/bee-A2SF.svg\" width=\"200\">\n                    <p><span class=\"greenText\">Good choice!</span>  This bee would have stung you.<br>Your bonus pay is unchanged, and remains at $0.66.</p>\n            ","response":0,"trial_type":"html-button-response","trial_index":44,"time_elapsed":1228118,"internal_node_id":"0.0-4.0-1.16","subject_id":"616f579cd112c371f862e1f6","study_id":"6197b3f67c2b5cd3b6d9596a","session_id":"6197b9f095023eb426347427","condition":"full-information","relevant_dimensions":["wings","legs"],"bee_group":{"antennae":"X","wings":"2","pattern":"X","legs":"F"},"bonus":1.8000000000000012},{"rt":1574.2000000178814,"stimulus":"bees-with-color/bee-A2DM.svg","response":0,"trial_type":"image-button-response","trial_index":45,"time_elapsed":1229694,"internal_node_id":"0.0-4.0-0.17","subject_id":"616f579cd112c371f862e1f6","study_id":"6197b3f67c2b5cd3b6d9596a","session_id":"6197b9f095023eb426347427","condition":"full-information","relevant_dimensions":["wings","legs"],"bee_group":{"antennae":"X","wings":"2","pattern":"X","legs":"F"},"action":"harvest","summary":"good-harvest","bonus":1.8000000000000012},{"rt":4783.0999999940395,"stimulus":"\n                    <p><b>Action: <em>harvest</em></b></p>\n                    <p>This is the bee that you just saw.</p>\n                    <img src=\"bees-with-color/bee-A2DM.svg\" width=\"200\">\n                    <p><span class=\"greenText\"><b>Successful harvest!</b></span><br>Your pay has increased by $0.02. Your bonus pay is now $0.68.</p>\n            ","response":0,"trial_type":"html-button-response","trial_index":46,"time_elapsed":1234479,"internal_node_id":"0.0-4.0-1.17","subject_id":"616f579cd112c371f862e1f6","study_id":"6197b3f67c2b5cd3b6d9596a","session_id":"6197b9f095023eb426347427","condition":"full-information","relevant_dimensions":["wings","legs"],"bee_group":{"antennae":"X","wings":"2","pattern":"X","legs":"F"},"bonus":1.8000000000000012},{"rt":4701.700000017881,"stimulus":"bees-with-color/bee-B1DM.svg","response":0,"trial_type":"image-button-response","trial_index":47,"time_elapsed":1239183,"internal_node_id":"0.0-4.0-0.18","subject_id":"616f579cd112c371f862e1f6","study_id":"6197b3f67c2b5cd3b6d9596a","session_id":"6197b9f095023eb426347427","condition":"full-information","relevant_dimensions":["wings","legs"],"bee_group":{"antennae":"X","wings":"2","pattern":"X","legs":"F"},"action":"harvest","summary":"good-harvest","bonus":1.8000000000000012},{"rt":3113,"stimulus":"\n                    <p><b>Action: <em>harvest</em></b></p>\n                    <p>This is the bee that you just saw.</p>\n                    <img src=\"bees-with-color/bee-B1DM.svg\" width=\"200\">\n                    <p><span class=\"greenText\"><b>Successful harvest!</b></span><br>Your pay has increased by $0.02. Your bonus pay is now $0.70.</p>\n            ","response":0,"trial_type":"html-button-response","trial_index":48,"time_elapsed":1242297,"internal_node_id":"0.0-4.0-1.18","subject_id":"616f579cd112c371f862e1f6","study_id":"6197b3f67c2b5cd3b6d9596a","session_id":"6197b9f095023eb426347427","condition":"full-information","relevant_dimensions":["wings","legs"],"bee_group":{"antennae":"X","wings":"2","pattern":"X","legs":"F"},"bonus":1.8000000000000012},{"rt":1263.4000000059605,"stimulus":"bees-with-color/bee-A1DF.svg","response":1,"trial_type":"image-button-response","trial_index":49,"time_elapsed":1243563,"internal_node_id":"0.0-4.0-0.19","subject_id":"616f579cd112c371f862e1f6","study_id":"6197b3f67c2b5cd3b6d9596a","session_id":"6197b9f095023eb426347427","condition":"full-information","relevant_dimensions":["wings","legs"],"bee_group":{"antennae":"X","wings":"2","pattern":"X","legs":"F"},"action":"avoid","summary":"bad-avoid","bonus":1.8000000000000012},{"rt":4761.799999982119,"stimulus":"\n                    <p><b>Action: <em>avoid</em></b></p>\n                    <p>This is the bee that you just saw.</p>\n                    <img src=\"bees-with-color/bee-A1DF.svg\" width=\"200\">\n                    <p><span class=\"redText\">Bad choice,</span> the bee was friendly.<br>Your bonus pay is unchanged, and remains at $0.70.</p>\n            ","response":0,"trial_type":"html-button-response","trial_index":50,"time_elapsed":1248327,"internal_node_id":"0.0-4.0-1.19","subject_id":"616f579cd112c371f862e1f6","study_id":"6197b3f67c2b5cd3b6d9596a","session_id":"6197b9f095023eb426347427","condition":"full-information","relevant_dimensions":["wings","legs"],"bee_group":{"antennae":"X","wings":"2","pattern":"X","legs":"F"},"bonus":1.8000000000000012},{"rt":2633.9000000059605,"stimulus":"bees-with-color/bee-B1SM.svg","response":0,"trial_type":"image-button-response","trial_index":51,"time_elapsed":1250963,"internal_node_id":"0.0-4.0-0.20","subject_id":"616f579cd112c371f862e1f6","study_id":"6197b3f67c2b5cd3b6d9596a","session_id":"6197b9f095023eb426347427","condition":"full-information","relevant_dimensions":["wings","legs"],"bee_group":{"antennae":"X","wings":"2","pattern":"X","legs":"F"},"action":"harvest","summary":"good-harvest","bonus":1.8000000000000012},{"rt":3326,"stimulus":"\n                    <p><b>Action: <em>harvest</em></b></p>\n                    <p>This is the bee that you just saw.</p>\n                    <img src=\"bees-with-color/bee-B1SM.svg\" width=\"200\">\n                    <p><span class=\"greenText\"><b>Successful harvest!</b></span><br>Your pay has increased by $0.02. Your bonus pay is now $0.72.</p>\n            ","response":0,"trial_type":"html-button-response","trial_index":52,"time_elapsed":1254291,"internal_node_id":"0.0-4.0-1.20","subject_id":"616f579cd112c371f862e1f6","study_id":"6197b3f67c2b5cd3b6d9596a","session_id":"6197b9f095023eb426347427","condition":"full-information","relevant_dimensions":["wings","legs"],"bee_group":{"antennae":"X","wings":"2","pattern":"X","legs":"F"},"bonus":1.8000000000000012},{"rt":1934.7000000178814,"stimulus":"bees-with-color/bee-A1SM.svg","response":0,"trial_type":"image-button-response","trial_index":53,"time_elapsed":1256227,"internal_node_id":"0.0-4.0-0.21","subject_id":"616f579cd112c371f862e1f6","study_id":"6197b3f67c2b5cd3b6d9596a","session_id":"6197b9f095023eb426347427","condition":"full-information","relevant_dimensions":["wings","legs"],"bee_group":{"antennae":"X","wings":"2","pattern":"X","legs":"F"},"action":"harvest","summary":"good-harvest","bonus":1.8000000000000012},{"rt":2258.5,"stimulus":"\n                    <p><b>Action: <em>harvest</em></b></p>\n                    <p>This is the bee that you just saw.</p>\n                    <img src=\"bees-with-color/bee-A1SM.svg\" width=\"200\">\n                    <p><span class=\"greenText\"><b>Successful harvest!</b></span><br>Your pay has increased by $0.02. Your bonus pay is now $0.74.</p>\n            ","response":0,"trial_type":"html-button-response","trial_index":54,"time_elapsed":1258488,"internal_node_id":"0.0-4.0-1.21","subject_id":"616f579cd112c371f862e1f6","study_id":"6197b3f67c2b5cd3b6d9596a","session_id":"6197b9f095023eb426347427","condition":"full-information","relevant_dimensions":["wings","legs"],"bee_group":{"antennae":"X","wings":"2","pattern":"X","legs":"F"},"bonus":1.8000000000000012},{"rt":5299.600000023842,"stimulus":"bees-with-color/bee-B1DF.svg","response":1,"trial_type":"image-button-response","trial_index":55,"time_elapsed":1263789,"internal_node_id":"0.0-4.0-0.22","subject_id":"616f579cd112c371f862e1f6","study_id":"6197b3f67c2b5cd3b6d9596a","session_id":"6197b9f095023eb426347427","condition":"full-information","relevant_dimensions":["wings","legs"],"bee_group":{"antennae":"X","wings":"2","pattern":"X","legs":"F"},"action":"avoid","summary":"bad-avoid","bonus":1.8000000000000012},{"rt":3023.9000000059605,"stimulus":"\n                    <p><b>Action: <em>avoid</em></b></p>\n                    <p>This is the bee that you just saw.</p>\n                    <img src=\"bees-with-color/bee-B1DF.svg\" width=\"200\">\n                    <p><span class=\"redText\">Bad choice,</span> the bee was friendly.<br>Your bonus pay is unchanged, and remains at $0.74.</p>\n            ","response":0,"trial_type":"html-button-response","trial_index":56,"time_elapsed":1266815,"internal_node_id":"0.0-4.0-1.22","subject_id":"616f579cd112c371f862e1f6","study_id":"6197b3f67c2b5cd3b6d9596a","session_id":"6197b9f095023eb426347427","condition":"full-information","relevant_dimensions":["wings","legs"],"bee_group":{"antennae":"X","wings":"2","pattern":"X","legs":"F"},"bonus":1.8000000000000012},{"rt":2766.199999988079,"stimulus":"bees-with-color/bee-B2SF.svg","response":1,"trial_type":"image-button-response","trial_index":57,"time_elapsed":1269583,"internal_node_id":"0.0-4.0-0.23","subject_id":"616f579cd112c371f862e1f6","study_id":"6197b3f67c2b5cd3b6d9596a","session_id":"6197b9f095023eb426347427","condition":"full-information","relevant_dimensions":["wings","legs"],"bee_group":{"antennae":"X","wings":"2","pattern":"X","legs":"F"},"action":"avoid","summary":"good-avoid","bonus":1.8000000000000012},{"rt":2810.300000011921,"stimulus":"\n                    <p><b>Action: <em>avoid</em></b></p>\n                    <p>This is the bee that you just saw.</p>\n                    <img src=\"bees-with-color/bee-B2SF.svg\" width=\"200\">\n                    <p><span class=\"greenText\">Good choice!</span>  This bee would have stung you.<br>Your bonus pay is unchanged, and remains at $0.74.</p>\n            ","response":0,"trial_type":"html-button-response","trial_index":58,"time_elapsed":1272396,"internal_node_id":"0.0-4.0-1.23","subject_id":"616f579cd112c371f862e1f6","study_id":"6197b3f67c2b5cd3b6d9596a","session_id":"6197b9f095023eb426347427","condition":"full-information","relevant_dimensions":["wings","legs"],"bee_group":{"antennae":"X","wings":"2","pattern":"X","legs":"F"},"bonus":1.8000000000000012},{"rt":8957.200000017881,"stimulus":"bees-with-color/bee-B2DM.svg","response":0,"trial_type":"image-button-response","trial_index":59,"time_elapsed":1281355,"internal_node_id":"0.0-4.0-0.24","subject_id":"616f579cd112c371f862e1f6","study_id":"6197b3f67c2b5cd3b6d9596a","session_id":"6197b9f095023eb426347427","condition":"full-information","relevant_dimensions":["wings","legs"],"bee_group":{"antennae":"X","wings":"2","pattern":"X","legs":"F"},"action":"harvest","summary":"good-harvest","bonus":1.8000000000000012},{"rt":3192.899999976158,"stimulus":"\n                    <p><b>Action: <em>harvest</em></b></p>\n                    <p>This is the bee that you just saw.</p>\n                    <img src=\"bees-with-color/bee-B2DM.svg\" width=\"200\">\n                    <p><span class=\"greenText\"><b>Successful harvest!</b></span><br>Your pay has increased by $0.02. Your bonus pay is now $0.76.</p>\n            ","response":0,"trial_type":"html-button-response","trial_index":60,"time_elapsed":1284550,"internal_node_id":"0.0-4.0-1.24","subject_id":"616f579cd112c371f862e1f6","study_id":"6197b3f67c2b5cd3b6d9596a","session_id":"6197b9f095023eb426347427","condition":"full-information","relevant_dimensions":["wings","legs"],"bee_group":{"antennae":"X","wings":"2","pattern":"X","legs":"F"},"bonus":1.8000000000000012},{"rt":5414.5,"stimulus":"bees-with-color/bee-A1SF.svg","response":1,"trial_type":"image-button-response","trial_index":61,"time_elapsed":1289968,"internal_node_id":"0.0-4.0-0.25","subject_id":"616f579cd112c371f862e1f6","study_id":"6197b3f67c2b5cd3b6d9596a","session_id":"6197b9f095023eb426347427","condition":"full-information","relevant_dimensions":["wings","legs"],"bee_group":{"antennae":"X","wings":"2","pattern":"X","legs":"F"},"action":"avoid","summary":"bad-avoid","bonus":1.8000000000000012},{"rt":4657.199999988079,"stimulus":"\n                    <p><b>Action: <em>avoid</em></b></p>\n                    <p>This is the bee that you just saw.</p>\n                    <img src=\"bees-with-color/bee-A1SF.svg\" width=\"200\">\n                    <p><span class=\"redText\">Bad choice,</span> the bee was friendly.<br>Your bonus pay is unchanged, and remains at $0.76.</p>\n            ","response":0,"trial_type":"html-button-response","trial_index":62,"time_elapsed":1294627,"internal_node_id":"0.0-4.0-1.25","subject_id":"616f579cd112c371f862e1f6","study_id":"6197b3f67c2b5cd3b6d9596a","session_id":"6197b9f095023eb426347427","condition":"full-information","relevant_dimensions":["wings","legs"],"bee_group":{"antennae":"X","wings":"2","pattern":"X","legs":"F"},"bonus":1.8000000000000012},{"rt":3663.9000000059605,"stimulus":"bees-with-color/bee-A2SM.svg","response":0,"trial_type":"image-button-response","trial_index":63,"time_elapsed":1298293,"internal_node_id":"0.0-4.0-0.26","subject_id":"616f579cd112c371f862e1f6","study_id":"6197b3f67c2b5cd3b6d9596a","session_id":"6197b9f095023eb426347427","condition":"full-information","relevant_dimensions":["wings","legs"],"bee_group":{"antennae":"X","wings":"2","pattern":"X","legs":"F"},"action":"harvest","summary":"good-harvest","bonus":1.8000000000000012},{"rt":1889.4000000059605,"stimulus":"\n                    <p><b>Action: <em>harvest</em></b></p>\n                    <p>This is the bee that you just saw.</p>\n                    <img src=\"bees-with-color/bee-A2SM.svg\" width=\"200\">\n                    <p><span class=\"greenText\"><b>Successful harvest!</b></span><br>Your pay has increased by $0.02. Your bonus pay is now $0.78.</p>\n            ","response":0,"trial_type":"html-button-response","trial_index":64,"time_elapsed":1300185,"internal_node_id":"0.0-4.0-1.26","subject_id":"616f579cd112c371f862e1f6","study_id":"6197b3f67c2b5cd3b6d9596a","session_id":"6197b9f095023eb426347427","condition":"full-information","relevant_dimensions":["wings","legs"],"bee_group":{"antennae":"X","wings":"2","pattern":"X","legs":"F"},"bonus":1.8000000000000012},{"rt":9050.199999988079,"stimulus":"bees-with-color/bee-B1SF.svg","response":0,"trial_type":"image-button-response","trial_index":65,"time_elapsed":1309237,"internal_node_id":"0.0-4.0-0.27","subject_id":"616f579cd112c371f862e1f6","study_id":"6197b3f67c2b5cd3b6d9596a","session_id":"6197b9f095023eb426347427","condition":"full-information","relevant_dimensions":["wings","legs"],"bee_group":{"antennae":"X","wings":"2","pattern":"X","legs":"F"},"action":"harvest","summary":"good-harvest","bonus":1.8000000000000012},{"rt":12716.799999982119,"stimulus":"\n                    <p><b>Action: <em>harvest</em></b></p>\n                    <p>This is the bee that you just saw.</p>\n                    <img src=\"bees-with-color/bee-B1SF.svg\" width=\"200\">\n                    <p><span class=\"greenText\"><b>Successful harvest!</b></span><br>Your pay has increased by $0.02. Your bonus pay is now $0.80.</p>\n            ","response":0,"trial_type":"html-button-response","trial_index":66,"time_elapsed":1321956,"internal_node_id":"0.0-4.0-1.27","subject_id":"616f579cd112c371f862e1f6","study_id":"6197b3f67c2b5cd3b6d9596a","session_id":"6197b9f095023eb426347427","condition":"full-information","relevant_dimensions":["wings","legs"],"bee_group":{"antennae":"X","wings":"2","pattern":"X","legs":"F"},"bonus":1.8000000000000012},{"rt":2618.5999999940395,"stimulus":"bees-with-color/bee-B2DF.svg","response":1,"trial_type":"image-button-response","trial_index":67,"time_elapsed":1324577,"internal_node_id":"0.0-4.0-0.28","subject_id":"616f579cd112c371f862e1f6","study_id":"6197b3f67c2b5cd3b6d9596a","session_id":"6197b9f095023eb426347427","condition":"full-information","relevant_dimensions":["wings","legs"],"bee_group":{"antennae":"X","wings":"2","pattern":"X","legs":"F"},"action":"avoid","summary":"good-avoid","bonus":1.8000000000000012},{"rt":5599.5999999940395,"stimulus":"\n                    <p><b>Action: <em>avoid</em></b></p>\n                    <p>This is the bee that you just saw.</p>\n                    <img src=\"bees-with-color/bee-B2DF.svg\" width=\"200\">\n                    <p><span class=\"greenText\">Good choice!</span>  This bee would have stung you.<br>Your bonus pay is unchanged, and remains at $0.80.</p>\n            ","response":0,"trial_type":"html-button-response","trial_index":68,"time_elapsed":1330179,"internal_node_id":"0.0-4.0-1.28","subject_id":"616f579cd112c371f862e1f6","study_id":"6197b3f67c2b5cd3b6d9596a","session_id":"6197b9f095023eb426347427","condition":"full-information","relevant_dimensions":["wings","legs"],"bee_group":{"antennae":"X","wings":"2","pattern":"X","legs":"F"},"bonus":1.8000000000000012},{"rt":5819.699999988079,"stimulus":"bees-with-color/bee-A2DF.svg","response":1,"trial_type":"image-button-response","trial_index":69,"time_elapsed":1336001,"internal_node_id":"0.0-4.0-0.29","subject_id":"616f579cd112c371f862e1f6","study_id":"6197b3f67c2b5cd3b6d9596a","session_id":"6197b9f095023eb426347427","condition":"full-information","relevant_dimensions":["wings","legs"],"bee_group":{"antennae":"X","wings":"2","pattern":"X","legs":"F"},"action":"avoid","summary":"good-avoid","bonus":1.8000000000000012},{"rt":2287.800000011921,"stimulus":"\n                    <p><b>Action: <em>avoid</em></b></p>\n                    <p>This is the bee that you just saw.</p>\n                    <img src=\"bees-with-color/bee-A2DF.svg\" width=\"200\">\n                    <p><span class=\"greenText\">Good choice!</span>  This bee would have stung you.<br>Your bonus pay is unchanged, and remains at $0.80.</p>\n            ","response":0,"trial_type":"html-button-response","trial_index":70,"time_elapsed":1338291,"internal_node_id":"0.0-4.0-1.29","subject_id":"616f579cd112c371f862e1f6","study_id":"6197b3f67c2b5cd3b6d9596a","session_id":"6197b9f095023eb426347427","condition":"full-information","relevant_dimensions":["wings","legs"],"bee_group":{"antennae":"X","wings":"2","pattern":"X","legs":"F"},"bonus":1.8000000000000012},{"rt":3943.0999999940395,"stimulus":"bees-with-color/bee-A1DM.svg","response":0,"trial_type":"image-button-response","trial_index":71,"time_elapsed":1342236,"internal_node_id":"0.0-4.0-0.30","subject_id":"616f579cd112c371f862e1f6","study_id":"6197b3f67c2b5cd3b6d9596a","session_id":"6197b9f095023eb426347427","condition":"full-information","relevant_dimensions":["wings","legs"],"bee_group":{"antennae":"X","wings":"2","pattern":"X","legs":"F"},"action":"harvest","summary":"good-harvest","bonus":1.8000000000000012},{"rt":1808.8999999761581,"stimulus":"\n                    <p><b>Action: <em>harvest</em></b></p>\n                    <p>This is the bee that you just saw.</p>\n                    <img src=\"bees-with-color/bee-A1DM.svg\" width=\"200\">\n                    <p><span class=\"greenText\"><b>Successful harvest!</b></span><br>Your pay has increased by $0.02. Your bonus pay is now $0.82.</p>\n            ","response":0,"trial_type":"html-button-response","trial_index":72,"time_elapsed":1344047,"internal_node_id":"0.0-4.0-1.30","subject_id":"616f579cd112c371f862e1f6","study_id":"6197b3f67c2b5cd3b6d9596a","session_id":"6197b9f095023eb426347427","condition":"full-information","relevant_dimensions":["wings","legs"],"bee_group":{"antennae":"X","wings":"2","pattern":"X","legs":"F"},"bonus":1.8000000000000012},{"rt":5489.5,"stimulus":"bees-with-color/bee-B2SM.svg","response":0,"trial_type":"image-button-response","trial_index":73,"time_elapsed":1349539,"internal_node_id":"0.0-4.0-0.31","subject_id":"616f579cd112c371f862e1f6","study_id":"6197b3f67c2b5cd3b6d9596a","session_id":"6197b9f095023eb426347427","condition":"full-information","relevant_dimensions":["wings","legs"],"bee_group":{"antennae":"X","wings":"2","pattern":"X","legs":"F"},"action":"harvest","summary":"good-harvest","bonus":1.8000000000000012},{"rt":1890.5,"stimulus":"\n                    <p><b>Action: <em>harvest</em></b></p>\n                    <p>This is the bee that you just saw.</p>\n                    <img src=\"bees-with-color/bee-B2SM.svg\" width=\"200\">\n                    <p><span class=\"greenText\"><b>Successful harvest!</b></span><br>Your pay has increased by $0.02. Your bonus pay is now $0.84.</p>\n            ","response":0,"trial_type":"html-button-response","trial_index":74,"time_elapsed":1351431,"internal_node_id":"0.0-4.0-1.31","subject_id":"616f579cd112c371f862e1f6","study_id":"6197b3f67c2b5cd3b6d9596a","session_id":"6197b9f095023eb426347427","condition":"full-information","relevant_dimensions":["wings","legs"],"bee_group":{"antennae":"X","wings":"2","pattern":"X","legs":"F"},"bonus":1.8000000000000012},{"rt":6416.299999982119,"stimulus":"bees-with-color/bee-A1DF.svg","response":0,"trial_type":"image-button-response","trial_index":75,"time_elapsed":1357850,"internal_node_id":"0.0-4.0-0.32","subject_id":"616f579cd112c371f862e1f6","study_id":"6197b3f67c2b5cd3b6d9596a","session_id":"6197b9f095023eb426347427","condition":"full-information","relevant_dimensions":["wings","legs"],"bee_group":{"antennae":"X","wings":"2","pattern":"X","legs":"F"},"action":"harvest","summary":"good-harvest","bonus":1.8000000000000012},{"rt":10567.5,"stimulus":"\n                    <p><b>Action: <em>harvest</em></b></p>\n                    <p>This is the bee that you just saw.</p>\n                    <img src=\"bees-with-color/bee-A1DF.svg\" width=\"200\">\n                    <p><span class=\"greenText\"><b>Successful harvest!</b></span><br>Your pay has increased by $0.02. Your bonus pay is now $0.86.</p>\n            ","response":0,"trial_type":"html-button-response","trial_index":76,"time_elapsed":1368419,"internal_node_id":"0.0-4.0-1.32","subject_id":"616f579cd112c371f862e1f6","study_id":"6197b3f67c2b5cd3b6d9596a","session_id":"6197b9f095023eb426347427","condition":"full-information","relevant_dimensions":["wings","legs"],"bee_group":{"antennae":"X","wings":"2","pattern":"X","legs":"F"},"bonus":1.8000000000000012},{"rt":5025.199999988079,"stimulus":"bees-with-color/bee-B2DM.svg","response":0,"trial_type":"image-button-response","trial_index":77,"time_elapsed":1373447,"internal_node_id":"0.0-4.0-0.33","subject_id":"616f579cd112c371f862e1f6","study_id":"6197b3f67c2b5cd3b6d9596a","session_id":"6197b9f095023eb426347427","condition":"full-information","relevant_dimensions":["wings","legs"],"bee_group":{"antennae":"X","wings":"2","pattern":"X","legs":"F"},"action":"harvest","summary":"good-harvest","bonus":1.8000000000000012},{"rt":4753.799999982119,"stimulus":"\n                    <p><b>Action: <em>harvest</em></b></p>\n                    <p>This is the bee that you just saw.</p>\n                    <img src=\"bees-with-color/bee-B2DM.svg\" width=\"200\">\n                    <p><span class=\"greenText\"><b>Successful harvest!</b></span><br>Your pay has increased by $0.02. Your bonus pay is now $0.88.</p>\n            ","response":0,"trial_type":"html-button-response","trial_index":78,"time_elapsed":1378202,"internal_node_id":"0.0-4.0-1.33","subject_id":"616f579cd112c371f862e1f6","study_id":"6197b3f67c2b5cd3b6d9596a","session_id":"6197b9f095023eb426347427","condition":"full-information","relevant_dimensions":["wings","legs"],"bee_group":{"antennae":"X","wings":"2","pattern":"X","legs":"F"},"bonus":1.8000000000000012},{"rt":5119.9000000059605,"stimulus":"bees-with-color/bee-B1DM.svg","response":0,"trial_type":"image-button-response","trial_index":79,"time_elapsed":1383324,"internal_node_id":"0.0-4.0-0.34","subject_id":"616f579cd112c371f862e1f6","study_id":"6197b3f67c2b5cd3b6d9596a","session_id":"6197b9f095023eb426347427","condition":"full-information","relevant_dimensions":["wings","legs"],"bee_group":{"antennae":"X","wings":"2","pattern":"X","legs":"F"},"action":"harvest","summary":"good-harvest","bonus":1.8000000000000012},{"rt":2398.7999999821186,"stimulus":"\n                    <p><b>Action: <em>harvest</em></b></p>\n                    <p>This is the bee that you just saw.</p>\n                    <img src=\"bees-with-color/bee-B1DM.svg\" width=\"200\">\n                    <p><span class=\"greenText\"><b>Successful harvest!</b></span><br>Your pay has increased by $0.02. Your bonus pay is now $0.90.</p>\n            ","response":0,"trial_type":"html-button-response","trial_index":80,"time_elapsed":1385725,"internal_node_id":"0.0-4.0-1.34","subject_id":"616f579cd112c371f862e1f6","study_id":"6197b3f67c2b5cd3b6d9596a","session_id":"6197b9f095023eb426347427","condition":"full-information","relevant_dimensions":["wings","legs"],"bee_group":{"antennae":"X","wings":"2","pattern":"X","legs":"F"},"bonus":1.8000000000000012},{"rt":7188.5,"stimulus":"bees-with-color/bee-B1DF.svg","response":0,"trial_type":"image-button-response","trial_index":81,"time_elapsed":1392916,"internal_node_id":"0.0-4.0-0.35","subject_id":"616f579cd112c371f862e1f6","study_id":"6197b3f67c2b5cd3b6d9596a","session_id":"6197b9f095023eb426347427","condition":"full-information","relevant_dimensions":["wings","legs"],"bee_group":{"antennae":"X","wings":"2","pattern":"X","legs":"F"},"action":"harvest","summary":"good-harvest","bonus":1.8000000000000012},{"rt":2537.9000000059605,"stimulus":"\n                    <p><b>Action: <em>harvest</em></b></p>\n                    <p>This is the bee that you just saw.</p>\n                    <img src=\"bees-with-color/bee-B1DF.svg\" width=\"200\">\n                    <p><span class=\"greenText\"><b>Successful harvest!</b></span><br>Your pay has increased by $0.02. Your bonus pay is now $0.92.</p>\n            ","response":0,"trial_type":"html-button-response","trial_index":82,"time_elapsed":1395456,"internal_node_id":"0.0-4.0-1.35","subject_id":"616f579cd112c371f862e1f6","study_id":"6197b3f67c2b5cd3b6d9596a","session_id":"6197b9f095023eb426347427","condition":"full-information","relevant_dimensions":["wings","legs"],"bee_group":{"antennae":"X","wings":"2","pattern":"X","legs":"F"},"bonus":1.8000000000000012},{"rt":4915.899999976158,"stimulus":"bees-with-color/bee-A2SF.svg","response":1,"trial_type":"image-button-response","trial_index":83,"time_elapsed":1400375,"internal_node_id":"0.0-4.0-0.36","subject_id":"616f579cd112c371f862e1f6","study_id":"6197b3f67c2b5cd3b6d9596a","session_id":"6197b9f095023eb426347427","condition":"full-information","relevant_dimensions":["wings","legs"],"bee_group":{"antennae":"X","wings":"2","pattern":"X","legs":"F"},"action":"avoid","summary":"good-avoid","bonus":1.8000000000000012},{"rt":1955.4000000059605,"stimulus":"\n                    <p><b>Action: <em>avoid</em></b></p>\n                    <p>This is the bee that you just saw.</p>\n                    <img src=\"bees-with-color/bee-A2SF.svg\" width=\"200\">\n                    <p><span class=\"greenText\">Good choice!</span>  This bee would have stung you.<br>Your bonus pay is unchanged, and remains at $0.92.</p>\n            ","response":0,"trial_type":"html-button-response","trial_index":84,"time_elapsed":1402332,"internal_node_id":"0.0-4.0-1.36","subject_id":"616f579cd112c371f862e1f6","study_id":"6197b3f67c2b5cd3b6d9596a","session_id":"6197b9f095023eb426347427","condition":"full-information","relevant_dimensions":["wings","legs"],"bee_group":{"antennae":"X","wings":"2","pattern":"X","legs":"F"},"bonus":1.8000000000000012},{"rt":5328.300000011921,"stimulus":"bees-with-color/bee-A2SM.svg","response":0,"trial_type":"image-button-response","trial_index":85,"time_elapsed":1407662,"internal_node_id":"0.0-4.0-0.37","subject_id":"616f579cd112c371f862e1f6","study_id":"6197b3f67c2b5cd3b6d9596a","session_id":"6197b9f095023eb426347427","condition":"full-information","relevant_dimensions":["wings","legs"],"bee_group":{"antennae":"X","wings":"2","pattern":"X","legs":"F"},"action":"harvest","summary":"good-harvest","bonus":1.8000000000000012},{"rt":1684.300000011921,"stimulus":"\n                    <p><b>Action: <em>harvest</em></b></p>\n                    <p>This is the bee that you just saw.</p>\n                    <img src=\"bees-with-color/bee-A2SM.svg\" width=\"200\">\n                    <p><span class=\"greenText\"><b>Successful harvest!</b></span><br>Your pay has increased by $0.02. Your bonus pay is now $0.94.</p>\n            ","response":0,"trial_type":"html-button-response","trial_index":86,"time_elapsed":1409348,"internal_node_id":"0.0-4.0-1.37","subject_id":"616f579cd112c371f862e1f6","study_id":"6197b3f67c2b5cd3b6d9596a","session_id":"6197b9f095023eb426347427","condition":"full-information","relevant_dimensions":["wings","legs"],"bee_group":{"antennae":"X","wings":"2","pattern":"X","legs":"F"},"bonus":1.8000000000000012},{"rt":5408.5,"stimulus":"bees-with-color/bee-B1SM.svg","response":0,"trial_type":"image-button-response","trial_index":87,"time_elapsed":1414759,"internal_node_id":"0.0-4.0-0.38","subject_id":"616f579cd112c371f862e1f6","study_id":"6197b3f67c2b5cd3b6d9596a","session_id":"6197b9f095023eb426347427","condition":"full-information","relevant_dimensions":["wings","legs"],"bee_group":{"antennae":"X","wings":"2","pattern":"X","legs":"F"},"action":"harvest","summary":"good-harvest","bonus":1.8000000000000012},{"rt":1661.5,"stimulus":"\n                    <p><b>Action: <em>harvest</em></b></p>\n                    <p>This is the bee that you just saw.</p>\n                    <img src=\"bees-with-color/bee-B1SM.svg\" width=\"200\">\n                    <p><span class=\"greenText\"><b>Successful harvest!</b></span><br>Your pay has increased by $0.02. Your bonus pay is now $0.96.</p>\n            ","response":0,"trial_type":"html-button-response","trial_index":88,"time_elapsed":1416422,"internal_node_id":"0.0-4.0-1.38","subject_id":"616f579cd112c371f862e1f6","study_id":"6197b3f67c2b5cd3b6d9596a","session_id":"6197b9f095023eb426347427","condition":"full-information","relevant_dimensions":["wings","legs"],"bee_group":{"antennae":"X","wings":"2","pattern":"X","legs":"F"},"bonus":1.8000000000000012},{"rt":5112.799999982119,"stimulus":"bees-with-color/bee-B2DF.svg","response":1,"trial_type":"image-button-response","trial_index":89,"time_elapsed":1421538,"internal_node_id":"0.0-4.0-0.39","subject_id":"616f579cd112c371f862e1f6","study_id":"6197b3f67c2b5cd3b6d9596a","session_id":"6197b9f095023eb426347427","condition":"full-information","relevant_dimensions":["wings","legs"],"bee_group":{"antennae":"X","wings":"2","pattern":"X","legs":"F"},"action":"avoid","summary":"good-avoid","bonus":1.8000000000000012},{"rt":2045.5,"stimulus":"\n                    <p><b>Action: <em>avoid</em></b></p>\n                    <p>This is the bee that you just saw.</p>\n                    <img src=\"bees-with-color/bee-B2DF.svg\" width=\"200\">\n                    <p><span class=\"greenText\">Good choice!</span>  This bee would have stung you.<br>Your bonus pay is unchanged, and remains at $0.96.</p>\n            ","response":0,"trial_type":"html-button-response","trial_index":90,"time_elapsed":1423586,"internal_node_id":"0.0-4.0-1.39","subject_id":"616f579cd112c371f862e1f6","study_id":"6197b3f67c2b5cd3b6d9596a","session_id":"6197b9f095023eb426347427","condition":"full-information","relevant_dimensions":["wings","legs"],"bee_group":{"antennae":"X","wings":"2","pattern":"X","legs":"F"},"bonus":1.8000000000000012},{"rt":5475.100000023842,"stimulus":"bees-with-color/bee-A1SF.svg","response":0,"trial_type":"image-button-response","trial_index":91,"time_elapsed":1429063,"internal_node_id":"0.0-4.0-0.40","subject_id":"616f579cd112c371f862e1f6","study_id":"6197b3f67c2b5cd3b6d9596a","session_id":"6197b9f095023eb426347427","condition":"full-information","relevant_dimensions":["wings","legs"],"bee_group":{"antennae":"X","wings":"2","pattern":"X","legs":"F"},"action":"harvest","summary":"good-harvest","bonus":1.8000000000000012},{"rt":2000.5,"stimulus":"\n                    <p><b>Action: <em>harvest</em></b></p>\n                    <p>This is the bee that you just saw.</p>\n                    <img src=\"bees-with-color/bee-A1SF.svg\" width=\"200\">\n                    <p><span class=\"greenText\"><b>Successful harvest!</b></span><br>Your pay has increased by $0.02. Your bonus pay is now $0.98.</p>\n            ","response":0,"trial_type":"html-button-response","trial_index":92,"time_elapsed":1431065,"internal_node_id":"0.0-4.0-1.40","subject_id":"616f579cd112c371f862e1f6","study_id":"6197b3f67c2b5cd3b6d9596a","session_id":"6197b9f095023eb426347427","condition":"full-information","relevant_dimensions":["wings","legs"],"bee_group":{"antennae":"X","wings":"2","pattern":"X","legs":"F"},"bonus":1.8000000000000012},{"rt":8646.40000000596,"stimulus":"bees-with-color/bee-B2SF.svg","response":1,"trial_type":"image-button-response","trial_index":93,"time_elapsed":1439714,"internal_node_id":"0.0-4.0-0.41","subject_id":"616f579cd112c371f862e1f6","study_id":"6197b3f67c2b5cd3b6d9596a","session_id":"6197b9f095023eb426347427","condition":"full-information","relevant_dimensions":["wings","legs"],"bee_group":{"antennae":"X","wings":"2","pattern":"X","legs":"F"},"action":"avoid","summary":"good-avoid","bonus":1.8000000000000012},{"rt":7410.0999999940395,"stimulus":"\n                    <p><b>Action: <em>avoid</em></b></p>\n                    <p>This is the bee that you just saw.</p>\n                    <img src=\"bees-with-color/bee-B2SF.svg\" width=\"200\">\n                    <p><span class=\"greenText\">Good choice!</span>  This bee would have stung you.<br>Your bonus pay is unchanged, and remains at $0.98.</p>\n            ","response":0,"trial_type":"html-button-response","trial_index":94,"time_elapsed":1447126,"internal_node_id":"0.0-4.0-1.41","subject_id":"616f579cd112c371f862e1f6","study_id":"6197b3f67c2b5cd3b6d9596a","session_id":"6197b9f095023eb426347427","condition":"full-information","relevant_dimensions":["wings","legs"],"bee_group":{"antennae":"X","wings":"2","pattern":"X","legs":"F"},"bonus":1.8000000000000012},{"rt":2515.100000023842,"stimulus":"bees-with-color/bee-A1DM.svg","response":0,"trial_type":"image-button-response","trial_index":95,"time_elapsed":1449644,"internal_node_id":"0.0-4.0-0.42","subject_id":"616f579cd112c371f862e1f6","study_id":"6197b3f67c2b5cd3b6d9596a","session_id":"6197b9f095023eb426347427","condition":"full-information","relevant_dimensions":["wings","legs"],"bee_group":{"antennae":"X","wings":"2","pattern":"X","legs":"F"},"action":"harvest","summary":"good-harvest","bonus":1.8000000000000012},{"rt":1713.5999999940395,"stimulus":"\n                    <p><b>Action: <em>harvest</em></b></p>\n                    <p>This is the bee that you just saw.</p>\n                    <img src=\"bees-with-color/bee-A1DM.svg\" width=\"200\">\n                    <p><span class=\"greenText\"><b>Successful harvest!</b></span><br>Your pay has increased by $0.02. Your bonus pay is now $1.00.</p>\n            ","response":0,"trial_type":"html-button-response","trial_index":96,"time_elapsed":1451360,"internal_node_id":"0.0-4.0-1.42","subject_id":"616f579cd112c371f862e1f6","study_id":"6197b3f67c2b5cd3b6d9596a","session_id":"6197b9f095023eb426347427","condition":"full-information","relevant_dimensions":["wings","legs"],"bee_group":{"antennae":"X","wings":"2","pattern":"X","legs":"F"},"bonus":1.8000000000000012},{"rt":10913.40000000596,"stimulus":"bees-with-color/bee-A2DM.svg","response":0,"trial_type":"image-button-response","trial_index":97,"time_elapsed":1462275,"internal_node_id":"0.0-4.0-0.43","subject_id":"616f579cd112c371f862e1f6","study_id":"6197b3f67c2b5cd3b6d9596a","session_id":"6197b9f095023eb426347427","condition":"full-information","relevant_dimensions":["wings","legs"],"bee_group":{"antennae":"X","wings":"2","pattern":"X","legs":"F"},"action":"harvest","summary":"good-harvest","bonus":1.8000000000000012},{"rt":7624.200000017881,"stimulus":"\n                    <p><b>Action: <em>harvest</em></b></p>\n                    <p>This is the bee that you just saw.</p>\n                    <img src=\"bees-with-color/bee-A2DM.svg\" width=\"200\">\n                    <p><span class=\"greenText\"><b>Successful harvest!</b></span><br>Your pay has increased by $0.02. Your bonus pay is now $1.02.</p>\n            ","response":0,"trial_type":"html-button-response","trial_index":98,"time_elapsed":1469901,"internal_node_id":"0.0-4.0-1.43","subject_id":"616f579cd112c371f862e1f6","study_id":"6197b3f67c2b5cd3b6d9596a","session_id":"6197b9f095023eb426347427","condition":"full-information","relevant_dimensions":["wings","legs"],"bee_group":{"antennae":"X","wings":"2","pattern":"X","legs":"F"},"bonus":1.8000000000000012},{"rt":2168.0999999940395,"stimulus":"bees-with-color/bee-A1SM.svg","response":0,"trial_type":"image-button-response","trial_index":99,"time_elapsed":1472072,"internal_node_id":"0.0-4.0-0.44","subject_id":"616f579cd112c371f862e1f6","study_id":"6197b3f67c2b5cd3b6d9596a","session_id":"6197b9f095023eb426347427","condition":"full-information","relevant_dimensions":["wings","legs"],"bee_group":{"antennae":"X","wings":"2","pattern":"X","legs":"F"},"action":"harvest","summary":"good-harvest","bonus":1.8000000000000012},{"rt":4098.5,"stimulus":"\n                    <p><b>Action: <em>harvest</em></b></p>\n                    <p>This is the bee that you just saw.</p>\n                    <img src=\"bees-with-color/bee-A1SM.svg\" width=\"200\">\n                    <p><span class=\"greenText\"><b>Successful harvest!</b></span><br>Your pay has increased by $0.02. Your bonus pay is now $1.04.</p>\n            ","response":0,"trial_type":"html-button-response","trial_index":100,"time_elapsed":1476173,"internal_node_id":"0.0-4.0-1.44","subject_id":"616f579cd112c371f862e1f6","study_id":"6197b3f67c2b5cd3b6d9596a","session_id":"6197b9f095023eb426347427","condition":"full-information","relevant_dimensions":["wings","legs"],"bee_group":{"antennae":"X","wings":"2","pattern":"X","legs":"F"},"bonus":1.8000000000000012},{"rt":2494.0999999940395,"stimulus":"bees-with-color/bee-B2SM.svg","response":0,"trial_type":"image-button-response","trial_index":101,"time_elapsed":1478670,"internal_node_id":"0.0-4.0-0.45","subject_id":"616f579cd112c371f862e1f6","study_id":"6197b3f67c2b5cd3b6d9596a","session_id":"6197b9f095023eb426347427","condition":"full-information","relevant_dimensions":["wings","legs"],"bee_group":{"antennae":"X","wings":"2","pattern":"X","legs":"F"},"action":"harvest","summary":"good-harvest","bonus":1.8000000000000012},{"rt":1580.4000000059605,"stimulus":"\n                    <p><b>Action: <em>harvest</em></b></p>\n                    <p>This is the bee that you just saw.</p>\n                    <img src=\"bees-with-color/bee-B2SM.svg\" width=\"200\">\n                    <p><span class=\"greenText\"><b>Successful harvest!</b></span><br>Your pay has increased by $0.02. Your bonus pay is now $1.06.</p>\n            ","response":0,"trial_type":"html-button-response","trial_index":102,"time_elapsed":1480252,"internal_node_id":"0.0-4.0-1.45","subject_id":"616f579cd112c371f862e1f6","study_id":"6197b3f67c2b5cd3b6d9596a","session_id":"6197b9f095023eb426347427","condition":"full-information","relevant_dimensions":["wings","legs"],"bee_group":{"antennae":"X","wings":"2","pattern":"X","legs":"F"},"bonus":1.8000000000000012},{"rt":2566.899999976158,"stimulus":"bees-with-color/bee-A2DF.svg","response":1,"trial_type":"image-button-response","trial_index":103,"time_elapsed":1482821,"internal_node_id":"0.0-4.0-0.46","subject_id":"616f579cd112c371f862e1f6","study_id":"6197b3f67c2b5cd3b6d9596a","session_id":"6197b9f095023eb426347427","condition":"full-information","relevant_dimensions":["wings","legs"],"bee_group":{"antennae":"X","wings":"2","pattern":"X","legs":"F"},"action":"avoid","summary":"good-avoid","bonus":1.8000000000000012},{"rt":1632.8999999761581,"stimulus":"\n                    <p><b>Action: <em>avoid</em></b></p>\n                    <p>This is the bee that you just saw.</p>\n                    <img src=\"bees-with-color/bee-A2DF.svg\" width=\"200\">\n                    <p><span class=\"greenText\">Good choice!</span>  This bee would have stung you.<br>Your bonus pay is unchanged, and remains at $1.06.</p>\n            ","response":0,"trial_type":"html-button-response","trial_index":104,"time_elapsed":1484456,"internal_node_id":"0.0-4.0-1.46","subject_id":"616f579cd112c371f862e1f6","study_id":"6197b3f67c2b5cd3b6d9596a","session_id":"6197b9f095023eb426347427","condition":"full-information","relevant_dimensions":["wings","legs"],"bee_group":{"antennae":"X","wings":"2","pattern":"X","legs":"F"},"bonus":1.8000000000000012},{"rt":5165.5999999940395,"stimulus":"bees-with-color/bee-B1SF.svg","response":0,"trial_type":"image-button-response","trial_index":105,"time_elapsed":1489624,"internal_node_id":"0.0-4.0-0.47","subject_id":"616f579cd112c371f862e1f6","study_id":"6197b3f67c2b5cd3b6d9596a","session_id":"6197b9f095023eb426347427","condition":"full-information","relevant_dimensions":["wings","legs"],"bee_group":{"antennae":"X","wings":"2","pattern":"X","legs":"F"},"action":"harvest","summary":"good-harvest","bonus":1.8000000000000012},{"rt":1956.300000011921,"stimulus":"\n                    <p><b>Action: <em>harvest</em></b></p>\n                    <p>This is the bee that you just saw.</p>\n                    <img src=\"bees-with-color/bee-B1SF.svg\" width=\"200\">\n                    <p><span class=\"greenText\"><b>Successful harvest!</b></span><br>Your pay has increased by $0.02. Your bonus pay is now $1.08.</p>\n            ","response":0,"trial_type":"html-button-response","trial_index":106,"time_elapsed":1491582,"internal_node_id":"0.0-4.0-1.47","subject_id":"616f579cd112c371f862e1f6","study_id":"6197b3f67c2b5cd3b6d9596a","session_id":"6197b9f095023eb426347427","condition":"full-information","relevant_dimensions":["wings","legs"],"bee_group":{"antennae":"X","wings":"2","pattern":"X","legs":"F"},"bonus":1.8000000000000012},{"rt":6718.300000011921,"stimulus":"bees-with-color/bee-B1DM.svg","response":0,"trial_type":"image-button-response","trial_index":107,"time_elapsed":1498303,"internal_node_id":"0.0-4.0-0.48","subject_id":"616f579cd112c371f862e1f6","study_id":"6197b3f67c2b5cd3b6d9596a","session_id":"6197b9f095023eb426347427","condition":"full-information","relevant_dimensions":["wings","legs"],"bee_group":{"antennae":"X","wings":"2","pattern":"X","legs":"F"},"action":"harvest","summary":"good-harvest","bonus":1.8000000000000012},{"rt":1588.7999999821186,"stimulus":"\n                    <p><b>Action: <em>harvest</em></b></p>\n                    <p>This is the bee that you just saw.</p>\n                    <img src=\"bees-with-color/bee-B1DM.svg\" width=\"200\">\n                    <p><span class=\"greenText\"><b>Successful harvest!</b></span><br>Your pay has increased by $0.02. Your bonus pay is now $1.10.</p>\n            ","response":0,"trial_type":"html-button-response","trial_index":108,"time_elapsed":1499893,"internal_node_id":"0.0-4.0-1.48","subject_id":"616f579cd112c371f862e1f6","study_id":"6197b3f67c2b5cd3b6d9596a","session_id":"6197b9f095023eb426347427","condition":"full-information","relevant_dimensions":["wings","legs"],"bee_group":{"antennae":"X","wings":"2","pattern":"X","legs":"F"},"bonus":1.8000000000000012},{"rt":2427.199999988079,"stimulus":"bees-with-color/bee-A1DM.svg","response":0,"trial_type":"image-button-response","trial_index":109,"time_elapsed":1502322,"internal_node_id":"0.0-4.0-0.49","subject_id":"616f579cd112c371f862e1f6","study_id":"6197b3f67c2b5cd3b6d9596a","session_id":"6197b9f095023eb426347427","condition":"full-information","relevant_dimensions":["wings","legs"],"bee_group":{"antennae":"X","wings":"2","pattern":"X","legs":"F"},"action":"harvest","summary":"good-harvest","bonus":1.8000000000000012},{"rt":1721.7000000178814,"stimulus":"\n                    <p><b>Action: <em>harvest</em></b></p>\n                    <p>This is the bee that you just saw.</p>\n                    <img src=\"bees-with-color/bee-A1DM.svg\" width=\"200\">\n                    <p><span class=\"greenText\"><b>Successful harvest!</b></span><br>Your pay has increased by $0.02. Your bonus pay is now $1.12.</p>\n            ","response":0,"trial_type":"html-button-response","trial_index":110,"time_elapsed":1504046,"internal_node_id":"0.0-4.0-1.49","subject_id":"616f579cd112c371f862e1f6","study_id":"6197b3f67c2b5cd3b6d9596a","session_id":"6197b9f095023eb426347427","condition":"full-information","relevant_dimensions":["wings","legs"],"bee_group":{"antennae":"X","wings":"2","pattern":"X","legs":"F"},"bonus":1.8000000000000012},{"rt":9007.5,"stimulus":"bees-with-color/bee-B2DM.svg","response":0,"trial_type":"image-button-response","trial_index":111,"time_elapsed":1513055,"internal_node_id":"0.0-4.0-0.50","subject_id":"616f579cd112c371f862e1f6","study_id":"6197b3f67c2b5cd3b6d9596a","session_id":"6197b9f095023eb426347427","condition":"full-information","relevant_dimensions":["wings","legs"],"bee_group":{"antennae":"X","wings":"2","pattern":"X","legs":"F"},"action":"harvest","summary":"good-harvest","bonus":1.8000000000000012},{"rt":1721.4000000059605,"stimulus":"\n                    <p><b>Action: <em>harvest</em></b></p>\n                    <p>This is the bee that you just saw.</p>\n                    <img src=\"bees-with-color/bee-B2DM.svg\" width=\"200\">\n                    <p><span class=\"greenText\"><b>Successful harvest!</b></span><br>Your pay has increased by $0.02. Your bonus pay is now $1.14.</p>\n            ","response":0,"trial_type":"html-button-response","trial_index":112,"time_elapsed":1514778,"internal_node_id":"0.0-4.0-1.50","subject_id":"616f579cd112c371f862e1f6","study_id":"6197b3f67c2b5cd3b6d9596a","session_id":"6197b9f095023eb426347427","condition":"full-information","relevant_dimensions":["wings","legs"],"bee_group":{"antennae":"X","wings":"2","pattern":"X","legs":"F"},"bonus":1.8000000000000012},{"rt":3024,"stimulus":"bees-with-color/bee-B1SM.svg","response":0,"trial_type":"image-button-response","trial_index":113,"time_elapsed":1517804,"internal_node_id":"0.0-4.0-0.51","subject_id":"616f579cd112c371f862e1f6","study_id":"6197b3f67c2b5cd3b6d9596a","session_id":"6197b9f095023eb426347427","condition":"full-information","relevant_dimensions":["wings","legs"],"bee_group":{"antennae":"X","wings":"2","pattern":"X","legs":"F"},"action":"harvest","summary":"good-harvest","bonus":1.8000000000000012},{"rt":2074.2000000178814,"stimulus":"\n                    <p><b>Action: <em>harvest</em></b></p>\n                    <p>This is the bee that you just saw.</p>\n                    <img src=\"bees-with-color/bee-B1SM.svg\" width=\"200\">\n                    <p><span class=\"greenText\"><b>Successful harvest!</b></span><br>Your pay has increased by $0.02. Your bonus pay is now $1.16.</p>\n            ","response":0,"trial_type":"html-button-response","trial_index":114,"time_elapsed":1519880,"internal_node_id":"0.0-4.0-1.51","subject_id":"616f579cd112c371f862e1f6","study_id":"6197b3f67c2b5cd3b6d9596a","session_id":"6197b9f095023eb426347427","condition":"full-information","relevant_dimensions":["wings","legs"],"bee_group":{"antennae":"X","wings":"2","pattern":"X","legs":"F"},"bonus":1.8000000000000012},{"rt":2421.4000000059605,"stimulus":"bees-with-color/bee-B2SF.svg","response":1,"trial_type":"image-button-response","trial_index":115,"time_elapsed":1522303,"internal_node_id":"0.0-4.0-0.52","subject_id":"616f579cd112c371f862e1f6","study_id":"6197b3f67c2b5cd3b6d9596a","session_id":"6197b9f095023eb426347427","condition":"full-information","relevant_dimensions":["wings","legs"],"bee_group":{"antennae":"X","wings":"2","pattern":"X","legs":"F"},"action":"avoid","summary":"good-avoid","bonus":1.8000000000000012},{"rt":1838.6000000238419,"stimulus":"\n                    <p><b>Action: <em>avoid</em></b></p>\n                    <p>This is the bee that you just saw.</p>\n                    <img src=\"bees-with-color/bee-B2SF.svg\" width=\"200\">\n                    <p><span class=\"greenText\">Good choice!</span>  This bee would have stung you.<br>Your bonus pay is unchanged, and remains at $1.16.</p>\n            ","response":0,"trial_type":"html-button-response","trial_index":116,"time_elapsed":1524144,"internal_node_id":"0.0-4.0-1.52","subject_id":"616f579cd112c371f862e1f6","study_id":"6197b3f67c2b5cd3b6d9596a","session_id":"6197b9f095023eb426347427","condition":"full-information","relevant_dimensions":["wings","legs"],"bee_group":{"antennae":"X","wings":"2","pattern":"X","legs":"F"},"bonus":1.8000000000000012},{"rt":2148.0999999940395,"stimulus":"bees-with-color/bee-B2DF.svg","response":1,"trial_type":"image-button-response","trial_index":117,"time_elapsed":1526294,"internal_node_id":"0.0-4.0-0.53","subject_id":"616f579cd112c371f862e1f6","study_id":"6197b3f67c2b5cd3b6d9596a","session_id":"6197b9f095023eb426347427","condition":"full-information","relevant_dimensions":["wings","legs"],"bee_group":{"antennae":"X","wings":"2","pattern":"X","legs":"F"},"action":"avoid","summary":"good-avoid","bonus":1.8000000000000012},{"rt":1985.5,"stimulus":"\n                    <p><b>Action: <em>avoid</em></b></p>\n                    <p>This is the bee that you just saw.</p>\n                    <img src=\"bees-with-color/bee-B2DF.svg\" width=\"200\">\n                    <p><span class=\"greenText\">Good choice!</span>  This bee would have stung you.<br>Your bonus pay is unchanged, and remains at $1.16.</p>\n            ","response":0,"trial_type":"html-button-response","trial_index":118,"time_elapsed":1528281,"internal_node_id":"0.0-4.0-1.53","subject_id":"616f579cd112c371f862e1f6","study_id":"6197b3f67c2b5cd3b6d9596a","session_id":"6197b9f095023eb426347427","condition":"full-information","relevant_dimensions":["wings","legs"],"bee_group":{"antennae":"X","wings":"2","pattern":"X","legs":"F"},"bonus":1.8000000000000012},{"rt":5371.799999982119,"stimulus":"bees-with-color/bee-A1SF.svg","response":0,"trial_type":"image-button-response","trial_index":119,"time_elapsed":1533655,"internal_node_id":"0.0-4.0-0.54","subject_id":"616f579cd112c371f862e1f6","study_id":"6197b3f67c2b5cd3b6d9596a","session_id":"6197b9f095023eb426347427","condition":"full-information","relevant_dimensions":["wings","legs"],"bee_group":{"antennae":"X","wings":"2","pattern":"X","legs":"F"},"action":"harvest","summary":"good-harvest","bonus":1.8000000000000012},{"rt":1485.699999988079,"stimulus":"\n                    <p><b>Action: <em>harvest</em></b></p>\n                    <p>This is the bee that you just saw.</p>\n                    <img src=\"bees-with-color/bee-A1SF.svg\" width=\"200\">\n                    <p><span class=\"greenText\"><b>Successful harvest!</b></span><br>Your pay has increased by $0.02. Your bonus pay is now $1.18.</p>\n            ","response":0,"trial_type":"html-button-response","trial_index":120,"time_elapsed":1535143,"internal_node_id":"0.0-4.0-1.54","subject_id":"616f579cd112c371f862e1f6","study_id":"6197b3f67c2b5cd3b6d9596a","session_id":"6197b9f095023eb426347427","condition":"full-information","relevant_dimensions":["wings","legs"],"bee_group":{"antennae":"X","wings":"2","pattern":"X","legs":"F"},"bonus":1.8000000000000012},{"rt":2420,"stimulus":"bees-with-color/bee-A2SM.svg","response":0,"trial_type":"image-button-response","trial_index":121,"time_elapsed":1537565,"internal_node_id":"0.0-4.0-0.55","subject_id":"616f579cd112c371f862e1f6","study_id":"6197b3f67c2b5cd3b6d9596a","session_id":"6197b9f095023eb426347427","condition":"full-information","relevant_dimensions":["wings","legs"],"bee_group":{"antennae":"X","wings":"2","pattern":"X","legs":"F"},"action":"harvest","summary":"good-harvest","bonus":1.8000000000000012},{"rt":1573.8999999761581,"stimulus":"\n                    <p><b>Action: <em>harvest</em></b></p>\n                    <p>This is the bee that you just saw.</p>\n                    <img src=\"bees-with-color/bee-A2SM.svg\" width=\"200\">\n                    <p><span class=\"greenText\"><b>Successful harvest!</b></span><br>Your pay has increased by $0.02. Your bonus pay is now $1.20.</p>\n            ","response":0,"trial_type":"html-button-response","trial_index":122,"time_elapsed":1539141,"internal_node_id":"0.0-4.0-1.55","subject_id":"616f579cd112c371f862e1f6","study_id":"6197b3f67c2b5cd3b6d9596a","session_id":"6197b9f095023eb426347427","condition":"full-information","relevant_dimensions":["wings","legs"],"bee_group":{"antennae":"X","wings":"2","pattern":"X","legs":"F"},"bonus":1.8000000000000012},{"rt":5054.800000011921,"stimulus":"bees-with-color/bee-A1DF.svg","response":0,"trial_type":"image-button-response","trial_index":123,"time_elapsed":1544198,"internal_node_id":"0.0-4.0-0.56","subject_id":"616f579cd112c371f862e1f6","study_id":"6197b3f67c2b5cd3b6d9596a","session_id":"6197b9f095023eb426347427","condition":"full-information","relevant_dimensions":["wings","legs"],"bee_group":{"antennae":"X","wings":"2","pattern":"X","legs":"F"},"action":"harvest","summary":"good-harvest","bonus":1.8000000000000012},{"rt":1464.1000000238419,"stimulus":"\n                    <p><b>Action: <em>harvest</em></b></p>\n                    <p>This is the bee that you just saw.</p>\n                    <img src=\"bees-with-color/bee-A1DF.svg\" width=\"200\">\n                    <p><span class=\"greenText\"><b>Successful harvest!</b></span><br>Your pay has increased by $0.02. Your bonus pay is now $1.22.</p>\n            ","response":0,"trial_type":"html-button-response","trial_index":124,"time_elapsed":1545664,"internal_node_id":"0.0-4.0-1.56","subject_id":"616f579cd112c371f862e1f6","study_id":"6197b3f67c2b5cd3b6d9596a","session_id":"6197b9f095023eb426347427","condition":"full-information","relevant_dimensions":["wings","legs"],"bee_group":{"antennae":"X","wings":"2","pattern":"X","legs":"F"},"bonus":1.8000000000000012},{"rt":6172.9000000059605,"stimulus":"bees-with-color/bee-A2SF.svg","response":1,"trial_type":"image-button-response","trial_index":125,"time_elapsed":1551839,"internal_node_id":"0.0-4.0-0.57","subject_id":"616f579cd112c371f862e1f6","study_id":"6197b3f67c2b5cd3b6d9596a","session_id":"6197b9f095023eb426347427","condition":"full-information","relevant_dimensions":["wings","legs"],"bee_group":{"antennae":"X","wings":"2","pattern":"X","legs":"F"},"action":"avoid","summary":"good-avoid","bonus":1.8000000000000012},{"rt":1816.7000000178814,"stimulus":"\n                    <p><b>Action: <em>avoid</em></b></p>\n                    <p>This is the bee that you just saw.</p>\n                    <img src=\"bees-with-color/bee-A2SF.svg\" width=\"200\">\n                    <p><span class=\"greenText\">Good choice!</span>  This bee would have stung you.<br>Your bonus pay is unchanged, and remains at $1.22.</p>\n            ","response":0,"trial_type":"html-button-response","trial_index":126,"time_elapsed":1553657,"internal_node_id":"0.0-4.0-1.57","subject_id":"616f579cd112c371f862e1f6","study_id":"6197b3f67c2b5cd3b6d9596a","session_id":"6197b9f095023eb426347427","condition":"full-information","relevant_dimensions":["wings","legs"],"bee_group":{"antennae":"X","wings":"2","pattern":"X","legs":"F"},"bonus":1.8000000000000012},{"rt":10884.59999999404,"stimulus":"bees-with-color/bee-B1SF.svg","response":0,"trial_type":"image-button-response","trial_index":127,"time_elapsed":1564544,"internal_node_id":"0.0-4.0-0.58","subject_id":"616f579cd112c371f862e1f6","study_id":"6197b3f67c2b5cd3b6d9596a","session_id":"6197b9f095023eb426347427","condition":"full-information","relevant_dimensions":["wings","legs"],"bee_group":{"antennae":"X","wings":"2","pattern":"X","legs":"F"},"action":"harvest","summary":"good-harvest","bonus":1.8000000000000012},{"rt":1226.800000011921,"stimulus":"\n                    <p><b>Action: <em>harvest</em></b></p>\n                    <p>This is the bee that you just saw.</p>\n                    <img src=\"bees-with-color/bee-B1SF.svg\" width=\"200\">\n                    <p><span class=\"greenText\"><b>Successful harvest!</b></span><br>Your pay has increased by $0.02. Your bonus pay is now $1.24.</p>\n            ","response":0,"trial_type":"html-button-response","trial_index":128,"time_elapsed":1565773,"internal_node_id":"0.0-4.0-1.58","subject_id":"616f579cd112c371f862e1f6","study_id":"6197b3f67c2b5cd3b6d9596a","session_id":"6197b9f095023eb426347427","condition":"full-information","relevant_dimensions":["wings","legs"],"bee_group":{"antennae":"X","wings":"2","pattern":"X","legs":"F"},"bonus":1.8000000000000012},{"rt":7116.0999999940395,"stimulus":"bees-with-color/bee-A2DM.svg","response":0,"trial_type":"image-button-response","trial_index":129,"time_elapsed":1572891,"internal_node_id":"0.0-4.0-0.59","subject_id":"616f579cd112c371f862e1f6","study_id":"6197b3f67c2b5cd3b6d9596a","session_id":"6197b9f095023eb426347427","condition":"full-information","relevant_dimensions":["wings","legs"],"bee_group":{"antennae":"X","wings":"2","pattern":"X","legs":"F"},"action":"harvest","summary":"good-harvest","bonus":1.8000000000000012},{"rt":1934.199999988079,"stimulus":"\n                    <p><b>Action: <em>harvest</em></b></p>\n                    <p>This is the bee that you just saw.</p>\n                    <img src=\"bees-with-color/bee-A2DM.svg\" width=\"200\">\n                    <p><span class=\"greenText\"><b>Successful harvest!</b></span><br>Your pay has increased by $0.02. Your bonus pay is now $1.26.</p>\n            ","response":0,"trial_type":"html-button-response","trial_index":130,"time_elapsed":1574827,"internal_node_id":"0.0-4.0-1.59","subject_id":"616f579cd112c371f862e1f6","study_id":"6197b3f67c2b5cd3b6d9596a","session_id":"6197b9f095023eb426347427","condition":"full-information","relevant_dimensions":["wings","legs"],"bee_group":{"antennae":"X","wings":"2","pattern":"X","legs":"F"},"bonus":1.8000000000000012},{"rt":6932.199999988079,"stimulus":"bees-with-color/bee-A2DF.svg","response":1,"trial_type":"image-button-response","trial_index":131,"time_elapsed":1581762,"internal_node_id":"0.0-4.0-0.60","subject_id":"616f579cd112c371f862e1f6","study_id":"6197b3f67c2b5cd3b6d9596a","session_id":"6197b9f095023eb426347427","condition":"full-information","relevant_dimensions":["wings","legs"],"bee_group":{"antennae":"X","wings":"2","pattern":"X","legs":"F"},"action":"avoid","summary":"good-avoid","bonus":1.8000000000000012},{"rt":7617.100000023842,"stimulus":"\n                    <p><b>Action: <em>avoid</em></b></p>\n                    <p>This is the bee that you just saw.</p>\n                    <img src=\"bees-with-color/bee-A2DF.svg\" width=\"200\">\n                    <p><span class=\"greenText\">Good choice!</span>  This bee would have stung you.<br>Your bonus pay is unchanged, and remains at $1.26.</p>\n            ","response":0,"trial_type":"html-button-response","trial_index":132,"time_elapsed":1589381,"internal_node_id":"0.0-4.0-1.60","subject_id":"616f579cd112c371f862e1f6","study_id":"6197b3f67c2b5cd3b6d9596a","session_id":"6197b9f095023eb426347427","condition":"full-information","relevant_dimensions":["wings","legs"],"bee_group":{"antennae":"X","wings":"2","pattern":"X","legs":"F"},"bonus":1.8000000000000012},{"rt":5481,"stimulus":"bees-with-color/bee-B2SM.svg","response":0,"trial_type":"image-button-response","trial_index":133,"time_elapsed":1594865,"internal_node_id":"0.0-4.0-0.61","subject_id":"616f579cd112c371f862e1f6","study_id":"6197b3f67c2b5cd3b6d9596a","session_id":"6197b9f095023eb426347427","condition":"full-information","relevant_dimensions":["wings","legs"],"bee_group":{"antennae":"X","wings":"2","pattern":"X","legs":"F"},"action":"harvest","summary":"good-harvest","bonus":1.8000000000000012},{"rt":2037.5999999940395,"stimulus":"\n                    <p><b>Action: <em>harvest</em></b></p>\n                    <p>This is the bee that you just saw.</p>\n                    <img src=\"bees-with-color/bee-B2SM.svg\" width=\"200\">\n                    <p><span class=\"greenText\"><b>Successful harvest!</b></span><br>Your pay has increased by $0.02. Your bonus pay is now $1.28.</p>\n            ","response":0,"trial_type":"html-button-response","trial_index":134,"time_elapsed":1596904,"internal_node_id":"0.0-4.0-1.61","subject_id":"616f579cd112c371f862e1f6","study_id":"6197b3f67c2b5cd3b6d9596a","session_id":"6197b9f095023eb426347427","condition":"full-information","relevant_dimensions":["wings","legs"],"bee_group":{"antennae":"X","wings":"2","pattern":"X","legs":"F"},"bonus":1.8000000000000012},{"rt":1956,"stimulus":"bees-with-color/bee-A1SM.svg","response":0,"trial_type":"image-button-response","trial_index":135,"time_elapsed":1598863,"internal_node_id":"0.0-4.0-0.62","subject_id":"616f579cd112c371f862e1f6","study_id":"6197b3f67c2b5cd3b6d9596a","session_id":"6197b9f095023eb426347427","condition":"full-information","relevant_dimensions":["wings","legs"],"bee_group":{"antennae":"X","wings":"2","pattern":"X","legs":"F"},"action":"harvest","summary":"good-harvest","bonus":1.8000000000000012},{"rt":1808.9000000059605,"stimulus":"\n                    <p><b>Action: <em>harvest</em></b></p>\n                    <p>This is the bee that you just saw.</p>\n                    <img src=\"bees-with-color/bee-A1SM.svg\" width=\"200\">\n                    <p><span class=\"greenText\"><b>Successful harvest!</b></span><br>Your pay has increased by $0.02. Your bonus pay is now $1.30.</p>\n            ","response":0,"trial_type":"html-button-response","trial_index":136,"time_elapsed":1600674,"internal_node_id":"0.0-4.0-1.62","subject_id":"616f579cd112c371f862e1f6","study_id":"6197b3f67c2b5cd3b6d9596a","session_id":"6197b9f095023eb426347427","condition":"full-information","relevant_dimensions":["wings","legs"],"bee_group":{"antennae":"X","wings":"2","pattern":"X","legs":"F"},"bonus":1.8000000000000012},{"rt":5289.799999982119,"stimulus":"bees-with-color/bee-B1DF.svg","response":0,"trial_type":"image-button-response","trial_index":137,"time_elapsed":1605966,"internal_node_id":"0.0-4.0-0.63","subject_id":"616f579cd112c371f862e1f6","study_id":"6197b3f67c2b5cd3b6d9596a","session_id":"6197b9f095023eb426347427","condition":"full-information","relevant_dimensions":["wings","legs"],"bee_group":{"antennae":"X","wings":"2","pattern":"X","legs":"F"},"action":"harvest","summary":"good-harvest","bonus":1.8000000000000012},{"rt":2036.699999988079,"stimulus":"\n                    <p><b>Action: <em>harvest</em></b></p>\n                    <p>This is the bee that you just saw.</p>\n                    <img src=\"bees-with-color/bee-B1DF.svg\" width=\"200\">\n                    <p><span class=\"greenText\"><b>Successful harvest!</b></span><br>Your pay has increased by $0.02. Your bonus pay is now $1.32.</p>\n            ","response":0,"trial_type":"html-button-response","trial_index":138,"time_elapsed":1608005,"internal_node_id":"0.0-4.0-1.63","subject_id":"616f579cd112c371f862e1f6","study_id":"6197b3f67c2b5cd3b6d9596a","session_id":"6197b9f095023eb426347427","condition":"full-information","relevant_dimensions":["wings","legs"],"bee_group":{"antennae":"X","wings":"2","pattern":"X","legs":"F"},"bonus":1.8000000000000012},{"rt":5678.199999988079,"stimulus":"You have completed the first part of this experiment.<br><br>You will now begin a shorter second part, in which you will receive no feedback.<br>The same rules regarding bonus pay apply.<br><br>Press any key to begin.","response":" ","trial_type":"html-keyboard-response","trial_index":139,"time_elapsed":1613685,"internal_node_id":"0.0-5.0","subject_id":"616f579cd112c371f862e1f6","study_id":"6197b3f67c2b5cd3b6d9596a","session_id":"6197b9f095023eb426347427","condition":"full-information","relevant_dimensions":["wings","legs"],"bee_group":{"antennae":"X","wings":"2","pattern":"X","legs":"F"},"bonus":1.8000000000000012},{"rt":5700,"stimulus":"bees-with-color/bee-A1DM.svg","response":0,"trial_type":"image-button-response","trial_index":140,"time_elapsed":1619398,"internal_node_id":"0.0-6.0-0.0","subject_id":"616f579cd112c371f862e1f6","study_id":"6197b3f67c2b5cd3b6d9596a","session_id":"6197b9f095023eb426347427","condition":"full-information","relevant_dimensions":["wings","legs"],"bee_group":{"antennae":"X","wings":"2","pattern":"X","legs":"F"},"bonus":1.8000000000000012},{"rt":11132.5,"stimulus":"bees-with-color/bee-A2DM.svg","response":0,"trial_type":"image-button-response","trial_index":141,"time_elapsed":1630534,"internal_node_id":"0.0-6.0-0.1","subject_id":"616f579cd112c371f862e1f6","study_id":"6197b3f67c2b5cd3b6d9596a","session_id":"6197b9f095023eb426347427","condition":"full-information","relevant_dimensions":["wings","legs"],"bee_group":{"antennae":"X","wings":"2","pattern":"X","legs":"F"},"bonus":1.8000000000000012},{"rt":5746,"stimulus":"bees-with-color/bee-B2DM.svg","response":0,"trial_type":"image-button-response","trial_index":142,"time_elapsed":1636283,"internal_node_id":"0.0-6.0-0.2","subject_id":"616f579cd112c371f862e1f6","study_id":"6197b3f67c2b5cd3b6d9596a","session_id":"6197b9f095023eb426347427","condition":"full-information","relevant_dimensions":["wings","legs"],"bee_group":{"antennae":"X","wings":"2","pattern":"X","legs":"F"},"bonus":1.8000000000000012},{"rt":3294.2999999821186,"stimulus":"bees-with-color/bee-B1DF.svg","response":0,"trial_type":"image-button-response","trial_index":143,"time_elapsed":1639580,"internal_node_id":"0.0-6.0-0.3","subject_id":"616f579cd112c371f862e1f6","study_id":"6197b3f67c2b5cd3b6d9596a","session_id":"6197b9f095023eb426347427","condition":"full-information","relevant_dimensions":["wings","legs"],"bee_group":{"antennae":"X","wings":"2","pattern":"X","legs":"F"},"bonus":1.8000000000000012},{"rt":2837.699999988079,"stimulus":"bees-with-color/bee-B2SF.svg","response":1,"trial_type":"image-button-response","trial_index":144,"time_elapsed":1642421,"internal_node_id":"0.0-6.0-0.4","subject_id":"616f579cd112c371f862e1f6","study_id":"6197b3f67c2b5cd3b6d9596a","session_id":"6197b9f095023eb426347427","condition":"full-information","relevant_dimensions":["wings","legs"],"bee_group":{"antennae":"X","wings":"2","pattern":"X","legs":"F"},"bonus":1.8000000000000012},{"rt":3250.5999999940395,"stimulus":"bees-with-color/bee-B1SM.svg","response":0,"trial_type":"image-button-response","trial_index":145,"time_elapsed":1645673,"internal_node_id":"0.0-6.0-0.5","subject_id":"616f579cd112c371f862e1f6","study_id":"6197b3f67c2b5cd3b6d9596a","session_id":"6197b9f095023eb426347427","condition":"full-information","relevant_dimensions":["wings","legs"],"bee_group":{"antennae":"X","wings":"2","pattern":"X","legs":"F"},"bonus":1.8000000000000012},{"rt":5862,"stimulus":"bees-with-color/bee-A2SM.svg","response":0,"trial_type":"image-button-response","trial_index":146,"time_elapsed":1651539,"internal_node_id":"0.0-6.0-0.6","subject_id":"616f579cd112c371f862e1f6","study_id":"6197b3f67c2b5cd3b6d9596a","session_id":"6197b9f095023eb426347427","condition":"full-information","relevant_dimensions":["wings","legs"],"bee_group":{"antennae":"X","wings":"2","pattern":"X","legs":"F"},"bonus":1.8000000000000012},{"rt":7039.5999999940395,"stimulus":"bees-with-color/bee-A2DF.svg","response":1,"trial_type":"image-button-response","trial_index":147,"time_elapsed":1658582,"internal_node_id":"0.0-6.0-0.7","subject_id":"616f579cd112c371f862e1f6","study_id":"6197b3f67c2b5cd3b6d9596a","session_id":"6197b9f095023eb426347427","condition":"full-information","relevant_dimensions":["wings","legs"],"bee_group":{"antennae":"X","wings":"2","pattern":"X","legs":"F"},"bonus":1.8000000000000012},{"rt":3677.199999988079,"stimulus":"bees-with-color/bee-A1SF.svg","response":0,"trial_type":"image-button-response","trial_index":148,"time_elapsed":1662262,"internal_node_id":"0.0-6.0-0.8","subject_id":"616f579cd112c371f862e1f6","study_id":"6197b3f67c2b5cd3b6d9596a","session_id":"6197b9f095023eb426347427","condition":"full-information","relevant_dimensions":["wings","legs"],"bee_group":{"antennae":"X","wings":"2","pattern":"X","legs":"F"},"bonus":1.8000000000000012},{"rt":7694.5999999940395,"stimulus":"bees-with-color/bee-B1DM.svg","response":0,"trial_type":"image-button-response","trial_index":149,"time_elapsed":1669959,"internal_node_id":"0.0-6.0-0.9","subject_id":"616f579cd112c371f862e1f6","study_id":"6197b3f67c2b5cd3b6d9596a","session_id":"6197b9f095023eb426347427","condition":"full-information","relevant_dimensions":["wings","legs"],"bee_group":{"antennae":"X","wings":"2","pattern":"X","legs":"F"},"bonus":1.8000000000000012},{"rt":4463.699999988079,"stimulus":"bees-with-color/bee-A1DF.svg","response":0,"trial_type":"image-button-response","trial_index":150,"time_elapsed":1674426,"internal_node_id":"0.0-6.0-0.10","subject_id":"616f579cd112c371f862e1f6","study_id":"6197b3f67c2b5cd3b6d9596a","session_id":"6197b9f095023eb426347427","condition":"full-information","relevant_dimensions":["wings","legs"],"bee_group":{"antennae":"X","wings":"2","pattern":"X","legs":"F"},"bonus":1.8000000000000012},{"rt":3456.7999999821186,"stimulus":"bees-with-color/bee-A2SF.svg","response":1,"trial_type":"image-button-response","trial_index":151,"time_elapsed":1677886,"internal_node_id":"0.0-6.0-0.11","subject_id":"616f579cd112c371f862e1f6","study_id":"6197b3f67c2b5cd3b6d9596a","session_id":"6197b9f095023eb426347427","condition":"full-information","relevant_dimensions":["wings","legs"],"bee_group":{"antennae":"X","wings":"2","pattern":"X","legs":"F"},"bonus":1.8000000000000012},{"rt":4302.5999999940395,"stimulus":"bees-with-color/bee-B2SM.svg","response":0,"trial_type":"image-button-response","trial_index":152,"time_elapsed":1682191,"internal_node_id":"0.0-6.0-0.12","subject_id":"616f579cd112c371f862e1f6","study_id":"6197b3f67c2b5cd3b6d9596a","session_id":"6197b9f095023eb426347427","condition":"full-information","relevant_dimensions":["wings","legs"],"bee_group":{"antennae":"X","wings":"2","pattern":"X","legs":"F"},"bonus":1.8000000000000012},{"rt":8768.600000023842,"stimulus":"bees-with-color/bee-B2DF.svg","response":1,"trial_type":"image-button-response","trial_index":153,"time_elapsed":1690962,"internal_node_id":"0.0-6.0-0.13","subject_id":"616f579cd112c371f862e1f6","study_id":"6197b3f67c2b5cd3b6d9596a","session_id":"6197b9f095023eb426347427","condition":"full-information","relevant_dimensions":["wings","legs"],"bee_group":{"antennae":"X","wings":"2","pattern":"X","legs":"F"},"bonus":1.8000000000000012},{"rt":6869.300000011921,"stimulus":"bees-with-color/bee-A1SM.svg","response":0,"trial_type":"image-button-response","trial_index":154,"time_elapsed":1697835,"internal_node_id":"0.0-6.0-0.14","subject_id":"616f579cd112c371f862e1f6","study_id":"6197b3f67c2b5cd3b6d9596a","session_id":"6197b9f095023eb426347427","condition":"full-information","relevant_dimensions":["wings","legs"],"bee_group":{"antennae":"X","wings":"2","pattern":"X","legs":"F"},"bonus":1.8000000000000012},{"rt":2189.800000011921,"stimulus":"bees-with-color/bee-B1SF.svg","response":0,"trial_type":"image-button-response","trial_index":155,"time_elapsed":1700027,"internal_node_id":"0.0-6.0-0.15","subject_id":"616f579cd112c371f862e1f6","study_id":"6197b3f67c2b5cd3b6d9596a","session_id":"6197b9f095023eb426347427","condition":"full-information","relevant_dimensions":["wings","legs"],"bee_group":{"antennae":"X","wings":"2","pattern":"X","legs":"F"},"bonus":1.8000000000000012},{"rt":6296.5,"stimulus":"bees-with-color/bee-B2DM.svg