[{"success":true,"trial_type":"fullscreen","trial_index":0,"time_elapsed":4175,"internal_node_id":"0.0-0.0","subject_id":"606f6be3361bd05af7ab3952","study_id":"6197b3f67c2b5cd3b6d9596a","session_id":"619be58feaa98c7ccc19f21f","condition":"contingent","relevant_dimensions":["wings","legs"],"bee_group":{"antennae":"X","wings":"1","pattern":"X","legs":"F"},"bonus":0.780000000000001},{"success":true,"timeout":false,"failed_images":[],"failed_audio":[],"failed_video":[],"trial_type":"preload","trial_index":1,"time_elapsed":4267,"internal_node_id":"0.0-1.0","subject_id":"606f6be3361bd05af7ab3952","study_id":"6197b3f67c2b5cd3b6d9596a","session_id":"619be58feaa98c7ccc19f21f","condition":"contingent","relevant_dimensions":["wings","legs"],"bee_group":{"antennae":"X","wings":"1","pattern":"X","legs":"F"},"bonus":0.780000000000001},{"rt":2290.800000000745,"stimulus":"Welcome! Press any key to begin.","response":"a","trial_type":"html-keyboard-response","trial_index":2,"time_elapsed":6560,"internal_node_id":"0.0-2.0","subject_id":"606f6be3361bd05af7ab3952","study_id":"6197b3f67c2b5cd3b6d9596a","session_id":"619be58feaa98c7ccc19f21f","condition":"contingent","relevant_dimensions":["wings","legs"],"bee_group":{"antennae":"X","wings":"1","pattern":"X","legs":"F"},"bonus":0.780000000000001},{"view_history":[{"page_index":0,"viewing_time":555.3999999985099},{"page_index":1,"viewing_time":1127.6000000014901},{"page_index":2,"viewing_time":1144.300000000745},{"page_index":3,"viewing_time":4128},{"page_index":4,"viewing_time":4080},{"page_index":5,"viewing_time":647.8000000007451},{"page_index":6,"viewing_time":616},{"page_index":7,"viewing_time":1112},{"page_index":8,"viewing_time":640.0999999977648},{"page_index":9,"viewing_time":1552.1000000014901},{"page_index":10,"viewing_time":448},{"page_index":11,"viewing_time":4759.89999999851},{"page_index":12,"viewing_time":856.5},{"page_index":13,"viewing_time":639.6999999992549},{"page_index":14,"viewing_time":407.70000000298023}],"rt":22715.39999999851,"trial_type":"instructions","trial_index":3,"time_elapsed":29276,"internal_node_id":"0.0-3.0-0.0","subject_id":"606f6be3361bd05af7ab3952","study_id":"6197b3f67c2b5cd3b6d9596a","session_id":"619be58feaa98c7ccc19f21f","condition":"contingent","relevant_dimensions":["wings","legs"],"bee_group":{"antennae":"X","wings":"1","pattern":"X","legs":"F"},"bonus":0.780000000000001},{"rt":4060.89999999851,"response":{"Q0":["Two or six legs","Stripes or spots on body","Single or double wings","Antennae or no antennae"]},"question_order":[0],"trial_type":"survey-multi-select","trial_index":4,"time_elapsed":33342,"internal_node_id":"0.0-3.0-1.0","subject_id":"606f6be3361bd05af7ab3952","study_id":"6197b3f67c2b5cd3b6d9596a","session_id":"619be58feaa98c7ccc19f21f","condition":"contingent","relevant_dimensions":["wings","legs"],"bee_group":{"antennae":"X","wings":"1","pattern":"X","legs":"F"},"correct":true,"bonus":0.780000000000001},{"rt":4628.800000000745,"response":{"Q1":"No.","Q2":"Based on the four features of the bee.","Q3":"You do not learn if it was friendly or dangerous, and do not alter your bonus."},"question_order":[0,1,2],"trial_type":"survey-multi-choice","trial_index":5,"time_elapsed":37973,"internal_node_id":"0.0-3.0-2.0","subject_id":"606f6be3361bd05af7ab3952","study_id":"6197b3f67c2b5cd3b6d9596a","session_id":"619be58feaa98c7ccc19f21f","condition":"contingent","relevant_dimensions":["wings","legs"],"bee_group":{"antennae":"X","wings":"1","pattern":"X","legs":"F"},"correct":true,"bonus":0.780000000000001},{"rt":2406.300000000745,"stimulus":"<p>Congrats, you got everything right<br>When you're ready, click the button below to continue to the experiment.</p>","response":0,"trial_type":"html-button-response","trial_index":6,"time_elapsed":40381,"internal_node_id":"0.0-3.0-3.0","subject_id":"606f6be3361bd05af7ab3952","study_id":"6197b3f67c2b5cd3b6d9596a","session_id":"619be58feaa98c7ccc19f21f","condition":"contingent","relevant_dimensions":["wings","legs"],"bee_group":{"antennae":"X","wings":"1","pattern":"X","legs":"F"},"bonus":0.780000000000001},{"rt":5694,"stimulus":"bees-with-color/bee-B2DM.svg","response":0,"trial_type":"image-button-response","trial_index":7,"time_elapsed":46077,"internal_node_id":"0.0-4.0-0.0","subject_id":"606f6be3361bd05af7ab3952","study_id":"6197b3f67c2b5cd3b6d9596a","session_id":"619be58feaa98c7ccc19f21f","condition":"contingent","relevant_dimensions":["wings","legs"],"bee_group":{"antennae":"X","wings":"1","pattern":"X","legs":"F"},"action":"harvest","summary":"good-harvest","bonus":0.780000000000001},{"rt":3748.5,"stimulus":"\n                    <p><b>Action: <em>harvest</em></b></p>\n                    <p>This is the bee that you just saw.</p>\n                    <img src=\"bees-with-color/bee-B2DM.svg\" width=\"200\">\n                    <p><span class=\"greenText\"><b>Successful harvest!</b></span><br>Your pay has increased by $0.02. Your bonus pay is now $0.56.</p>\n            ","response":0,"trial_type":"html-button-response","trial_index":8,"time_elapsed":49829,"internal_node_id":"0.0-4.0-1.0","subject_id":"606f6be3361bd05af7ab3952","study_id":"6197b3f67c2b5cd3b6d9596a","session_id":"619be58feaa98c7ccc19f21f","condition":"contingent","relevant_dimensions":["wings","legs"],"bee_group":{"antennae":"X","wings":"1","pattern":"X","legs":"F"},"bonus":0.780000000000001},{"rt":4237.800000000745,"stimulus":"bees-with-color/bee-B1SM.svg","response":1,"trial_type":"image-button-response","trial_index":9,"time_elapsed":54069,"internal_node_id":"0.0-4.0-0.1","subject_id":"606f6be3361bd05af7ab3952","study_id":"6197b3f67c2b5cd3b6d9596a","session_id":"619be58feaa98c7ccc19f21f","condition":"contingent","relevant_dimensions":["wings","legs"],"bee_group":{"antennae":"X","wings":"1","pattern":"X","legs":"F"},"action":"avoid","summary":"bad-avoid","bonus":0.780000000000001},{"rt":2685.800000000745,"stimulus":"\n                    <p><b>Action: <em>avoid</em></b></p>\n                    <p>This is the bee that you just saw.</p>\n                    <img src=\"bees-with-color/bee-B1SM.svg\" width=\"200\">\n                    <p><br>Your bonus pay is unchanged, and remains at $0.56.</p>\n            ","response":0,"trial_type":"html-button-response","trial_index":10,"time_elapsed":56757,"internal_node_id":"0.0-4.0-1.1","subject_id":"606f6be3361bd05af7ab3952","study_id":"6197b3f67c2b5cd3b6d9596a","session_id":"619be58feaa98c7ccc19f21f","condition":"contingent","relevant_dimensions":["wings","legs"],"bee_group":{"antennae":"X","wings":"1","pattern":"X","legs":"F"},"bonus":0.780000000000001},{"rt":4502.099999997765,"stimulus":"bees-with-color/bee-B2SM.svg","response":1,"trial_type":"image-button-response","trial_index":11,"time_elapsed":61261,"internal_node_id":"0.0-4.0-0.2","subject_id":"606f6be3361bd05af7ab3952","study_id":"6197b3f67c2b5cd3b6d9596a","session_id":"619be58feaa98c7ccc19f21f","condition":"contingent","relevant_dimensions":["wings","legs"],"bee_group":{"antennae":"X","wings":"1","pattern":"X","legs":"F"},"action":"avoid","summary":"bad-avoid","bonus":0.780000000000001},{"rt":1238.8999999985099,"stimulus":"\n                    <p><b>Action: <em>avoid</em></b></p>\n                    <p>This is the bee that you just saw.</p>\n                    <img src=\"bees-with-color/bee-B2SM.svg\" width=\"200\">\n                    <p><br>Your bonus pay is unchanged, and remains at $0.56.</p>\n            ","response":0,"trial_type":"html-button-response","trial_index":12,"time_elapsed":62501,"internal_node_id":"0.0-4.0-1.2","subject_id":"606f6be3361bd05af7ab3952","study_id":"6197b3f67c2b5cd3b6d9596a","session_id":"619be58feaa98c7ccc19f21f","condition":"contingent","relevant_dimensions":["wings","legs"],"bee_group":{"antennae":"X","wings":"1","pattern":"X","legs":"F"},"bonus":0.780000000000001},{"rt":1477.5,"stimulus":"bees-with-color/bee-B2DF.svg","response":0,"trial_type":"image-button-response","trial_index":13,"time_elapsed":63981,"internal_node_id":"0.0-4.0-0.3","subject_id":"606f6be3361bd05af7ab3952","study_id":"6197b3f67c2b5cd3b6d9596a","session_id":"619be58feaa98c7ccc19f21f","condition":"contingent","relevant_dimensions":["wings","legs"],"bee_group":{"antennae":"X","wings":"1","pattern":"X","legs":"F"},"action":"harvest","summary":"good-harvest","bonus":0.780000000000001},{"rt":853.6999999992549,"stimulus":"\n                    <p><b>Action: <em>harvest</em></b></p>\n                    <p>This is the bee that you just saw.</p>\n                    <img src=\"bees-with-color/bee-B2DF.svg\" width=\"200\">\n                    <p><span class=\"greenText\"><b>Successful harvest!</b></span><br>Your pay has increased by $0.02. Your bonus pay is now $0.58.</p>\n            ","response":0,"trial_type":"html-button-response","trial_index":14,"time_elapsed":64837,"internal_node_id":"0.0-4.0-1.3","subject_id":"606f6be3361bd05af7ab3952","study_id":"6197b3f67c2b5cd3b6d9596a","session_id":"619be58feaa98c7ccc19f21f","condition":"contingent","relevant_dimensions":["wings","legs"],"bee_group":{"antennae":"X","wings":"1","pattern":"X","legs":"F"},"bonus":0.780000000000001},{"rt":2790,"stimulus":"bees-with-color/bee-A1DF.svg","response":0,"trial_type":"image-button-response","trial_index":15,"time_elapsed":67629,"internal_node_id":"0.0-4.0-0.4","subject_id":"606f6be3361bd05af7ab3952","study_id":"6197b3f67c2b5cd3b6d9596a","session_id":"619be58feaa98c7ccc19f21f","condition":"contingent","relevant_dimensions":["wings","legs"],"bee_group":{"antennae":"X","wings":"1","pattern":"X","legs":"F"},"action":"harvest","summary":"bad-harvest","bonus":0.780000000000001},{"rt":4285.900000002235,"stimulus":"\n                    <p><b>Action: <em>harvest</em></b></p>\n                    <p>This is the bee that you just saw.</p>\n                    <img src=\"bees-with-color/bee-A1DF.svg\" width=\"200\">\n                    <p><span class=\"redText\">Bad choice, the bee was angry.</span><br><b>You have been stung!</b><br>Your pay has been decreased by $0.10. Your bonus pay is now $0.48.</p>\n            ","response":0,"trial_type":"html-button-response","trial_index":16,"time_elapsed":71917,"internal_node_id":"0.0-4.0-1.4","subject_id":"606f6be3361bd05af7ab3952","study_id":"6197b3f67c2b5cd3b6d9596a","session_id":"619be58feaa98c7ccc19f21f","condition":"contingent","relevant_dimensions":["wings","legs"],"bee_group":{"antennae":"X","wings":"1","pattern":"X","legs":"F"},"bonus":0.780000000000001},{"rt":1509.6000000014901,"stimulus":"bees-with-color/bee-A1DM.svg","response":0,"trial_type":"image-button-response","trial_index":17,"time_elapsed":73429,"internal_node_id":"0.0-4.0-0.5","subject_id":"606f6be3361bd05af7ab3952","study_id":"6197b3f67c2b5cd3b6d9596a","session_id":"619be58feaa98c7ccc19f21f","condition":"contingent","relevant_dimensions":["wings","legs"],"bee_group":{"antennae":"X","wings":"1","pattern":"X","legs":"F"},"action":"harvest","summary":"good-harvest","bonus":0.780000000000001},{"rt":1438.199999999255,"stimulus":"\n                    <p><b>Action: <em>harvest</em></b></p>\n                    <p>This is the bee that you just saw.</p>\n                    <img src=\"bees-with-color/bee-A1DM.svg\" width=\"200\">\n                    <p><span class=\"greenText\"><b>Successful harvest!</b></span><br>Your pay has increased by $0.02. Your bonus pay is now $0.50.</p>\n            ","response":0,"trial_type":"html-button-response","trial_index":18,"time_elapsed":74869,"internal_node_id":"0.0-4.0-1.5","subject_id":"606f6be3361bd05af7ab3952","study_id":"6197b3f67c2b5cd3b6d9596a","session_id":"619be58feaa98c7ccc19f21f","condition":"contingent","relevant_dimensions":["wings","legs"],"bee_group":{"antennae":"X","wings":"1","pattern":"X","legs":"F"},"bonus":0.780000000000001},{"rt":2165,"stimulus":"bees-with-color/bee-B2SF.svg","response":0,"trial_type":"image-button-response","trial_index":19,"time_elapsed":77037,"internal_node_id":"0.0-4.0-0.6","subject_id":"606f6be3361bd05af7ab3952","study_id":"6197b3f67c2b5cd3b6d9596a","session_id":"619be58feaa98c7ccc19f21f","condition":"contingent","relevant_dimensions":["wings","legs"],"bee_group":{"antennae":"X","wings":"1","pattern":"X","legs":"F"},"action":"harvest","summary":"good-harvest","bonus":0.780000000000001},{"rt":718.3000000007451,"stimulus":"\n                    <p><b>Action: <em>harvest</em></b></p>\n                    <p>This is the bee that you just saw.</p>\n                    <img src=\"bees-with-color/bee-B2SF.svg\" width=\"200\">\n                    <p><span class=\"greenText\"><b>Successful harvest!</b></span><br>Your pay has increased by $0.02. Your bonus pay is now $0.52.</p>\n            ","response":0,"trial_type":"html-button-response","trial_index":20,"time_elapsed":77756,"internal_node_id":"0.0-4.0-1.6","subject_id":"606f6be3361bd05af7ab3952","study_id":"6197b3f67c2b5cd3b6d9596a","session_id":"619be58feaa98c7ccc19f21f","condition":"contingent","relevant_dimensions":["wings","legs"],"bee_group":{"antennae":"X","wings":"1","pattern":"X","legs":"F"},"bonus":0.780000000000001},{"rt":1591.0999999977648,"stimulus":"bees-with-color/bee-B1DF.svg","response":0,"trial_type":"image-button-response","trial_index":21,"time_elapsed":79349,"internal_node_id":"0.0-4.0-0.7","subject_id":"606f6be3361bd05af7ab3952","study_id":"6197b3f67c2b5cd3b6d9596a","session_id":"619be58feaa98c7ccc19f21f","condition":"contingent","relevant_dimensions":["wings","legs"],"bee_group":{"antennae":"X","wings":"1","pattern":"X","legs":"F"},"action":"harvest","summary":"bad-harvest","bonus":0.780000000000001},{"rt":1253.800000000745,"stimulus":"\n                    <p><b>Action: <em>harvest</em></b></p>\n                    <p>This is the bee that you just saw.</p>\n                    <img src=\"bees-with-color/bee-B1DF.svg\" width=\"200\">\n                    <p><span class=\"redText\">Bad choice, the bee was angry.</span><br><b>You have been stung!</b><br>Your pay has been decreased by $0.10. Your bonus pay is now $0.42.</p>\n            ","response":0,"trial_type":"html-button-response","trial_index":22,"time_elapsed":80605,"internal_node_id":"0.0-4.0-1.7","subject_id":"606f6be3361bd05af7ab3952","study_id":"6197b3f67c2b5cd3b6d9596a","session_id":"619be58feaa98c7ccc19f21f","condition":"contingent","relevant_dimensions":["wings","legs"],"bee_group":{"antennae":"X","wings":"1","pattern":"X","legs":"F"},"bonus":0.780000000000001},{"rt":1382.4000000022352,"stimulus":"bees-with-color/bee-A1SM.svg","response":1,"trial_type":"image-button-response","trial_index":23,"time_elapsed":81989,"internal_node_id":"0.0-4.0-0.8","subject_id":"606f6be3361bd05af7ab3952","study_id":"6197b3f67c2b5cd3b6d9596a","session_id":"619be58feaa98c7ccc19f21f","condition":"contingent","relevant_dimensions":["wings","legs"],"bee_group":{"antennae":"X","wings":"1","pattern":"X","legs":"F"},"action":"avoid","summary":"bad-avoid","bonus":0.780000000000001},{"rt":894.4000000022352,"stimulus":"\n                    <p><b>Action: <em>avoid</em></b></p>\n                    <p>This is the bee that you just saw.</p>\n                    <img src=\"bees-with-color/bee-A1SM.svg\" width=\"200\">\n                    <p><br>Your bonus pay is unchanged, and remains at $0.42.</p>\n            ","response":0,"trial_type":"html-button-response","trial_index":24,"time_elapsed":82884,"internal_node_id":"0.0-4.0-1.8","subject_id":"606f6be3361bd05af7ab3952","study_id":"6197b3f67c2b5cd3b6d9596a","session_id":"619be58feaa98c7ccc19f21f","condition":"contingent","relevant_dimensions":["wings","legs"],"bee_group":{"antennae":"X","wings":"1","pattern":"X","legs":"F"},"bonus":0.780000000000001},{"rt":1006.6999999992549,"stimulus":"bees-with-color/bee-A2DF.svg","response":0,"trial_type":"image-button-response","trial_index":25,"time_elapsed":83892,"internal_node_id":"0.0-4.0-0.9","subject_id":"606f6be3361bd05af7ab3952","study_id":"6197b3f67c2b5cd3b6d9596a","session_id":"619be58feaa98c7ccc19f21f","condition":"contingent","relevant_dimensions":["wings","legs"],"bee_group":{"antennae":"X","wings":"1","pattern":"X","legs":"F"},"action":"harvest","summary":"good-harvest","bonus":0.780000000000001},{"rt":775.5999999977648,"stimulus":"\n                    <p><b>Action: <em>harvest</em></b></p>\n                    <p>This is the bee that you just saw.</p>\n                    <img src=\"bees-with-color/bee-A2DF.svg\" width=\"200\">\n                    <p><span class=\"greenText\"><b>Successful harvest!</b></span><br>Your pay has increased by $0.02. Your bonus pay is now $0.44.</p>\n            ","response":0,"trial_type":"html-button-response","trial_index":26,"time_elapsed":84670,"internal_node_id":"0.0-4.0-1.9","subject_id":"606f6be3361bd05af7ab3952","study_id":"6197b3f67c2b5cd3b6d9596a","session_id":"619be58feaa98c7ccc19f21f","condition":"contingent","relevant_dimensions":["wings","legs"],"bee_group":{"antennae":"X","wings":"1","pattern":"X","legs":"F"},"bonus":0.780000000000001},{"rt":2703,"stimulus":"bees-with-color/bee-A2SM.svg","response":0,"trial_type":"image-button-response","trial_index":27,"time_elapsed":87374,"internal_node_id":"0.0-4.0-0.10","subject_id":"606f6be3361bd05af7ab3952","study_id":"6197b3f67c2b5cd3b6d9596a","session_id":"619be58feaa98c7ccc19f21f","condition":"contingent","relevant_dimensions":["wings","legs"],"bee_group":{"antennae":"X","wings":"1","pattern":"X","legs":"F"},"action":"harvest","summary":"good-harvest","bonus":0.780000000000001},{"rt":629.1999999992549,"stimulus":"\n                    <p><b>Action: <em>harvest</em></b></p>\n                    <p>This is the bee that you just saw.</p>\n                    <img src=\"bees-with-color/bee-A2SM.svg\" width=\"200\">\n                    <p><span class=\"greenText\"><b>Successful harvest!</b></span><br>Your pay has increased by $0.02. Your bonus pay is now $0.46.</p>\n            ","response":0,"trial_type":"html-button-response","trial_index":28,"time_elapsed":88005,"internal_node_id":"0.0-4.0-1.10","subject_id":"606f6be3361bd05af7ab3952","study_id":"6197b3f67c2b5cd3b6d9596a","session_id":"619be58feaa98c7ccc19f21f","condition":"contingent","relevant_dimensions":["wings","legs"],"bee_group":{"antennae":"X","wings":"1","pattern":"X","legs":"F"},"bonus":0.780000000000001},{"rt":1310.5999999977648,"stimulus":"bees-with-color/bee-B1DM.svg","response":0,"trial_type":"image-button-response","trial_index":29,"time_elapsed":89317,"internal_node_id":"0.0-4.0-0.11","subject_id":"606f6be3361bd05af7ab3952","study_id":"6197b3f67c2b5cd3b6d9596a","session_id":"619be58feaa98c7ccc19f21f","condition":"contingent","relevant_dimensions":["wings","legs"],"bee_group":{"antennae":"X","wings":"1","pattern":"X","legs":"F"},"action":"harvest","summary":"good-harvest","bonus":0.780000000000001},{"rt":582.1000000014901,"stimulus":"\n                    <p><b>Action: <em>harvest</em></b></p>\n                    <p>This is the bee that you just saw.</p>\n                    <img src=\"bees-with-color/bee-B1DM.svg\" width=\"200\">\n                    <p><span class=\"greenText\"><b>Successful harvest!</b></span><br>Your pay has increased by $0.02. Your bonus pay is now $0.48.</p>\n            ","response":0,"trial_type":"html-button-response","trial_index":30,"time_elapsed":89900,"internal_node_id":"0.0-4.0-1.11","subject_id":"606f6be3361bd05af7ab3952","study_id":"6197b3f67c2b5cd3b6d9596a","session_id":"619be58feaa98c7ccc19f21f","condition":"contingent","relevant_dimensions":["wings","legs"],"bee_group":{"antennae":"X","wings":"1","pattern":"X","legs":"F"},"bonus":0.780000000000001},{"rt":934.7000000029802,"stimulus":"bees-with-color/bee-B1SF.svg","response":1,"trial_type":"image-button-response","trial_index":31,"time_elapsed":90836,"internal_node_id":"0.0-4.0-0.12","subject_id":"606f6be3361bd05af7ab3952","study_id":"6197b3f67c2b5cd3b6d9596a","session_id":"619be58feaa98c7ccc19f21f","condition":"contingent","relevant_dimensions":["wings","legs"],"bee_group":{"antennae":"X","wings":"1","pattern":"X","legs":"F"},"action":"avoid","summary":"good-avoid","bonus":0.780000000000001},{"rt":535.1999999992549,"stimulus":"\n                    <p><b>Action: <em>avoid</em></b></p>\n                    <p>This is the bee that you just saw.</p>\n                    <img src=\"bees-with-color/bee-B1SF.svg\" width=\"200\">\n                    <p><br>Your bonus pay is unchanged, and remains at $0.48.</p>\n            ","response":0,"trial_type":"html-button-response","trial_index":32,"time_elapsed":91373,"internal_node_id":"0.0-4.0-1.12","subject_id":"606f6be3361bd05af7ab3952","study_id":"6197b3f67c2b5cd3b6d9596a","session_id":"619be58feaa98c7ccc19f21f","condition":"contingent","relevant_dimensions":["wings","legs"],"bee_group":{"antennae":"X","wings":"1","pattern":"X","legs":"F"},"bonus":0.780000000000001},{"rt":2142.10000000149,"stimulus":"bees-with-color/bee-A1SF.svg","response":0,"trial_type":"image-button-response","trial_index":33,"time_elapsed":93516,"internal_node_id":"0.0-4.0-0.13","subject_id":"606f6be3361bd05af7ab3952","study_id":"6197b3f67c2b5cd3b6d9596a","session_id":"619be58feaa98c7ccc19f21f","condition":"contingent","relevant_dimensions":["wings","legs"],"bee_group":{"antennae":"X","wings":"1","pattern":"X","legs":"F"},"action":"harvest","summary":"bad-harvest","bonus":0.780000000000001},{"rt":614,"stimulus":"\n                    <p><b>Action: <em>harvest</em></b></p>\n                    <p>This is the bee that you just saw.</p>\n                    <img src=\"bees-with-color/bee-A1SF.svg\" width=\"200\">\n                    <p><span class=\"redText\">Bad choice, the bee was angry.</span><br><b>You have been stung!</b><br>Your pay has been decreased by $0.10. Your bonus pay is now $0.38.</p>\n            ","response":0,"trial_type":"html-button-response","trial_index":34,"time_elapsed":94133,"internal_node_id":"0.0-4.0-1.13","subject_id":"606f6be3361bd05af7ab3952","study_id":"6197b3f67c2b5cd3b6d9596a","session_id":"619be58feaa98c7ccc19f21f","condition":"contingent","relevant_dimensions":["wings","legs"],"bee_group":{"antennae":"X","wings":"1","pattern":"X","legs":"F"},"bonus":0.780000000000001},{"rt":1518.3999999985099,"stimulus":"bees-with-color/bee-A2DM.svg","response":0,"trial_type":"image-button-response","trial_index":35,"time_elapsed":95652,"internal_node_id":"0.0-4.0-0.14","subject_id":"606f6be3361bd05af7ab3952","study_id":"6197b3f67c2b5cd3b6d9596a","session_id":"619be58feaa98c7ccc19f21f","condition":"contingent","relevant_dimensions":["wings","legs"],"bee_group":{"antennae":"X","wings":"1","pattern":"X","legs":"F"},"action":"harvest","summary":"good-harvest","bonus":0.780000000000001},{"rt":687.3000000007451,"stimulus":"\n                    <p><b>Action: <em>harvest</em></b></p>\n                    <p>This is the bee that you just saw.</p>\n                    <img src=\"bees-with-color/bee-A2DM.svg\" width=\"200\">\n                    <p><span class=\"greenText\"><b>Successful harvest!</b></span><br>Your pay has increased by $0.02. Your bonus pay is now $0.40.</p>\n            ","response":0,"trial_type":"html-button-response","trial_index":36,"time_elapsed":96341,"internal_node_id":"0.0-4.0-1.14","subject_id":"606f6be3361bd05af7ab3952","study_id":"6197b3f67c2b5cd3b6d9596a","session_id":"619be58feaa98c7ccc19f21f","condition":"contingent","relevant_dimensions":["wings","legs"],"bee_group":{"antennae":"X","wings":"1","pattern":"X","legs":"F"},"bonus":0.780000000000001},{"rt":2222,"stimulus":"bees-with-color/bee-A2SF.svg","response":0,"trial_type":"image-button-response","trial_index":37,"time_elapsed":98565,"internal_node_id":"0.0-4.0-0.15","subject_id":"606f6be3361bd05af7ab3952","study_id":"6197b3f67c2b5cd3b6d9596a","session_id":"619be58feaa98c7ccc19f21f","condition":"contingent","relevant_dimensions":["wings","legs"],"bee_group":{"antennae":"X","wings":"1","pattern":"X","legs":"F"},"action":"harvest","summary":"good-harvest","bonus":0.780000000000001},{"rt":630.3999999985099,"stimulus":"\n                    <p><b>Action: <em>harvest</em></b></p>\n                    <p>This is the bee that you just saw.</p>\n                    <img src=\"bees-with-color/bee-A2SF.svg\" width=\"200\">\n                    <p><span class=\"greenText\"><b>Successful harvest!</b></span><br>Your pay has increased by $0.02. Your bonus pay is now $0.42.</p>\n            ","response":0,"trial_type":"html-button-response","trial_index":38,"time_elapsed":99197,"internal_node_id":"0.0-4.0-1.15","subject_id":"606f6be3361bd05af7ab3952","study_id":"6197b3f67c2b5cd3b6d9596a","session_id":"619be58feaa98c7ccc19f21f","condition":"contingent","relevant_dimensions":["wings","legs"],"bee_group":{"antennae":"X","wings":"1","pattern":"X","legs":"F"},"bonus":0.780000000000001},{"rt":1246.300000000745,"stimulus":"bees-with-color/bee-B2DM.svg","response":0,"trial_type":"image-button-response","trial_index":39,"time_elapsed":100445,"internal_node_id":"0.0-4.0-0.16","subject_id":"606f6be3361bd05af7ab3952","study_id":"6197b3f67c2b5cd3b6d9596a","session_id":"619be58feaa98c7ccc19f21f","condition":"contingent","relevant_dimensions":["wings","legs"],"bee_group":{"antennae":"X","wings":"1","pattern":"X","legs":"F"},"action":"harvest","summary":"good-harvest","bonus":0.780000000000001},{"rt":638.1999999992549,"stimulus":"\n                    <p><b>Action: <em>harvest</em></b></p>\n                    <p>This is the bee that you just saw.</p>\n                    <img src=\"bees-with-color/bee-B2DM.svg\" width=\"200\">\n                    <p><span class=\"greenText\"><b>Successful harvest!</b></span><br>Your pay has increased by $0.02. Your bonus pay is now $0.44.</p>\n            ","response":0,"trial_type":"html-button-response","trial_index":40,"time_elapsed":101084,"internal_node_id":"0.0-4.0-1.16","subject_id":"606f6be3361bd05af7ab3952","study_id":"6197b3f67c2b5cd3b6d9596a","session_id":"619be58feaa98c7ccc19f21f","condition":"contingent","relevant_dimensions":["wings","legs"],"bee_group":{"antennae":"X","wings":"1","pattern":"X","legs":"F"},"bonus":0.780000000000001},{"rt":1206.699999999255,"stimulus":"bees-with-color/bee-B2SF.svg","response":0,"trial_type":"image-button-response","trial_index":41,"time_elapsed":102293,"internal_node_id":"0.0-4.0-0.17","subject_id":"606f6be3361bd05af7ab3952","study_id":"6197b3f67c2b5cd3b6d9596a","session_id":"619be58feaa98c7ccc19f21f","condition":"contingent","relevant_dimensions":["wings","legs"],"bee_group":{"antennae":"X","wings":"1","pattern":"X","legs":"F"},"action":"harvest","summary":"good-harvest","bonus":0.780000000000001},{"rt":999,"stimulus":"\n                    <p><b>Action: <em>harvest</em></b></p>\n                    <p>This is the bee that you just saw.</p>\n                    <img src=\"bees-with-color/bee-B2SF.svg\" width=\"200\">\n                    <p><span class=\"greenText\"><b>Successful harvest!</b></span><br>Your pay has increased by $0.02. Your bonus pay is now $0.46.</p>\n            ","response":0,"trial_type":"html-button-response","trial_index":42,"time_elapsed":103294,"internal_node_id":"0.0-4.0-1.17","subject_id":"606f6be3361bd05af7ab3952","study_id":"6197b3f67c2b5cd3b6d9596a","session_id":"619be58feaa98c7ccc19f21f","condition":"contingent","relevant_dimensions":["wings","legs"],"bee_group":{"antennae":"X","wings":"1","pattern":"X","legs":"F"},"bonus":0.780000000000001},{"rt":1237.5999999977648,"stimulus":"bees-with-color/bee-A1DF.svg","response":1,"trial_type":"image-button-response","trial_index":43,"time_elapsed":104533,"internal_node_id":"0.0-4.0-0.18","subject_id":"606f6be3361bd05af7ab3952","study_id":"6197b3f67c2b5cd3b6d9596a","session_id":"619be58feaa98c7ccc19f21f","condition":"contingent","relevant_dimensions":["wings","legs"],"bee_group":{"antennae":"X","wings":"1","pattern":"X","legs":"F"},"action":"avoid","summary":"good-avoid","bonus":0.780000000000001},{"rt":846.7999999970198,"stimulus":"\n                    <p><b>Action: <em>avoid</em></b></p>\n                    <p>This is the bee that you just saw.</p>\n                    <img src=\"bees-with-color/bee-A1DF.svg\" width=\"200\">\n                    <p><br>Your bonus pay is unchanged, and remains at $0.46.</p>\n            ","response":0,"trial_type":"html-button-response","trial_index":44,"time_elapsed":105381,"internal_node_id":"0.0-4.0-1.18","subject_id":"606f6be3361bd05af7ab3952","study_id":"6197b3f67c2b5cd3b6d9596a","session_id":"619be58feaa98c7ccc19f21f","condition":"contingent","relevant_dimensions":["wings","legs"],"bee_group":{"antennae":"X","wings":"1","pattern":"X","legs":"F"},"bonus":0.780000000000001},{"rt":1413.9000000022352,"stimulus":"bees-with-color/bee-B2SM.svg","response":0,"trial_type":"image-button-response","trial_index":45,"time_elapsed":106796,"internal_node_id":"0.0-4.0-0.19","subject_id":"606f6be3361bd05af7ab3952","study_id":"6197b3f67c2b5cd3b6d9596a","session_id":"619be58feaa98c7ccc19f21f","condition":"contingent","relevant_dimensions":["wings","legs"],"bee_group":{"antennae":"X","wings":"1","pattern":"X","legs":"F"},"action":"harvest","summary":"good-harvest","bonus":0.780000000000001},{"rt":614.1999999992549,"stimulus":"\n                    <p><b>Action: <em>harvest</em></b></p>\n                    <p>This is the bee that you just saw.</p>\n                    <img src=\"bees-with-color/bee-B2SM.svg\" width=\"200\">\n                    <p><span class=\"greenText\"><b>Successful harvest!</b></span><br>Your pay has increased by $0.02. Your bonus pay is now $0.48.</p>\n            ","response":0,"trial_type":"html-button-response","trial_index":46,"time_elapsed":107412,"internal_node_id":"0.0-4.0-1.19","subject_id":"606f6be3361bd05af7ab3952","study_id":"6197b3f67c2b5cd3b6d9596a","session_id":"619be58feaa98c7ccc19f21f","condition":"contingent","relevant_dimensions":["wings","legs"],"bee_group":{"antennae":"X","wings":"1","pattern":"X","legs":"F"},"bonus":0.780000000000001},{"rt":966.5999999977648,"stimulus":"bees-with-color/bee-A1SF.svg","response":1,"trial_type":"image-button-response","trial_index":47,"time_elapsed":108381,"internal_node_id":"0.0-4.0-0.20","subject_id":"606f6be3361bd05af7ab3952","study_id":"6197b3f67c2b5cd3b6d9596a","session_id":"619be58feaa98c7ccc19f21f","condition":"contingent","relevant_dimensions":["wings","legs"],"bee_group":{"antennae":"X","wings":"1","pattern":"X","legs":"F"},"action":"avoid","summary":"good-avoid","bonus":0.780000000000001},{"rt":598.3000000007451,"stimulus":"\n                    <p><b>Action: <em>avoid</em></b></p>\n                    <p>This is the bee that you just saw.</p>\n                    <img src=\"bees-with-color/bee-A1SF.svg\" width=\"200\">\n                    <p><br>Your bonus pay is unchanged, and remains at $0.48.</p>\n            ","response":0,"trial_type":"html-button-response","trial_index":48,"time_elapsed":108981,"internal_node_id":"0.0-4.0-1.20","subject_id":"606f6be3361bd05af7ab3952","study_id":"6197b3f67c2b5cd3b6d9596a","session_id":"619be58feaa98c7ccc19f21f","condition":"contingent","relevant_dimensions":["wings","legs"],"bee_group":{"antennae":"X","wings":"1","pattern":"X","legs":"F"},"bonus":0.780000000000001},{"rt":5750.29999999702,"stimulus":"bees-with-color/bee-A2DF.svg","response":1,"trial_type":"image-button-response","trial_index":49,"time_elapsed":114732,"internal_node_id":"0.0-4.0-0.21","subject_id":"606f6be3361bd05af7ab3952","study_id":"6197b3f67c2b5cd3b6d9596a","session_id":"619be58feaa98c7ccc19f21f","condition":"contingent","relevant_dimensions":["wings","legs"],"bee_group":{"antennae":"X","wings":"1","pattern":"X","legs":"F"},"action":"avoid","summary":"bad-avoid","bonus":0.780000000000001},{"rt":774.7000000029802,"stimulus":"\n                    <p><b>Action: <em>avoid</em></b></p>\n                    <p>This is the bee that you just saw.</p>\n                    <img src=\"bees-with-color/bee-A2DF.svg\" width=\"200\">\n                    <p><br>Your bonus pay is unchanged, and remains at $0.48.</p>\n            ","response":0,"trial_type":"html-button-response","trial_index":50,"time_elapsed":115508,"internal_node_id":"0.0-4.0-1.21","subject_id":"606f6be3361bd05af7ab3952","study_id":"6197b3f67c2b5cd3b6d9596a","session_id":"619be58feaa98c7ccc19f21f","condition":"contingent","relevant_dimensions":["wings","legs"],"bee_group":{"antennae":"X","wings":"1","pattern":"X","legs":"F"},"bonus":0.780000000000001},{"rt":886.6999999992549,"stimulus":"bees-with-color/bee-A2DM.svg","response":0,"trial_type":"image-button-response","trial_index":51,"time_elapsed":116396,"internal_node_id":"0.0-4.0-0.22","subject_id":"606f6be3361bd05af7ab3952","study_id":"6197b3f67c2b5cd3b6d9596a","session_id":"619be58feaa98c7ccc19f21f","condition":"contingent","relevant_dimensions":["wings","legs"],"bee_group":{"antennae":"X","wings":"1","pattern":"X","legs":"F"},"action":"harvest","summary":"good-harvest","bonus":0.780000000000001},{"rt":599.1999999992549,"stimulus":"\n                    <p><b>Action: <em>harvest</em></b></p>\n                    <p>This is the bee that you just saw.</p>\n                    <img src=\"bees-with-color/bee-A2DM.svg\" width=\"200\">\n                    <p><span class=\"greenText\"><b>Successful harvest!</b></span><br>Your pay has increased by $0.02. Your bonus pay is now $0.50.</p>\n            ","response":0,"trial_type":"html-button-response","trial_index":52,"time_elapsed":116997,"internal_node_id":"0.0-4.0-1.22","subject_id":"606f6be3361bd05af7ab3952","study_id":"6197b3f67c2b5cd3b6d9596a","session_id":"619be58feaa98c7ccc19f21f","condition":"contingent","relevant_dimensions":["wings","legs"],"bee_group":{"antennae":"X","wings":"1","pattern":"X","legs":"F"},"bonus":0.780000000000001},{"rt":3366.099999997765,"stimulus":"bees-with-color/bee-B1SM.svg","response":1,"trial_type":"image-button-response","trial_index":53,"time_elapsed":120364,"internal_node_id":"0.0-4.0-0.23","subject_id":"606f6be3361bd05af7ab3952","study_id":"6197b3f67c2b5cd3b6d9596a","session_id":"619be58feaa98c7ccc19f21f","condition":"contingent","relevant_dimensions":["wings","legs"],"bee_group":{"antennae":"X","wings":"1","pattern":"X","legs":"F"},"action":"avoid","summary":"bad-avoid","bonus":0.780000000000001},{"rt":550.3000000007451,"stimulus":"\n                    <p><b>Action: <em>avoid</em></b></p>\n                    <p>This is the bee that you just saw.</p>\n                    <img src=\"bees-with-color/bee-B1SM.svg\" width=\"200\">\n                    <p><br>Your bonus pay is unchanged, and remains at $0.50.</p>\n            ","response":0,"trial_type":"html-button-response","trial_index":54,"time_elapsed":120916,"internal_node_id":"0.0-4.0-1.23","subject_id":"606f6be3361bd05af7ab3952","study_id":"6197b3f67c2b5cd3b6d9596a","session_id":"619be58feaa98c7ccc19f21f","condition":"contingent","relevant_dimensions":["wings","legs"],"bee_group":{"antennae":"X","wings":"1","pattern":"X","legs":"F"},"bonus":0.780000000000001},{"rt":1518.699999999255,"stimulus":"bees-with-color/bee-A1DM.svg","response":0,"trial_type":"image-button-response","trial_index":55,"time_elapsed":122436,"internal_node_id":"0.0-4.0-0.24","subject_id":"606f6be3361bd05af7ab3952","study_id":"6197b3f67c2b5cd3b6d9596a","session_id":"619be58feaa98c7ccc19f21f","condition":"contingent","relevant_dimensions":["wings","legs"],"bee_group":{"antennae":"X","wings":"1","pattern":"X","legs":"F"},"action":"harvest","summary":"good-harvest","bonus":0.780000000000001},{"rt":597.8000000007451,"stimulus":"\n                    <p><b>Action: <em>harvest</em></b></p>\n                    <p>This is the bee that you just saw.</p>\n                    <img src=\"bees-with-color/bee-A1DM.svg\" width=\"200\">\n                    <p><span class=\"greenText\"><b>Successful harvest!</b></span><br>Your pay has increased by $0.02. Your bonus pay is now $0.52.</p>\n            ","response":0,"trial_type":"html-button-response","trial_index":56,"time_elapsed":123036,"internal_node_id":"0.0-4.0-1.24","subject_id":"606f6be3361bd05af7ab3952","study_id":"6197b3f67c2b5cd3b6d9596a","session_id":"619be58feaa98c7ccc19f21f","condition":"contingent","relevant_dimensions":["wings","legs"],"bee_group":{"antennae":"X","wings":"1","pattern":"X","legs":"F"},"bonus":0.780000000000001},{"rt":1110.3999999985099,"stimulus":"bees-with-color/bee-B1DF.svg","response":0,"trial_type":"image-button-response","trial_index":57,"time_elapsed":124148,"internal_node_id":"0.0-4.0-0.25","subject_id":"606f6be3361bd05af7ab3952","study_id":"6197b3f67c2b5cd3b6d9596a","session_id":"619be58feaa98c7ccc19f21f","condition":"contingent","relevant_dimensions":["wings","legs"],"bee_group":{"antennae":"X","wings":"1","pattern":"X","legs":"F"},"action":"harvest","summary":"bad-harvest","bonus":0.780000000000001},{"rt":1070,"stimulus":"\n                    <p><b>Action: <em>harvest</em></b></p>\n                    <p>This is the bee that you just saw.</p>\n                    <img src=\"bees-with-color/bee-B1DF.svg\" width=\"200\">\n                    <p><span class=\"redText\">Bad choice, the bee was angry.</span><br><b>You have been stung!</b><br>Your pay has been decreased by $0.10. Your bonus pay is now $0.42.</p>\n            ","response":0,"trial_type":"html-button-response","trial_index":58,"time_elapsed":125221,"internal_node_id":"0.0-4.0-1.25","subject_id":"606f6be3361bd05af7ab3952","study_id":"6197b3f67c2b5cd3b6d9596a","session_id":"619be58feaa98c7ccc19f21f","condition":"contingent","relevant_dimensions":["wings","legs"],"bee_group":{"antennae":"X","wings":"1","pattern":"X","legs":"F"},"bonus":0.780000000000001},{"rt":1158.7999999970198,"stimulus":"bees-with-color/bee-A1SM.svg","response":0,"trial_type":"image-button-response","trial_index":59,"time_elapsed":126381,"internal_node_id":"0.0-4.0-0.26","subject_id":"606f6be3361bd05af7ab3952","study_id":"6197b3f67c2b5cd3b6d9596a","session_id":"619be58feaa98c7ccc19f21f","condition":"contingent","relevant_dimensions":["wings","legs"],"bee_group":{"antennae":"X","wings":"1","pattern":"X","legs":"F"},"action":"harvest","summary":"good-harvest","bonus":0.780000000000001},{"rt":614.3000000007451,"stimulus":"\n                    <p><b>Action: <em>harvest</em></b></p>\n                    <p>This is the bee that you just saw.</p>\n                    <img src=\"bees-with-color/bee-A1SM.svg\" width=\"200\">\n                    <p><span class=\"greenText\"><b>Successful harvest!</b></span><br>Your pay has increased by $0.02. Your bonus pay is now $0.44.</p>\n            ","response":0,"trial_type":"html-button-response","trial_index":60,"time_elapsed":126996,"internal_node_id":"0.0-4.0-1.26","subject_id":"606f6be3361bd05af7ab3952","study_id":"6197b3f67c2b5cd3b6d9596a","session_id":"619be58feaa98c7ccc19f21f","condition":"contingent","relevant_dimensions":["wings","legs"],"bee_group":{"antennae":"X","wings":"1","pattern":"X","legs":"F"},"bonus":0.780000000000001},{"rt":1294.6000000014901,"stimulus":"bees-with-color/bee-A2SF.svg","response":0,"trial_type":"image-button-response","trial_index":61,"time_elapsed":128292,"internal_node_id":"0.0-4.0-0.27","subject_id":"606f6be3361bd05af7ab3952","study_id":"6197b3f67c2b5cd3b6d9596a","session_id":"619be58feaa98c7ccc19f21f","condition":"contingent","relevant_dimensions":["wings","legs"],"bee_group":{"antennae":"X","wings":"1","pattern":"X","legs":"F"},"action":"harvest","summary":"good-harvest","bonus":0.780000000000001},{"rt":535,"stimulus":"\n                    <p><b>Action: <em>harvest</em></b></p>\n                    <p>This is the bee that you just saw.</p>\n                    <img src=\"bees-with-color/bee-A2SF.svg\" width=\"200\">\n                    <p><span class=\"greenText\"><b>Successful harvest!</b></span><br>Your pay has increased by $0.02. Your bonus pay is now $0.46.</p>\n            ","response":0,"trial_type":"html-button-response","trial_index":62,"time_elapsed":128829,"internal_node_id":"0.0-4.0-1.27","subject_id":"606f6be3361bd05af7ab3952","study_id":"6197b3f67c2b5cd3b6d9596a","session_id":"619be58feaa98c7ccc19f21f","condition":"contingent","relevant_dimensions":["wings","legs"],"bee_group":{"antennae":"X","wings":"1","pattern":"X","legs":"F"},"bonus":0.780000000000001},{"rt":983.6000000014901,"stimulus":"bees-with-color/bee-B2DF.svg","response":0,"trial_type":"image-button-response","trial_index":63,"time_elapsed":129814,"internal_node_id":"0.0-4.0-0.28","subject_id":"606f6be3361bd05af7ab3952","study_id":"6197b3f67c2b5cd3b6d9596a","session_id":"619be58feaa98c7ccc19f21f","condition":"contingent","relevant_dimensions":["wings","legs"],"bee_group":{"antennae":"X","wings":"1","pattern":"X","legs":"F"},"action":"harvest","summary":"good-harvest","bonus":0.780000000000001},{"rt":558.5,"stimulus":"\n                    <p><b>Action: <em>harvest</em></b></p>\n                    <p>This is the bee that you just saw.</p>\n                    <img src=\"bees-with-color/bee-B2DF.svg\" width=\"200\">\n                    <p><span class=\"greenText\"><b>Successful harvest!</b></span><br>Your pay has increased by $0.02. Your bonus pay is now $0.48.</p>\n            ","response":0,"trial_type":"html-button-response","trial_index":64,"time_elapsed":130374,"internal_node_id":"0.0-4.0-1.28","subject_id":"606f6be3361bd05af7ab3952","study_id":"6197b3f67c2b5cd3b6d9596a","session_id":"619be58feaa98c7ccc19f21f","condition":"contingent","relevant_dimensions":["wings","legs"],"bee_group":{"antennae":"X","wings":"1","pattern":"X","legs":"F"},"bonus":0.780000000000001},{"rt":3125.199999999255,"stimulus":"bees-with-color/bee-A2SM.svg","response":1,"trial_type":"image-button-response","trial_index":65,"time_elapsed":133500,"internal_node_id":"0.0-4.0-0.29","subject_id":"606f6be3361bd05af7ab3952","study_id":"6197b3f67c2b5cd3b6d9596a","session_id":"619be58feaa98c7ccc19f21f","condition":"contingent","relevant_dimensions":["wings","legs"],"bee_group":{"antennae":"X","wings":"1","pattern":"X","legs":"F"},"action":"avoid","summary":"bad-avoid","bonus":0.780000000000001},{"rt":685.8999999985099,"stimulus":"\n                    <p><b>Action: <em>avoid</em></b></p>\n                    <p>This is the bee that you just saw.</p>\n                    <img src=\"bees-with-color/bee-A2SM.svg\" width=\"200\">\n                    <p><br>Your bonus pay is unchanged, and remains at $0.48.</p>\n            ","response":0,"trial_type":"html-button-response","trial_index":66,"time_elapsed":134188,"internal_node_id":"0.0-4.0-1.29","subject_id":"606f6be3361bd05af7ab3952","study_id":"6197b3f67c2b5cd3b6d9596a","session_id":"619be58feaa98c7ccc19f21f","condition":"contingent","relevant_dimensions":["wings","legs"],"bee_group":{"antennae":"X","wings":"1","pattern":"X","legs":"F"},"bonus":0.780000000000001},{"rt":1070.7999999970198,"stimulus":"bees-with-color/bee-B1SF.svg","response":0,"trial_type":"image-button-response","trial_index":67,"time_elapsed":135261,"internal_node_id":"0.0-4.0-0.30","subject_id":"606f6be3361bd05af7ab3952","study_id":"6197b3f67c2b5cd3b6d9596a","session_id":"619be58feaa98c7ccc19f21f","condition":"contingent","relevant_dimensions":["wings","legs"],"bee_group":{"antennae":"X","wings":"1","pattern":"X","legs":"F"},"action":"harvest","summary":"bad-harvest","bonus":0.780000000000001},{"rt":758,"stimulus":"\n                    <p><b>Action: <em>harvest</em></b></p>\n                    <p>This is the bee that you just saw.</p>\n                    <img src=\"bees-with-color/bee-B1SF.svg\" width=\"200\">\n                    <p><span class=\"redText\">Bad choice, the bee was angry.</span><br><b>You have been stung!</b><br>Your pay has been decreased by $0.10. Your bonus pay is now $0.38.</p>\n            ","response":0,"trial_type":"html-button-response","trial_index":68,"time_elapsed":136020,"internal_node_id":"0.0-4.0-1.30","subject_id":"606f6be3361bd05af7ab3952","study_id":"6197b3f67c2b5cd3b6d9596a","session_id":"619be58feaa98c7ccc19f21f","condition":"contingent","relevant_dimensions":["wings","legs"],"bee_group":{"antennae":"X","wings":"1","pattern":"X","legs":"F"},"bonus":0.780000000000001},{"rt":2270.7000000029802,"stimulus":"bees-with-color/bee-B1DM.svg","response":0,"trial_type":"image-button-response","trial_index":69,"time_elapsed":138292,"internal_node_id":"0.0-4.0-0.31","subject_id":"606f6be3361bd05af7ab3952","study_id":"6197b3f67c2b5cd3b6d9596a","session_id":"619be58feaa98c7ccc19f21f","condition":"contingent","relevant_dimensions":["wings","legs"],"bee_group":{"antennae":"X","wings":"1","pattern":"X","legs":"F"},"action":"harvest","summary":"good-harvest","bonus":0.780000000000001},{"rt":918.1000000014901,"stimulus":"\n                    <p><b>Action: <em>harvest</em></b></p>\n                    <p>This is the bee that you just saw.</p>\n                    <img src=\"bees-with-color/bee-B1DM.svg\" width=\"200\">\n                    <p><span class=\"greenText\"><b>Successful harvest!</b></span><br>Your pay has increased by $0.02. Your bonus pay is now $0.40.</p>\n            ","response":0,"trial_type":"html-button-response","trial_index":70,"time_elapsed":139212,"internal_node_id":"0.0-4.0-1.31","subject_id":"606f6be3361bd05af7ab3952","study_id":"6197b3f67c2b5cd3b6d9596a","session_id":"619be58feaa98c7ccc19f21f","condition":"contingent","relevant_dimensions":["wings","legs"],"bee_group":{"antennae":"X","wings":"1","pattern":"X","legs":"F"},"bonus":0.780000000000001},{"rt":1142.300000000745,"stimulus":"bees-with-color/bee-B2DF.svg","response":0,"trial_type":"image-button-response","trial_index":71,"time_elapsed":140356,"internal_node_id":"0.0-4.0-0.32","subject_id":"606f6be3361bd05af7ab3952","study_id":"6197b3f67c2b5cd3b6d9596a","session_id":"619be58feaa98c7ccc19f21f","condition":"contingent","relevant_dimensions":["wings","legs"],"bee_group":{"antennae":"X","wings":"1","pattern":"X","legs":"F"},"action":"harvest","summary":"good-harvest","bonus":0.780000000000001},{"rt":534.3000000007451,"stimulus":"\n                    <p><b>Action: <em>harvest</em></b></p>\n                    <p>This is the bee that you just saw.</p>\n                    <img src=\"bees-with-color/bee-B2DF.svg\" width=\"200\">\n                    <p><span class=\"greenText\"><b>Successful harvest!</b></span><br>Your pay has increased by $0.02. Your bonus pay is now $0.42.</p>\n            ","response":0,"trial_type":"html-button-response","trial_index":72,"time_elapsed":140893,"internal_node_id":"0.0-4.0-1.32","subject_id":"606f6be3361bd05af7ab3952","study_id":"6197b3f67c2b5cd3b6d9596a","session_id":"619be58feaa98c7ccc19f21f","condition":"contingent","relevant_dimensions":["wings","legs"],"bee_group":{"antennae":"X","wings":"1","pattern":"X","legs":"F"},"bonus":0.780000000000001},{"rt":4183.5,"stimulus":"bees-with-color/bee-A1DF.svg","response":0,"trial_type":"image-button-response","trial_index":73,"time_elapsed":145078,"internal_node_id":"0.0-4.0-0.33","subject_id":"606f6be3361bd05af7ab3952","study_id":"6197b3f67c2b5cd3b6d9596a","session_id":"619be58feaa98c7ccc19f21f","condition":"contingent","relevant_dimensions":["wings","legs"],"bee_group":{"antennae":"X","wings":"1","pattern":"X","legs":"F"},"action":"harvest","summary":"bad-harvest","bonus":0.780000000000001},{"rt":606.1999999992549,"stimulus":"\n                    <p><b>Action: <em>harvest</em></b></p>\n                    <p>This is the bee that you just saw.</p>\n                    <img src=\"bees-with-color/bee-A1DF.svg\" width=\"200\">\n                    <p><span class=\"redText\">Bad choice, the bee was angry.</span><br><b>You have been stung!</b><br>Your pay has been decreased by $0.10. Your bonus pay is now $0.32.</p>\n            ","response":0,"trial_type":"html-button-response","trial_index":74,"time_elapsed":145686,"internal_node_id":"0.0-4.0-1.33","subject_id":"606f6be3361bd05af7ab3952","study_id":"6197b3f67c2b5cd3b6d9596a","session_id":"619be58feaa98c7ccc19f21f","condition":"contingent","relevant_dimensions":["wings","legs"],"bee_group":{"antennae":"X","wings":"1","pattern":"X","legs":"F"},"bonus":0.780000000000001},{"rt":1765.300000000745,"stimulus":"bees-with-color/bee-B2SM.svg","response":1,"trial_type":"image-button-response","trial_index":75,"time_elapsed":147452,"internal_node_id":"0.0-4.0-0.34","subject_id":"606f6be3361bd05af7ab3952","study_id":"6197b3f67c2b5cd3b6d9596a","session_id":"619be58feaa98c7ccc19f21f","condition":"contingent","relevant_dimensions":["wings","legs"],"bee_group":{"antennae":"X","wings":"1","pattern":"X","legs":"F"},"action":"avoid","summary":"bad-avoid","bonus":0.780000000000001},{"rt":782.2999999970198,"stimulus":"\n                    <p><b>Action: <em>avoid</em></b></p>\n                    <p>This is the bee that you just saw.</p>\n                    <img src=\"bees-with-color/bee-B2SM.svg\" width=\"200\">\n                    <p><br>Your bonus pay is unchanged, and remains at $0.32.</p>\n            ","response":0,"trial_type":"html-button-response","trial_index":76,"time_elapsed":148237,"internal_node_id":"0.0-4.0-1.34","subject_id":"606f6be3361bd05af7ab3952","study_id":"6197b3f67c2b5cd3b6d9596a","session_id":"619be58feaa98c7ccc19f21f","condition":"contingent","relevant_dimensions":["wings","legs"],"bee_group":{"antennae":"X","wings":"1","pattern":"X","legs":"F"},"bonus":0.780000000000001},{"rt":974.3999999985099,"stimulus":"bees-with-color/bee-A2SM.svg","response":0,"trial_type":"image-button-response","trial_index":77,"time_elapsed":149213,"internal_node_id":"0.0-4.0-0.35","subject_id":"606f6be3361bd05af7ab3952","study_id":"6197b3f67c2b5cd3b6d9596a","session_id":"619be58feaa98c7ccc19f21f","condition":"contingent","relevant_dimensions":["wings","legs"],"bee_group":{"antennae":"X","wings":"1","pattern":"X","legs":"F"},"action":"harvest","summary":"good-harvest","bonus":0.780000000000001},{"rt":557.2000000029802,"stimulus":"\n                    <p><b>Action: <em>harvest</em></b></p>\n                    <p>This is the bee that you just saw.</p>\n                    <img src=\"bees-with-color/bee-A2SM.svg\" width=\"200\">\n                    <p><span class=\"greenText\"><b>Successful harvest!</b></span><br>Your pay has increased by $0.02. Your bonus pay is now $0.34.</p>\n            ","response":0,"trial_type":"html-button-response","trial_index":78,"time_elapsed":149773,"internal_node_id":"0.0-4.0-1.35","subject_id":"606f6be3361bd05af7ab3952","study_id":"6197b3f67c2b5cd3b6d9596a","session_id":"619be58feaa98c7ccc19f21f","condition":"contingent","relevant_dimensions":["wings","legs"],"bee_group":{"antennae":"X","wings":"1","pattern":"X","legs":"F"},"bonus":0.780000000000001},{"rt":718.6999999992549,"stimulus":"bees-with-color/bee-A2SF.svg","response":0,"trial_type":"image-button-response","trial_index":79,"time_elapsed":150493,"internal_node_id":"0.0-4.0-0.36","subject_id":"606f6be3361bd05af7ab3952","study_id":"6197b3f67c2b5cd3b6d9596a","session_id":"619be58feaa98c7ccc19f21f","condition":"contingent","relevant_dimensions":["wings","legs"],"bee_group":{"antennae":"X","wings":"1","pattern":"X","legs":"F"},"action":"harvest","summary":"good-harvest","bonus":0.780000000000001},{"rt":1207.199999999255,"stimulus":"\n                    <p><b>Action: <em>harvest</em></b></p>\n                    <p>This is the bee that you just saw.</p>\n                    <img src=\"bees-with-color/bee-A2SF.svg\" width=\"200\">\n                    <p><span class=\"greenText\"><b>Successful harvest!</b></span><br>Your pay has increased by $0.02. Your bonus pay is now $0.36.</p>\n            ","response":0,"trial_type":"html-button-response","trial_index":80,"time_elapsed":151702,"internal_node_id":"0.0-4.0-1.36","subject_id":"606f6be3361bd05af7ab3952","study_id":"6197b3f67c2b5cd3b6d9596a","session_id":"619be58feaa98c7ccc19f21f","condition":"contingent","relevant_dimensions":["wings","legs"],"bee_group":{"antennae":"X","wings":"1","pattern":"X","legs":"F"},"bonus":0.780000000000001},{"rt":1268.300000000745,"stimulus":"bees-with-color/bee-B1SM.svg","response":0,"trial_type":"image-button-response","trial_index":81,"time_elapsed":152973,"internal_node_id":"0.0-4.0-0.37","subject_id":"606f6be3361bd05af7ab3952","study_id":"6197b3f67c2b5cd3b6d9596a","session_id":"619be58feaa98c7ccc19f21f","condition":"contingent","relevant_dimensions":["wings","legs"],"bee_group":{"antennae":"X","wings":"1","pattern":"X","legs":"F"},"action":"harvest","summary":"good-harvest","bonus":0.780000000000001},{"rt":558.1000000014901,"stimulus":"\n                    <p><b>Action: <em>harvest</em></b></p>\n                    <p>This is the bee that you just saw.</p>\n                    <img src=\"bees-with-color/bee-B1SM.svg\" width=\"200\">\n                    <p><span class=\"greenText\"><b>Successful harvest!</b></span><br>Your pay has increased by $0.02. Your bonus pay is now $0.38.</p>\n            ","response":0,"trial_type":"html-button-response","trial_index":82,"time_elapsed":153533,"internal_node_id":"0.0-4.0-1.37","subject_id":"606f6be3361bd05af7ab3952","study_id":"6197b3f67c2b5cd3b6d9596a","session_id":"619be58feaa98c7ccc19f21f","condition":"contingent","relevant_dimensions":["wings","legs"],"bee_group":{"antennae":"X","wings":"1","pattern":"X","legs":"F"},"bonus":0.780000000000001},{"rt":934.3000000007451,"stimulus":"bees-with-color/bee-B1DF.svg","response":0,"trial_type":"image-button-response","trial_index":83,"time_elapsed":154469,"internal_node_id":"0.0-4.0-0.38","subject_id":"606f6be3361bd05af7ab3952","study_id":"6197b3f67c2b5cd3b6d9596a","session_id":"619be58feaa98c7ccc19f21f","condition":"contingent","relevant_dimensions":["wings","legs"],"bee_group":{"antennae":"X","wings":"1","pattern":"X","legs":"F"},"action":"harvest","summary":"bad-harvest","bonus":0.780000000000001},{"rt":790,"stimulus":"\n                    <p><b>Action: <em>harvest</em></b></p>\n                    <p>This is the bee that you just saw.</p>\n                    <img src=\"bees-with-color/bee-B1DF.svg\" width=\"200\">\n                    <p><span class=\"redText\">Bad choice, the bee was angry.</span><br><b>You have been stung!</b><br>Your pay has been decreased by $0.10. Your bonus pay is now $0.28.</p>\n            ","response":0,"trial_type":"html-button-response","trial_index":84,"time_elapsed":155261,"internal_node_id":"0.0-4.0-1.38","subject_id":"606f6be3361bd05af7ab3952","study_id":"6197b3f67c2b5cd3b6d9596a","session_id":"619be58feaa98c7ccc19f21f","condition":"contingent","relevant_dimensions":["wings","legs"],"bee_group":{"antennae":"X","wings":"1","pattern":"X","legs":"F"},"bonus":0.780000000000001},{"rt":1191.8999999985099,"stimulus":"bees-with-color/bee-B1DM.svg","response":0,"trial_type":"image-button-response","trial_index":85,"time_elapsed":156454,"internal_node_id":"0.0-4.0-0.39","subject_id":"606f6be3361bd05af7ab3952","study_id":"6197b3f67c2b5cd3b6d9596a","session_id":"619be58feaa98c7ccc19f21f","condition":"contingent","relevant_dimensions":["wings","legs"],"bee_group":{"antennae":"X","wings":"1","pattern":"X","legs":"F"},"action":"harvest","summary":"good-harvest","bonus":0.780000000000001},{"rt":605,"stimulus":"\n                    <p><b>Action: <em>harvest</em></b></p>\n                    <p>This is the bee that you just saw.</p>\n                    <img src=\"bees-with-color/bee-B1DM.svg\" width=\"200\">\n                    <p><span class=\"greenText\"><b>Successful harvest!</b></span><br>Your pay has increased by $0.02. Your bonus pay is now $0.30.</p>\n            ","response":0,"trial_type":"html-button-response","trial_index":86,"time_elapsed":157061,"internal_node_id":"0.0-4.0-1.39","subject_id":"606f6be3361bd05af7ab3952","study_id":"6197b3f67c2b5cd3b6d9596a","session_id":"619be58feaa98c7ccc19f21f","condition":"contingent","relevant_dimensions":["wings","legs"],"bee_group":{"antennae":"X","wings":"1","pattern":"X","legs":"F"},"bonus":0.780000000000001},{"rt":951.0999999977648,"stimulus":"bees-with-color/bee-B2DM.svg","response":0,"trial_type":"image-button-response","trial_index":87,"time_elapsed":158013,"internal_node_id":"0.0-4.0-0.40","subject_id":"606f6be3361bd05af7ab3952","study_id":"6197b3f67c2b5cd3b6d9596a","session_id":"619be58feaa98c7ccc19f21f","condition":"contingent","relevant_dimensions":["wings","legs"],"bee_group":{"antennae":"X","wings":"1","pattern":"X","legs":"F"},"action":"harvest","summary":"good-harvest","bonus":0.780000000000001},{"rt":518.1999999992549,"stimulus":"\n                    <p><b>Action: <em>harvest</em></b></p>\n                    <p>This is the bee that you just saw.</p>\n                    <img src=\"bees-with-color/bee-B2DM.svg\" width=\"200\">\n                    <p><span class=\"greenText\"><b>Successful harvest!</b></span><br>Your pay has increased by $0.02. Your bonus pay is now $0.32.</p>\n            ","response":0,"trial_type":"html-button-response","trial_index":88,"time_elapsed":158533,"internal_node_id":"0.0-4.0-1.40","subject_id":"606f6be3361bd05af7ab3952","study_id":"6197b3f67c2b5cd3b6d9596a","session_id":"619be58feaa98c7ccc19f21f","condition":"contingent","relevant_dimensions":["wings","legs"],"bee_group":{"antennae":"X","wings":"1","pattern":"X","legs":"F"},"bonus":0.780000000000001},{"rt":3231.800000000745,"stimulus":"bees-with-color/bee-A2DF.svg","response":0,"trial_type":"image-button-response","trial_index":89,"time_elapsed":161766,"internal_node_id":"0.0-4.0-0.41","subject_id":"606f6be3361bd05af7ab3952","study_id":"6197b3f67c2b5cd3b6d9596a","session_id":"619be58feaa98c7ccc19f21f","condition":"contingent","relevant_dimensions":["wings","legs"],"bee_group":{"antennae":"X","wings":"1","pattern":"X","legs":"F"},"action":"harvest","summary":"good-harvest","bonus":0.780000000000001},{"rt":613.5999999977648,"stimulus":"\n                    <p><b>Action: <em>harvest</em></b></p>\n                    <p>This is the bee that you just saw.</p>\n                    <img src=\"bees-with-color/bee-A2DF.svg\" width=\"200\">\n                    <p><span class=\"greenText\"><b>Successful harvest!</b></span><br>Your pay has increased by $0.02. Your bonus pay is now $0.34.</p>\n            ","response":0,"trial_type":"html-button-response","trial_index":90,"time_elapsed":162381,"internal_node_id":"0.0-4.0-1.41","subject_id":"606f6be3361bd05af7ab3952","study_id":"6197b3f67c2b5cd3b6d9596a","session_id":"619be58feaa98c7ccc19f21f","condition":"contingent","relevant_dimensions":["wings","legs"],"bee_group":{"antennae":"X","wings":"1","pattern":"X","legs":"F"},"bonus":0.780000000000001},{"rt":1406.8999999985099,"stimulus":"bees-with-color/bee-A1SF.svg","response":1,"trial_type":"image-button-response","trial_index":91,"time_elapsed":163789,"internal_node_id":"0.0-4.0-0.42","subject_id":"606f6be3361bd05af7ab3952","study_id":"6197b3f67c2b5cd3b6d9596a","session_id":"619be58feaa98c7ccc19f21f","condition":"contingent","relevant_dimensions":["wings","legs"],"bee_group":{"antennae":"X","wings":"1","pattern":"X","legs":"F"},"action":"avoid","summary":"good-avoid","bonus":0.780000000000001},{"rt":582.3000000007451,"stimulus":"\n                    <p><b>Action: <em>avoid</em></b></p>\n                    <p>This is the bee that you just saw.</p>\n                    <img src=\"bees-with-color/bee-A1SF.svg\" width=\"200\">\n                    <p><br>Your bonus pay is unchanged, and remains at $0.34.</p>\n            ","response":0,"trial_type":"html-button-response","trial_index":92,"time_elapsed":164373,"internal_node_id":"0.0-4.0-1.42","subject_id":"606f6be3361bd05af7ab3952","study_id":"6197b3f67c2b5cd3b6d9596a","session_id":"619be58feaa98c7ccc19f21f","condition":"contingent","relevant_dimensions":["wings","legs"],"bee_group":{"antennae":"X","wings":"1","pattern":"X","legs":"F"},"bonus":0.780000000000001},{"rt":1326.699999999255,"stimulus":"bees-with-color/bee-A1DM.svg","response":0,"trial_type":"image-button-response","trial_index":93,"time_elapsed":165701,"internal_node_id":"0.0-4.0-0.43","subject_id":"606f6be3361bd05af7ab3952","study_id":"6197b3f67c2b5cd3b6d9596a","session_id":"619be58feaa98c7ccc19f21f","condition":"contingent","relevant_dimensions":["wings","legs"],"bee_group":{"antennae":"X","wings":"1","pattern":"X","legs":"F"},"action":"harvest","summary":"good-harvest","bonus":0.780000000000001},{"rt":670.1999999992549,"stimulus":"\n                    <p><b>Action: <em>harvest</em></b></p>\n                    <p>This is the bee that you just saw.</p>\n                    <img src=\"bees-with-color/bee-A1DM.svg\" width=\"200\">\n                    <p><span class=\"greenText\"><b>Successful harvest!</b></span><br>Your pay has increased by $0.02. Your bonus pay is now $0.36.</p>\n            ","response":0,"trial_type":"html-button-response","trial_index":94,"time_elapsed":166373,"internal_node_id":"0.0-4.0-1.43","subject_id":"606f6be3361bd05af7ab3952","study_id":"6197b3f67c2b5cd3b6d9596a","session_id":"619be58feaa98c7ccc19f21f","condition":"contingent","relevant_dimensions":["wings","legs"],"bee_group":{"antennae":"X","wings":"1","pattern":"X","legs":"F"},"bonus":0.780000000000001},{"rt":1478.2000000029802,"stimulus":"bees-with-color/bee-B1SF.svg","response":1,"trial_type":"image-button-response","trial_index":95,"time_elapsed":167853,"internal_node_id":"0.0-4.0-0.44","subject_id":"606f6be3361bd05af7ab3952","study_id":"6197b3f67c2b5cd3b6d9596a","session_id":"619be58feaa98c7ccc19f21f","condition":"contingent","relevant_dimensions":["wings","legs"],"bee_group":{"antennae":"X","wings":"1","pattern":"X","legs":"F"},"action":"avoid","summary":"good-avoid","bonus":0.780000000000001},{"rt":486.80000000074506,"stimulus":"\n                    <p><b>Action: <em>avoid</em></b></p>\n                    <p>This is the bee that you just saw.</p>\n                    <img src=\"bees-with-color/bee-B1SF.svg\" width=\"200\">\n                    <p><br>Your bonus pay is unchanged, and remains at $0.36.</p>\n            ","response":0,"trial_type":"html-button-response","trial_index":96,"time_elapsed":168341,"internal_node_id":"0.0-4.0-1.44","subject_id":"606f6be3361bd05af7ab3952","study_id":"6197b3f67c2b5cd3b6d9596a","session_id":"619be58feaa98c7ccc19f21f","condition":"contingent","relevant_dimensions":["wings","legs"],"bee_group":{"antennae":"X","wings":"1","pattern":"X","legs":"F"},"bonus":0.780000000000001},{"rt":2311.39999999851,"stimulus":"bees-with-color/bee-B2SF.svg","response":0,"trial_type":"image-button-response","trial_index":97,"time_elapsed":170654,"internal_node_id":"0.0-4.0-0.45","subject_id":"606f6be3361bd05af7ab3952","study_id":"6197b3f67c2b5cd3b6d9596a","session_id":"619be58feaa98c7ccc19f21f","condition":"contingent","relevant_dimensions":["wings","legs"],"bee_group":{"antennae":"X","wings":"1","pattern":"X","legs":"F"},"action":"harvest","summary":"good-harvest","bonus":0.780000000000001},{"rt":637.3000000007451,"stimulus":"\n                    <p><b>Action: <em>harvest</em></b></p>\n                    <p>This is the bee that you just saw.</p>\n                    <img src=\"bees-with-color/bee-B2SF.svg\" width=\"200\">\n                    <p><span class=\"greenText\"><b>Successful harvest!</b></span><br>Your pay has increased by $0.02. Your bonus pay is now $0.38.</p>\n            ","response":0,"trial_type":"html-button-response","trial_index":98,"time_elapsed":171293,"internal_node_id":"0.0-4.0-1.45","subject_id":"606f6be3361bd05af7ab3952","study_id":"6197b3f67c2b5cd3b6d9596a","session_id":"619be58feaa98c7ccc19f21f","condition":"contingent","relevant_dimensions":["wings","legs"],"bee_group":{"antennae":"X","wings":"1","pattern":"X","legs":"F"},"bonus":0.780000000000001},{"rt":3662.39999999851,"stimulus":"bees-with-color/bee-A1SM.svg","response":1,"trial_type":"image-button-response","trial_index":99,"time_elapsed":174957,"internal_node_id":"0.0-4.0-0.46","subject_id":"606f6be3361bd05af7ab3952","study_id":"6197b3f67c2b5cd3b6d9596a","session_id":"619be58feaa98c7ccc19f21f","condition":"contingent","relevant_dimensions":["wings","legs"],"bee_group":{"antennae":"X","wings":"1","pattern":"X","legs":"F"},"action":"avoid","summary":"bad-avoid","bonus":0.780000000000001},{"rt":1269.699999999255,"stimulus":"\n                    <p><b>Action: <em>avoid</em></b></p>\n                    <p>This is the bee that you just saw.</p>\n                    <img src=\"bees-with-color/bee-A1SM.svg\" width=\"200\">\n                    <p><br>Your bonus pay is unchanged, and remains at $0.38.</p>\n            ","response":0,"trial_type":"html-button-response","trial_index":100,"time_elapsed":176229,"internal_node_id":"0.0-4.0-1.46","subject_id":"606f6be3361bd05af7ab3952","study_id":"6197b3f67c2b5cd3b6d9596a","session_id":"619be58feaa98c7ccc19f21f","condition":"contingent","relevant_dimensions":["wings","legs"],"bee_group":{"antennae":"X","wings":"1","pattern":"X","legs":"F"},"bonus":0.780000000000001},{"rt":1198.5999999977648,"stimulus":"bees-with-color/bee-A2DM.svg","response":0,"trial_type":"image-button-response","trial_index":101,"time_elapsed":177429,"internal_node_id":"0.0-4.0-0.47","subject_id":"606f6be3361bd05af7ab3952","study_id":"6197b3f67c2b5cd3b6d9596a","session_id":"619be58feaa98c7ccc19f21f","condition":"contingent","relevant_dimensions":["wings","legs"],"bee_group":{"antennae":"X","wings":"1","pattern":"X","legs":"F"},"action":"harvest","summary":"good-harvest","bonus":0.780000000000001},{"rt":1054.5,"stimulus":"\n                    <p><b>Action: <em>harvest</em></b></p>\n                    <p>This is the bee that you just saw.</p>\n                    <img src=\"bees-with-color/bee-A2DM.svg\" width=\"200\">\n                    <p><span class=\"greenText\"><b>Successful harvest!</b></span><br>Your pay has increased by $0.02. Your bonus pay is now $0.40.</p>\n            ","response":0,"trial_type":"html-button-response","trial_index":102,"time_elapsed":178485,"internal_node_id":"0.0-4.0-1.47","subject_id":"606f6be3361bd05af7ab3952","study_id":"6197b3f67c2b5cd3b6d9596a","session_id":"619be58feaa98c7ccc19f21f","condition":"contingent","relevant_dimensions":["wings","legs"],"bee_group":{"antennae":"X","wings":"1","pattern":"X","legs":"F"},"bonus":0.780000000000001},{"rt":1654.5,"stimulus":"bees-with-color/bee-B2DM.svg","response":0,"trial_type":"image-button-response","trial_index":103,"time_elapsed":180141,"internal_node_id":"0.0-4.0-0.48","subject_id":"606f6be3361bd05af7ab3952","study_id":"6197b3f67c2b5cd3b6d9596a","session_id":"619be58feaa98c7ccc19f21f","condition":"contingent","relevant_dimensions":["wings","legs"],"bee_group":{"antennae":"X","wings":"1","pattern":"X","legs":"F"},"action":"harvest","summary":"good-harvest","bonus":0.780000000000001},{"rt":606.1000000014901,"stimulus":"\n                    <p><b>Action: <em>harvest</em></b></p>\n                    <p>This is the bee that you just saw.</p>\n                    <img src=\"bees-with-color/bee-B2DM.svg\" width=\"200\">\n                    <p><span class=\"greenText\"><b>Successful harvest!</b></span><br>Your pay has increased by $0.02. Your bonus pay is now $0.42.</p>\n            ","response":0,"trial_type":"html-button-response","trial_index":104,"time_elapsed":180749,"internal_node_id":"0.0-4.0-1.48","subject_id":"606f6be3361bd05af7ab3952","study_id":"6197b3f67c2b5cd3b6d9596a","session_id":"619be58feaa98c7ccc19f21f","condition":"contingent","relevant_dimensions":["wings","legs"],"bee_group":{"antennae":"X","wings":"1","pattern":"X","legs":"F"},"bonus":0.780000000000001},{"rt":1110.699999999255,"stimulus":"bees-with-color/bee-B1DF.svg","response":1,"trial_type":"image-button-response","trial_index":105,"time_elapsed":181861,"internal_node_id":"0.0-4.0-0.49","subject_id":"606f6be3361bd05af7ab3952","study_id":"6197b3f67c2b5cd3b6d9596a","session_id":"619be58feaa98c7ccc19f21f","condition":"contingent","relevant_dimensions":["wings","legs"],"bee_group":{"antennae":"X","wings":"1","pattern":"X","legs":"F"},"action":"avoid","summary":"good-avoid","bonus":0.780000000000001},{"rt":654.1000000014901,"stimulus":"\n                    <p><b>Action: <em>avoid</em></b></p>\n                    <p>This is the bee that you just saw.</p>\n                    <img src=\"bees-with-color/bee-B1DF.svg\" width=\"200\">\n                    <p><br>Your bonus pay is unchanged, and remains at $0.42.</p>\n            ","response":0,"trial_type":"html-button-response","trial_index":106,"time_elapsed":182517,"internal_node_id":"0.0-4.0-1.49","subject_id":"606f6be3361bd05af7ab3952","study_id":"6197b3f67c2b5cd3b6d9596a","session_id":"619be58feaa98c7ccc19f21f","condition":"contingent","relevant_dimensions":["wings","legs"],"bee_group":{"antennae":"X","wings":"1","pattern":"X","legs":"F"},"bonus":0.780000000000001},{"rt":1374.7000000029802,"stimulus":"bees-with-color/bee-A2DF.svg","response":0,"trial_type":"image-button-response","trial_index":107,"time_elapsed":183893,"internal_node_id":"0.0-4.0-0.50","subject_id":"606f6be3361bd05af7ab3952","study_id":"6197b3f67c2b5cd3b6d9596a","session_id":"619be58feaa98c7ccc19f21f","condition":"contingent","relevant_dimensions":["wings","legs"],"bee_group":{"antennae":"X","wings":"1","pattern":"X","legs":"F"},"action":"harvest","summary":"good-harvest","bonus":0.780000000000001},{"rt":942.7000000029802,"stimulus":"\n                    <p><b>Action: <em>harvest</em></b></p>\n                    <p>This is the bee that you just saw.</p>\n                    <img src=\"bees-with-color/bee-A2DF.svg\" width=\"200\">\n                    <p><span class=\"greenText\"><b>Successful harvest!</b></span><br>Your pay has increased by $0.02. Your bonus pay is now $0.44.</p>\n            ","response":0,"trial_type":"html-button-response","trial_index":108,"time_elapsed":184837,"internal_node_id":"0.0-4.0-1.50","subject_id":"606f6be3361bd05af7ab3952","study_id":"6197b3f67c2b5cd3b6d9596a","session_id":"619be58feaa98c7ccc19f21f","condition":"contingent","relevant_dimensions":["wings","legs"],"bee_group":{"antennae":"X","wings":"1","pattern":"X","legs":"F"},"bonus":0.780000000000001},{"rt":1101.5,"stimulus":"bees-with-color/bee-A2SF.svg","response":1,"trial_type":"image-button-response","trial_index":109,"time_elapsed":185941,"internal_node_id":"0.0-4.0-0.51","subject_id":"606f6be3361bd05af7ab3952","study_id":"6197b3f67c2b5cd3b6d9596a","session_id":"619be58feaa98c7ccc19f21f","condition":"contingent","relevant_dimensions":["wings","legs"],"bee_group":{"antennae":"X","wings":"1","pattern":"X","legs":"F"},"action":"avoid","summary":"bad-avoid","bonus":0.780000000000001},{"rt":1534.1000000014901,"stimulus":"\n                    <p><b>Action: <em>avoid</em></b></p>\n                    <p>This is the bee that you just saw.</p>\n                    <img src=\"bees-with-color/bee-A2SF.svg\" width=\"200\">\n                    <p><br>Your bonus pay is unchanged, and remains at $0.44.</p>\n            ","response":0,"trial_type":"html-button-response","trial_index":110,"time_elapsed":187477,"internal_node_id":"0.0-4.0-1.51","subject_id":"606f6be3361bd05af7ab3952","study_id":"6197b3f67c2b5cd3b6d9596a","session_id":"619be58feaa98c7ccc19f21f","condition":"contingent","relevant_dimensions":["wings","legs"],"bee_group":{"antennae":"X","wings":"1","pattern":"X","legs":"F"},"bonus":0.780000000000001},{"rt":1382.800000000745,"stimulus":"bees-with-color/bee-A1DM.svg","response":1,"trial_type":"image-button-response","trial_index":111,"time_elapsed":188861,"internal_node_id":"0.0-4.0-0.52","subject_id":"606f6be3361bd05af7ab3952","study_id":"6197b3f67c2b5cd3b6d9596a","session_id":"619be58feaa98c7ccc19f21f","condition":"contingent","relevant_dimensions":["wings","legs"],"bee_group":{"antennae":"X","wings":"1","pattern":"X","legs":"F"},"action":"avoid","summary":"bad-avoid","bonus":0.780000000000001},{"rt":534.0999999977648,"stimulus":"\n                    <p><b>Action: <em>avoid</em></b></p>\n                    <p>This is the bee that you just saw.</p>\n                    <img src=\"bees-with-color/bee-A1DM.svg\" width=\"200\">\n                    <p><br>Your bonus pay is unchanged, and remains at $0.44.</p>\n            ","response":0,"trial_type":"html-button-response","trial_index":112,"time_elapsed":189397,"internal_node_id":"0.0-4.0-1.52","subject_id":"606f6be3361bd05af7ab3952","study_id":"6197b3f67c2b5cd3b6d9596a","session_id":"619be58feaa98c7ccc19f21f","condition":"contingent","relevant_dimensions":["wings","legs"],"bee_group":{"antennae":"X","wings":"1","pattern":"X","legs":"F"},"bonus":0.780000000000001},{"rt":1118.6000000014901,"stimulus":"bees-with-color/bee-B2SM.svg","response":0,"trial_type":"image-button-response","trial_index":113,"time_elapsed":190517,"internal_node_id":"0.0-4.0-0.53","subject_id":"606f6be3361bd05af7ab3952","study_id":"6197b3f67c2b5cd3b6d9596a","session_id":"619be58feaa98c7ccc19f21f","condition":"contingent","relevant_dimensions":["wings","legs"],"bee_group":{"antennae":"X","wings":"1","pattern":"X","legs":"F"},"action":"harvest","summary":"good-harvest","bonus":0.780000000000001},{"rt":550.1000000014901,"stimulus":"\n                    <p><b>Action: <em>harvest</em></b></p>\n                    <p>This is the bee that you just saw.</p>\n                    <img src=\"bees-with-color/bee-B2SM.svg\" width=\"200\">\n                    <p><span class=\"greenText\"><b>Successful harvest!</b></span><br>Your pay has increased by $0.02. Your bonus pay is now $0.46.</p>\n            ","response":0,"trial_type":"html-button-response","trial_index":114,"time_elapsed":191069,"internal_node_id":"0.0-4.0-1.53","subject_id":"606f6be3361bd05af7ab3952","study_id":"6197b3f67c2b5cd3b6d9596a","session_id":"619be58feaa98c7ccc19f21f","condition":"contingent","relevant_dimensions":["wings","legs"],"bee_group":{"antennae":"X","wings":"1","pattern":"X","legs":"F"},"bonus":0.780000000000001},{"rt":1142.2000000029802,"stimulus":"bees-with-color/bee-B2SF.svg","response":0,"trial_type":"image-button-response","trial_index":115,"time_elapsed":192213,"internal_node_id":"0.0-4.0-0.54","subject_id":"606f6be3361bd05af7ab3952","study_id":"6197b3f67c2b5cd3b6d9596a","session_id":"619be58feaa98c7ccc19f21f","condition":"contingent","relevant_dimensions":["wings","legs"],"bee_group":{"antennae":"X","wings":"1","pattern":"X","legs":"F"},"action":"harvest","summary":"good-harvest","bonus":0.780000000000001},{"rt":526.2000000029802,"stimulus":"\n                    <p><b>Action: <em>harvest</em></b></p>\n                    <p>This is the bee that you just saw.</p>\n                    <img src=\"bees-with-color/bee-B2SF.svg\" width=\"200\">\n                    <p><span class=\"greenText\"><b>Successful harvest!</b></span><br>Your pay has increased by $0.02. Your bonus pay is now $0.48.</p>\n            ","response":0,"trial_type":"html-button-response","trial_index":116,"time_elapsed":192741,"internal_node_id":"0.0-4.0-1.54","subject_id":"606f6be3361bd05af7ab3952","study_id":"6197b3f67c2b5cd3b6d9596a","session_id":"619be58feaa98c7ccc19f21f","condition":"contingent","relevant_dimensions":["wings","legs"],"bee_group":{"antennae":"X","wings":"1","pattern":"X","legs":"F"},"bonus":0.780000000000001},{"rt":974.7000000029802,"stimulus":"bees-with-color/bee-B1SF.svg","response":1,"trial_type":"image-button-response","trial_index":117,"time_elapsed":193717,"internal_node_id":"0.0-4.0-0.55","subject_id":"606f6be3361bd05af7ab3952","study_id":"6197b3f67c2b5cd3b6d9596a","session_id":"619be58feaa98c7ccc19f21f","condition":"contingent","relevant_dimensions":["wings","legs"],"bee_group":{"antennae":"X","wings":"1","pattern":"X","legs":"F"},"action":"avoid","summary":"good-avoid","bonus":0.780000000000001},{"rt":525.8000000007451,"stimulus":"\n                    <p><b>Action: <em>avoid</em></b></p>\n                    <p>This is the bee that you just saw.</p>\n                    <img src=\"bees-with-color/bee-B1SF.svg\" width=\"200\">\n                    <p><br>Your bonus pay is unchanged, and remains at $0.48.</p>\n            ","response":0,"trial_type":"html-button-response","trial_index":118,"time_elapsed":194245,"internal_node_id":"0.0-4.0-1.55","subject_id":"606f6be3361bd05af7ab3952","study_id":"6197b3f67c2b5cd3b6d9596a","session_id":"619be58feaa98c7ccc19f21f","condition":"contingent","relevant_dimensions":["wings","legs"],"bee_group":{"antennae":"X","wings":"1","pattern":"X","legs":"F"},"bonus":0.780000000000001},{"rt":1047.699999999255,"stimulus":"bees-with-color/bee-A2SM.svg","response":0,"trial_type":"image-button-response","trial_index":119,"time_elapsed":195294,"internal_node_id":"0.0-4.0-0.56","subject_id":"606f6be3361bd05af7ab3952","study_id":"6197b3f67c2b5cd3b6d9596a","session_id":"619be58feaa98c7ccc19f21f","condition":"contingent","relevant_dimensions":["wings","legs"],"bee_group":{"antennae":"X","wings":"1","pattern":"X","legs":"F"},"action":"harvest","summary":"good-harvest","bonus":0.780000000000001},{"rt":597.1999999992549,"stimulus":"\n                    <p><b>Action: <em>harvest</em></b></p>\n                    <p>This is the bee that you just saw.</p>\n                    <img src=\"bees-with-color/bee-A2SM.svg\" width=\"200\">\n                    <p><span class=\"greenText\"><b>Successful harvest!</b></span><br>Your pay has increased by $0.02. Your bonus pay is now $0.50.</p>\n            ","response":0,"trial_type":"html-button-response","trial_index":120,"time_elapsed":195893,"internal_node_id":"0.0-4.0-1.56","subject_id":"606f6be3361bd05af7ab3952","study_id":"6197b3f67c2b5cd3b6d9596a","session_id":"619be58feaa98c7ccc19f21f","condition":"contingent","relevant_dimensions":["wings","legs"],"bee_group":{"antennae":"X","wings":"1","pattern":"X","legs":"F"},"bonus":0.780000000000001},{"rt":854.3999999985099,"stimulus":"bees-with-color/bee-A1SF.svg","response":1,"trial_type":"image-button-response","trial_index":121,"time_elapsed":196749,"internal_node_id":"0.0-4.0-0.57","subject_id":"606f6be3361bd05af7ab3952","study_id":"6197b3f67c2b5cd3b6d9596a","session_id":"619be58feaa98c7ccc19f21f","condition":"contingent","relevant_dimensions":["wings","legs"],"bee_group":{"antennae":"X","wings":"1","pattern":"X","legs":"F"},"action":"avoid","summary":"good-avoid","bonus":0.780000000000001},{"rt":854.9000000022352,"stimulus":"\n                    <p><b>Action: <em>avoid</em></b></p>\n                    <p>This is the bee that you just saw.</p>\n                    <img src=\"bees-with-color/bee-A1SF.svg\" width=\"200\">\n                    <p><br>Your bonus pay is unchanged, and remains at $0.50.</p>\n            ","response":0,"trial_type":"html-button-response","trial_index":122,"time_elapsed":197606,"internal_node_id":"0.0-4.0-1.57","subject_id":"606f6be3361bd05af7ab3952","study_id":"6197b3f67c2b5cd3b6d9596a","session_id":"619be58feaa98c7ccc19f21f","condition":"contingent","relevant_dimensions":["wings","legs"],"bee_group":{"antennae":"X","wings":"1","pattern":"X","legs":"F"},"bonus":0.780000000000001},{"rt":1045.5,"stimulus":"bees-with-color/bee-A2DM.svg","response":0,"trial_type":"image-button-response","trial_index":123,"time_elapsed":198653,"internal_node_id":"0.0-4.0-0.58","subject_id":"606f6be3361bd05af7ab3952","study_id":"6197b3f67c2b5cd3b6d9596a","session_id":"619be58feaa98c7ccc19f21f","condition":"contingent","relevant_dimensions":["wings","legs"],"bee_group":{"antennae":"X","wings":"1","pattern":"X","legs":"F"},"action":"harvest","summary":"good-harvest","bonus":0.780000000000001},{"rt":694.1999999992549,"stimulus":"\n                    <p><b>Action: <em>harvest</em></b></p>\n                    <p>This is the bee that you just saw.</p>\n                    <img src=\"bees-with-color/bee-A2DM.svg\" width=\"200\">\n                    <p><span class=\"greenText\"><b>Successful harvest!</b></span><br>Your pay has increased by $0.02. Your bonus pay is now $0.52.</p>\n            ","response":0,"trial_type":"html-button-response","trial_index":124,"time_elapsed":199349,"internal_node_id":"0.0-4.0-1.58","subject_id":"606f6be3361bd05af7ab3952","study_id":"6197b3f67c2b5cd3b6d9596a","session_id":"619be58feaa98c7ccc19f21f","condition":"contingent","relevant_dimensions":["wings","legs"],"bee_group":{"antennae":"X","wings":"1","pattern":"X","legs":"F"},"bonus":0.780000000000001},{"rt":1454.9000000022352,"stimulus":"bees-with-color/bee-B1DM.svg","response":1,"trial_type":"image-button-response","trial_index":125,"time_elapsed":200805,"internal_node_id":"0.0-4.0-0.59","subject_id":"606f6be3361bd05af7ab3952","study_id":"6197b3f67c2b5cd3b6d9596a","session_id":"619be58feaa98c7ccc19f21f","condition":"contingent","relevant_dimensions":["wings","legs"],"bee_group":{"antennae":"X","wings":"1","pattern":"X","legs":"F"},"action":"avoid","summary":"bad-avoid","bonus":0.780000000000001},{"rt":478.5999999977648,"stimulus":"\n                    <p><b>Action: <em>avoid</em></b></p>\n                    <p>This is the bee that you just saw.</p>\n                    <img src=\"bees-with-color/bee-B1DM.svg\" width=\"200\">\n                    <p><br>Your bonus pay is unchanged, and remains at $0.52.</p>\n            ","response":0,"trial_type":"html-button-response","trial_index":126,"time_elapsed":201285,"internal_node_id":"0.0-4.0-1.59","subject_id":"606f6be3361bd05af7ab3952","study_id":"6197b3f67c2b5cd3b6d9596a","session_id":"619be58feaa98c7ccc19f21f","condition":"contingent","relevant_dimensions":["wings","legs"],"bee_group":{"antennae":"X","wings":"1","pattern":"X","legs":"F"},"bonus":0.780000000000001},{"rt":926.8000000007451,"stimulus":"bees-with-color/bee-A1DF.svg","response":1,"trial_type":"image-button-response","trial_index":127,"time_elapsed":202213,"internal_node_id":"0.0-4.0-0.60","subject_id":"606f6be3361bd05af7ab3952","study_id":"6197b3f67c2b5cd3b6d9596a","session_id":"619be58feaa98c7ccc19f21f","condition":"contingent","relevant_dimensions":["wings","legs"],"bee_group":{"antennae":"X","wings":"1","pattern":"X","legs":"F"},"action":"avoid","summary":"good-avoid","bonus":0.780000000000001},{"rt":518.3000000007451,"stimulus":"\n                    <p><b>Action: <em>avoid</em></b></p>\n                    <p>This is the bee that you just saw.</p>\n                    <img src=\"bees-with-color/bee-A1DF.svg\" width=\"200\">\n                    <p><br>Your bonus pay is unchanged, and remains at $0.52.</p>\n            ","response":0,"trial_type":"html-button-response","trial_index":128,"time_elapsed":202733,"internal_node_id":"0.0-4.0-1.60","subject_id":"606f6be3361bd05af7ab3952","study_id":"6197b3f67c2b5cd3b6d9596a","session_id":"619be58feaa98c7ccc19f21f","condition":"contingent","relevant_dimensions":["wings","legs"],"bee_group":{"antennae":"X","wings":"1","pattern":"X","legs":"F"},"bonus":0.780000000000001},{"rt":1870.5,"stimulus":"bees-with-color/bee-B2DF.svg","response":1,"trial_type":"image-button-response","trial_index":129,"time_elapsed":204605,"internal_node_id":"0.0-4.0-0.61","subject_id":"606f6be3361bd05af7ab3952","study_id":"6197b3f67c2b5cd3b6d9596a","session_id":"619be58feaa98c7ccc19f21f","condition":"contingent","relevant_dimensions":["wings","legs"],"bee_group":{"antennae":"X","wings":"1","pattern":"X","legs":"F"},"action":"avoid","summary":"bad-avoid","bonus":0.780000000000001},{"rt":502.3999999985099,"stimulus":"\n                    <p><b>Action: <em>avoid</em></b></p>\n                    <p>This is the bee that you just saw.</p>\n                    <img src=\"bees-with-color/bee-B2DF.svg\" width=\"200\">\n                    <p><br>Your bonus pay is unchanged, and remains at $0.52.</p>\n            ","response":0,"trial_type":"html-button-response","trial_index":130,"time_elapsed":205109,"internal_node_id":"0.0-4.0-1.61","subject_id":"606f6be3361bd05af7ab3952","study_id":"6197b3f67c2b5cd3b6d9596a","session_id":"619be58feaa98c7ccc19f21f","condition":"contingent","relevant_dimensions":["wings","legs"],"bee_group":{"antennae":"X","wings":"1","pattern":"X","legs":"F"},"bonus":0.780000000000001},{"rt":1966.800000000745,"stimulus":"bees-with-color/bee-A1SM.svg","response":0,"trial_type":"image-button-response","trial_index":131,"time_elapsed":207077,"internal_node_id":"0.0-4.0-0.62","subject_id":"606f6be3361bd05af7ab3952","study_id":"6197b3f67c2b5cd3b6d9596a","session_id":"619be58feaa98c7ccc19f21f","condition":"contingent","relevant_dimensions":["wings","legs"],"bee_group":{"antennae":"X","wings":"1","pattern":"X","legs":"F"},"action":"harvest","summary":"good-harvest","bonus":0.780000000000001},{"rt":566.5,"stimulus":"\n                    <p><b>Action: <em>harvest</em></b></p>\n                    <p>This is the bee that you just saw.</p>\n                    <img src=\"bees-with-color/bee-A1SM.svg\" width=\"200\">\n                    <p><span class=\"greenText\"><b>Successful harvest!</b></span><br>Your pay has increased by $0.02. Your bonus pay is now $0.54.</p>\n            ","response":0,"trial_type":"html-button-response","trial_index":132,"time_elapsed":207645,"internal_node_id":"0.0-4.0-1.62","subject_id":"606f6be3361bd05af7ab3952","study_id":"6197b3f67c2b5cd3b6d9596a","session_id":"619be58feaa98c7ccc19f21f","condition":"contingent","relevant_dimensions":["wings","legs"],"bee_group":{"antennae":"X","wings":"1","pattern":"X","legs":"F"},"bonus":0.780000000000001},{"rt":1454.6000000014901,"stimulus":"bees-with-color/bee-B1SM.svg","response":1,"trial_type":"image-button-response","trial_index":133,"time_elapsed":209101,"internal_node_id":"0.0-4.0-0.63","subject_id":"606f6be3361bd05af7ab3952","study_id":"6197b3f67c2b5cd3b6d9596a","session_id":"619be58feaa98c7ccc19f21f","condition":"contingent","relevant_dimensions":["wings","legs"],"bee_group":{"antennae":"X","wings":"1","pattern":"X","legs":"F"},"action":"avoid","summary":"bad-avoid","bonus":0.780000000000001},{"rt":567.3000000007451,"stimulus":"\n                    <p><b>Action: <em>avoid</em></b></p>\n                    <p>This is the bee that you just saw.</p>\n                    <img src=\"bees-with-color/bee-B1SM.svg\" width=\"200\">\n                    <p><br>Your bonus pay is unchanged, and remains at $0.54.</p>\n            ","response":0,"trial_type":"html-button-response","trial_index":134,"time_elapsed":209670,"internal_node_id":"0.0-4.0-1.63","subject_id":"606f6be3361bd05af7ab3952","study_id":"6197b3f67c2b5cd3b6d9596a","session_id":"619be58feaa98c7ccc19f21f","condition":"contingent","relevant_dimensions":["wings","legs"],"bee_group":{"antennae":"X","wings":"1","pattern":"X","legs":"F"},"bonus":0.780000000000001},{"rt":5881.199999999255,"stimulus":"You have completed the first part of this experiment.<br><br>You will now begin a shorter second part, in which you will receive no feedback.<br>The same rules regarding bonus pay apply.<br><br>Press any key to begin.","response":"c","trial_type":"html-keyboard-response","trial_index":135,"time_elapsed":215552,"internal_node_id":"0.0-5.0","subject_id":"606f6be3361bd05af7ab3952","study_id":"6197b3f67c2b5cd3b6d9596a","session_id":"619be58feaa98c7ccc19f21f","condition":"contingent","relevant_dimensions":["wings","legs"],"bee_group":{"antennae":"X","wings":"1","pattern":"X","legs":"F"},"bonus":0.780000000000001},{"rt":4340.10000000149,"stimulus":"bees-with-color/bee-B2SF.svg","response":0,"trial_type":"image-button-response","trial_index":136,"time_elapsed":219900,"internal_node_id":"0.0-6.0-0.0","subject_id":"606f6be3361bd05af7ab3952","study_id":"6197b3f67c2b5cd3b6d9596a","session_id":"619be58feaa98c7ccc19f21f","condition":"contingent","relevant_dimensions":["wings","legs"],"bee_group":{"antennae":"X","wings":"1","pattern":"X","legs":"F"},"bonus":0.780000000000001},{"rt":2429.60000000149,"stimulus":"bees-with-color/bee-A2SF.svg","response":1,"trial_type":"image-button-response","trial_index":137,"time_elapsed":222332,"internal_node_id":"0.0-6.0-0.1","subject_id":"606f6be3361bd05af7ab3952","study_id":"6197b3f67c2b5cd3b6d9596a","session_id":"619be58feaa98c7ccc19f21f","condition":"contingent","relevant_dimensions":["wings","legs"],"bee_group":{"antennae":"X","wings":"1","pattern":"X","legs":"F"},"bonus":0.780000000000001},{"rt":1102,"stimulus":"bees-with-color/bee-A1DF.svg","response":1,"trial_type":"image-button-response","trial_index":138,"time_elapsed":223436,"internal_node_id":"0.0-6.0-0.2","subject_id":"606f6be3361bd05af7ab3952","study_id":"6197b3f67c2b5cd3b6d9596a","session_id":"619be58feaa98c7ccc19f21f","condition":"contingent","relevant_dimensions":["wings","legs"],"bee_group":{"antennae":"X","wings":"1","pattern":"X","legs":"F"},"bonus":0.780000000000001},{"rt":1414.199999999255,"stimulus":"bees-with-color/bee-A2DM.svg","response":0,"trial_type":"image-button-response","trial_index":139,"time_elapsed":224852,"internal_node_id":"0.0-6.0-0.3","subject_id":"606f6be3361bd05af7ab3952","study_id":"6197b3f67c2b5cd3b6d9596a","session_id":"619be58feaa98c7ccc19f21f","condition":"contingent","relevant_dimensions":["wings","legs"],"bee_group":{"antennae":"X","wings":"1","pattern":"X","legs":"F"},"bonus":0.780000000000001},{"rt":797.7000000029802,"stimulus":"bees-with-color/bee-A1SM.svg","response":1,"trial_type":"image-button-response","trial_index":140,"time_elapsed":225652,"internal_node_id":"0.0-6.0-0.4","subject_id":"606f6be3361bd05af7ab3952","study_id":"6197b3f67c2b5cd3b6d9596a","session_id":"619be58feaa98c7ccc19f21f","condition":"contingent","relevant_dimensions":["wings","legs"],"bee_group":{"antennae":"X","wings":"1","pattern":"X","legs":"F"},"bonus":0.780000000000001},{"rt":1164.8999999985099,"stimulus":"bees-with-color/bee-B1DF.svg","response":1,"trial_type":"image-button-response","trial_index":141,"time_elapsed":226820,"internal_node_id":"0.0-6.0-0.5","subject_id":"606f6be3361bd05af7ab3952","study_id":"6197b3f67c2b5cd3b6d9596a","session_id":"619be58feaa98c7ccc19f21f","condition":"contingent","relevant_dimensions":["wings","legs"],"bee_group":{"antennae":"X","wings":"1","pattern":"X","legs":"F"},"bonus":0.780000000000001},{"rt":1646.1000000014901,"stimulus":"bees-with-color/bee-B1DM.svg","response":1,"trial_type":"image-button-response","trial_index":142,"time_elapsed":228468,"internal_node_id":"0.0-6.0-0.6","subject_id":"606f6be3361bd05af7ab3952","study_id":"6197b3f67c2b5cd3b6d9596a","session_id":"619be58feaa98c7ccc19f21f","condition":"contingent","relevant_dimensions":["wings","legs"],"bee_group":{"antennae":"X","wings":"1","pattern":"X","legs":"F"},"bonus":0.780000000000001},{"rt":974.1000000014901,"stimulus":"bees-with-color/bee-B2DF.svg","response":0,"trial_type":"image-button-response","trial_index":143,"time_elapsed":229444,"internal_node_id":"0.0-6.0-0.7","subject_id":"606f6be3361bd05af7ab3952","study_id":"6197b3f67c2b5cd3b6d9596a","session_id":"619be58feaa98c7ccc19f21f","condition":"contingent","relevant_dimensions":["wings","legs"],"bee_group":{"antennae":"X","wings":"1","pattern":"X","legs":"F"},"bonus":0.780000000000001},{"rt":3005.89999999851,"stimulus":"bees-with-color/bee-A1SF.svg","response":1,"trial_type":"image-button-response","trial_index":144,"time_elapsed":232452,"internal_node_id":"0.0-6.0-0.8","subject_id":"606f6be3361bd05af7ab3952","study_id":"6197b3f67c2b5cd3b6d9596a","session_id":"619be58feaa98c7ccc19f21f","condition":"contingent","relevant_dimensions":["wings","legs"],"bee_group":{"antennae":"X","wings":"1","pattern":"X","legs":"F"},"bonus":0.780000000000001},{"rt":3141.900000002235,"stimulus":"bees-with-color/bee-B2SM.svg","response":0,"trial_type":"image-button-response","trial_index":145,"time_elapsed":235596,"internal_node_id":"0.0-6.0-0.9","subject_id":"606f6be3361bd05af7ab3952","study_id":"6197b3f67c2b5cd3b6d9596a","session_id":"619be58feaa98c7ccc19f21f","condition":"contingent","relevant_dimensions":["wings","legs"],"bee_group":{"antennae":"X","wings":"1","pattern":"X","legs":"F"},"bonus":0.780000000000001},{"rt":1069.8999999985099,"stimulus":"bees-with-color/bee-B2DM.svg","response":0,"trial_type":"image-button-response","trial_index":146,"time_elapsed":236668,"internal_node_id":"0.0-6.0-0.10","subject_id":"606f6be3361bd05af7ab3952","study_id":"6197b3f67c2b5cd3b6d9596a","session_id":"619be58feaa98c7ccc19f21f","condition":"contingent","relevant_dimensions":["wings","legs"],"bee_group":{"antennae":"X","wings":"1","pattern":"X","legs":"F"},"bonus":0.780000000000001},{"rt":822.6000000014901,"stimulus":"bees-with-color/bee-A2DF.svg","response":1,"trial_type":"image-button-response","trial_index":147,"time_elapsed":237492,"internal_node_id":"0.0-6.0-0.11","subject_id":"606f6be3361bd05af7ab3952","study_id":"6197b3f67c2b5cd3b6d9596a","session_id":"619be58feaa98c7ccc19f21f","condition":"contingent","relevant_dimensions":["wings","legs"],"bee_group":{"antennae":"X","wings":"1","pattern":"X","legs":"F"},"bonus":0.780000000000001},{"rt":902,"stimulus":"bees-with-color/bee-B1SF.svg","response":1,"trial_type":"image-button-response","trial_index":148,"time_elapsed":238396,"internal_node_id":"0.0-6.0-0.12","subject_id":"606f6be3361bd05af7ab3952","study_id":"6197b3f67c2b5cd3b6d9596a","session_id":"619be58feaa98c7ccc19f21f","condition":"contingent","relevant_dimensions":["wings","legs"],"bee_group":{"antennae":"X","wings":"1","pattern":"X","legs":"F"},"bonus":0.780000000000001},{"rt":2798.39999999851,"stimulus":"bees-with-color/bee-A1DM.svg","response":1,"trial_type":"image-button-response","trial_index":149,"time_elapsed":241196,"internal_node_id":"0.0-6.0-0.13","subject_id":"606f6be3361bd05af7ab3952","study_id":"6197b3f67c2b5cd3b6d9596a","session_id":"619be58feaa98c7ccc19f21f","condition":"contingent","relevant_dimensions":["wings","legs"],"bee_group":{"antennae":"X","wings":"1","pattern":"X","legs":"F"},"bonus":0.780000000000001},{"rt":1053.800000000745,"stimulus":"bees-with-color/bee-A2SM.svg","response":0,"trial_type":"image-button-response","trial_index":150,"time_elapsed":242252,"internal_node_id":"0.0-6.0-0.14","subject_id":"606f6be3361bd05af7ab3952","study_id":"6197b3f67c2b5cd3b6d9596a","session_id":"619be58feaa98c7ccc19f21f","condition":"contingent","relevant_dimensions":["wings","legs"],"bee_group":{"antennae":"X","wings":"1","pattern":"X","legs":"F"},"bonus":0.780000000000001},{"rt":750.2000000029802,"stimulus":"bees-with-color/bee-B1SM.svg","response":1,"trial_type":"image-button-response","trial_index":151,"time_elapsed":243004,"internal_node_id":"0.0-6.0-0.15","subject_id":"606f6be3361bd05af7ab3952","study_id":"6197b3f67c2b5cd3b6d9596a","session_id":"619be58feaa98c7ccc19f21f","condition":"contingent","relevant_dimensions":["wings","legs"],"bee_group":{"antennae":"X","wings":"1","pattern":"X","legs":"F"},"bonus":0.780000000000001},{"rt":1158.5,"stimulus":"bees-with-color/bee-B2SM.svg","response":0,"trial_type":"image-button-response","trial_index":152,"time_elapsed":244164,"internal_node_id":"0.0-6.0-0.16","subject_id":"606f6be3361bd05af7ab3952","study_id":"6197b3f67c2b5cd3b6d9596a","session_id":"619be58feaa98c7ccc19f21f","condition":"contingent","relevant_dimensions":["wings","legs"],"bee_group":{"antennae":"X","wings":"1","pattern":"X","legs":"F"},"bonus":0.780000000000001},{"rt":942.3999999985099,"stimulus":"bees-with-color/bee-A2DM.svg","response":1,"trial_type":"image-button-response","trial_index":153,"time_elapsed":245108,"internal_node_id":"0.0-6.0-0.17","subject_id":"606f6be3361bd05af7ab3952","study_id":"6197b3f67c2b5cd3b6d9596a","session_id":"619be58feaa98c7ccc19f21f","condition":"contingent","relevant_dimensions":["wings","legs"],"bee_group":{"antennae":"X","wings":"1","pattern":"X","legs":"F"},"bonus":0.780000000000001},{"rt":1134.300000000745,"stimulus":"bees-with-color/bee-A1DF.svg","response":1,"trial_type":"image-button-response","trial_index":154,"time_elapsed":246244,"internal_node_id":"0.0-6.0-0.18","subject_id":"606f6be3361bd05af7ab3952","study_id":"6197b3f67c2b5cd3b6d9596a","session_id":"619be58feaa98c7ccc19f21f","condition":"contingent","relevant_dimensions":["wings","legs"],"bee_group":{"antennae":"X","wings":"1","pattern":"X","legs":"F"},"bonus":0.780000000000001},{"rt":933.8999999985099,"stimulus":"bees-with-color/bee-B2SF.svg","response":0,"trial_type":"image-button-response","trial_index":155,"time_elapsed":247180,"internal_node_id":"0.0-6.0-0.19","subject_id":"606f6be3361bd05af7ab3952","study_id":"6197b3f67c2b5cd3b6d9596a","session_id":"619be58feaa98c7ccc19f21f","condition":"contingent","relevant_dimensions":["wings","legs"],"bee_group":{"antennae":"X","wings":"1","pattern":"X","legs":"F"},"bonus":0.780000000000001},{"rt":973.8000000007451,"stimulus":"bees-with-color/bee-A2SF.svg","response":1,"trial_type":"image-button-response","trial_index":156,"time_elapsed":248156,"internal_node_id":"0.0-6.0-0.20","subject_id":"606f6be3361bd05af7ab3952","study_id":"6197b3f67c2b5cd3b6d9596a","session_id":"619be58feaa98c7ccc19f21f","condition":"contingent","relevant_dimensions":["wings","legs"],"bee_group":{"antennae":"X","wings":"1","pattern":"X","legs":"F"},"bonus":0.780000000000001},{"rt":1526.9000000022352,"stimulus":"bees-with-color/bee-B1SF.svg","response":1,"trial_type":"image-button-response","trial_index":157,"time_elapsed":249684,"internal_node_id":"0.0-6.0-0.21","subject_id":"606f6be3361bd05af7ab3952","study_id":"6197b3f67c2b5cd3b6d9596a","session_id":"619be58feaa98c7ccc19f21f","condition":"contingent","relevant_dimensions":["wings","legs"],"bee_group":{"antennae":"X","wings":"1","pattern":"X","legs":"F"},"bonus":0.780000000000001},{"rt":1022,"stimulus":"bees-with-color/bee-B1SM.svg","response":1,"trial_type":"image-button-response","trial_index":158,"time_elapsed":250708,"internal_node_id":"0.0-6.0-0.22","subject_id":"606f6be3361bd05af7ab3952","study_id":"6197b3f67c2b5cd3b6d9596a","session_id":"619be58feaa98c7ccc19f21f","condition":"contingent","relevant_dimensions":["wings","legs"],"bee_group":{"antennae":"X","wings":"1","pattern":"X","legs":"F"},"bonus":0.780000000000001},{"rt":918.4000000022352,"stimulus":"bees-with-color/bee-B2DM.svg","response":0,"trial_type":"image-button-response","trial_index":159,"time_elapsed":251628,"internal_node_id":"0.0-6.0-0.23","subject_id":"606f6be3361bd05af7ab3952","study_id":"6197b3f67c2b5cd3b6d9596a","session_id":"619be58feaa98c7ccc19f21f","condition":"contingent","relevant_dimensions":["wings","legs"],"bee_group":{"antennae":"X","wings":"1","pattern":"X","legs":"F"},"bonus":0.780000000000001},{"rt":695.5999999977648,"stimulus":"bees-with-color/bee-B1DF.svg","response":1,"trial_type":"image-button-response","trial_index":160,"time_elapsed":252325,"internal_node_id":"0.0-6.0-0.24","subject_id":"606f6be3361bd05af7ab3952","study_id":"6197b3f67c2b5cd3b6d9596a","session_id":"619be58feaa98c7ccc19f21f","condition":"contingent","relevant_dimensions":["wings","legs"],"bee_group":{"antennae":"X","wings":"1","pattern":"X","legs":"F"},"bonus":0.780000000000001},{"rt":1653.6000000014901,"stimulus":"bees-with-color/bee-B2DF.svg","response":0,"trial_type":"image-button-response","trial_index":161,"time_elapsed":253980,"internal_node_id":"0.0-6.0-0.25","subject_id":"606f6be3361bd05af7ab3952","study_id":"6197b3f67c2b5cd3b6d9596a","session_id":"619be58feaa98c7ccc19f21f","condition":"contingent","relevant_dimensions":["wings","legs"],"bee_group":{"antennae":"X","wings":"1","pattern":"X","legs":"F"},"bonus":0.780000000000001},{"rt":1053.800000000745,"stimulus":"bees-with-color/bee-A1SM.svg","response":1,"trial_type":"image-button-response","trial_index":162,"time_elapsed":255036,"internal_node_id":"0.0-6.0-0.26","subject_id":"606f6be3361bd05af7ab3952","study_id":"6197b3f67c2b5cd3b6d9596a","session_id":"619be58feaa98c7ccc19f21f","condition":"contingent","relevant_dimensions":["wings","legs"],"bee_group":{"antennae":"X","wings":"1","pattern":"X","legs":"F"},"bonus":0.780000000000001},{"rt":2022.300000000745,"stimulus":"bees-with-color/bee-B1DM.svg","response":1,"trial_type":"image-button-response","trial_index":163,"time_elapsed":257061,"internal_node_id":"0.0-6.0-0.27","subject_id":"606f6be3361bd05af7ab3952","study_id":"6197b3f67c2b5cd3b6d9596a","session_id":"619be58feaa98c7ccc19f21f","condition":"contingent","relevant_dimensions":["wings","legs"],"bee_group":{"antennae":"X","wings":"1","pattern":"X","legs":"F"},"bonus":0.780000000000001},{"rt":773.8999999985099,"stimulus":"bees-with-color/bee-A1DM.svg","response":1,"trial_type"