[{"success":true,"trial_type":"fullscreen","trial_index":0,"time_elapsed":266504,"internal_node_id":"0.0-0.0","subject_id":"60087e9189ddb34b79b08be5","study_id":"6197b3f67c2b5cd3b6d9596a","session_id":"6197c17eb11e3b230720b00d","condition":"full-information","relevant_dimensions":["wings","pattern"],"bee_group":{"antennae":"X","wings":"1","pattern":"S","legs":"X"},"bonus":0.02},{"success":true,"timeout":false,"failed_images":[],"failed_audio":[],"failed_video":[],"trial_type":"preload","trial_index":1,"time_elapsed":268356,"internal_node_id":"0.0-1.0","subject_id":"60087e9189ddb34b79b08be5","study_id":"6197b3f67c2b5cd3b6d9596a","session_id":"6197c17eb11e3b230720b00d","condition":"full-information","relevant_dimensions":["wings","pattern"],"bee_group":{"antennae":"X","wings":"1","pattern":"S","legs":"X"},"bonus":0.02},{"rt":1603.7999999998137,"stimulus":"Welcome! Press any key to begin.","response":"g","trial_type":"html-keyboard-response","trial_index":2,"time_elapsed":269960,"internal_node_id":"0.0-2.0","subject_id":"60087e9189ddb34b79b08be5","study_id":"6197b3f67c2b5cd3b6d9596a","session_id":"6197c17eb11e3b230720b00d","condition":"full-information","relevant_dimensions":["wings","pattern"],"bee_group":{"antennae":"X","wings":"1","pattern":"S","legs":"X"},"bonus":0.02},{"view_history":[{"page_index":0,"viewing_time":6223.199999999721},{"page_index":1,"viewing_time":7256},{"page_index":2,"viewing_time":12232},{"page_index":3,"viewing_time":14248},{"page_index":4,"viewing_time":5112},{"page_index":5,"viewing_time":3576},{"page_index":6,"viewing_time":4335.899999999907},{"page_index":7,"viewing_time":2800.2000000001863},{"page_index":8,"viewing_time":2632},{"page_index":9,"viewing_time":2239.899999999907},{"page_index":10,"viewing_time":1608.7000000001863},{"page_index":11,"viewing_time":4583.299999999814},{"page_index":12,"viewing_time":5952},{"page_index":13,"viewing_time":1072},{"page_index":14,"viewing_time":1056.2000000001863}],"rt":74927.69999999972,"trial_type":"instructions","trial_index":3,"time_elapsed":344885,"internal_node_id":"0.0-3.0-0.0","subject_id":"60087e9189ddb34b79b08be5","study_id":"6197b3f67c2b5cd3b6d9596a","session_id":"6197c17eb11e3b230720b00d","condition":"full-information","relevant_dimensions":["wings","pattern"],"bee_group":{"antennae":"X","wings":"1","pattern":"S","legs":"X"},"bonus":0.02},{"rt":9414.200000000186,"response":{"Q0":["Two or six legs","Stripes or spots on body","Single or double wings","Antennae or no antennae"]},"question_order":[0],"trial_type":"survey-multi-select","trial_index":4,"time_elapsed":354302,"internal_node_id":"0.0-3.0-1.0","subject_id":"60087e9189ddb34b79b08be5","study_id":"6197b3f67c2b5cd3b6d9596a","session_id":"6197c17eb11e3b230720b00d","condition":"full-information","relevant_dimensions":["wings","pattern"],"bee_group":{"antennae":"X","wings":"1","pattern":"S","legs":"X"},"correct":true,"bonus":0.02},{"rt":13294.30000000028,"response":{"Q1":"No.","Q2":"Based on the four features of the bee.","Q3":"You learn if it was friendly or dangerous, but do not alter your bonus."},"question_order":[0,1,2],"trial_type":"survey-multi-choice","trial_index":5,"time_elapsed":367597,"internal_node_id":"0.0-3.0-2.0","subject_id":"60087e9189ddb34b79b08be5","study_id":"6197b3f67c2b5cd3b6d9596a","session_id":"6197c17eb11e3b230720b00d","condition":"full-information","relevant_dimensions":["wings","pattern"],"bee_group":{"antennae":"X","wings":"1","pattern":"S","legs":"X"},"correct":true,"bonus":0.02},{"rt":1814.8999999999069,"stimulus":"<p>Congrats, you got everything right<br>When you're ready, click the button below to continue to the experiment.</p>","response":0,"trial_type":"html-button-response","trial_index":6,"time_elapsed":369413,"internal_node_id":"0.0-3.0-3.0","subject_id":"60087e9189ddb34b79b08be5","study_id":"6197b3f67c2b5cd3b6d9596a","session_id":"6197c17eb11e3b230720b00d","condition":"full-information","relevant_dimensions":["wings","pattern"],"bee_group":{"antennae":"X","wings":"1","pattern":"S","legs":"X"},"bonus":0.02},{"rt":3182.399999999907,"stimulus":"bees-with-color/bee-B1DF.svg","response":1,"trial_type":"image-button-response","trial_index":7,"time_elapsed":372597,"internal_node_id":"0.0-4.0-0.0","subject_id":"60087e9189ddb34b79b08be5","study_id":"6197b3f67c2b5cd3b6d9596a","session_id":"6197c17eb11e3b230720b00d","condition":"full-information","relevant_dimensions":["wings","pattern"],"bee_group":{"antennae":"X","wings":"1","pattern":"S","legs":"X"},"action":"avoid","summary":"bad-avoid","bonus":0.02},{"rt":5326.399999999907,"stimulus":"\n                    <p><b>Action: <em>avoid</em></b></p>\n                    <p>This is the bee that you just saw.</p>\n                    <img src=\"bees-with-color/bee-B1DF.svg\" width=\"200\">\n                    <p><span class=\"redText\">Bad choice,</span> the bee was friendly.<br>Your bonus pay is unchanged, and remains at $0.54.</p>\n            ","response":0,"trial_type":"html-button-response","trial_index":8,"time_elapsed":377925,"internal_node_id":"0.0-4.0-1.0","subject_id":"60087e9189ddb34b79b08be5","study_id":"6197b3f67c2b5cd3b6d9596a","session_id":"6197c17eb11e3b230720b00d","condition":"full-information","relevant_dimensions":["wings","pattern"],"bee_group":{"antennae":"X","wings":"1","pattern":"S","legs":"X"},"bonus":0.02},{"rt":1391.1000000000931,"stimulus":"bees-with-color/bee-A1DM.svg","response":1,"trial_type":"image-button-response","trial_index":9,"time_elapsed":379318,"internal_node_id":"0.0-4.0-0.1","subject_id":"60087e9189ddb34b79b08be5","study_id":"6197b3f67c2b5cd3b6d9596a","session_id":"6197c17eb11e3b230720b00d","condition":"full-information","relevant_dimensions":["wings","pattern"],"bee_group":{"antennae":"X","wings":"1","pattern":"S","legs":"X"},"action":"avoid","summary":"bad-avoid","bonus":0.02},{"rt":2006.2999999998137,"stimulus":"\n                    <p><b>Action: <em>avoid</em></b></p>\n                    <p>This is the bee that you just saw.</p>\n                    <img src=\"bees-with-color/bee-A1DM.svg\" width=\"200\">\n                    <p><span class=\"redText\">Bad choice,</span> the bee was friendly.<br>Your bonus pay is unchanged, and remains at $0.54.</p>\n            ","response":0,"trial_type":"html-button-response","trial_index":10,"time_elapsed":381325,"internal_node_id":"0.0-4.0-1.1","subject_id":"60087e9189ddb34b79b08be5","study_id":"6197b3f67c2b5cd3b6d9596a","session_id":"6197c17eb11e3b230720b00d","condition":"full-information","relevant_dimensions":["wings","pattern"],"bee_group":{"antennae":"X","wings":"1","pattern":"S","legs":"X"},"bonus":0.02},{"rt":1030.6999999997206,"stimulus":"bees-with-color/bee-A1DF.svg","response":1,"trial_type":"image-button-response","trial_index":11,"time_elapsed":382359,"internal_node_id":"0.0-4.0-0.2","subject_id":"60087e9189ddb34b79b08be5","study_id":"6197b3f67c2b5cd3b6d9596a","session_id":"6197c17eb11e3b230720b00d","condition":"full-information","relevant_dimensions":["wings","pattern"],"bee_group":{"antennae":"X","wings":"1","pattern":"S","legs":"X"},"action":"avoid","summary":"bad-avoid","bonus":0.02},{"rt":1166.7999999998137,"stimulus":"\n                    <p><b>Action: <em>avoid</em></b></p>\n                    <p>This is the bee that you just saw.</p>\n                    <img src=\"bees-with-color/bee-A1DF.svg\" width=\"200\">\n                    <p><span class=\"redText\">Bad choice,</span> the bee was friendly.<br>Your bonus pay is unchanged, and remains at $0.54.</p>\n            ","response":0,"trial_type":"html-button-response","trial_index":12,"time_elapsed":383527,"internal_node_id":"0.0-4.0-1.2","subject_id":"60087e9189ddb34b79b08be5","study_id":"6197b3f67c2b5cd3b6d9596a","session_id":"6197c17eb11e3b230720b00d","condition":"full-information","relevant_dimensions":["wings","pattern"],"bee_group":{"antennae":"X","wings":"1","pattern":"S","legs":"X"},"bonus":0.02},{"rt":694.6999999997206,"stimulus":"bees-with-color/bee-B1SM.svg","response":0,"trial_type":"image-button-response","trial_index":13,"time_elapsed":384223,"internal_node_id":"0.0-4.0-0.3","subject_id":"60087e9189ddb34b79b08be5","study_id":"6197b3f67c2b5cd3b6d9596a","session_id":"6197c17eb11e3b230720b00d","condition":"full-information","relevant_dimensions":["wings","pattern"],"bee_group":{"antennae":"X","wings":"1","pattern":"S","legs":"X"},"action":"harvest","summary":"bad-harvest","bonus":0.02},{"rt":2982.5999999996275,"stimulus":"\n                    <p><b>Action: <em>harvest</em></b></p>\n                    <p>This is the bee that you just saw.</p>\n                    <img src=\"bees-with-color/bee-B1SM.svg\" width=\"200\">\n                    <p><span class=\"redText\">Bad choice, the bee was angry.</span><br><b>You have been stung!</b><br>Your pay has been decreased by $0.10. Your bonus pay is now $0.44.</p>\n            ","response":0,"trial_type":"html-button-response","trial_index":14,"time_elapsed":387207,"internal_node_id":"0.0-4.0-1.3","subject_id":"60087e9189ddb34b79b08be5","study_id":"6197b3f67c2b5cd3b6d9596a","session_id":"6197c17eb11e3b230720b00d","condition":"full-information","relevant_dimensions":["wings","pattern"],"bee_group":{"antennae":"X","wings":"1","pattern":"S","legs":"X"},"bonus":0.02},{"rt":975,"stimulus":"bees-with-color/bee-B2SM.svg","response":1,"trial_type":"image-button-response","trial_index":15,"time_elapsed":388183,"internal_node_id":"0.0-4.0-0.4","subject_id":"60087e9189ddb34b79b08be5","study_id":"6197b3f67c2b5cd3b6d9596a","session_id":"6197c17eb11e3b230720b00d","condition":"full-information","relevant_dimensions":["wings","pattern"],"bee_group":{"antennae":"X","wings":"1","pattern":"S","legs":"X"},"action":"avoid","summary":"bad-avoid","bonus":0.02},{"rt":1678.7999999998137,"stimulus":"\n                    <p><b>Action: <em>avoid</em></b></p>\n                    <p>This is the bee that you just saw.</p>\n                    <img src=\"bees-with-color/bee-B2SM.svg\" width=\"200\">\n                    <p><span class=\"redText\">Bad choice,</span> the bee was friendly.<br>Your bonus pay is unchanged, and remains at $0.44.</p>\n            ","response":0,"trial_type":"html-button-response","trial_index":16,"time_elapsed":389863,"internal_node_id":"0.0-4.0-1.4","subject_id":"60087e9189ddb34b79b08be5","study_id":"6197b3f67c2b5cd3b6d9596a","session_id":"6197c17eb11e3b230720b00d","condition":"full-information","relevant_dimensions":["wings","pattern"],"bee_group":{"antennae":"X","wings":"1","pattern":"S","legs":"X"},"bonus":0.02},{"rt":926.5,"stimulus":"bees-with-color/bee-B2SF.svg","response":0,"trial_type":"image-button-response","trial_index":17,"time_elapsed":390791,"internal_node_id":"0.0-4.0-0.5","subject_id":"60087e9189ddb34b79b08be5","study_id":"6197b3f67c2b5cd3b6d9596a","session_id":"6197c17eb11e3b230720b00d","condition":"full-information","relevant_dimensions":["wings","pattern"],"bee_group":{"antennae":"X","wings":"1","pattern":"S","legs":"X"},"action":"harvest","summary":"good-harvest","bonus":0.02},{"rt":2519.3000000002794,"stimulus":"\n                    <p><b>Action: <em>harvest</em></b></p>\n                    <p>This is the bee that you just saw.</p>\n                    <img src=\"bees-with-color/bee-B2SF.svg\" width=\"200\">\n                    <p><span class=\"greenText\"><b>Successful harvest!</b></span><br>Your pay has increased by $0.02. Your bonus pay is now $0.46.</p>\n            ","response":0,"trial_type":"html-button-response","trial_index":18,"time_elapsed":393311,"internal_node_id":"0.0-4.0-1.5","subject_id":"60087e9189ddb34b79b08be5","study_id":"6197b3f67c2b5cd3b6d9596a","session_id":"6197c17eb11e3b230720b00d","condition":"full-information","relevant_dimensions":["wings","pattern"],"bee_group":{"antennae":"X","wings":"1","pattern":"S","legs":"X"},"bonus":0.02},{"rt":1486.6999999997206,"stimulus":"bees-with-color/bee-A2SF.svg","response":1,"trial_type":"image-button-response","trial_index":19,"time_elapsed":394799,"internal_node_id":"0.0-4.0-0.6","subject_id":"60087e9189ddb34b79b08be5","study_id":"6197b3f67c2b5cd3b6d9596a","session_id":"6197c17eb11e3b230720b00d","condition":"full-information","relevant_dimensions":["wings","pattern"],"bee_group":{"antennae":"X","wings":"1","pattern":"S","legs":"X"},"action":"avoid","summary":"bad-avoid","bonus":0.02},{"rt":1215.1000000000931,"stimulus":"\n                    <p><b>Action: <em>avoid</em></b></p>\n                    <p>This is the bee that you just saw.</p>\n                    <img src=\"bees-with-color/bee-A2SF.svg\" width=\"200\">\n                    <p><span class=\"redText\">Bad choice,</span> the bee was friendly.<br>Your bonus pay is unchanged, and remains at $0.46.</p>\n            ","response":0,"trial_type":"html-button-response","trial_index":20,"time_elapsed":396015,"internal_node_id":"0.0-4.0-1.6","subject_id":"60087e9189ddb34b79b08be5","study_id":"6197b3f67c2b5cd3b6d9596a","session_id":"6197c17eb11e3b230720b00d","condition":"full-information","relevant_dimensions":["wings","pattern"],"bee_group":{"antennae":"X","wings":"1","pattern":"S","legs":"X"},"bonus":0.02},{"rt":822.6999999997206,"stimulus":"bees-with-color/bee-A1SF.svg","response":0,"trial_type":"image-button-response","trial_index":21,"time_elapsed":396839,"internal_node_id":"0.0-4.0-0.7","subject_id":"60087e9189ddb34b79b08be5","study_id":"6197b3f67c2b5cd3b6d9596a","session_id":"6197c17eb11e3b230720b00d","condition":"full-information","relevant_dimensions":["wings","pattern"],"bee_group":{"antennae":"X","wings":"1","pattern":"S","legs":"X"},"action":"harvest","summary":"bad-harvest","bonus":0.02},{"rt":1038.8999999999069,"stimulus":"\n                    <p><b>Action: <em>harvest</em></b></p>\n                    <p>This is the bee that you just saw.</p>\n                    <img src=\"bees-with-color/bee-A1SF.svg\" width=\"200\">\n                    <p><span class=\"redText\">Bad choice, the bee was angry.</span><br><b>You have been stung!</b><br>Your pay has been decreased by $0.10. Your bonus pay is now $0.36.</p>\n            ","response":0,"trial_type":"html-button-response","trial_index":22,"time_elapsed":397879,"internal_node_id":"0.0-4.0-1.7","subject_id":"60087e9189ddb34b79b08be5","study_id":"6197b3f67c2b5cd3b6d9596a","session_id":"6197c17eb11e3b230720b00d","condition":"full-information","relevant_dimensions":["wings","pattern"],"bee_group":{"antennae":"X","wings":"1","pattern":"S","legs":"X"},"bonus":0.02},{"rt":478.89999999990687,"stimulus":"bees-with-color/bee-B2DM.svg","response":1,"trial_type":"image-button-response","trial_index":23,"time_elapsed":398359,"internal_node_id":"0.0-4.0-0.8","subject_id":"60087e9189ddb34b79b08be5","study_id":"6197b3f67c2b5cd3b6d9596a","session_id":"6197c17eb11e3b230720b00d","condition":"full-information","relevant_dimensions":["wings","pattern"],"bee_group":{"antennae":"X","wings":"1","pattern":"S","legs":"X"},"action":"avoid","summary":"bad-avoid","bonus":0.02},{"rt":1463,"stimulus":"\n                    <p><b>Action: <em>avoid</em></b></p>\n                    <p>This is the bee that you just saw.</p>\n                    <img src=\"bees-with-color/bee-B2DM.svg\" width=\"200\">\n                    <p><span class=\"redText\">Bad choice,</span> the bee was friendly.<br>Your bonus pay is unchanged, and remains at $0.36.</p>\n            ","response":0,"trial_type":"html-button-response","trial_index":24,"time_elapsed":399823,"internal_node_id":"0.0-4.0-1.8","subject_id":"60087e9189ddb34b79b08be5","study_id":"6197b3f67c2b5cd3b6d9596a","session_id":"6197c17eb11e3b230720b00d","condition":"full-information","relevant_dimensions":["wings","pattern"],"bee_group":{"antennae":"X","wings":"1","pattern":"S","legs":"X"},"bonus":0.02},{"rt":623.1000000000931,"stimulus":"bees-with-color/bee-A2DM.svg","response":1,"trial_type":"image-button-response","trial_index":25,"time_elapsed":400447,"internal_node_id":"0.0-4.0-0.9","subject_id":"60087e9189ddb34b79b08be5","study_id":"6197b3f67c2b5cd3b6d9596a","session_id":"6197c17eb11e3b230720b00d","condition":"full-information","relevant_dimensions":["wings","pattern"],"bee_group":{"antennae":"X","wings":"1","pattern":"S","legs":"X"},"action":"avoid","summary":"bad-avoid","bonus":0.02},{"rt":894.6999999997206,"stimulus":"\n                    <p><b>Action: <em>avoid</em></b></p>\n                    <p>This is the bee that you just saw.</p>\n                    <img src=\"bees-with-color/bee-A2DM.svg\" width=\"200\">\n                    <p><span class=\"redText\">Bad choice,</span> the bee was friendly.<br>Your bonus pay is unchanged, and remains at $0.36.</p>\n            ","response":0,"trial_type":"html-button-response","trial_index":26,"time_elapsed":401343,"internal_node_id":"0.0-4.0-1.9","subject_id":"60087e9189ddb34b79b08be5","study_id":"6197b3f67c2b5cd3b6d9596a","session_id":"6197c17eb11e3b230720b00d","condition":"full-information","relevant_dimensions":["wings","pattern"],"bee_group":{"antennae":"X","wings":"1","pattern":"S","legs":"X"},"bonus":0.02},{"rt":679.2999999998137,"stimulus":"bees-with-color/bee-A2SM.svg","response":1,"trial_type":"image-button-response","trial_index":27,"time_elapsed":402023,"internal_node_id":"0.0-4.0-0.10","subject_id":"60087e9189ddb34b79b08be5","study_id":"6197b3f67c2b5cd3b6d9596a","session_id":"6197c17eb11e3b230720b00d","condition":"full-information","relevant_dimensions":["wings","pattern"],"bee_group":{"antennae":"X","wings":"1","pattern":"S","legs":"X"},"action":"avoid","summary":"bad-avoid","bonus":0.02},{"rt":774.8999999999069,"stimulus":"\n                    <p><b>Action: <em>avoid</em></b></p>\n                    <p>This is the bee that you just saw.</p>\n                    <img src=\"bees-with-color/bee-A2SM.svg\" width=\"200\">\n                    <p><span class=\"redText\">Bad choice,</span> the bee was friendly.<br>Your bonus pay is unchanged, and remains at $0.36.</p>\n            ","response":0,"trial_type":"html-button-response","trial_index":28,"time_elapsed":402799,"internal_node_id":"0.0-4.0-1.10","subject_id":"60087e9189ddb34b79b08be5","study_id":"6197b3f67c2b5cd3b6d9596a","session_id":"6197c17eb11e3b230720b00d","condition":"full-information","relevant_dimensions":["wings","pattern"],"bee_group":{"antennae":"X","wings":"1","pattern":"S","legs":"X"},"bonus":0.02},{"rt":1151,"stimulus":"bees-with-color/bee-B1SF.svg","response":0,"trial_type":"image-button-response","trial_index":29,"time_elapsed":403951,"internal_node_id":"0.0-4.0-0.11","subject_id":"60087e9189ddb34b79b08be5","study_id":"6197b3f67c2b5cd3b6d9596a","session_id":"6197c17eb11e3b230720b00d","condition":"full-information","relevant_dimensions":["wings","pattern"],"bee_group":{"antennae":"X","wings":"1","pattern":"S","legs":"X"},"action":"harvest","summary":"bad-harvest","bonus":0.02},{"rt":1806.0999999996275,"stimulus":"\n                    <p><b>Action: <em>harvest</em></b></p>\n                    <p>This is the bee that you just saw.</p>\n                    <img src=\"bees-with-color/bee-B1SF.svg\" width=\"200\">\n                    <p><span class=\"redText\">Bad choice, the bee was angry.</span><br><b>You have been stung!</b><br>Your pay has been decreased by $0.10. Your bonus pay is now $0.26.</p>\n            ","response":0,"trial_type":"html-button-response","trial_index":30,"time_elapsed":405759,"internal_node_id":"0.0-4.0-1.11","subject_id":"60087e9189ddb34b79b08be5","study_id":"6197b3f67c2b5cd3b6d9596a","session_id":"6197c17eb11e3b230720b00d","condition":"full-information","relevant_dimensions":["wings","pattern"],"bee_group":{"antennae":"X","wings":"1","pattern":"S","legs":"X"},"bonus":0.02},{"rt":494.79999999981374,"stimulus":"bees-with-color/bee-B2DF.svg","response":0,"trial_type":"image-button-response","trial_index":31,"time_elapsed":406255,"internal_node_id":"0.0-4.0-0.12","subject_id":"60087e9189ddb34b79b08be5","study_id":"6197b3f67c2b5cd3b6d9596a","session_id":"6197c17eb11e3b230720b00d","condition":"full-information","relevant_dimensions":["wings","pattern"],"bee_group":{"antennae":"X","wings":"1","pattern":"S","legs":"X"},"action":"harvest","summary":"good-harvest","bonus":0.02},{"rt":902.7999999998137,"stimulus":"\n                    <p><b>Action: <em>harvest</em></b></p>\n                    <p>This is the bee that you just saw.</p>\n                    <img src=\"bees-with-color/bee-B2DF.svg\" width=\"200\">\n                    <p><span class=\"greenText\"><b>Successful harvest!</b></span><br>Your pay has increased by $0.02. Your bonus pay is now $0.28.</p>\n            ","response":0,"trial_type":"html-button-response","trial_index":32,"time_elapsed":407159,"internal_node_id":"0.0-4.0-1.12","subject_id":"60087e9189ddb34b79b08be5","study_id":"6197b3f67c2b5cd3b6d9596a","session_id":"6197c17eb11e3b230720b00d","condition":"full-information","relevant_dimensions":["wings","pattern"],"bee_group":{"antennae":"X","wings":"1","pattern":"S","legs":"X"},"bonus":0.02},{"rt":519.2000000001863,"stimulus":"bees-with-color/bee-B1DM.svg","response":0,"trial_type":"image-button-response","trial_index":33,"time_elapsed":407679,"internal_node_id":"0.0-4.0-0.13","subject_id":"60087e9189ddb34b79b08be5","study_id":"6197b3f67c2b5cd3b6d9596a","session_id":"6197c17eb11e3b230720b00d","condition":"full-information","relevant_dimensions":["wings","pattern"],"bee_group":{"antennae":"X","wings":"1","pattern":"S","legs":"X"},"action":"harvest","summary":"good-harvest","bonus":0.02},{"rt":750.7999999998137,"stimulus":"\n                    <p><b>Action: <em>harvest</em></b></p>\n                    <p>This is the bee that you just saw.</p>\n                    <img src=\"bees-with-color/bee-B1DM.svg\" width=\"200\">\n                    <p><span class=\"greenText\"><b>Successful harvest!</b></span><br>Your pay has increased by $0.02. Your bonus pay is now $0.30.</p>\n            ","response":0,"trial_type":"html-button-response","trial_index":34,"time_elapsed":408431,"internal_node_id":"0.0-4.0-1.13","subject_id":"60087e9189ddb34b79b08be5","study_id":"6197b3f67c2b5cd3b6d9596a","session_id":"6197c17eb11e3b230720b00d","condition":"full-information","relevant_dimensions":["wings","pattern"],"bee_group":{"antennae":"X","wings":"1","pattern":"S","legs":"X"},"bonus":0.02},{"rt":759,"stimulus":"bees-with-color/bee-A1SM.svg","response":0,"trial_type":"image-button-response","trial_index":35,"time_elapsed":409191,"internal_node_id":"0.0-4.0-0.14","subject_id":"60087e9189ddb34b79b08be5","study_id":"6197b3f67c2b5cd3b6d9596a","session_id":"6197c17eb11e3b230720b00d","condition":"full-information","relevant_dimensions":["wings","pattern"],"bee_group":{"antennae":"X","wings":"1","pattern":"S","legs":"X"},"action":"harvest","summary":"bad-harvest","bonus":0.02},{"rt":822.8999999999069,"stimulus":"\n                    <p><b>Action: <em>harvest</em></b></p>\n                    <p>This is the bee that you just saw.</p>\n                    <img src=\"bees-with-color/bee-A1SM.svg\" width=\"200\">\n                    <p><span class=\"redText\">Bad choice, the bee was angry.</span><br><b>You have been stung!</b><br>Your pay has been decreased by $0.10. Your bonus pay is now $0.20.</p>\n            ","response":0,"trial_type":"html-button-response","trial_index":36,"time_elapsed":410015,"internal_node_id":"0.0-4.0-1.14","subject_id":"60087e9189ddb34b79b08be5","study_id":"6197b3f67c2b5cd3b6d9596a","session_id":"6197c17eb11e3b230720b00d","condition":"full-information","relevant_dimensions":["wings","pattern"],"bee_group":{"antennae":"X","wings":"1","pattern":"S","legs":"X"},"bonus":0.02},{"rt":414.89999999990687,"stimulus":"bees-with-color/bee-A2DF.svg","response":0,"trial_type":"image-button-response","trial_index":37,"time_elapsed":410431,"internal_node_id":"0.0-4.0-0.15","subject_id":"60087e9189ddb34b79b08be5","study_id":"6197b3f67c2b5cd3b6d9596a","session_id":"6197c17eb11e3b230720b00d","condition":"full-information","relevant_dimensions":["wings","pattern"],"bee_group":{"antennae":"X","wings":"1","pattern":"S","legs":"X"},"action":"harvest","summary":"good-harvest","bonus":0.02},{"rt":639.1000000000931,"stimulus":"\n                    <p><b>Action: <em>harvest</em></b></p>\n                    <p>This is the bee that you just saw.</p>\n                    <img src=\"bees-with-color/bee-A2DF.svg\" width=\"200\">\n                    <p><span class=\"greenText\"><b>Successful harvest!</b></span><br>Your pay has increased by $0.02. Your bonus pay is now $0.22.</p>\n            ","response":0,"trial_type":"html-button-response","trial_index":38,"time_elapsed":411071,"internal_node_id":"0.0-4.0-1.15","subject_id":"60087e9189ddb34b79b08be5","study_id":"6197b3f67c2b5cd3b6d9596a","session_id":"6197c17eb11e3b230720b00d","condition":"full-information","relevant_dimensions":["wings","pattern"],"bee_group":{"antennae":"X","wings":"1","pattern":"S","legs":"X"},"bonus":0.02},{"rt":454.89999999990687,"stimulus":"bees-with-color/bee-B1SM.svg","response":1,"trial_type":"image-button-response","trial_index":39,"time_elapsed":411527,"internal_node_id":"0.0-4.0-0.16","subject_id":"60087e9189ddb34b79b08be5","study_id":"6197b3f67c2b5cd3b6d9596a","session_id":"6197c17eb11e3b230720b00d","condition":"full-information","relevant_dimensions":["wings","pattern"],"bee_group":{"antennae":"X","wings":"1","pattern":"S","legs":"X"},"action":"avoid","summary":"good-avoid","bonus":0.02},{"rt":887.1000000000931,"stimulus":"\n                    <p><b>Action: <em>avoid</em></b></p>\n                    <p>This is the bee that you just saw.</p>\n                    <img src=\"bees-with-color/bee-B1SM.svg\" width=\"200\">\n                    <p><span class=\"greenText\">Good choice!</span>  This bee would have stung you.<br>Your bonus pay is unchanged, and remains at $0.22.</p>\n            ","response":0,"trial_type":"html-button-response","trial_index":40,"time_elapsed":412415,"internal_node_id":"0.0-4.0-1.16","subject_id":"60087e9189ddb34b79b08be5","study_id":"6197b3f67c2b5cd3b6d9596a","session_id":"6197c17eb11e3b230720b00d","condition":"full-information","relevant_dimensions":["wings","pattern"],"bee_group":{"antennae":"X","wings":"1","pattern":"S","legs":"X"},"bonus":0.02},{"rt":575.0999999996275,"stimulus":"bees-with-color/bee-A2SM.svg","response":1,"trial_type":"image-button-response","trial_index":41,"time_elapsed":412991,"internal_node_id":"0.0-4.0-0.17","subject_id":"60087e9189ddb34b79b08be5","study_id":"6197b3f67c2b5cd3b6d9596a","session_id":"6197c17eb11e3b230720b00d","condition":"full-information","relevant_dimensions":["wings","pattern"],"bee_group":{"antennae":"X","wings":"1","pattern":"S","legs":"X"},"action":"avoid","summary":"bad-avoid","bonus":0.02},{"rt":911.1999999997206,"stimulus":"\n                    <p><b>Action: <em>avoid</em></b></p>\n                    <p>This is the bee that you just saw.</p>\n                    <img src=\"bees-with-color/bee-A2SM.svg\" width=\"200\">\n                    <p><span class=\"redText\">Bad choice,</span> the bee was friendly.<br>Your bonus pay is unchanged, and remains at $0.22.</p>\n            ","response":0,"trial_type":"html-button-response","trial_index":42,"time_elapsed":413903,"internal_node_id":"0.0-4.0-1.17","subject_id":"60087e9189ddb34b79b08be5","study_id":"6197b3f67c2b5cd3b6d9596a","session_id":"6197c17eb11e3b230720b00d","condition":"full-information","relevant_dimensions":["wings","pattern"],"bee_group":{"antennae":"X","wings":"1","pattern":"S","legs":"X"},"bonus":0.02},{"rt":454.89999999990687,"stimulus":"bees-with-color/bee-B2DM.svg","response":1,"trial_type":"image-button-response","trial_index":43,"time_elapsed":414359,"internal_node_id":"0.0-4.0-0.18","subject_id":"60087e9189ddb34b79b08be5","study_id":"6197b3f67c2b5cd3b6d9596a","session_id":"6197c17eb11e3b230720b00d","condition":"full-information","relevant_dimensions":["wings","pattern"],"bee_group":{"antennae":"X","wings":"1","pattern":"S","legs":"X"},"action":"avoid","summary":"bad-avoid","bonus":0.02},{"rt":751.1999999997206,"stimulus":"\n                    <p><b>Action: <em>avoid</em></b></p>\n                    <p>This is the bee that you just saw.</p>\n                    <img src=\"bees-with-color/bee-B2DM.svg\" width=\"200\">\n                    <p><span class=\"redText\">Bad choice,</span> the bee was friendly.<br>Your bonus pay is unchanged, and remains at $0.22.</p>\n            ","response":0,"trial_type":"html-button-response","trial_index":44,"time_elapsed":415111,"internal_node_id":"0.0-4.0-1.18","subject_id":"60087e9189ddb34b79b08be5","study_id":"6197b3f67c2b5cd3b6d9596a","session_id":"6197c17eb11e3b230720b00d","condition":"full-information","relevant_dimensions":["wings","pattern"],"bee_group":{"antennae":"X","wings":"1","pattern":"S","legs":"X"},"bonus":0.02},{"rt":727.0999999996275,"stimulus":"bees-with-color/bee-B1SF.svg","response":1,"trial_type":"image-button-response","trial_index":45,"time_elapsed":415839,"internal_node_id":"0.0-4.0-0.19","subject_id":"60087e9189ddb34b79b08be5","study_id":"6197b3f67c2b5cd3b6d9596a","session_id":"6197c17eb11e3b230720b00d","condition":"full-information","relevant_dimensions":["wings","pattern"],"bee_group":{"antennae":"X","wings":"1","pattern":"S","legs":"X"},"action":"avoid","summary":"good-avoid","bonus":0.02},{"rt":671.1000000000931,"stimulus":"\n                    <p><b>Action: <em>avoid</em></b></p>\n                    <p>This is the bee that you just saw.</p>\n                    <img src=\"bees-with-color/bee-B1SF.svg\" width=\"200\">\n                    <p><span class=\"greenText\">Good choice!</span>  This bee would have stung you.<br>Your bonus pay is unchanged, and remains at $0.22.</p>\n            ","response":0,"trial_type":"html-button-response","trial_index":46,"time_elapsed":416511,"internal_node_id":"0.0-4.0-1.19","subject_id":"60087e9189ddb34b79b08be5","study_id":"6197b3f67c2b5cd3b6d9596a","session_id":"6197c17eb11e3b230720b00d","condition":"full-information","relevant_dimensions":["wings","pattern"],"bee_group":{"antennae":"X","wings":"1","pattern":"S","legs":"X"},"bonus":0.02},{"rt":583.1999999997206,"stimulus":"bees-with-color/bee-B2SM.svg","response":0,"trial_type":"image-button-response","trial_index":47,"time_elapsed":417095,"internal_node_id":"0.0-4.0-0.20","subject_id":"60087e9189ddb34b79b08be5","study_id":"6197b3f67c2b5cd3b6d9596a","session_id":"6197c17eb11e3b230720b00d","condition":"full-information","relevant_dimensions":["wings","pattern"],"bee_group":{"antennae":"X","wings":"1","pattern":"S","legs":"X"},"action":"harvest","summary":"good-harvest","bonus":0.02},{"rt":806.9000000003725,"stimulus":"\n                    <p><b>Action: <em>harvest</em></b></p>\n                    <p>This is the bee that you just saw.</p>\n                    <img src=\"bees-with-color/bee-B2SM.svg\" width=\"200\">\n                    <p><span class=\"greenText\"><b>Successful harvest!</b></span><br>Your pay has increased by $0.02. Your bonus pay is now $0.24.</p>\n            ","response":0,"trial_type":"html-button-response","trial_index":48,"time_elapsed":417903,"internal_node_id":"0.0-4.0-1.20","subject_id":"60087e9189ddb34b79b08be5","study_id":"6197b3f67c2b5cd3b6d9596a","session_id":"6197c17eb11e3b230720b00d","condition":"full-information","relevant_dimensions":["wings","pattern"],"bee_group":{"antennae":"X","wings":"1","pattern":"S","legs":"X"},"bonus":0.02},{"rt":423.39999999990687,"stimulus":"bees-with-color/bee-A1DM.svg","response":0,"trial_type":"image-button-response","trial_index":49,"time_elapsed":418327,"internal_node_id":"0.0-4.0-0.21","subject_id":"60087e9189ddb34b79b08be5","study_id":"6197b3f67c2b5cd3b6d9596a","session_id":"6197c17eb11e3b230720b00d","condition":"full-information","relevant_dimensions":["wings","pattern"],"bee_group":{"antennae":"X","wings":"1","pattern":"S","legs":"X"},"action":"harvest","summary":"good-harvest","bonus":0.02},{"rt":663.4000000003725,"stimulus":"\n                    <p><b>Action: <em>harvest</em></b></p>\n                    <p>This is the bee that you just saw.</p>\n                    <img src=\"bees-with-color/bee-A1DM.svg\" width=\"200\">\n                    <p><span class=\"greenText\"><b>Successful harvest!</b></span><br>Your pay has increased by $0.02. Your bonus pay is now $0.26.</p>\n            ","response":0,"trial_type":"html-button-response","trial_index":50,"time_elapsed":418991,"internal_node_id":"0.0-4.0-1.21","subject_id":"60087e9189ddb34b79b08be5","study_id":"6197b3f67c2b5cd3b6d9596a","session_id":"6197c17eb11e3b230720b00d","condition":"full-information","relevant_dimensions":["wings","pattern"],"bee_group":{"antennae":"X","wings":"1","pattern":"S","legs":"X"},"bonus":0.02},{"rt":1046.8999999999069,"stimulus":"bees-with-color/bee-B2SF.svg","response":0,"trial_type":"image-button-response","trial_index":51,"time_elapsed":420039,"internal_node_id":"0.0-4.0-0.22","subject_id":"60087e9189ddb34b79b08be5","study_id":"6197b3f67c2b5cd3b6d9596a","session_id":"6197c17eb11e3b230720b00d","condition":"full-information","relevant_dimensions":["wings","pattern"],"bee_group":{"antennae":"X","wings":"1","pattern":"S","legs":"X"},"action":"harvest","summary":"good-harvest","bonus":0.02},{"rt":919.1000000000931,"stimulus":"\n                    <p><b>Action: <em>harvest</em></b></p>\n                    <p>This is the bee that you just saw.</p>\n                    <img src=\"bees-with-color/bee-B2SF.svg\" width=\"200\">\n                    <p><span class=\"greenText\"><b>Successful harvest!</b></span><br>Your pay has increased by $0.02. Your bonus pay is now $0.28.</p>\n            ","response":0,"trial_type":"html-button-response","trial_index":52,"time_elapsed":420959,"internal_node_id":"0.0-4.0-1.22","subject_id":"60087e9189ddb34b79b08be5","study_id":"6197b3f67c2b5cd3b6d9596a","session_id":"6197c17eb11e3b230720b00d","condition":"full-information","relevant_dimensions":["wings","pattern"],"bee_group":{"antennae":"X","wings":"1","pattern":"S","legs":"X"},"bonus":0.02},{"rt":478.89999999990687,"stimulus":"bees-with-color/bee-A2SF.svg","response":0,"trial_type":"image-button-response","trial_index":53,"time_elapsed":421439,"internal_node_id":"0.0-4.0-0.23","subject_id":"60087e9189ddb34b79b08be5","study_id":"6197b3f67c2b5cd3b6d9596a","session_id":"6197c17eb11e3b230720b00d","condition":"full-information","relevant_dimensions":["wings","pattern"],"bee_group":{"antennae":"X","wings":"1","pattern":"S","legs":"X"},"action":"harvest","summary":"good-harvest","bonus":0.02},{"rt":870.8999999999069,"stimulus":"\n                    <p><b>Action: <em>harvest</em></b></p>\n                    <p>This is the bee that you just saw.</p>\n                    <img src=\"bees-with-color/bee-A2SF.svg\" width=\"200\">\n                    <p><span class=\"greenText\"><b>Successful harvest!</b></span><br>Your pay has increased by $0.02. Your bonus pay is now $0.30.</p>\n            ","response":0,"trial_type":"html-button-response","trial_index":54,"time_elapsed":422311,"internal_node_id":"0.0-4.0-1.23","subject_id":"60087e9189ddb34b79b08be5","study_id":"6197b3f67c2b5cd3b6d9596a","session_id":"6197c17eb11e3b230720b00d","condition":"full-information","relevant_dimensions":["wings","pattern"],"bee_group":{"antennae":"X","wings":"1","pattern":"S","legs":"X"},"bonus":0.02},{"rt":599.0999999996275,"stimulus":"bees-with-color/bee-A2DF.svg","response":1,"trial_type":"image-button-response","trial_index":55,"time_elapsed":422911,"internal_node_id":"0.0-4.0-0.24","subject_id":"60087e9189ddb34b79b08be5","study_id":"6197b3f67c2b5cd3b6d9596a","session_id":"6197c17eb11e3b230720b00d","condition":"full-information","relevant_dimensions":["wings","pattern"],"bee_group":{"antennae":"X","wings":"1","pattern":"S","legs":"X"},"action":"avoid","summary":"bad-avoid","bonus":0.02},{"rt":702.7999999998137,"stimulus":"\n                    <p><b>Action: <em>avoid</em></b></p>\n                    <p>This is the bee that you just saw.</p>\n                    <img src=\"bees-with-color/bee-A2DF.svg\" width=\"200\">\n                    <p><span class=\"redText\">Bad choice,</span> the bee was friendly.<br>Your bonus pay is unchanged, and remains at $0.30.</p>\n            ","response":0,"trial_type":"html-button-response","trial_index":56,"time_elapsed":423615,"internal_node_id":"0.0-4.0-1.24","subject_id":"60087e9189ddb34b79b08be5","study_id":"6197b3f67c2b5cd3b6d9596a","session_id":"6197c17eb11e3b230720b00d","condition":"full-information","relevant_dimensions":["wings","pattern"],"bee_group":{"antennae":"X","wings":"1","pattern":"S","legs":"X"},"bonus":0.02},{"rt":455,"stimulus":"bees-with-color/bee-A2DM.svg","response":1,"trial_type":"image-button-response","trial_index":57,"time_elapsed":424071,"internal_node_id":"0.0-4.0-0.25","subject_id":"60087e9189ddb34b79b08be5","study_id":"6197b3f67c2b5cd3b6d9596a","session_id":"6197c17eb11e3b230720b00d","condition":"full-information","relevant_dimensions":["wings","pattern"],"bee_group":{"antennae":"X","wings":"1","pattern":"S","legs":"X"},"action":"avoid","summary":"bad-avoid","bonus":0.02},{"rt":606.8999999999069,"stimulus":"\n                    <p><b>Action: <em>avoid</em></b></p>\n                    <p>This is the bee that you just saw.</p>\n                    <img src=\"bees-with-color/bee-A2DM.svg\" width=\"200\">\n                    <p><span class=\"redText\">Bad choice,</span> the bee was friendly.<br>Your bonus pay is unchanged, and remains at $0.30.</p>\n            ","response":0,"trial_type":"html-button-response","trial_index":58,"time_elapsed":424679,"internal_node_id":"0.0-4.0-1.25","subject_id":"60087e9189ddb34b79b08be5","study_id":"6197b3f67c2b5cd3b6d9596a","session_id":"6197c17eb11e3b230720b00d","condition":"full-information","relevant_dimensions":["wings","pattern"],"bee_group":{"antennae":"X","wings":"1","pattern":"S","legs":"X"},"bonus":0.02},{"rt":463.20000000018626,"stimulus":"bees-with-color/bee-A1SM.svg","response":0,"trial_type":"image-button-response","trial_index":59,"time_elapsed":425143,"internal_node_id":"0.0-4.0-0.26","subject_id":"60087e9189ddb34b79b08be5","study_id":"6197b3f67c2b5cd3b6d9596a","session_id":"6197c17eb11e3b230720b00d","condition":"full-information","relevant_dimensions":["wings","pattern"],"bee_group":{"antennae":"X","wings":"1","pattern":"S","legs":"X"},"action":"harvest","summary":"bad-harvest","bonus":0.02},{"rt":958.7999999998137,"stimulus":"\n                    <p><b>Action: <em>harvest</em></b></p>\n                    <p>This is the bee that you just saw.</p>\n                    <img src=\"bees-with-color/bee-A1SM.svg\" width=\"200\">\n                    <p><span class=\"redText\">Bad choice, the bee was angry.</span><br><b>You have been stung!</b><br>Your pay has been decreased by $0.10. Your bonus pay is now $0.20.</p>\n            ","response":0,"trial_type":"html-button-response","trial_index":60,"time_elapsed":426103,"internal_node_id":"0.0-4.0-1.26","subject_id":"60087e9189ddb34b79b08be5","study_id":"6197b3f67c2b5cd3b6d9596a","session_id":"6197c17eb11e3b230720b00d","condition":"full-information","relevant_dimensions":["wings","pattern"],"bee_group":{"antennae":"X","wings":"1","pattern":"S","legs":"X"},"bonus":0.02},{"rt":487,"stimulus":"bees-with-color/bee-A1DF.svg","response":1,"trial_type":"image-button-response","trial_index":61,"time_elapsed":426591,"internal_node_id":"0.0-4.0-0.27","subject_id":"60087e9189ddb34b79b08be5","study_id":"6197b3f67c2b5cd3b6d9596a","session_id":"6197c17eb11e3b230720b00d","condition":"full-information","relevant_dimensions":["wings","pattern"],"bee_group":{"antennae":"X","wings":"1","pattern":"S","legs":"X"},"action":"avoid","summary":"bad-avoid","bonus":0.02},{"rt":631,"stimulus":"\n                    <p><b>Action: <em>avoid</em></b></p>\n                    <p>This is the bee that you just saw.</p>\n                    <img src=\"bees-with-color/bee-A1DF.svg\" width=\"200\">\n                    <p><span class=\"redText\">Bad choice,</span> the bee was friendly.<br>Your bonus pay is unchanged, and remains at $0.20.</p>\n            ","response":0,"trial_type":"html-button-response","trial_index":62,"time_elapsed":427223,"internal_node_id":"0.0-4.0-1.27","subject_id":"60087e9189ddb34b79b08be5","study_id":"6197b3f67c2b5cd3b6d9596a","session_id":"6197c17eb11e3b230720b00d","condition":"full-information","relevant_dimensions":["wings","pattern"],"bee_group":{"antennae":"X","wings":"1","pattern":"S","legs":"X"},"bonus":0.02},{"rt":407.5,"stimulus":"bees-with-color/bee-B1DM.svg","response":0,"trial_type":"image-button-response","trial_index":63,"time_elapsed":427631,"internal_node_id":"0.0-4.0-0.28","subject_id":"60087e9189ddb34b79b08be5","study_id":"6197b3f67c2b5cd3b6d9596a","session_id":"6197c17eb11e3b230720b00d","condition":"full-information","relevant_dimensions":["wings","pattern"],"bee_group":{"antennae":"X","wings":"1","pattern":"S","legs":"X"},"action":"harvest","summary":"good-harvest","bonus":0.02},{"rt":679,"stimulus":"\n                    <p><b>Action: <em>harvest</em></b></p>\n                    <p>This is the bee that you just saw.</p>\n                    <img src=\"bees-with-color/bee-B1DM.svg\" width=\"200\">\n                    <p><span class=\"greenText\"><b>Successful harvest!</b></span><br>Your pay has increased by $0.02. Your bonus pay is now $0.22.</p>\n            ","response":0,"trial_type":"html-button-response","trial_index":64,"time_elapsed":428311,"internal_node_id":"0.0-4.0-1.28","subject_id":"60087e9189ddb34b79b08be5","study_id":"6197b3f67c2b5cd3b6d9596a","session_id":"6197c17eb11e3b230720b00d","condition":"full-information","relevant_dimensions":["wings","pattern"],"bee_group":{"antennae":"X","wings":"1","pattern":"S","legs":"X"},"bonus":0.02},{"rt":423.09999999962747,"stimulus":"bees-with-color/bee-B2DF.svg","response":0,"trial_type":"image-button-response","trial_index":65,"time_elapsed":428735,"internal_node_id":"0.0-4.0-0.29","subject_id":"60087e9189ddb34b79b08be5","study_id":"6197b3f67c2b5cd3b6d9596a","session_id":"6197c17eb11e3b230720b00d","condition":"full-information","relevant_dimensions":["wings","pattern"],"bee_group":{"antennae":"X","wings":"1","pattern":"S","legs":"X"},"action":"harvest","summary":"good-harvest","bonus":0.02},{"rt":551.0999999996275,"stimulus":"\n                    <p><b>Action: <em>harvest</em></b></p>\n                    <p>This is the bee that you just saw.</p>\n                    <img src=\"bees-with-color/bee-B2DF.svg\" width=\"200\">\n                    <p><span class=\"greenText\"><b>Successful harvest!</b></span><br>Your pay has increased by $0.02. Your bonus pay is now $0.24.</p>\n            ","response":0,"trial_type":"html-button-response","trial_index":66,"time_elapsed":429287,"internal_node_id":"0.0-4.0-1.29","subject_id":"60087e9189ddb34b79b08be5","study_id":"6197b3f67c2b5cd3b6d9596a","session_id":"6197c17eb11e3b230720b00d","condition":"full-information","relevant_dimensions":["wings","pattern"],"bee_group":{"antennae":"X","wings":"1","pattern":"S","legs":"X"},"bonus":0.02},{"rt":383.29999999981374,"stimulus":"bees-with-color/bee-B1DF.svg","response":0,"trial_type":"image-button-response","trial_index":67,"time_elapsed":429671,"internal_node_id":"0.0-4.0-0.30","subject_id":"60087e9189ddb34b79b08be5","study_id":"6197b3f67c2b5cd3b6d9596a","session_id":"6197c17eb11e3b230720b00d","condition":"full-information","relevant_dimensions":["wings","pattern"],"bee_group":{"antennae":"X","wings":"1","pattern":"S","legs":"X"},"action":"harvest","summary":"good-harvest","bonus":0.02},{"rt":511,"stimulus":"\n                    <p><b>Action: <em>harvest</em></b></p>\n                    <p>This is the bee that you just saw.</p>\n                    <img src=\"bees-with-color/bee-B1DF.svg\" width=\"200\">\n                    <p><span class=\"greenText\"><b>Successful harvest!</b></span><br>Your pay has increased by $0.02. Your bonus pay is now $0.26.</p>\n            ","response":0,"trial_type":"html-button-response","trial_index":68,"time_elapsed":430183,"internal_node_id":"0.0-4.0-1.30","subject_id":"60087e9189ddb34b79b08be5","study_id":"6197b3f67c2b5cd3b6d9596a","session_id":"6197c17eb11e3b230720b00d","condition":"full-information","relevant_dimensions":["wings","pattern"],"bee_group":{"antennae":"X","wings":"1","pattern":"S","legs":"X"},"bonus":0.02},{"rt":415.09999999962747,"stimulus":"bees-with-color/bee-A1SF.svg","response":0,"trial_type":"image-button-response","trial_index":69,"time_elapsed":430599,"internal_node_id":"0.0-4.0-0.31","subject_id":"60087e9189ddb34b79b08be5","study_id":"6197b3f67c2b5cd3b6d9596a","session_id":"6197c17eb11e3b230720b00d","condition":"full-information","relevant_dimensions":["wings","pattern"],"bee_group":{"antennae":"X","wings":"1","pattern":"S","legs":"X"},"action":"harvest","summary":"bad-harvest","bonus":0.02},{"rt":1271.0999999996275,"stimulus":"\n                    <p><b>Action: <em>harvest</em></b></p>\n                    <p>This is the bee that you just saw.</p>\n                    <img src=\"bees-with-color/bee-A1SF.svg\" width=\"200\">\n                    <p><span class=\"redText\">Bad choice, the bee was angry.</span><br><b>You have been stung!</b><br>Your pay has been decreased by $0.10. Your bonus pay is now $0.16.</p>\n            ","response":0,"trial_type":"html-button-response","trial_index":70,"time_elapsed":431871,"internal_node_id":"0.0-4.0-1.31","subject_id":"60087e9189ddb34b79b08be5","study_id":"6197b3f67c2b5cd3b6d9596a","session_id":"6197c17eb11e3b230720b00d","condition":"full-information","relevant_dimensions":["wings","pattern"],"bee_group":{"antennae":"X","wings":"1","pattern":"S","legs":"X"},"bonus":0.02},{"rt":663.0999999996275,"stimulus":"bees-with-color/bee-A1DF.svg","response":0,"trial_type":"image-button-response","trial_index":71,"time_elapsed":432535,"internal_node_id":"0.0-4.0-0.32","subject_id":"60087e9189ddb34b79b08be5","study_id":"6197b3f67c2b5cd3b6d9596a","session_id":"6197c17eb11e3b230720b00d","condition":"full-information","relevant_dimensions":["wings","pattern"],"bee_group":{"antennae":"X","wings":"1","pattern":"S","legs":"X"},"action":"harvest","summary":"good-harvest","bonus":0.02},{"rt":503,"stimulus":"\n                    <p><b>Action: <em>harvest</em></b></p>\n                    <p>This is the bee that you just saw.</p>\n                    <img src=\"bees-with-color/bee-A1DF.svg\" width=\"200\">\n                    <p><span class=\"greenText\"><b>Successful harvest!</b></span><br>Your pay has increased by $0.02. Your bonus pay is now $0.18.</p>\n            ","response":0,"trial_type":"html-button-response","trial_index":72,"time_elapsed":433039,"internal_node_id":"0.0-4.0-1.32","subject_id":"60087e9189ddb34b79b08be5","study_id":"6197b3f67c2b5cd3b6d9596a","session_id":"6197c17eb11e3b230720b00d","condition":"full-information","relevant_dimensions":["wings","pattern"],"bee_group":{"antennae":"X","wings":"1","pattern":"S","legs":"X"},"bonus":0.02},{"rt":407.29999999981374,"stimulus":"bees-with-color/bee-A1SM.svg","response":0,"trial_type":"image-button-response","trial_index":73,"time_elapsed":433447,"internal_node_id":"0.0-4.0-0.33","subject_id":"60087e9189ddb34b79b08be5","study_id":"6197b3f67c2b5cd3b6d9596a","session_id":"6197c17eb11e3b230720b00d","condition":"full-information","relevant_dimensions":["wings","pattern"],"bee_group":{"antennae":"X","wings":"1","pattern":"S","legs":"X"},"action":"harvest","summary":"bad-harvest","bonus":0.02},{"rt":630.8000000002794,"stimulus":"\n                    <p><b>Action: <em>harvest</em></b></p>\n                    <p>This is the bee that you just saw.</p>\n                    <img src=\"bees-with-color/bee-A1SM.svg\" width=\"200\">\n                    <p><span class=\"redText\">Bad choice, the bee was angry.</span><br><b>You have been stung!</b><br>Your pay has been decreased by $0.10. Your bonus pay is now $0.08.</p>\n            ","response":0,"trial_type":"html-button-response","trial_index":74,"time_elapsed":434079,"internal_node_id":"0.0-4.0-1.33","subject_id":"60087e9189ddb34b79b08be5","study_id":"6197b3f67c2b5cd3b6d9596a","session_id":"6197c17eb11e3b230720b00d","condition":"full-information","relevant_dimensions":["wings","pattern"],"bee_group":{"antennae":"X","wings":"1","pattern":"S","legs":"X"},"bonus":0.02},{"rt":367.39999999990687,"stimulus":"bees-with-color/bee-B2DM.svg","response":0,"trial_type":"image-button-response","trial_index":75,"time_elapsed":434447,"internal_node_id":"0.0-4.0-0.34","subject_id":"60087e9189ddb34b79b08be5","study_id":"6197b3f67c2b5cd3b6d9596a","session_id":"6197c17eb11e3b230720b00d","condition":"full-information","relevant_dimensions":["wings","pattern"],"bee_group":{"antennae":"X","wings":"1","pattern":"S","legs":"X"},"action":"harvest","summary":"good-harvest","bonus":0.02},{"rt":759.1000000000931,"stimulus":"\n                    <p><b>Action: <em>harvest</em></b></p>\n                    <p>This is the bee that you just saw.</p>\n                    <img src=\"bees-with-color/bee-B2DM.svg\" width=\"200\">\n                    <p><span class=\"greenText\"><b>Successful harvest!</b></span><br>Your pay has increased by $0.02. Your bonus pay is now $0.10.</p>\n            ","response":0,"trial_type":"html-button-response","trial_index":76,"time_elapsed":435207,"internal_node_id":"0.0-4.0-1.34","subject_id":"60087e9189ddb34b79b08be5","study_id":"6197b3f67c2b5cd3b6d9596a","session_id":"6197c17eb11e3b230720b00d","condition":"full-information","relevant_dimensions":["wings","pattern"],"bee_group":{"antennae":"X","wings":"1","pattern":"S","legs":"X"},"bonus":0.02},{"rt":407,"stimulus":"bees-with-color/bee-B1SF.svg","response":1,"trial_type":"image-button-response","trial_index":77,"time_elapsed":435615,"internal_node_id":"0.0-4.0-0.35","subject_id":"60087e9189ddb34b79b08be5","study_id":"6197b3f67c2b5cd3b6d9596a","session_id":"6197c17eb11e3b230720b00d","condition":"full-information","relevant_dimensions":["wings","pattern"],"bee_group":{"antennae":"X","wings":"1","pattern":"S","legs":"X"},"action":"avoid","summary":"good-avoid","bonus":0.02},{"rt":775.1000000000931,"stimulus":"\n                    <p><b>Action: <em>avoid</em></b></p>\n                    <p>This is the bee that you just saw.</p>\n                    <img src=\"bees-with-color/bee-B1SF.svg\" width=\"200\">\n                    <p><span class=\"greenText\">Good choice!</span>  This bee would have stung you.<br>Your bonus pay is unchanged, and remains at $0.10.</p>\n            ","response":0,"trial_type":"html-button-response","trial_index":78,"time_elapsed":436391,"internal_node_id":"0.0-4.0-1.35","subject_id":"60087e9189ddb34b79b08be5","study_id":"6197b3f67c2b5cd3b6d9596a","session_id":"6197c17eb11e3b230720b00d","condition":"full-information","relevant_dimensions":["wings","pattern"],"bee_group":{"antennae":"X","wings":"1","pattern":"S","legs":"X"},"bonus":0.02},{"rt":407.10000000009313,"stimulus":"bees-with-color/bee-A2DF.svg","response":1,"trial_type":"image-button-response","trial_index":79,"time_elapsed":436799,"internal_node_id":"0.0-4.0-0.36","subject_id":"60087e9189ddb34b79b08be5","study_id":"6197b3f67c2b5cd3b6d9596a","session_id":"6197c17eb11e3b230720b00d","condition":"full-information","relevant_dimensions":["wings","pattern"],"bee_group":{"antennae":"X","wings":"1","pattern":"S","legs":"X"},"action":"avoid","summary":"bad-avoid","bonus":0.02},{"rt":774.7999999998137,"stimulus":"\n                    <p><b>Action: <em>avoid</em></b></p>\n                    <p>This is the bee that you just saw.</p>\n                    <img src=\"bees-with-color/bee-A2DF.svg\" width=\"200\">\n                    <p><span class=\"redText\">Bad choice,</span> the bee was friendly.<br>Your bonus pay is unchanged, and remains at $0.10.</p>\n            ","response":0,"trial_type":"html-button-response","trial_index":80,"time_elapsed":437575,"internal_node_id":"0.0-4.0-1.36","subject_id":"60087e9189ddb34b79b08be5","study_id":"6197b3f67c2b5cd3b6d9596a","session_id":"6197c17eb11e3b230720b00d","condition":"full-information","relevant_dimensions":["wings","pattern"],"bee_group":{"antennae":"X","wings":"1","pattern":"S","legs":"X"},"bonus":0.02},{"rt":638.8999999999069,"stimulus":"bees-with-color/bee-B2SM.svg","response":1,"trial_type":"image-button-response","trial_index":81,"time_elapsed":438215,"internal_node_id":"0.0-4.0-0.37","subject_id":"60087e9189ddb34b79b08be5","study_id":"6197b3f67c2b5cd3b6d9596a","session_id":"6197c17eb11e3b230720b00d","condition":"full-information","relevant_dimensions":["wings","pattern"],"bee_group":{"antennae":"X","wings":"1","pattern":"S","legs":"X"},"action":"avoid","summary":"bad-avoid","bonus":0.02},{"rt":607,"stimulus":"\n                    <p><b>Action: <em>avoid</em></b></p>\n                    <p>This is the bee that you just saw.</p>\n                    <img src=\"bees-with-color/bee-B2SM.svg\" width=\"200\">\n                    <p><span class=\"redText\">Bad choice,</span> the bee was friendly.<br>Your bonus pay is unchanged, and remains at $0.10.</p>\n            ","response":0,"trial_type":"html-button-response","trial_index":82,"time_elapsed":438823,"internal_node_id":"0.0-4.0-1.37","subject_id":"60087e9189ddb34b79b08be5","study_id":"6197b3f67c2b5cd3b6d9596a","session_id":"6197c17eb11e3b230720b00d","condition":"full-information","relevant_dimensions":["wings","pattern"],"bee_group":{"antennae":"X","wings":"1","pattern":"S","legs":"X"},"bonus":0.02},{"rt":463.10000000009313,"stimulus":"bees-with-color/bee-B2SF.svg","response":1,"trial_type":"image-button-response","trial_index":83,"time_elapsed":439287,"internal_node_id":"0.0-4.0-0.38","subject_id":"60087e9189ddb34b79b08be5","study_id":"6197b3f67c2b5cd3b6d9596a","session_id":"6197c17eb11e3b230720b00d","condition":"full-information","relevant_dimensions":["wings","pattern"],"bee_group":{"antennae":"X","wings":"1","pattern":"S","legs":"X"},"action":"avoid","summary":"bad-avoid","bonus":0.02},{"rt":1798.8999999999069,"stimulus":"\n                    <p><b>Action: <em>avoid</em></b></p>\n                    <p>This is the bee that you just saw.</p>\n                    <img src=\"bees-with-color/bee-B2SF.svg\" width=\"200\">\n                    <p><span class=\"redText\">Bad choice,</span> the bee was friendly.<br>Your bonus pay is unchanged, and remains at $0.10.</p>\n            ","response":0,"trial_type":"html-button-response","trial_index":84,"time_elapsed":441087,"internal_node_id":"0.0-4.0-1.38","subject_id":"60087e9189ddb34b79b08be5","study_id":"6197b3f67c2b5cd3b6d9596a","session_id":"6197c17eb11e3b230720b00d","condition":"full-information","relevant_dimensions":["wings","pattern"],"bee_group":{"antennae":"X","wings":"1","pattern":"S","legs":"X"},"bonus":0.02},{"rt":1303.3000000002794,"stimulus":"bees-with-color/bee-B1DM.svg","response":0,"trial_type":"image-button-response","trial_index":85,"time_elapsed":442387,"internal_node_id":"0.0-4.0-0.39","subject_id":"60087e9189ddb34b79b08be5","study_id":"6197b3f67c2b5cd3b6d9596a","session_id":"6197c17eb11e3b230720b00d","condition":"full-information","relevant_dimensions":["wings","pattern"],"bee_group":{"antennae":"X","wings":"1","pattern":"S","legs":"X"},"action":"harvest","summary":"good-harvest","bonus":0.02},{"rt":711.1999999997206,"stimulus":"\n                    <p><b>Action: <em>harvest</em></b></p>\n                    <p>This is the bee that you just saw.</p>\n                    <img src=\"bees-with-color/bee-B1DM.svg\" width=\"200\">\n                    <p><span class=\"greenText\"><b>Successful harvest!</b></span><br>Your pay has increased by $0.02. Your bonus pay is now $0.12.</p>\n            ","response":0,"trial_type":"html-button-response","trial_index":86,"time_elapsed":443099,"internal_node_id":"0.0-4.0-1.39","subject_id":"60087e9189ddb34b79b08be5","study_id":"6197b3f67c2b5cd3b6d9596a","session_id":"6197c17eb11e3b230720b00d","condition":"full-information","relevant_dimensions":["wings","pattern"],"bee_group":{"antennae":"X","wings":"1","pattern":"S","legs":"X"},"bonus":0.02},{"rt":470.79999999981374,"stimulus":"bees-with-color/bee-A2DM.svg","response":0,"trial_type":"image-button-response","trial_index":87,"time_elapsed":443570,"internal_node_id":"0.0-4.0-0.40","subject_id":"60087e9189ddb34b79b08be5","study_id":"6197b3f67c2b5cd3b6d9596a","session_id":"6197c17eb11e3b230720b00d","condition":"full-information","relevant_dimensions":["wings","pattern"],"bee_group":{"antennae":"X","wings":"1","pattern":"S","legs":"X"},"action":"harvest","summary":"good-harvest","bonus":0.02},{"rt":567.0999999996275,"stimulus":"\n                    <p><b>Action: <em>harvest</em></b></p>\n                    <p>This is the bee that you just saw.</p>\n                    <img src=\"bees-with-color/bee-A2DM.svg\" width=\"200\">\n                    <p><span class=\"greenText\"><b>Successful harvest!</b></span><br>Your pay has increased by $0.02. Your bonus pay is now $0.14.</p>\n            ","response":0,"trial_type":"html-button-response","trial_index":88,"time_elapsed":444138,"internal_node_id":"0.0-4.0-1.40","subject_id":"60087e9189ddb34b79b08be5","study_id":"6197b3f67c2b5cd3b6d9596a","session_id":"6197c17eb11e3b230720b00d","condition":"full-information","relevant_dimensions":["wings","pattern"],"bee_group":{"antennae":"X","wings":"1","pattern":"S","legs":"X"},"bonus":0.02},{"rt":647,"stimulus":"bees-with-color/bee-B1DF.svg","response":0,"trial_type":"image-button-response","trial_index":89,"time_elapsed":444786,"internal_node_id":"0.0-4.0-0.41","subject_id":"60087e9189ddb34b79b08be5","study_id":"6197b3f67c2b5cd3b6d9596a","session_id":"6197c17eb11e3b230720b00d","condition":"full-information","relevant_dimensions":["wings","pattern"],"bee_group":{"antennae":"X","wings":"1","pattern":"S","legs":"X"},"action":"harvest","summary":"good-harvest","bonus":0.02},{"rt":591.5,"stimulus":"\n                    <p><b>Action: <em>harvest</em></b></p>\n                    <p>This is the bee that you just saw.</p>\n                    <img src=\"bees-with-color/bee-B1DF.svg\" width=\"200\">\n                    <p><span class=\"greenText\"><b>Successful harvest!</b></span><br>Your pay has increased by $0.02. Your bonus pay is now $0.16.</p>\n            ","response":0,"trial_type":"html-button-response","trial_index":90,"time_elapsed":445378,"internal_node_id":"0.0-4.0-1.41","subject_id":"60087e9189ddb34b79b08be5","study_id":"6197b3f67c2b5cd3b6d9596a","session_id":"6197c17eb11e3b230720b00d","condition":"full-information","relevant_dimensions":["wings","pattern"],"bee_group":{"antennae":"X","wings":"1","pattern":"S","legs":"X"},"bonus":0.02},{"rt":399.09999999962747,"stimulus":"bees-with-color/bee-A1SF.svg","response":1,"trial_type":"image-button-response","trial_index":91,"time_elapsed":445778,"internal_node_id":"0.0-4.0-0.42","subject_id":"60087e9189ddb34b79b08be5","study_id":"6197b3f67c2b5cd3b6d9596a","session_id":"6197c17eb11e3b230720b00d","condition":"full-information","relevant_dimensions":["wings","pattern"],"bee_group":{"antennae":"X","wings":"1","pattern":"S","legs":"X"},"action":"avoid","summary":"good-avoid","bonus":0.02},{"rt":751,"stimulus":"\n                    <p><b>Action: <em>avoid</em></b></p>\n                    <p>This is the bee that you just saw.</p>\n                    <img src=\"bees-with-color/bee-A1SF.svg\" width=\"200\">\n                    <p><span class=\"greenText\">Good choice!</span>  This bee would have stung you.<br>Your bonus pay is unchanged, and remains at $0.16.</p>\n            ","response":0,"trial_type":"html-button-response","trial_index":92,"time_elapsed":446530,"internal_node_id":"0.0-4.0-1.42","subject_id":"60087e9189ddb34b79b08be5","study_id":"6197b3f67c2b5cd3b6d9596a","session_id":"6197c17eb11e3b230720b00d","condition":"full-information","relevant_dimensions":["wings","pattern"],"bee_group":{"antennae":"X","wings":"1","pattern":"S","legs":"X"},"bonus":0.02},{"rt":422.79999999981374,"stimulus":"bees-with-color/bee-B2DF.svg","response":0,"trial_type":"image-button-response","trial_index":93,"time_elapsed":446954,"internal_node_id":"0.0-4.0-0.43","subject_id":"60087e9189ddb34b79b08be5","study_id":"6197b3f67c2b5cd3b6d9596a","session_id":"6197c17eb11e3b230720b00d","condition":"full-information","relevant_dimensions":["wings","pattern"],"bee_group":{"antennae":"X","wings":"1","pattern":"S","legs":"X"},"action":"harvest","summary":"good-harvest","bonus":0.02},{"rt":543.5,"stimulus":"\n                    <p><b>Action: <em>harvest</em></b></p>\n                    <p>This is the bee that you just saw.</p>\n                    <img src=\"bees-with-color/bee-B2DF.svg\" width=\"200\">\n                    <p><span class=\"greenText\"><b>Successful harvest!</b></span><br>Your pay has increased by $0.02. Your bonus pay is now $0.18.</p>\n            ","response":0,"trial_type":"html-button-response","trial_index":94,"time_elapsed":447498,"internal_node_id":"0.0-4.0-1.43","subject_id":"60087e9189ddb34b79b08be5","study_id":"6197b3f67c2b5cd3b6d9596a","session_id":"6197c17eb11e3b230720b00d","condition":"full-information","relevant_dimensions":["wings","pattern"],"bee_group":{"antennae":"X","wings":"1","pattern":"S","legs":"X"},"bonus":0.02},{"rt":399.1999999997206,"stimulus":"bees-with-color/bee-B1SM.svg","response":0,"trial_type":"image-button-response","trial_index":95,"time_elapsed":447898,"internal_node_id":"0.0-4.0-0.44","subject_id":"60087e9189ddb34b79b08be5","study_id":"6197b3f67c2b5cd3b6d9596a","session_id":"6197c17eb11e3b230720b00d","condition":"full-information","relevant_dimensions":["wings","pattern"],"bee_group":{"antennae":"X","wings":"1","pattern":"S","legs":"X"},"action":"harvest","summary":"bad-harvest","bonus":0.02},{"rt":1191.1000000000931,"stimulus":"\n                    <p><b>Action: <em>harvest</em></b></p>\n                    <p>This is the bee that you just saw.</p>\n                    <img src=\"bees-with-color/bee-B1SM.svg\" width=\"200\">\n                    <p><span class=\"redText\">Bad choice, the bee was angry.</span><br><b>You have been stung!</b><br>Your pay has been decreased by $0.10. Your bonus pay is now $0.08.</p>\n            ","response":0,"trial_type":"html-button-response","trial_index":96,"time_elapsed":449091,"internal_node_id":"0.0-4.0-1.44","subject_id":"60087e9189ddb34b79b08be5","study_id":"6197b3f67c2b5cd3b6d9596a","session_id":"6197c17eb11e3b230720b00d","condition":"full-information","relevant_dimensions":["wings","pattern"],"bee_group":{"antennae":"X","wings":"1","pattern":"S","legs":"X"},"bonus":0.02},{"rt":463.29999999981374,"stimulus":"bees-with-color/bee-A1DM.svg","response":0,"trial_type":"image-button-response","trial_index":97,"time_elapsed":449555,"internal_node_id":"0.0-4.0-0.45","subject_id":"60087e9189ddb34b79b08be5","study_id":"6197b3f67c2b5cd3b6d9596a","session_id":"6197c17eb11e3b230720b00d","condition":"full-information","relevant_dimensions":["wings","pattern"],"bee_group":{"antennae":"X","wings":"1","pattern":"S","legs":"X"},"action":"harvest","summary":"good-harvest","bonus":0.02},{"rt":566.7999999998137,"stimulus":"\n                    <p><b>Action: <em>harvest</em></b></p>\n                    <p>This is the bee that you just saw.</p>\n                    <img src=\"bees-with-color/bee-A1DM.svg\" width=\"200\">\n                    <p><span class=\"greenText\"><b>Successful harvest!</b></span><br>Your pay has increased by $0.02. Your bonus pay is now $0.10.</p>\n            ","response":0,"trial_type":"html-button-response","trial_index":98,"time_elapsed":450122,"internal_node_id":"0.0-4.0-1.45","subject_id":"60087e9189ddb34b79b08be5","study_id":"6197b3f67c2b5cd3b6d9596a","session_id":"6197c17eb11e3b230720b00d","condition":"full-information","relevant_dimensions":["wings","pattern"],"bee_group":{"antennae":"X","wings":"1","pattern":"S","legs":"X"},"bonus":0.02},{"rt":559.8000000002794,"stimulus":"bees-with-color/bee-A2SF.svg","response":1,"trial_type":"image-button-response","trial_index":99,"time_elapsed":450683,"internal_node_id":"0.0-4.0-0.46","subject_id":"60087e9189ddb34b79b08be5","study_id":"6197b3f67c2b5cd3b6d9596a","session_id":"6197c17eb11e3b230720b00d","condition":"full-information","relevant_dimensions":["wings","pattern"],"bee_group":{"antennae":"X","wings":"1","pattern":"S","legs":"X"},"action":"avoid","summary":"bad-avoid","bonus":0.02},{"rt":598.8999999999069,"stimulus":"\n                    <p><b>Action: <em>avoid</em></b></p>\n                    <p>This is the bee that you just saw.</p>\n                    <img src=\"bees-with-color/bee-A2SF.svg\" width=\"200\">\n                    <p><span class=\"redText\">Bad choice,</span> the bee was friendly.<br>Your bonus pay is unchanged, and remains at $0.10.</p>\n            ","response":0,"trial_type":"html-button-response","trial_index":100,"time_elapsed":451283,"internal_node_id":"0.0-4.0-1.46","subject_id":"60087e9189ddb34b79b08be5","study_id":"6197b3f67c2b5cd3b6d9596a","session_id":"6197c17eb11e3b230720b00d","condition":"full-information","relevant_dimensions":["wings","pattern"],"bee_group":{"antennae":"X","wings":"1","pattern":"S","legs":"X"},"bonus":0.02},{"rt":534.5999999996275,"stimulus":"bees-with-color/bee-A2SM.svg","response":1,"trial_type":"image-button-response","trial_index":101,"time_elapsed":451818,"internal_node_id":"0.0-4.0-0.47","subject_id":"60087e9189ddb34b79b08be5","study_id":"6197b3f67c2b5cd3b6d9596a","session_id":"6197c17eb11e3b230720b00d","condition":"full-information","relevant_dimensions":["wings","pattern"],"bee_group":{"antennae":"X","wings":"1","pattern":"S","legs":"X"},"action":"avoid","summary":"bad-avoid","bonus":0.02},{"rt":511,"stimulus":"\n                    <p><b>Action: <em>avoid</em></b></p>\n                    <p>This is the bee that you just saw.</p>\n                    <img src=\"bees-with-color/bee-A2SM.svg\" width=\"200\">\n                    <p><span class=\"redText\">Bad choice,</span> the bee was friendly.<br>Your bonus pay is unchanged, and remains at $0.10.</p>\n            ","response":0,"trial_type":"html-button-response","trial_index":102,"time_elapsed":452331,"internal_node_id":"0.0-4.0-1.47","subject_id":"60087e9189ddb34b79b08be5","study_id":"6197b3f67c2b5cd3b6d9596a","session_id":"6197c17eb11e3b230720b00d","condition":"full-information","relevant_dimensions":["wings","pattern"],"bee_group":{"antennae":"X","wings":"1","pattern":"S","legs":"X"},"bonus":0.02},{"rt":495.20000000018626,"stimulus":"bees-with-color/bee-B1DM.svg","response":0,"trial_type":"image-button-response","trial_index":103,"time_elapsed":452827,"internal_node_id":"0.0-4.0-0.48","subject_id":"60087e9189ddb34b79b08be5","study_id":"6197b3f67c2b5cd3b6d9596a","session_id":"6197c17eb11e3b230720b00d","condition":"full-information","relevant_dimensions":["wings","pattern"],"bee_group":{"antennae":"X","wings":"1","pattern":"S","legs":"X"},"action":"harvest","summary":"good-harvest","bonus":0.02},{"rt":887.3000000002794,"stimulus":"\n                    <p><b>Action: <em>harvest</em></b></p>\n                    <p>This is the bee that you just saw.</p>\n                    <img src=\"bees-with-color/bee-B1DM.svg\" width=\"200\">\n                    <p><span class=\"greenText\"><b>Successful harvest!</b></span><br>Your pay has increased by $0.02. Your bonus pay is now $0.12.</p>\n            ","response":0,"trial_type":"html-button-response","trial_index":104,"time_elapsed":453715,"internal_node_id":"0.0-4.0-1.48","subject_id":"60087e9189ddb34b79b08be5","study_id":"6197b3f67c2b5cd3b6d9596a","session_id":"6197c17eb11e3b230720b00d","condition":"full-information","relevant_dimensions":["wings","pattern"],"bee_group":{"antennae":"X","wings":"1","pattern":"S","legs":"X"},"bonus":0.02},{"rt":510.6999999997206,"stimulus":"bees-with-color/bee-B2SM.svg","response":0,"trial_type":"image-button-response","trial_index":105,"time_elapsed":454227,"internal_node_id":"0.0-4.0-0.49","subject_id":"60087e9189ddb34b79b08be5","study_id":"6197b3f67c2b5cd3b6d9596a","session_id":"6197c17eb11e3b230720b00d","condition":"full-information","relevant_dimensions":["wings","pattern"],"bee_group":{"antennae":"X","wings":"1","pattern":"S","legs":"X"},"action":"harvest","summary":"good-harvest","bonus":0.02},{"rt":670.6000000000931,"stimulus":"\n                    <p><b>Action: <em>harvest</em></b></p>\n                    <p>This is the bee that you just saw.</p>\n                    <img src=\"bees-with-color/bee-B2SM.svg\" width=\"200\">\n                    <p><span class=\"greenText\"><b>Successful harvest!</b></span><br>Your pay has increased by $0.02. Your bonus pay is now $0.14.</p>\n            ","response":0,"trial_type":"html-button-response","trial_index":106,"time_elapsed":454898,"internal_node_id":"0.0-4.0-1.49","subject_id":"60087e9189ddb34b79b08be5","study_id":"6197b3f67c2b5cd3b6d9596a","session_id":"6197c17eb11e3b230720b00d","condition":"full-information","relevant_dimensions":["wings","pattern"],"bee_group":{"antennae":"X","wings":"1","pattern":"S","legs":"X"},"bonus":0.02},{"rt":591.5,"stimulus":"bees-with-color/bee-B2DF.svg","response":1,"trial_type":"image-button-response","trial_index":107,"time_elapsed":455491,"internal_node_id":"0.0-4.0-0.50","subject_id":"60087e9189ddb34b79b08be5","study_id":"6197b3f67c2b5cd3b6d9596a","session_id":"6197c17eb11e3b230720b00d","condition":"full-information","relevant_dimensions":["wings","pattern"],"bee_group":{"antennae":"X","wings":"1","pattern":"S","legs":"X"},"action":"avoid","summary":"bad-avoid","bonus":0.02},{"rt":582.7999999998137,"stimulus":"\n                    <p><b>Action: <em>avoid</em></b></p>\n                    <p>This is the bee that you just saw.</p>\n                    <img src=\"bees-with-color/bee-B2DF.svg\" width=\"200\">\n                    <p><span class=\"redText\">Bad choice,</span> the bee was friendly.<br>Your bonus pay is unchanged, and remains at $0.14.</p>\n            ","response":0,"trial_type":"html-button-response","trial_index":108,"time_elapsed":456074,"internal_node_id":"0.0-4.0-1.50","subject_id":"60087e9189ddb34b79b08be5","study_id":"6197b3f67c2b5cd3b6d9596a","session_id":"6197c17eb11e3b230720b00d","condition":"full-information","relevant_dimensions":["wings","pattern"],"bee_group":{"antennae":"X","wings":"1","pattern":"S","legs":"X"},"bonus":0.02},{"rt":871.5,"stimulus":"bees-with-color/bee-B1SM.svg","response":1,"trial_type":"image-button-response","trial_index":109,"time_elapsed":456947,"internal_node_id":"0.0-4.0-0.51","subject_id":"60087e9189ddb34b79b08be5","study_id":"6197b3f67c2b5cd3b6d9596a","session_id":"6197c17eb11e3b230720b00d","condition":"full-information","relevant_dimensions":["wings","pattern"],"bee_group":{"antennae":"X","wings":"1","pattern":"S","legs":"X"},"action":"avoid","summary":"good-avoid","bonus":0.02},{"rt":750.8999999999069,"stimulus":"\n                    <p><b>Action: <em>avoid</em></b></p>\n                    <p>This is the bee that you just saw.</p>\n                    <img src=\"bees-with-color/bee-B1SM.svg\" width=\"200\">\n                    <p><span class=\"greenText\">Good choice!</span>  This bee would have stung you.<br>Your bonus pay is unchanged, and remains at $0.14.</p>\n            ","response":0,"trial_type":"html-button-response","trial_index":110,"time_elapsed":457698,"internal_node_id":"0.0-4.0-1.51","subject_id":"60087e9189ddb34b79b08be5","study_id":"6197b3f67c2b5cd3b6d9596a","session_id":"6197c17eb11e3b230720b00d","condition":"full-information","relevant_dimensions":["wings","pattern"],"bee_group":{"antennae":"X","wings":"1","pattern":"S","legs":"X"},"bonus":0.02},{"rt":463.6999999997206,"stimulus":"bees-with-color/bee-A2DM.svg","response":0,"trial_type":"image-button-response","trial_index":111,"time_elapsed":458163,"internal_node_id":"0.0-4.0-0.52","subject_id":"60087e9189ddb34b79b08be5","study_id":"6197b3f67c2b5cd3b6d9596a","session_id":"6197c17eb11e3b230720b00d","condition":"full-information","relevant_dimensions":["wings","pattern"],"bee_group":{"antennae":"X","wings":"1","pattern":"S","legs":"X"},"action":"harvest","summary":"good-harvest","bonus":0.02},{"rt":606.7999999998137,"stimulus":"\n                    <p><b>Action: <em>harvest</em></b></p>\n                    <p>This is the bee that you just saw.</p>\n                    <img src=\"bees-with-color/bee-A2DM.svg\" width=\"200\">\n                    <p><span class=\"greenText\"><b>Successful harvest!</b></span><br>Your pay has increased by $0.02. Your bonus pay is now $0.16.</p>\n            ","response":0,"trial_type":"html-button-response","trial_index":112,"time_elapsed":458770,"internal_node_id":"0.0-4.0-1.52","subject_id":"60087e9189ddb34b79b08be5","study_id":"6197b3f67c2b5cd3b6d9596a","session_id":"6197c17eb11e3b230720b00d","condition":"full-information","relevant_dimensions":["wings","pattern"],"bee_group":{"antennae":"X","wings":"1","pattern":"S","legs":"X"},"bonus":0.02},{"rt":439.1999999997206,"stimulus":"bees-with-color/bee-A2SM.svg","response":0,"trial_type":"image-button-response","trial_index":113,"time_elapsed":459210,"internal_node_id":"0.0-4.0-0.53","subject_id":"60087e9189ddb34b79b08be5","study_id":"6197b3f67c2b5cd3b6d9596a","session_id":"6197c17eb11e3b230720b00d","condition":"full-information","relevant_dimensions":["wings","pattern"],"bee_group":{"antennae":"X","wings":"1","pattern":"S","legs":"X"},"action":"harvest","summary":"good-harvest","bonus":0.02},{"rt":527.1000000000931,"stimulus":"\n                    <p><b>Action: <em>harvest</em></b></p>\n                    <p>This is the bee that you just saw.</p>\n                    <img src=\"bees-with-color/bee-A2SM.svg\" width=\"200\">\n                    <p><span class=\"greenText\"><b>Successful harvest!</b></span><br>Your pay has increased by $0.02. Your bonus pay is now $0.18.</p>\n            ","response":0,"trial_type":"html-button-response","trial_index":114,"time_elapsed":459738,"internal_node_id":"0.0-4.0-1.53","subject_id":"60087e9189ddb34b79b08be5","study_id":"6197b3f67c2b5cd3b6d9596a","session_id":"6197c17eb11e3b230720b00d","condition":"full-information","relevant_dimensions":["wings","pattern"],"bee_group":{"antennae":"X","wings":"1","pattern":"S","legs":"X"},"bonus":0.02},{"rt":607.1999999997206,"stimulus":"bees-with-color/bee-B1SF.svg","response":1,"trial_type":"image-button-response","trial_index":115,"time_elapsed":460346,"internal_node_id":"0.0-4.0-0.54","subject_id":"60087e9189ddb34b79b08be5","study_id":"6197b3f67c2b5cd3b6d9596a","session_id":"6197c17eb11e3b230720b00d","condition":"full-information","relevant_dimensions":["wings","pattern"],"bee_group":{"antennae":"X","wings":"1","pattern":"S","legs":"X"},"action":"avoid","summary":"good-avoid","bonus":0.02},{"rt":535,"stimulus":"\n                    <p><b>Action: <em>avoid</em></b></p>\n                    <p>This is the bee that you just saw.</p>\n                    <img src=\"bees-with-color/bee-B1SF.svg\" width=\"200\">\n                    <p><span class=\"greenText\">Good choice!</span>  This bee would have stung you.<br>Your bonus pay is unchanged, and remains at $0.18.</p>\n            ","response":0,"trial_type":"html-button-response","trial_index":116,"time_elapsed":460882,"internal_node_id":"0.0-4.0-1.54","subject_id":"60087e9189ddb34b79b08be5","study_id":"6197b3f67c2b5cd3b6d9596a","session_id":"6197c17eb11e3b230720b00d","condition":"full-information","relevant_dimensions":["wings","pattern"],"bee_group":{"antennae":"X","wings":"1","pattern":"S","legs":"X"},"bonus":0.02},{"rt":455.5,"stimulus":"bees-with-color/bee-A2DF.svg","response":1,"trial_type":"image-button-response","trial_index":117,"time_elapsed":461339,"internal_node_id":"0.0-4.0-0.55","subject_id":"60087e9189ddb34b79b08be5","study_id":"6197b3f67c2b5cd3b6d9596a","session_id":"6197c17eb11e3b230720b00d","condition":"full-information","relevant_dimensions":["wings","pattern"],"bee_group":{"antennae":"X","wings":"1","pattern":"S","legs":"X"},"action":"avoid","summary":"bad-avoid","bonus":0.02},{"rt":478.89999999990687,"stimulus":"\n                    <p><b>Action: <em>avoid</em></b></p>\n                    <p>This is the bee that you just saw.</p>\n                    <img src=\"bees-with-color/bee-A2DF.svg\" width=\"200\">\n                    <p><span class=\"redText\">Bad choice,</span> the bee was friendly.<br>Your bonus pay is unchanged, and remains at $0.18.</p>\n            ","response":0,"trial_type":"html-button-response","trial_index":118,"time_elapsed":461819,"internal_node_id":"0.0-4.0-1.55","subject_id":"60087e9189ddb34b79b08be5","study_id":"6197b3f67c2b5cd3b6d9596a","session_id":"6197c17eb11e3b230720b00d","condition":"full-information","relevant_dimensions":["wings","pattern"],"bee_group":{"antennae":"X","wings":"1","pattern":"S","legs":"X"},"bonus":0.02},{"rt":486.89999999990687,"stimulus":"bees-with-color/bee-A1SM.svg","response":0,"trial_type":"image-button-response","trial_index":119,"time_elapsed":462306,"internal_node_id":"0.0-4.0-0.56","subject_id":"60087e9189ddb34b79b08be5","study_id":"6197b3f67c2b5cd3b6d9596a","session_id":"6197c17eb11e3b230720b00d","condition":"full-information","relevant_dimensions":["wings","pattern"],"bee_group":{"antennae":"X","wings":"1","pattern":"S","legs":"X"},"action":"harvest","summary":"bad-harvest","bonus":0.02},{"rt":647.1000000000931,"stimulus":"\n                    <p><b>Action: <em>harvest</em></b></p>\n                    <p>This is the bee that you just saw.</p>\n                    <img src=\"bees-with-color/bee-A1SM.svg\" width=\"200\">\n                    <p><span class=\"redText\">Bad choice, the bee was angry.</span><br><b>You have been stung!</b><br>Your pay has been decreased by $0.10. Your bonus pay is now $0.08.</p>\n            ","response":0,"trial_type":"html-button-response","trial_index":120,"time_elapsed":462954,"internal_node_id":"0.0-4.0-1.56","subject_id":"60087e9189ddb34b79b08be5","study_id":"6197b3f67c2b5cd3b6d9596a","session_id":"6197c17eb11e3b230720b00d","condition":"full-information","relevant_dimensions":["wings","pattern"],"bee_group":{"antennae":"X","wings":"1","pattern":"S","legs":"X"},"bonus":0.02},{"rt":839,"stimulus":"bees-with-color/bee-A1SF.svg","response":0,"trial_type":"image-button-response","trial_index":121,"time_elapsed":463795,"internal_node_id":"0.0-4.0-0.57","subject_id":"60087e9189ddb34b79b08be5","study_id":"6197b3f67c2b5cd3b6d9596a","session_id":"6197c17eb11e3b230720b00d","condition":"full-information","relevant_dimensions":["wings","pattern"],"bee_group":{"antennae":"X","wings":"1","pattern":"S","legs":"X"},"action":"harvest","summary":"bad-harvest","bonus":0.02},{"rt":1078.5,"stimulus":"\n                    <p><b>Action: <em>harvest</em></b></p>\n                    <p>This is the bee that you just saw.</p>\n                    <img src=\"bees-with-color/bee-A1SF.svg\" width=\"200\">\n                    <p><span class=\"redText\">Bad choice, the bee was angry.</span><br><b>You have been stung!</b><br>Your pay has been decreased by $0.10. Your bonus pay is now $0.00.</p>\n            ","response":0,"trial_type":"html-button-response","trial_index":122,"time_elapsed":464875,"internal_node_id":"0.0-4.0-1.57","subject_id":"60087e9189ddb34b79b08be5","study_id":"6197b3f67c2b5cd3b6d9596a","session_id":"6197c17eb11e3b230720b00d","condition":"full-information","relevant_dimensions":["wings","pattern"],"bee_group":{"antennae":"X","wings":"1","pattern":"S","legs":"X"},"bonus":0.02},{"rt":1230.8999999999069,"stimulus":"bees-with-color/bee-A1DF.svg","response":0,"trial_type":"image-button-response","trial_index":123,"time_elapsed":466107,"internal_node_id":"0.0-4.0-0.58","subject_id":"60087e9189ddb34b79b08be5","study_id":"6197b3f67c2b5cd3b6d9596a","session_id":"6197c17eb11e3b230720b00d","condition":"full-information","relevant_dimensions":["wings","pattern"],"bee_group":{"antennae":"X","wings":"1","pattern":"S","legs":"X"},"action":"harvest","summary":"good-harvest","bonus":0.02},{"rt":759,"stimulus":"\n                    <p><b>Action: <em>harvest</em></b></p>\n                    <p>This is the bee that you just saw.</p>\n                    <img src=\"bees-with-color/bee-A1DF.svg\" width=\"200\">\n                    <p><span class=\"greenText\"><b>Successful harvest!</b></span><br>Your pay has increased by $0.02. Your bonus pay is now $0.02.</p>\n            ","response":0,"trial_type":"html-button-response","trial_index":124,"time_elapsed":466867,"internal_node_id":"0.0-4.0-1.58","subject_id":"60087e9189ddb34b79b08be5","study_id":"6197b3f67c2b5cd3b6d9596a","session_id":"6197c17eb11e3b230720b00d","condition":"full-information","relevant_dimensions":["wings","pattern"],"bee_group":{"antennae":"X","wings":"1","pattern":"S","legs":"X"},"bonus":0.02},{"rt":415.10000000009313,"stimulus":"bees-with-color/bee-B2DM.svg","response":0,"trial_type":"image-button-response","trial_index":125,"time_elapsed":467283,"internal_node_id":"0.0-4.0-0.59","subject_id":"60087e9189ddb34b79b08be5","study_id":"6197b3f67c2b5cd3b6d9596a","session_id":"6197c17eb11e3b230720b00d","condition":"full-information","relevant_dimensions":["wings","pattern"],"bee_group":{"antennae":"X","wings":"1","pattern":"S","legs":"X"},"action":"harvest","summary":"good-harvest","bonus":0.02},{"rt":551.1000000000931,"stimulus":"\n                    <p><b>Action: <em>harvest</em></b></p>\n                    <p>This is the bee that you just saw.</p>\n                    <img src=\"bees-with-color/bee-B2DM.svg\" width=\"200\">\n                    <p><span class=\"greenText\"><b>Successful harvest!</b></span><br>Your pay has increased by $0.02. Your bonus pay is now $0.04.</p>\n            ","response":0,"trial_type":"html-button-response","trial_index":126,"time_elapsed":467835,"internal_node_id":"0.0-4.0-1.59","subject_id":"60087e9189ddb34b79b08be5","study_id":"6197b3f67c2b5cd3b6d9596a","session_id":"6197c17eb11e3b230720b00d","condition":"full-information","relevant_dimensions":["wings","pattern"],"bee_group":{"antennae":"X","wings":"1","pattern":"S","legs":"X"},"bonus":0.02},{"rt":703.1000000000931,"stimulus":"bees-with-color/bee-B1DF.svg","response":0,"trial_type":"image-button-response","trial_index":127,"time_elapsed":468539,"internal_node_id":"0.0-4.0-0.60","subject_id":"60087e9189ddb34b79b08be5","study_id":"6197b3f67c2b5cd3b6d9596a","session_id":"6197c17eb11e3b230720b00d","condition":"full-information","relevant_dimensions":["wings","pattern"],"bee_group":{"antennae":"X","wings":"1","pattern":"S","legs":"X"},"action":"harvest","summary":"good-harvest","bonus":0.02},{"rt":751,"stimulus":"\n                    <p><b>Action: <em>harvest</em></b></p>\n                    <p>This is the bee that you just saw.</p>\n                    <img src=\"bees-with-color/bee-B1DF.svg\" width=\"200\">\n                    <p><span class=\"greenText\"><b>Successful harvest!</b></span><br>Your pay has increased by $0.02. Your bonus pay is now $0.06.</p>\n            ","response":0,"trial_type":"html-button-response","trial_index":128,"time_elapsed":469291,"internal_node_id":"0.0-4.0-1.60","subject_id":"60087e9189ddb34b79b08be5","study_id":"6197b3f67c2b5cd3b6d9596a","session_id":"6197c17eb11e3b230720b00d","condition":"full-information","relevant_dimensions":["wings","pattern"],"bee_group":{"antennae":"X","wings":"1","pattern":"S","legs":"X"},"bonus":0.02},{"rt":326.79999999981374,"stimulus":"bees-with-color/bee-A1DM.svg","response":1,"trial_type":"image-button-response","trial_index":129,"time_elapsed":469618,"internal_node_id":"0.0-4.0-0.61","subject_id":"60087e9189ddb34b79b08be5","study_id":"6197b3f67c2b5cd3b6d9596a","session_id":"6197c17eb11e3b230720b00d","condition":"full-information","relevant_dimensions":["wings","pattern"],"bee_group":{"antennae":"X","wings":"1","pattern":"S","legs":"X"},"action":"avoid","summary":"bad-avoid","bonus":0.02},{"rt":495,"stimulus":"\n                    <p><b>Action: <em>avoid</em></b></p>\n                    <p>This is the bee that you just saw.</p>\n                    <img src=\"bees-with-color/bee-A1DM.svg\" width=\"200\">\n                    <p><span class=\"redText\">Bad choice,</span> the bee was friendly.<br>Your bonus pay is unchanged, and remains at $0.06.</p>\n            ","response":0,"trial_type":"html-button-response","trial_index":130,"time_elapsed":470114,"internal_node_id":"0.0-4.0-1.61","subject_id":"60087e9189ddb34b79b08be5","study_id":"6197b3f67c2b5cd3b6d9596a","session_id":"6197c17eb11e3b230720b00d","condition":"full-information","relevant_dimensions":["wings","pattern"],"bee_group":{"antennae":"X","wings":"1","pattern":"S","legs":"X"},"bonus":0.02},{"rt":446.8000000002794,"stimulus":"bees-with-color/bee-B2SF.svg","response":0,"trial_type":"image-button-response","trial_index":131,"time_elapsed":470562,"internal_node_id":"0.0-4.0-0.62","subject_id":"60087e9189ddb34b79b08be5","study_id":"6197b3f67c2b5cd3b6d9596a","session_id":"6197c17eb11e3b230720b00d","condition":"full-information","relevant_dimensions":["wings","pattern"],"bee_group":{"antennae":"X","wings":"1","pattern":"S","legs":"X"},"action":"harvest","summary":"good-harvest","bonus":0.02},{"rt":711.3999999999069,"stimulus":"\n                    <p><b>Action: <em>harvest</em></b></p>\n                    <p>This is the bee that you just saw.</p>\n                    <img src=\"bees-with-color/bee-B2SF.svg\" width=\"200\">\n                    <p><span class=\"greenText\"><b>Successful harvest!</b></span><br>Your pay has increased by $0.02. Your bonus pay is now $0.08.</p>\n            ","response":0,"trial_type":"html-button-response","trial_index":132,"time_elapsed":471275,"internal_node_id":"0.0-4.0-1.62","subject_id":"60087e9189ddb34b79b08be5","study_id":"6197b3f67c2b5cd3b6d9596a","session_id":"6197c17eb11e3b230720b00d","condition":"full-information","relevant_dimensions":["wings","pattern"],"bee_group":{"antennae":"X","wings":"1","pattern":"S","legs":"X"},"bonus":0.02},{"rt":518.7999999998137,"stimulus":"bees-with-color/bee-A2SF.svg","response":0,"trial_type":"image-button-response","trial_index":133,"time_elapsed":471794,"internal_node_id":"0.0-4.0-0.63","subject_id":"60087e9189ddb34b79b08be5","study_id":"6197b3f67c2b5cd3b6d9596a","session_id":"6197c17eb11e3b230720b00d","condition":"full-information","relevant_dimensions":["wings","pattern"],"bee_group":{"antennae":"X","wings":"1","pattern":"S","legs":"X"},"action":"harvest","summary":"good-harvest","bonus":0.02},{"rt":775.0999999996275,"stimulus":"\n                    <p><b>Action: <em>harvest</em></b></p>\n                    <p>This is the bee that you just saw.</p>\n                    <img src=\"bees-with-color/bee-A2SF.svg\" width=\"200\">\n                    <p><span class=\"greenText\"><b>Successful harvest!</b></span><br>Your pay has increased by $0.02. Your bonus pay is now $0.10.</p>\n            ","response":0,"trial_type":"html-button-response","trial_index":134,"time_elapsed":472570,"internal_node_id":"0.0-4.0-1.63","subject_id":"60087e9189ddb34b79b08be5","study_id":"6197b3f67c2b5cd3b6d9596a","session_id":"6197c17eb11e3b230720b00d","condition":"full-information","relevant_dimensions":["wings","pattern"],"bee_group":{"antennae":"X","wings":"1","pattern":"S","legs":"X"},"bonus":0.02},{"rt":4231.399999999907,"stimulus":"You have completed the first part of this experiment.<br><br>You will now begin a shorter second part, in which you will receive no feedback.<br>The same rules regarding bonus pay apply.<br><br>Press any key to begin.","response":"k","trial_type":"html-keyboard-response","trial_index":135,"time_elapsed":476803,"internal_node_id":"0.0-5.0","subject_id":"60087e9189ddb34b79b08be5","study_id":"6197b3f67c2b5cd3b6d9596a","session_id":"6197c17eb11e3b230720b00d","condition":"full-information","relevant_dimensions":["wings","pattern"],"bee_group":{"antennae":"X","wings":"1","pattern":"S","legs":"X"},"bonus":0.02},{"rt":1194,"stimulus":"bees-with-color/bee-B2DM.svg","response":1,"trial_type":"image-button-response","trial_index":136,"time_elapsed":478003,"internal_node_id":"0.0-6.0-0.0","subject_id":"60087e9189ddb34b79b08be5","study_id":"6197b3f67c2b5cd3b6d9596a","session_id":"6197c17eb11e3b230720b00d","condition":"full-information","relevant_dimensions":["wings","pattern"],"bee_group":{"antennae":"X","wings":"1","pattern":"S","legs":"X"},"bonus":0.02},{"rt":542.3999999999069,"stimulus":"bees-with-color/bee-A2SM.svg","response":1,"trial_type":"image-button-response","trial_index":137,"time_elapsed":478546,"internal_node_id":"0.0-6.0-0.1","subject_id":"60087e9189ddb34b79b08be5","study_id":"6197b3f67c2b5cd3b6d9596a","session_id":"6197c17eb11e3b230720b00d","condition":"full-information","relevant_dimensions":["wings","pattern"],"bee_group":{"antennae":"X","wings":"1","pattern":"S","legs":"X"},"bonus":0.02},{"rt":150.5,"stimulus":"bees-with-color/bee-B1DF.svg","response":1,"trial_type":"image-button-response","trial_index":138,"time_elapsed":478698,"internal_node_id":"0.0-6.0-0.2","subject_id":"60087e9189ddb34b79b08be5","study_id":"6197b3f67c2b5cd3b6d9596a","session_id":"6197c17eb11e3b230720b00d","condition":"full-information","relevant_dimensions":["wings","pattern"],"bee_group":{"antennae":"X","wings":"1","pattern":"S","legs":"X"},"bonus":0.02},{"rt":575,"stimulus":"bees-with-color/bee-A1SM.svg","response":1,"trial_type":"image-button-response","trial_index":139,"time_elapsed":479274,"internal_node_id":"0.0-6.0-0.3","subject_id":"60087e9189ddb34b79b08be5","study_id":"6197b3f67c2b5cd3b6d9596a","session_id":"6197c17eb11e3b230720b00d","condition":"full-information","relevant_dimensions":["wings","pattern"],"bee_group":{"antennae":"X","wings":"1","pattern":"S","legs":"X"},"bonus":0.02},{"rt":358.6999999997206,"stimulus":"bees-with-color/bee-A2DM.svg","response":1,"trial_type":"image-button-response","trial_index":140,"time_elapsed":479635,"internal_node_id":"0.0-6.0-0.4","subject_id":"60087e9189ddb34b79b08be5","study_id":"6197b3f67c2b5cd3b6d9596a","session_id":"6197c17eb11e3b230720b00d","condition":"full-information","relevant_dimensions":["wings","pattern"],"bee_group":{"antennae":"X","wings":"1","pattern":"S","legs":"X"},"bonus":0.02},{"rt":678.3999999999069,"stimulus":"bees-with-color/bee-A1SF.svg","response":0,"trial_type":"image-button-response","trial_index":141,"time_elapsed":480314,"internal_node_id":"0.0-6.0-0.5","subject_id":"60087e9189ddb34b79b08be5","study_id":"6197b3f67c2b5cd3b6d9596a","session_id":"6197c17eb11e3b230720b00d","condition":"full-information","relevant_dimensions":["wings","pattern"],"bee_group":{"antennae":"X","wings":"1","pattern":"S","legs":"X"},"bonus":0.02},{"rt":135.09999999962747,"stimulus":"bees-with-color/bee-A2SF.svg","response":0,"trial_type":"image-button-response","trial_index":142,"time_elapsed":480451,"internal_node_id":"0.0-6.0-0.6","subject_id":"60087e9189ddb34b79b08be5","study_id":"6197b3f67c2b5cd3b6d9596a","session_id":"6197c17eb11e3b230720b00d","condition":"full-information","relevant_dimensions":["wings","pattern"],"bee_group":{"antennae":"X","wings":"1","pattern":"S","legs":"X"},"bonus":0.02},{"rt":150.60000000009313,"stimulus":"bees-with-color/bee-A1DF.svg","response":0,"trial_type":"image-button-response","trial_index":143,"time_elapsed":480603,"internal_node_id":"0.0-6.0-0.7","subject_id":"60087e9189ddb34b79b08be5","study_id":"6197b3f67c2b5cd3b6d9596a","session_id":"6197c17eb11e3b230720b00d","condition":"full-information","relevant_dimensions":["wings","pattern"],"bee_group":{"antennae":"X","wings":"1","pattern":"S","legs":"X"},"bonus":0.02},{"rt":126.5,"stimulus":"bees-with-color/bee-B1SM.svg","response":0,"trial_type":"image-button-response","trial_index":144,"time_elapsed":480730,"internal_node_id":"0.0-6.0-0.8","subject_id":"60087e9189ddb34b79b08be5","study_id":"6197b3f67c2b5cd3b6d9596a","session_id":"6197c17eb11e3b230720b00d","condition":"full-information","relevant_dimensions":["wings","pattern"],"bee_group":{"antennae":"X","wings":"1","pattern":"S","legs":"X"},"bonus":0.02},{"rt":142.59999999962747,"stimulus":"bees-with-color/bee-B2DF.svg","response":0,"trial_type":"image-button-response","trial_index":145,"time_elapsed":480874,"internal_node_id":"0.0-6.0-0.9","subject_id":"60087e9189ddb34b79b08be5","study_id":"6197b3f67c2b5cd3b6d9596a","session_id":"6197c17eb11e3b230720b00d","condition":"full-information","relevant_dimensions":["wings","pattern"],"bee_group":{"antennae":"X","wings":"1","pattern":"S","legs":"X"},"bonus":0.02},{"rt":150.6999999997206,"stimulus":"bees-with-color/bee-A2DF.svg","response":0,"trial_type":"image-button-response","trial_index":146,"time_elapsed":481026,"internal_node_id":"0.0-6.0-0.10","subject_id":"60087e9189ddb34b79b08be5","study_id":"6197b3f67c2b5cd3b6d9596a","session_id":"6197c17eb11e3b230720b00d","condition":"full-information","relevant_dimensions":["wings","pattern"],"bee_group":{"antennae":"X","wings":"1","pattern":"S","legs":"X"},"bonus":0.02},{"rt":198.79999999981374,"stimulus":"bees-with-color/bee-B1SF.svg","response":0,"trial_type":"image-button-response","trial_index":147,"time_elapsed":481226,"internal_node_id":"0.0-6.0-0.11","subject_id":"60087e9189ddb34b79b08be5","study_id":"6197b3f67c2b5cd3b6d9596a","session_id":"6197c17eb11e3b230720b00d","condition":"full-information","relevant_dimensions":["wings","pattern"],"bee_group":{"antennae":"X","wings":"1","pattern":"S","legs":"X"},"bonus":0.02},{"rt":102.79999999981374,"stimulus":"bees-with-color/bee-B1DM.svg","response":0,"trial_type":"image-button-response","trial_index":148,"time_elapsed":481330,"internal_node_id":"0.0-6.0-0.12","subject_id":"60087e9189ddb34b79b08be5","study_id":"6197b3f67c2b5cd3b6d9596a","session_id":"6197c17eb11e3b230720b00d","condition":"full-information","relevant_dimensions":["wings","pattern"],"bee_group":{"antennae":"X","wings":"1","pattern":"S","legs":"X"},"bonus":0.02},{"rt":726.7999999998137,"stimulus":"bees-with-color/bee-B2SF.svg","response":1,"trial_type":"image-button-response","trial_index":149,"time_elapsed":482058,"internal_node_id":"0.0-6.0-0.13","subject_id":"60087e9189ddb34b79b08be5","study_id":"6197b3f67c2b5cd3b6d9596a","session_id":"6197c17eb11e3b230720b00d","condition":"full-information","relevant_dimensions":["wings","pattern"],"bee_group":{"antennae":"X","wings":"1","pattern":"S","legs":"X"},"bonus":0.02},{"rt":294.59999999962747,"stimulus":"bees-with-color/bee-B2SM.svg","response":1,"trial_type":"image-button-response","trial_index":150,"time_elapsed":482354,"internal_node_id":"0.0-6.0-0.14","subject_id":"60087e9189ddb34b79b08be5","study_id":"6197b3f67c2b5cd3b6d9596a","session_id":"6197c17eb11e3b230720b00d","condition":"full-information","relevant_dimensions":["wings","pattern"],"bee_group":{"antennae":"X","wings":"1","pattern":"S","legs":"X"},"bonus":0.02},{"rt":134.79999999981374,"stimulus":"bees-with-color/bee-A1DM.svg","response":1,"trial_type":"image-button-response","trial_index":151,"time_elapsed":482490,"internal_node_id":"0.0-6.0-0.15","subject_id":"60087e9189ddb34b79b08be5","study_id":"6197b3f67c2b5cd3b6d9596a","session_id":"6197c17eb11e3b230720b00d","condition":"full-information","relevant_dimensions":["wings","pattern"],"bee_group":{"antennae":"X","wings":"1","pattern":"S","legs":"X"},"bonus":0.02},{"rt":271.5,"stimulus":"bees-with-color/bee-B1DF.svg","response":1,"trial_type":"image-button-response","trial_index":152,"time_elapsed":482763,"internal_node_id":"0.0-6.0-0.16","subject_id":"60087e9189ddb34b79b08be5","study_id":"6197b3f67c2b5cd3b6d9596a","session_id":"6197c17eb11e3b230720b00d","condition":"full-information","relevant_dimensions":["wings","pattern"],"bee_group":{"antennae":"X","wings":"1","pattern":"S","legs":"X"},"bonus":0.02},{"rt":542.3999999999069,"stimulus":"bees-with-color/bee-B1SM.svg","response":1,"trial_type":"image-button-response","trial_index":153,"time_elapsed":483306,"internal_node_id":"0.0-6.0-0.17","subject_id":"60087e9189ddb34b79b08be5","study_id":"6197b3f67c2b5cd3b6d9596a","session_id":"6197c17eb11e3b230720b00d","condition":"full-information","relevant_dimensions":["wings","pattern"],"bee_group":{"antennae":"X","wings":"1","pattern":"S","legs":"X"},"bonus":0.02},{"rt":750.8999999999069,"stimulus":"bees-with-color/bee-A2DF.svg","response":1,"trial_type":"image-button-response","trial_index":154,"time_elapsed":484058,"internal_node_id":"0.0-6.0-0.18","subject_id":"60087e9189ddb34b79b08be5","study_id":"6197b3f67c2b5cd3b6d9596a","session_id":"6197c17eb11e3b230720b00d","condition":"full-information","relevant_dimensions":["wings","pattern"],"bee_group":{"antennae":"X","wings":"1","pattern":"S","legs":"X"},"bonus":0.02},{"rt":726.6000000000931,"stimulus":"bees-with-color/bee-B2SM.svg","response":0,"trial_type":"image-button-response","trial_index":155,"time_elapsed":484786,"internal_node_id":"0.0-6.0-0.19","subject_id":"60087e9189ddb34b79b08be5","study_id":"6197b3f67c2b5cd3b6d9596a","session_id":"6197c17eb11e3b230720b00d","condition":"full-information","relevant_dimensions":["wings","pattern"],"bee_group":{"antennae":"X","wings":"1","pattern":"S","legs":"X"},"bonus":0.02},{"rt":359.29999999981374,"stimulus":"bees-with-color/bee-A1SM.svg","response":0,"trial_type":"image-button-response","trial_index":156,"time_elapsed":485146,"internal_node_id":"0.0-6.0-0.20","subject_id":"60087e9189ddb34b79b08be5","study_id":"6197b3f67c2b5cd3b6d9596a","session_id":"6197c17eb11e3b230720b00d","condition":"full-information","relevant_dimensions":["wings","pattern"],"bee_group":{"antennae":"X","wings":"1","pattern":"S","legs":"X"},"bonus":0.02},{"rt":230.89999999990687,"stimulus":"bees-with-color/bee-A2SM.svg","response":0,"trial_type":"image-button-response","trial_index":157,"time_elapsed":485378,"internal_node_id":"0.0-6.0-0.21","subject_id":"60087e9189ddb34b79b08be5","study_id":"6197b3f67c2b5cd3b6d9596a","session_id":"6197c17eb11e3b230720b00d","condition":"full-information","relevant_dimensions":["wings","pattern"],"bee_group":{"antennae":"X","wings":"1","pattern":"S","legs":"X"},"bonus":0.02},{"rt":287.20000000018626,"stimulus":"bees-with-color/bee-B2DM.svg","response":0,"trial_type":"image-button-response","trial_index":158,"time_elapsed":485667,"internal_node_id":"0.0-6.0-0.22","subject_id":"60087e9189ddb34b79b08be5","study_id":"6197b3f67c2b5cd3b6d9596a","session_id":"6197c17eb11e3b230720b00d","condition":"full-information","relevant_dimensions":["wings","pattern"],"bee_group":{"antennae":"X","wings":"1","pattern":"S","legs":"X"},"bonus":0.02},{"rt":758.7000000001863,"stimulus":"bees-with-color/bee-B1DM.svg","response":1,"trial_type":"image-button-response","trial_index":159,"time_elapsed":486427,"internal_node_id":"0.0-6.0-0.23","subject_id":"60087e9189ddb34b79b08be5","study_id":"6197b3f67c2b5cd3b6d9596a","session_id":"6197c17eb11e3b230720b00d","condition":"full-information","relevant_dimensions":["wings","pattern"],"bee_group":{"antennae":"X","wings":"1","pattern":"S","legs":"X"},"bonus":0.02},{"rt":302.79999999981374,"stimulus":"bees-with-color/bee-A2DM.svg","response":1,"trial_type":"image-button-response","trial_index":160,"time_elapsed":486730,"internal_node_id":"0.0-6.0-0.24","subject_id":"60087e9189ddb34b79b08be5","study_id":"6197b3f67c2b5cd3b6d9596a","session_id":"6197c17eb11e3b230720b00d","condition":"full-information","relevant_dimensions":["wings","pattern"],"bee_group":{"antennae":"X","wings":"1","pattern":"S","legs":"X"},"bonus":0.02},{"rt":335,"stimulus":"bees-with-color/bee-A1DM.svg","response":1,"trial_type":"image-button-response","trial_index":161,"time_elapsed":487067,"internal_node_id":"0.0-6.0-0.25","subject_id":"60087e9189ddb34b79b08be5","study_id":"6197b3f67c2b5cd3b6d9596a","session_id":"6197c17eb11e3b230720b00d","condition":"full-information","relevant_dimensions":["wings","pattern"],"bee_group":{"antennae":"X","wings":"1","pattern":"S","legs":"X"},"bonus":0.02},{"rt":423,"stimulus":"bees-with-color/bee-A2SF.svg","response":1,"trial_type":"image-button-response","trial_index":162,"time_elapsed":487490,"internal_node_id":"0.0-6.0-0.26","subject_id":"60087e9189ddb34b79b08be5","st