[{"success":true,"trial_type":"fullscreen","trial_index":0,"time_elapsed":17779,"internal_node_id":"0.0-0.0","subject_id":"60fca1e497655beee516dc72","study_id":"60edd13110225f80f9f3709b","session_id":"6196c1f7bbd1fb53a12aebf1","condition":"contingent","relevant_dimensions":["antennae","legs"],"bee_group":{"antennae":"A","wings":"X","pattern":"X","legs":"F"},"bonus":1.1600000000000013},{"success":true,"timeout":false,"failed_images":[],"failed_audio":[],"failed_video":[],"trial_type":"preload","trial_index":1,"time_elapsed":19065,"internal_node_id":"0.0-1.0","subject_id":"60fca1e497655beee516dc72","study_id":"60edd13110225f80f9f3709b","session_id":"6196c1f7bbd1fb53a12aebf1","condition":"contingent","relevant_dimensions":["antennae","legs"],"bee_group":{"antennae":"A","wings":"X","pattern":"X","legs":"F"},"bonus":1.1600000000000013},{"rt":3052,"stimulus":"Welcome! Press any key to begin.","response":"arrowdown","trial_type":"html-keyboard-response","trial_index":2,"time_elapsed":22119,"internal_node_id":"0.0-2.0","subject_id":"60fca1e497655beee516dc72","study_id":"60edd13110225f80f9f3709b","session_id":"6196c1f7bbd1fb53a12aebf1","condition":"contingent","relevant_dimensions":["antennae","legs"],"bee_group":{"antennae":"A","wings":"X","pattern":"X","legs":"F"},"bonus":1.1600000000000013},{"view_history":[{"page_index":0,"viewing_time":5904.79999999702},{"page_index":1,"viewing_time":8566.79999999702},{"page_index":2,"viewing_time":27149.20000000298},{"page_index":3,"viewing_time":8401.29999999702},{"page_index":4,"viewing_time":5133},{"page_index":5,"viewing_time":3783.300000011921},{"page_index":6,"viewing_time":4300.5999999940395},{"page_index":7,"viewing_time":3716.0999999940395},{"page_index":8,"viewing_time":2867},{"page_index":9,"viewing_time":1866.800000011921},{"page_index":10,"viewing_time":1284.2999999970198},{"page_index":11,"viewing_time":5216.5},{"page_index":12,"viewing_time":8366.20000000298},{"page_index":13,"viewing_time":983.3999999910593},{"page_index":14,"viewing_time":1600.9000000059605}],"rt":89140.70000000298,"trial_type":"instructions","trial_index":3,"time_elapsed":111258,"internal_node_id":"0.0-3.0-0.0","subject_id":"60fca1e497655beee516dc72","study_id":"60edd13110225f80f9f3709b","session_id":"6196c1f7bbd1fb53a12aebf1","condition":"contingent","relevant_dimensions":["antennae","legs"],"bee_group":{"antennae":"A","wings":"X","pattern":"X","legs":"F"},"bonus":1.1600000000000013},{"rt":7528.899999991059,"response":{"Q0":["Two or six legs","Stripes or spots on body","Single or double wings","Antennae or no antennae"]},"question_order":[0],"trial_type":"survey-multi-select","trial_index":4,"time_elapsed":118793,"internal_node_id":"0.0-3.0-1.0","subject_id":"60fca1e497655beee516dc72","study_id":"60edd13110225f80f9f3709b","session_id":"6196c1f7bbd1fb53a12aebf1","condition":"contingent","relevant_dimensions":["antennae","legs"],"bee_group":{"antennae":"A","wings":"X","pattern":"X","legs":"F"},"correct":true,"bonus":1.1600000000000013},{"rt":15295.90000000596,"response":{"Q1":"No.","Q2":"Based on the four features of the bee.","Q3":"You do not learn if it was friendly or dangerous, and do not alter your bonus."},"question_order":[0,1,2],"trial_type":"survey-multi-choice","trial_index":5,"time_elapsed":134092,"internal_node_id":"0.0-3.0-2.0","subject_id":"60fca1e497655beee516dc72","study_id":"60edd13110225f80f9f3709b","session_id":"6196c1f7bbd1fb53a12aebf1","condition":"contingent","relevant_dimensions":["antennae","legs"],"bee_group":{"antennae":"A","wings":"X","pattern":"X","legs":"F"},"correct":true,"bonus":1.1600000000000013},{"rt":1913.3999999910593,"stimulus":"<p>Congrats, you got everything right<br>When you're ready, click the button below to continue to the experiment.</p>","response":0,"trial_type":"html-button-response","trial_index":6,"time_elapsed":136008,"internal_node_id":"0.0-3.0-3.0","subject_id":"60fca1e497655beee516dc72","study_id":"60edd13110225f80f9f3709b","session_id":"6196c1f7bbd1fb53a12aebf1","condition":"contingent","relevant_dimensions":["antennae","legs"],"bee_group":{"antennae":"A","wings":"X","pattern":"X","legs":"F"},"bonus":1.1600000000000013},{"rt":6979.79999999702,"stimulus":"bees-with-color/bee-B1SM.svg","response":0,"trial_type":"image-button-response","trial_index":7,"time_elapsed":142993,"internal_node_id":"0.0-4.0-0.0","subject_id":"60fca1e497655beee516dc72","study_id":"60edd13110225f80f9f3709b","session_id":"6196c1f7bbd1fb53a12aebf1","condition":"contingent","relevant_dimensions":["antennae","legs"],"bee_group":{"antennae":"A","wings":"X","pattern":"X","legs":"F"},"action":"harvest","summary":"good-harvest","bonus":1.1600000000000013},{"rt":6295.70000000298,"stimulus":"\n                    <p><b>Action: <em>harvest</em></b></p>\n                    <p>This is the bee that you just saw.</p>\n                    <img src=\"bees-with-color/bee-B1SM.svg\" width=\"200\">\n                    <p><span class=\"greenText\"><b>Successful harvest!</b></span><br>Your pay has increased by $0.02. Your bonus pay is now $0.56.</p>\n            ","response":0,"trial_type":"html-button-response","trial_index":8,"time_elapsed":149292,"internal_node_id":"0.0-4.0-1.0","subject_id":"60fca1e497655beee516dc72","study_id":"60edd13110225f80f9f3709b","session_id":"6196c1f7bbd1fb53a12aebf1","condition":"contingent","relevant_dimensions":["antennae","legs"],"bee_group":{"antennae":"A","wings":"X","pattern":"X","legs":"F"},"bonus":1.1600000000000013},{"rt":4445.70000000298,"stimulus":"bees-with-color/bee-B2DM.svg","response":0,"trial_type":"image-button-response","trial_index":9,"time_elapsed":153741,"internal_node_id":"0.0-4.0-0.1","subject_id":"60fca1e497655beee516dc72","study_id":"60edd13110225f80f9f3709b","session_id":"6196c1f7bbd1fb53a12aebf1","condition":"contingent","relevant_dimensions":["antennae","legs"],"bee_group":{"antennae":"A","wings":"X","pattern":"X","legs":"F"},"action":"harvest","summary":"good-harvest","bonus":1.1600000000000013},{"rt":6913,"stimulus":"\n                    <p><b>Action: <em>harvest</em></b></p>\n                    <p>This is the bee that you just saw.</p>\n                    <img src=\"bees-with-color/bee-B2DM.svg\" width=\"200\">\n                    <p><span class=\"greenText\"><b>Successful harvest!</b></span><br>Your pay has increased by $0.02. Your bonus pay is now $0.58.</p>\n            ","response":0,"trial_type":"html-button-response","trial_index":10,"time_elapsed":160658,"internal_node_id":"0.0-4.0-1.1","subject_id":"60fca1e497655beee516dc72","study_id":"60edd13110225f80f9f3709b","session_id":"6196c1f7bbd1fb53a12aebf1","condition":"contingent","relevant_dimensions":["antennae","legs"],"bee_group":{"antennae":"A","wings":"X","pattern":"X","legs":"F"},"bonus":1.1600000000000013},{"rt":4013,"stimulus":"bees-with-color/bee-A1DF.svg","response":0,"trial_type":"image-button-response","trial_index":11,"time_elapsed":164675,"internal_node_id":"0.0-4.0-0.2","subject_id":"60fca1e497655beee516dc72","study_id":"60edd13110225f80f9f3709b","session_id":"6196c1f7bbd1fb53a12aebf1","condition":"contingent","relevant_dimensions":["antennae","legs"],"bee_group":{"antennae":"A","wings":"X","pattern":"X","legs":"F"},"action":"harvest","summary":"bad-harvest","bonus":1.1600000000000013},{"rt":1564.0999999940395,"stimulus":"\n                    <p><b>Action: <em>harvest</em></b></p>\n                    <p>This is the bee that you just saw.</p>\n                    <img src=\"bees-with-color/bee-A1DF.svg\" width=\"200\">\n                    <p><span class=\"redText\">Bad choice, the bee was angry.</span><br><b>You have been stung!</b><br>Your pay has been decreased by $0.10. Your bonus pay is now $0.48.</p>\n            ","response":0,"trial_type":"html-button-response","trial_index":12,"time_elapsed":166241,"internal_node_id":"0.0-4.0-1.2","subject_id":"60fca1e497655beee516dc72","study_id":"60edd13110225f80f9f3709b","session_id":"6196c1f7bbd1fb53a12aebf1","condition":"contingent","relevant_dimensions":["antennae","legs"],"bee_group":{"antennae":"A","wings":"X","pattern":"X","legs":"F"},"bonus":1.1600000000000013},{"rt":1813.7000000029802,"stimulus":"bees-with-color/bee-B1DM.svg","response":0,"trial_type":"image-button-response","trial_index":13,"time_elapsed":168058,"internal_node_id":"0.0-4.0-0.3","subject_id":"60fca1e497655beee516dc72","study_id":"60edd13110225f80f9f3709b","session_id":"6196c1f7bbd1fb53a12aebf1","condition":"contingent","relevant_dimensions":["antennae","legs"],"bee_group":{"antennae":"A","wings":"X","pattern":"X","legs":"F"},"action":"harvest","summary":"good-harvest","bonus":1.1600000000000013},{"rt":1813.8999999910593,"stimulus":"\n                    <p><b>Action: <em>harvest</em></b></p>\n                    <p>This is the bee that you just saw.</p>\n                    <img src=\"bees-with-color/bee-B1DM.svg\" width=\"200\">\n                    <p><span class=\"greenText\"><b>Successful harvest!</b></span><br>Your pay has increased by $0.02. Your bonus pay is now $0.50.</p>\n            ","response":0,"trial_type":"html-button-response","trial_index":14,"time_elapsed":169875,"internal_node_id":"0.0-4.0-1.3","subject_id":"60fca1e497655beee516dc72","study_id":"60edd13110225f80f9f3709b","session_id":"6196c1f7bbd1fb53a12aebf1","condition":"contingent","relevant_dimensions":["antennae","legs"],"bee_group":{"antennae":"A","wings":"X","pattern":"X","legs":"F"},"bonus":1.1600000000000013},{"rt":2062.2999999970198,"stimulus":"bees-with-color/bee-B2DF.svg","response":1,"trial_type":"image-button-response","trial_index":15,"time_elapsed":171941,"internal_node_id":"0.0-4.0-0.4","subject_id":"60fca1e497655beee516dc72","study_id":"60edd13110225f80f9f3709b","session_id":"6196c1f7bbd1fb53a12aebf1","condition":"contingent","relevant_dimensions":["antennae","legs"],"bee_group":{"antennae":"A","wings":"X","pattern":"X","legs":"F"},"action":"avoid","summary":"bad-avoid","bonus":1.1600000000000013},{"rt":1813.2999999970198,"stimulus":"\n                    <p><b>Action: <em>avoid</em></b></p>\n                    <p>This is the bee that you just saw.</p>\n                    <img src=\"bees-with-color/bee-B2DF.svg\" width=\"200\">\n                    <p><br>Your bonus pay is unchanged, and remains at $0.50.</p>\n            ","response":0,"trial_type":"html-button-response","trial_index":16,"time_elapsed":173758,"internal_node_id":"0.0-4.0-1.4","subject_id":"60fca1e497655beee516dc72","study_id":"60edd13110225f80f9f3709b","session_id":"6196c1f7bbd1fb53a12aebf1","condition":"contingent","relevant_dimensions":["antennae","legs"],"bee_group":{"antennae":"A","wings":"X","pattern":"X","legs":"F"},"bonus":1.1600000000000013},{"rt":2780.7000000029802,"stimulus":"bees-with-color/bee-A2SM.svg","response":0,"trial_type":"image-button-response","trial_index":17,"time_elapsed":176542,"internal_node_id":"0.0-4.0-0.5","subject_id":"60fca1e497655beee516dc72","study_id":"60edd13110225f80f9f3709b","session_id":"6196c1f7bbd1fb53a12aebf1","condition":"contingent","relevant_dimensions":["antennae","legs"],"bee_group":{"antennae":"A","wings":"X","pattern":"X","legs":"F"},"action":"harvest","summary":"good-harvest","bonus":1.1600000000000013},{"rt":1346.7999999970198,"stimulus":"\n                    <p><b>Action: <em>harvest</em></b></p>\n                    <p>This is the bee that you just saw.</p>\n                    <img src=\"bees-with-color/bee-A2SM.svg\" width=\"200\">\n                    <p><span class=\"greenText\"><b>Successful harvest!</b></span><br>Your pay has increased by $0.02. Your bonus pay is now $0.52.</p>\n            ","response":0,"trial_type":"html-button-response","trial_index":18,"time_elapsed":177891,"internal_node_id":"0.0-4.0-1.5","subject_id":"60fca1e497655beee516dc72","study_id":"60edd13110225f80f9f3709b","session_id":"6196c1f7bbd1fb53a12aebf1","condition":"contingent","relevant_dimensions":["antennae","legs"],"bee_group":{"antennae":"A","wings":"X","pattern":"X","legs":"F"},"bonus":1.1600000000000013},{"rt":2014.5999999940395,"stimulus":"bees-with-color/bee-A2SF.svg","response":0,"trial_type":"image-button-response","trial_index":19,"time_elapsed":179909,"internal_node_id":"0.0-4.0-0.6","subject_id":"60fca1e497655beee516dc72","study_id":"60edd13110225f80f9f3709b","session_id":"6196c1f7bbd1fb53a12aebf1","condition":"contingent","relevant_dimensions":["antennae","legs"],"bee_group":{"antennae":"A","wings":"X","pattern":"X","legs":"F"},"action":"harvest","summary":"bad-harvest","bonus":1.1600000000000013},{"rt":846.2000000029802,"stimulus":"\n                    <p><b>Action: <em>harvest</em></b></p>\n                    <p>This is the bee that you just saw.</p>\n                    <img src=\"bees-with-color/bee-A2SF.svg\" width=\"200\">\n                    <p><span class=\"redText\">Bad choice, the bee was angry.</span><br><b>You have been stung!</b><br>Your pay has been decreased by $0.10. Your bonus pay is now $0.42.</p>\n            ","response":0,"trial_type":"html-button-response","trial_index":20,"time_elapsed":180758,"internal_node_id":"0.0-4.0-1.6","subject_id":"60fca1e497655beee516dc72","study_id":"60edd13110225f80f9f3709b","session_id":"6196c1f7bbd1fb53a12aebf1","condition":"contingent","relevant_dimensions":["antennae","legs"],"bee_group":{"antennae":"A","wings":"X","pattern":"X","legs":"F"},"bonus":1.1600000000000013},{"rt":1330,"stimulus":"bees-with-color/bee-B1DF.svg","response":1,"trial_type":"image-button-response","trial_index":21,"time_elapsed":182092,"internal_node_id":"0.0-4.0-0.7","subject_id":"60fca1e497655beee516dc72","study_id":"60edd13110225f80f9f3709b","session_id":"6196c1f7bbd1fb53a12aebf1","condition":"contingent","relevant_dimensions":["antennae","legs"],"bee_group":{"antennae":"A","wings":"X","pattern":"X","legs":"F"},"action":"avoid","summary":"bad-avoid","bonus":1.1600000000000013},{"rt":1081.300000011921,"stimulus":"\n                    <p><b>Action: <em>avoid</em></b></p>\n                    <p>This is the bee that you just saw.</p>\n                    <img src=\"bees-with-color/bee-B1DF.svg\" width=\"200\">\n                    <p><br>Your bonus pay is unchanged, and remains at $0.42.</p>\n            ","response":0,"trial_type":"html-button-response","trial_index":22,"time_elapsed":183176,"internal_node_id":"0.0-4.0-1.7","subject_id":"60fca1e497655beee516dc72","study_id":"60edd13110225f80f9f3709b","session_id":"6196c1f7bbd1fb53a12aebf1","condition":"contingent","relevant_dimensions":["antennae","legs"],"bee_group":{"antennae":"A","wings":"X","pattern":"X","legs":"F"},"bonus":1.1600000000000013},{"rt":1396.6000000089407,"stimulus":"bees-with-color/bee-B2SF.svg","response":1,"trial_type":"image-button-response","trial_index":23,"time_elapsed":184575,"internal_node_id":"0.0-4.0-0.8","subject_id":"60fca1e497655beee516dc72","study_id":"60edd13110225f80f9f3709b","session_id":"6196c1f7bbd1fb53a12aebf1","condition":"contingent","relevant_dimensions":["antennae","legs"],"bee_group":{"antennae":"A","wings":"X","pattern":"X","legs":"F"},"action":"avoid","summary":"bad-avoid","bonus":1.1600000000000013},{"rt":930.2000000029802,"stimulus":"\n                    <p><b>Action: <em>avoid</em></b></p>\n                    <p>This is the bee that you just saw.</p>\n                    <img src=\"bees-with-color/bee-B2SF.svg\" width=\"200\">\n                    <p><br>Your bonus pay is unchanged, and remains at $0.42.</p>\n            ","response":0,"trial_type":"html-button-response","trial_index":24,"time_elapsed":185508,"internal_node_id":"0.0-4.0-1.8","subject_id":"60fca1e497655beee516dc72","study_id":"60edd13110225f80f9f3709b","session_id":"6196c1f7bbd1fb53a12aebf1","condition":"contingent","relevant_dimensions":["antennae","legs"],"bee_group":{"antennae":"A","wings":"X","pattern":"X","legs":"F"},"bonus":1.1600000000000013},{"rt":1631.5999999940395,"stimulus":"bees-with-color/bee-A2DF.svg","response":1,"trial_type":"image-button-response","trial_index":25,"time_elapsed":187142,"internal_node_id":"0.0-4.0-0.9","subject_id":"60fca1e497655beee516dc72","study_id":"60edd13110225f80f9f3709b","session_id":"6196c1f7bbd1fb53a12aebf1","condition":"contingent","relevant_dimensions":["antennae","legs"],"bee_group":{"antennae":"A","wings":"X","pattern":"X","legs":"F"},"action":"avoid","summary":"good-avoid","bonus":1.1600000000000013},{"rt":762.6000000089407,"stimulus":"\n                    <p><b>Action: <em>avoid</em></b></p>\n                    <p>This is the bee that you just saw.</p>\n                    <img src=\"bees-with-color/bee-A2DF.svg\" width=\"200\">\n                    <p><br>Your bonus pay is unchanged, and remains at $0.42.</p>\n            ","response":0,"trial_type":"html-button-response","trial_index":26,"time_elapsed":187908,"internal_node_id":"0.0-4.0-1.9","subject_id":"60fca1e497655beee516dc72","study_id":"60edd13110225f80f9f3709b","session_id":"6196c1f7bbd1fb53a12aebf1","condition":"contingent","relevant_dimensions":["antennae","legs"],"bee_group":{"antennae":"A","wings":"X","pattern":"X","legs":"F"},"bonus":1.1600000000000013},{"rt":1047.2999999970198,"stimulus":"bees-with-color/bee-B1SF.svg","response":1,"trial_type":"image-button-response","trial_index":27,"time_elapsed":188958,"internal_node_id":"0.0-4.0-0.10","subject_id":"60fca1e497655beee516dc72","study_id":"60edd13110225f80f9f3709b","session_id":"6196c1f7bbd1fb53a12aebf1","condition":"contingent","relevant_dimensions":["antennae","legs"],"bee_group":{"antennae":"A","wings":"X","pattern":"X","legs":"F"},"action":"avoid","summary":"bad-avoid","bonus":1.1600000000000013},{"rt":646.5999999940395,"stimulus":"\n                    <p><b>Action: <em>avoid</em></b></p>\n                    <p>This is the bee that you just saw.</p>\n                    <img src=\"bees-with-color/bee-B1SF.svg\" width=\"200\">\n                    <p><br>Your bonus pay is unchanged, and remains at $0.42.</p>\n            ","response":0,"trial_type":"html-button-response","trial_index":28,"time_elapsed":189608,"internal_node_id":"0.0-4.0-1.10","subject_id":"60fca1e497655beee516dc72","study_id":"60edd13110225f80f9f3709b","session_id":"6196c1f7bbd1fb53a12aebf1","condition":"contingent","relevant_dimensions":["antennae","legs"],"bee_group":{"antennae":"A","wings":"X","pattern":"X","legs":"F"},"bonus":1.1600000000000013},{"rt":846.7000000029802,"stimulus":"bees-with-color/bee-A1SM.svg","response":0,"trial_type":"image-button-response","trial_index":29,"time_elapsed":190458,"internal_node_id":"0.0-4.0-0.11","subject_id":"60fca1e497655beee516dc72","study_id":"60edd13110225f80f9f3709b","session_id":"6196c1f7bbd1fb53a12aebf1","condition":"contingent","relevant_dimensions":["antennae","legs"],"bee_group":{"antennae":"A","wings":"X","pattern":"X","legs":"F"},"action":"harvest","summary":"good-harvest","bonus":1.1600000000000013},{"rt":765.0999999940395,"stimulus":"\n                    <p><b>Action: <em>harvest</em></b></p>\n                    <p>This is the bee that you just saw.</p>\n                    <img src=\"bees-with-color/bee-A1SM.svg\" width=\"200\">\n                    <p><span class=\"greenText\"><b>Successful harvest!</b></span><br>Your pay has increased by $0.02. Your bonus pay is now $0.44.</p>\n            ","response":0,"trial_type":"html-button-response","trial_index":30,"time_elapsed":191226,"internal_node_id":"0.0-4.0-1.11","subject_id":"60fca1e497655beee516dc72","study_id":"60edd13110225f80f9f3709b","session_id":"6196c1f7bbd1fb53a12aebf1","condition":"contingent","relevant_dimensions":["antennae","legs"],"bee_group":{"antennae":"A","wings":"X","pattern":"X","legs":"F"},"bonus":1.1600000000000013},{"rt":1463.199999988079,"stimulus":"bees-with-color/bee-B2SM.svg","response":0,"trial_type":"image-button-response","trial_index":31,"time_elapsed":192691,"internal_node_id":"0.0-4.0-0.12","subject_id":"60fca1e497655beee516dc72","study_id":"60edd13110225f80f9f3709b","session_id":"6196c1f7bbd1fb53a12aebf1","condition":"contingent","relevant_dimensions":["antennae","legs"],"bee_group":{"antennae":"A","wings":"X","pattern":"X","legs":"F"},"action":"harvest","summary":"good-harvest","bonus":1.1600000000000013},{"rt":696.8999999910593,"stimulus":"\n                    <p><b>Action: <em>harvest</em></b></p>\n                    <p>This is the bee that you just saw.</p>\n                    <img src=\"bees-with-color/bee-B2SM.svg\" width=\"200\">\n                    <p><span class=\"greenText\"><b>Successful harvest!</b></span><br>Your pay has increased by $0.02. Your bonus pay is now $0.46.</p>\n            ","response":0,"trial_type":"html-button-response","trial_index":32,"time_elapsed":193391,"internal_node_id":"0.0-4.0-1.12","subject_id":"60fca1e497655beee516dc72","study_id":"60edd13110225f80f9f3709b","session_id":"6196c1f7bbd1fb53a12aebf1","condition":"contingent","relevant_dimensions":["antennae","legs"],"bee_group":{"antennae":"A","wings":"X","pattern":"X","legs":"F"},"bonus":1.1600000000000013},{"rt":1048.0999999940395,"stimulus":"bees-with-color/bee-A2DM.svg","response":0,"trial_type":"image-button-response","trial_index":33,"time_elapsed":194441,"internal_node_id":"0.0-4.0-0.13","subject_id":"60fca1e497655beee516dc72","study_id":"60edd13110225f80f9f3709b","session_id":"6196c1f7bbd1fb53a12aebf1","condition":"contingent","relevant_dimensions":["antennae","legs"],"bee_group":{"antennae":"A","wings":"X","pattern":"X","legs":"F"},"action":"harvest","summary":"good-harvest","bonus":1.1600000000000013},{"rt":1047.5,"stimulus":"\n                    <p><b>Action: <em>harvest</em></b></p>\n                    <p>This is the bee that you just saw.</p>\n                    <img src=\"bees-with-color/bee-A2DM.svg\" width=\"200\">\n                    <p><span class=\"greenText\"><b>Successful harvest!</b></span><br>Your pay has increased by $0.02. Your bonus pay is now $0.48.</p>\n            ","response":0,"trial_type":"html-button-response","trial_index":34,"time_elapsed":195492,"internal_node_id":"0.0-4.0-1.13","subject_id":"60fca1e497655beee516dc72","study_id":"60edd13110225f80f9f3709b","session_id":"6196c1f7bbd1fb53a12aebf1","condition":"contingent","relevant_dimensions":["antennae","legs"],"bee_group":{"antennae":"A","wings":"X","pattern":"X","legs":"F"},"bonus":1.1600000000000013},{"rt":963.5999999940395,"stimulus":"bees-with-color/bee-A1DM.svg","response":0,"trial_type":"image-button-response","trial_index":35,"time_elapsed":196458,"internal_node_id":"0.0-4.0-0.14","subject_id":"60fca1e497655beee516dc72","study_id":"60edd13110225f80f9f3709b","session_id":"6196c1f7bbd1fb53a12aebf1","condition":"contingent","relevant_dimensions":["antennae","legs"],"bee_group":{"antennae":"A","wings":"X","pattern":"X","legs":"F"},"action":"harvest","summary":"good-harvest","bonus":1.1600000000000013},{"rt":747.2999999970198,"stimulus":"\n                    <p><b>Action: <em>harvest</em></b></p>\n                    <p>This is the bee that you just saw.</p>\n                    <img src=\"bees-with-color/bee-A1DM.svg\" width=\"200\">\n                    <p><span class=\"greenText\"><b>Successful harvest!</b></span><br>Your pay has increased by $0.02. Your bonus pay is now $0.50.</p>\n            ","response":0,"trial_type":"html-button-response","trial_index":36,"time_elapsed":197208,"internal_node_id":"0.0-4.0-1.14","subject_id":"60fca1e497655beee516dc72","study_id":"60edd13110225f80f9f3709b","session_id":"6196c1f7bbd1fb53a12aebf1","condition":"contingent","relevant_dimensions":["antennae","legs"],"bee_group":{"antennae":"A","wings":"X","pattern":"X","legs":"F"},"bonus":1.1600000000000013},{"rt":1146.9000000059605,"stimulus":"bees-with-color/bee-A1SF.svg","response":1,"trial_type":"image-button-response","trial_index":37,"time_elapsed":198358,"internal_node_id":"0.0-4.0-0.15","subject_id":"60fca1e497655beee516dc72","study_id":"60edd13110225f80f9f3709b","session_id":"6196c1f7bbd1fb53a12aebf1","condition":"contingent","relevant_dimensions":["antennae","legs"],"bee_group":{"antennae":"A","wings":"X","pattern":"X","legs":"F"},"action":"avoid","summary":"good-avoid","bonus":1.1600000000000013},{"rt":897.2000000029802,"stimulus":"\n                    <p><b>Action: <em>avoid</em></b></p>\n                    <p>This is the bee that you just saw.</p>\n                    <img src=\"bees-with-color/bee-A1SF.svg\" width=\"200\">\n                    <p><br>Your bonus pay is unchanged, and remains at $0.50.</p>\n            ","response":0,"trial_type":"html-button-response","trial_index":38,"time_elapsed":199258,"internal_node_id":"0.0-4.0-1.15","subject_id":"60fca1e497655beee516dc72","study_id":"60edd13110225f80f9f3709b","session_id":"6196c1f7bbd1fb53a12aebf1","condition":"contingent","relevant_dimensions":["antennae","legs"],"bee_group":{"antennae":"A","wings":"X","pattern":"X","legs":"F"},"bonus":1.1600000000000013},{"rt":1480.5,"stimulus":"bees-with-color/bee-B2SF.svg","response":0,"trial_type":"image-button-response","trial_index":39,"time_elapsed":200741,"internal_node_id":"0.0-4.0-0.16","subject_id":"60fca1e497655beee516dc72","study_id":"60edd13110225f80f9f3709b","session_id":"6196c1f7bbd1fb53a12aebf1","condition":"contingent","relevant_dimensions":["antennae","legs"],"bee_group":{"antennae":"A","wings":"X","pattern":"X","legs":"F"},"action":"harvest","summary":"good-harvest","bonus":1.1600000000000013},{"rt":10149.20000000298,"stimulus":"\n                    <p><b>Action: <em>harvest</em></b></p>\n                    <p>This is the bee that you just saw.</p>\n                    <img src=\"bees-with-color/bee-B2SF.svg\" width=\"200\">\n                    <p><span class=\"greenText\"><b>Successful harvest!</b></span><br>Your pay has increased by $0.02. Your bonus pay is now $0.52.</p>\n            ","response":0,"trial_type":"html-button-response","trial_index":40,"time_elapsed":210893,"internal_node_id":"0.0-4.0-1.16","subject_id":"60fca1e497655beee516dc72","study_id":"60edd13110225f80f9f3709b","session_id":"6196c1f7bbd1fb53a12aebf1","condition":"contingent","relevant_dimensions":["antennae","legs"],"bee_group":{"antennae":"A","wings":"X","pattern":"X","legs":"F"},"bonus":1.1600000000000013},{"rt":1330.1000000089407,"stimulus":"bees-with-color/bee-B1DM.svg","response":0,"trial_type":"image-button-response","trial_index":41,"time_elapsed":212226,"internal_node_id":"0.0-4.0-0.17","subject_id":"60fca1e497655beee516dc72","study_id":"60edd13110225f80f9f3709b","session_id":"6196c1f7bbd1fb53a12aebf1","condition":"contingent","relevant_dimensions":["antennae","legs"],"bee_group":{"antennae":"A","wings":"X","pattern":"X","legs":"F"},"action":"harvest","summary":"good-harvest","bonus":1.1600000000000013},{"rt":1595.7999999970198,"stimulus":"\n                    <p><b>Action: <em>harvest</em></b></p>\n                    <p>This is the bee that you just saw.</p>\n                    <img src=\"bees-with-color/bee-B1DM.svg\" width=\"200\">\n                    <p><span class=\"greenText\"><b>Successful harvest!</b></span><br>Your pay has increased by $0.02. Your bonus pay is now $0.54.</p>\n            ","response":0,"trial_type":"html-button-response","trial_index":42,"time_elapsed":213825,"internal_node_id":"0.0-4.0-1.17","subject_id":"60fca1e497655beee516dc72","study_id":"60edd13110225f80f9f3709b","session_id":"6196c1f7bbd1fb53a12aebf1","condition":"contingent","relevant_dimensions":["antennae","legs"],"bee_group":{"antennae":"A","wings":"X","pattern":"X","legs":"F"},"bonus":1.1600000000000013},{"rt":1181.0999999940395,"stimulus":"bees-with-color/bee-A2SM.svg","response":0,"trial_type":"image-button-response","trial_index":43,"time_elapsed":215009,"internal_node_id":"0.0-4.0-0.18","subject_id":"60fca1e497655beee516dc72","study_id":"60edd13110225f80f9f3709b","session_id":"6196c1f7bbd1fb53a12aebf1","condition":"contingent","relevant_dimensions":["antennae","legs"],"bee_group":{"antennae":"A","wings":"X","pattern":"X","legs":"F"},"action":"harvest","summary":"good-harvest","bonus":1.1600000000000013},{"rt":1345.9000000059605,"stimulus":"\n                    <p><b>Action: <em>harvest</em></b></p>\n                    <p>This is the bee that you just saw.</p>\n                    <img src=\"bees-with-color/bee-A2SM.svg\" width=\"200\">\n                    <p><span class=\"greenText\"><b>Successful harvest!</b></span><br>Your pay has increased by $0.02. Your bonus pay is now $0.56.</p>\n            ","response":0,"trial_type":"html-button-response","trial_index":44,"time_elapsed":216358,"internal_node_id":"0.0-4.0-1.18","subject_id":"60fca1e497655beee516dc72","study_id":"60edd13110225f80f9f3709b","session_id":"6196c1f7bbd1fb53a12aebf1","condition":"contingent","relevant_dimensions":["antennae","legs"],"bee_group":{"antennae":"A","wings":"X","pattern":"X","legs":"F"},"bonus":1.1600000000000013},{"rt":2064.2000000029802,"stimulus":"bees-with-color/bee-A2DF.svg","response":0,"trial_type":"image-button-response","trial_index":45,"time_elapsed":218425,"internal_node_id":"0.0-4.0-0.19","subject_id":"60fca1e497655beee516dc72","study_id":"60edd13110225f80f9f3709b","session_id":"6196c1f7bbd1fb53a12aebf1","condition":"contingent","relevant_dimensions":["antennae","legs"],"bee_group":{"antennae":"A","wings":"X","pattern":"X","legs":"F"},"action":"harvest","summary":"bad-harvest","bonus":1.1600000000000013},{"rt":10231,"stimulus":"\n                    <p><b>Action: <em>harvest</em></b></p>\n                    <p>This is the bee that you just saw.</p>\n                    <img src=\"bees-with-color/bee-A2DF.svg\" width=\"200\">\n                    <p><span class=\"redText\">Bad choice, the bee was angry.</span><br><b>You have been stung!</b><br>Your pay has been decreased by $0.10. Your bonus pay is now $0.46.</p>\n            ","response":0,"trial_type":"html-button-response","trial_index":46,"time_elapsed":228659,"internal_node_id":"0.0-4.0-1.19","subject_id":"60fca1e497655beee516dc72","study_id":"60edd13110225f80f9f3709b","session_id":"6196c1f7bbd1fb53a12aebf1","condition":"contingent","relevant_dimensions":["antennae","legs"],"bee_group":{"antennae":"A","wings":"X","pattern":"X","legs":"F"},"bonus":1.1600000000000013},{"rt":2547.2000000029802,"stimulus":"bees-with-color/bee-A2SF.svg","response":0,"trial_type":"image-button-response","trial_index":47,"time_elapsed":231209,"internal_node_id":"0.0-4.0-0.20","subject_id":"60fca1e497655beee516dc72","study_id":"60edd13110225f80f9f3709b","session_id":"6196c1f7bbd1fb53a12aebf1","condition":"contingent","relevant_dimensions":["antennae","legs"],"bee_group":{"antennae":"A","wings":"X","pattern":"X","legs":"F"},"action":"harvest","summary":"bad-harvest","bonus":1.1600000000000013},{"rt":2998.5,"stimulus":"\n                    <p><b>Action: <em>harvest</em></b></p>\n                    <p>This is the bee that you just saw.</p>\n                    <img src=\"bees-with-color/bee-A2SF.svg\" width=\"200\">\n                    <p><span class=\"redText\">Bad choice, the bee was angry.</span><br><b>You have been stung!</b><br>Your pay has been decreased by $0.10. Your bonus pay is now $0.36.</p>\n            ","response":0,"trial_type":"html-button-response","trial_index":48,"time_elapsed":234211,"internal_node_id":"0.0-4.0-1.20","subject_id":"60fca1e497655beee516dc72","study_id":"60edd13110225f80f9f3709b","session_id":"6196c1f7bbd1fb53a12aebf1","condition":"contingent","relevant_dimensions":["antennae","legs"],"bee_group":{"antennae":"A","wings":"X","pattern":"X","legs":"F"},"bonus":1.1600000000000013},{"rt":1560.9000000059605,"stimulus":"bees-with-color/bee-B1SF.svg","response":0,"trial_type":"image-button-response","trial_index":49,"time_elapsed":235775,"internal_node_id":"0.0-4.0-0.21","subject_id":"60fca1e497655beee516dc72","study_id":"60edd13110225f80f9f3709b","session_id":"6196c1f7bbd1fb53a12aebf1","condition":"contingent","relevant_dimensions":["antennae","legs"],"bee_group":{"antennae":"A","wings":"X","pattern":"X","legs":"F"},"action":"harvest","summary":"good-harvest","bonus":1.1600000000000013},{"rt":3497.2999999970198,"stimulus":"\n                    <p><b>Action: <em>harvest</em></b></p>\n                    <p>This is the bee that you just saw.</p>\n                    <img src=\"bees-with-color/bee-B1SF.svg\" width=\"200\">\n                    <p><span class=\"greenText\"><b>Successful harvest!</b></span><br>Your pay has increased by $0.02. Your bonus pay is now $0.38.</p>\n            ","response":0,"trial_type":"html-button-response","trial_index":50,"time_elapsed":239276,"internal_node_id":"0.0-4.0-1.21","subject_id":"60fca1e497655beee516dc72","study_id":"60edd13110225f80f9f3709b","session_id":"6196c1f7bbd1fb53a12aebf1","condition":"contingent","relevant_dimensions":["antennae","legs"],"bee_group":{"antennae":"A","wings":"X","pattern":"X","legs":"F"},"bonus":1.1600000000000013},{"rt":2179.6000000089407,"stimulus":"bees-with-color/bee-A2DM.svg","response":0,"trial_type":"image-button-response","trial_index":51,"time_elapsed":241459,"internal_node_id":"0.0-4.0-0.22","subject_id":"60fca1e497655beee516dc72","study_id":"60edd13110225f80f9f3709b","session_id":"6196c1f7bbd1fb53a12aebf1","condition":"contingent","relevant_dimensions":["antennae","legs"],"bee_group":{"antennae":"A","wings":"X","pattern":"X","legs":"F"},"action":"harvest","summary":"good-harvest","bonus":1.1600000000000013},{"rt":1963,"stimulus":"\n                    <p><b>Action: <em>harvest</em></b></p>\n                    <p>This is the bee that you just saw.</p>\n                    <img src=\"bees-with-color/bee-A2DM.svg\" width=\"200\">\n                    <p><span class=\"greenText\"><b>Successful harvest!</b></span><br>Your pay has increased by $0.02. Your bonus pay is now $0.40.</p>\n            ","response":0,"trial_type":"html-button-response","trial_index":52,"time_elapsed":243425,"internal_node_id":"0.0-4.0-1.22","subject_id":"60fca1e497655beee516dc72","study_id":"60edd13110225f80f9f3709b","session_id":"6196c1f7bbd1fb53a12aebf1","condition":"contingent","relevant_dimensions":["antennae","legs"],"bee_group":{"antennae":"A","wings":"X","pattern":"X","legs":"F"},"bonus":1.1600000000000013},{"rt":2680.6000000089407,"stimulus":"bees-with-color/bee-B2DF.svg","response":0,"trial_type":"image-button-response","trial_index":53,"time_elapsed":246109,"internal_node_id":"0.0-4.0-0.23","subject_id":"60fca1e497655beee516dc72","study_id":"60edd13110225f80f9f3709b","session_id":"6196c1f7bbd1fb53a12aebf1","condition":"contingent","relevant_dimensions":["antennae","legs"],"bee_group":{"antennae":"A","wings":"X","pattern":"X","legs":"F"},"action":"harvest","summary":"good-harvest","bonus":1.1600000000000013},{"rt":1448.7000000029802,"stimulus":"\n                    <p><b>Action: <em>harvest</em></b></p>\n                    <p>This is the bee that you just saw.</p>\n                    <img src=\"bees-with-color/bee-B2DF.svg\" width=\"200\">\n                    <p><span class=\"greenText\"><b>Successful harvest!</b></span><br>Your pay has increased by $0.02. Your bonus pay is now $0.42.</p>\n            ","response":0,"trial_type":"html-button-response","trial_index":54,"time_elapsed":247561,"internal_node_id":"0.0-4.0-1.23","subject_id":"60fca1e497655beee516dc72","study_id":"60edd13110225f80f9f3709b","session_id":"6196c1f7bbd1fb53a12aebf1","condition":"contingent","relevant_dimensions":["antennae","legs"],"bee_group":{"antennae":"A","wings":"X","pattern":"X","legs":"F"},"bonus":1.1600000000000013},{"rt":1195.7000000029802,"stimulus":"bees-with-color/bee-A1DM.svg","response":0,"trial_type":"image-button-response","trial_index":55,"time_elapsed":248760,"internal_node_id":"0.0-4.0-0.24","subject_id":"60fca1e497655beee516dc72","study_id":"60edd13110225f80f9f3709b","session_id":"6196c1f7bbd1fb53a12aebf1","condition":"contingent","relevant_dimensions":["antennae","legs"],"bee_group":{"antennae":"A","wings":"X","pattern":"X","legs":"F"},"action":"harvest","summary":"good-harvest","bonus":1.1600000000000013},{"rt":1265.2000000029802,"stimulus":"\n                    <p><b>Action: <em>harvest</em></b></p>\n                    <p>This is the bee that you just saw.</p>\n                    <img src=\"bees-with-color/bee-A1DM.svg\" width=\"200\">\n                    <p><span class=\"greenText\"><b>Successful harvest!</b></span><br>Your pay has increased by $0.02. Your bonus pay is now $0.44.</p>\n            ","response":0,"trial_type":"html-button-response","trial_index":56,"time_elapsed":250028,"internal_node_id":"0.0-4.0-1.24","subject_id":"60fca1e497655beee516dc72","study_id":"60edd13110225f80f9f3709b","session_id":"6196c1f7bbd1fb53a12aebf1","condition":"contingent","relevant_dimensions":["antennae","legs"],"bee_group":{"antennae":"A","wings":"X","pattern":"X","legs":"F"},"bonus":1.1600000000000013},{"rt":1645.7000000029802,"stimulus":"bees-with-color/bee-B2SM.svg","response":0,"trial_type":"image-button-response","trial_index":57,"time_elapsed":251677,"internal_node_id":"0.0-4.0-0.25","subject_id":"60fca1e497655beee516dc72","study_id":"60edd13110225f80f9f3709b","session_id":"6196c1f7bbd1fb53a12aebf1","condition":"contingent","relevant_dimensions":["antennae","legs"],"bee_group":{"antennae":"A","wings":"X","pattern":"X","legs":"F"},"action":"harvest","summary":"good-harvest","bonus":1.1600000000000013},{"rt":729.4000000059605,"stimulus":"\n                    <p><b>Action: <em>harvest</em></b></p>\n                    <p>This is the bee that you just saw.</p>\n                    <img src=\"bees-with-color/bee-B2SM.svg\" width=\"200\">\n                    <p><span class=\"greenText\"><b>Successful harvest!</b></span><br>Your pay has increased by $0.02. Your bonus pay is now $0.46.</p>\n            ","response":0,"trial_type":"html-button-response","trial_index":58,"time_elapsed":252410,"internal_node_id":"0.0-4.0-1.25","subject_id":"60fca1e497655beee516dc72","study_id":"60edd13110225f80f9f3709b","session_id":"6196c1f7bbd1fb53a12aebf1","condition":"contingent","relevant_dimensions":["antennae","legs"],"bee_group":{"antennae":"A","wings":"X","pattern":"X","legs":"F"},"bonus":1.1600000000000013},{"rt":1347,"stimulus":"bees-with-color/bee-B1SM.svg","response":0,"trial_type":"image-button-response","trial_index":59,"time_elapsed":253760,"internal_node_id":"0.0-4.0-0.26","subject_id":"60fca1e497655beee516dc72","study_id":"60edd13110225f80f9f3709b","session_id":"6196c1f7bbd1fb53a12aebf1","condition":"contingent","relevant_dimensions":["antennae","legs"],"bee_group":{"antennae":"A","wings":"X","pattern":"X","legs":"F"},"action":"harvest","summary":"good-harvest","bonus":1.1600000000000013},{"rt":1196.8999999910593,"stimulus":"\n                    <p><b>Action: <em>harvest</em></b></p>\n                    <p>This is the bee that you just saw.</p>\n                    <img src=\"bees-with-color/bee-B1SM.svg\" width=\"200\">\n                    <p><span class=\"greenText\"><b>Successful harvest!</b></span><br>Your pay has increased by $0.02. Your bonus pay is now $0.48.</p>\n            ","response":0,"trial_type":"html-button-response","trial_index":60,"time_elapsed":254960,"internal_node_id":"0.0-4.0-1.26","subject_id":"60fca1e497655beee516dc72","study_id":"60edd13110225f80f9f3709b","session_id":"6196c1f7bbd1fb53a12aebf1","condition":"contingent","relevant_dimensions":["antennae","legs"],"bee_group":{"antennae":"A","wings":"X","pattern":"X","legs":"F"},"bonus":1.1600000000000013},{"rt":1562.4000000059605,"stimulus":"bees-with-color/bee-A1DF.svg","response":0,"trial_type":"image-button-response","trial_index":61,"time_elapsed":256525,"internal_node_id":"0.0-4.0-0.27","subject_id":"60fca1e497655beee516dc72","study_id":"60edd13110225f80f9f3709b","session_id":"6196c1f7bbd1fb53a12aebf1","condition":"contingent","relevant_dimensions":["antennae","legs"],"bee_group":{"antennae":"A","wings":"X","pattern":"X","legs":"F"},"action":"harvest","summary":"bad-harvest","bonus":1.1600000000000013},{"rt":714,"stimulus":"\n                    <p><b>Action: <em>harvest</em></b></p>\n                    <p>This is the bee that you just saw.</p>\n                    <img src=\"bees-with-color/bee-A1DF.svg\" width=\"200\">\n                    <p><span class=\"redText\">Bad choice, the bee was angry.</span><br><b>You have been stung!</b><br>Your pay has been decreased by $0.10. Your bonus pay is now $0.38.</p>\n            ","response":0,"trial_type":"html-button-response","trial_index":62,"time_elapsed":257242,"internal_node_id":"0.0-4.0-1.27","subject_id":"60fca1e497655beee516dc72","study_id":"60edd13110225f80f9f3709b","session_id":"6196c1f7bbd1fb53a12aebf1","condition":"contingent","relevant_dimensions":["antennae","legs"],"bee_group":{"antennae":"A","wings":"X","pattern":"X","legs":"F"},"bonus":1.1600000000000013},{"rt":2797.4000000059605,"stimulus":"bees-with-color/bee-A1SF.svg","response":0,"trial_type":"image-button-response","trial_index":63,"time_elapsed":260042,"internal_node_id":"0.0-4.0-0.28","subject_id":"60fca1e497655beee516dc72","study_id":"60edd13110225f80f9f3709b","session_id":"6196c1f7bbd1fb53a12aebf1","condition":"contingent","relevant_dimensions":["antennae","legs"],"bee_group":{"antennae":"A","wings":"X","pattern":"X","legs":"F"},"action":"harvest","summary":"bad-harvest","bonus":1.1600000000000013},{"rt":747.5,"stimulus":"\n                    <p><b>Action: <em>harvest</em></b></p>\n                    <p>This is the bee that you just saw.</p>\n                    <img src=\"bees-with-color/bee-A1SF.svg\" width=\"200\">\n                    <p><span class=\"redText\">Bad choice, the bee was angry.</span><br><b>You have been stung!</b><br>Your pay has been decreased by $0.10. Your bonus pay is now $0.28.</p>\n            ","response":0,"trial_type":"html-button-response","trial_index":64,"time_elapsed":260793,"internal_node_id":"0.0-4.0-1.28","subject_id":"60fca1e497655beee516dc72","study_id":"60edd13110225f80f9f3709b","session_id":"6196c1f7bbd1fb53a12aebf1","condition":"contingent","relevant_dimensions":["antennae","legs"],"bee_group":{"antennae":"A","wings":"X","pattern":"X","legs":"F"},"bonus":1.1600000000000013},{"rt":1328.5999999940395,"stimulus":"bees-with-color/bee-B2DM.svg","response":0,"trial_type":"image-button-response","trial_index":65,"time_elapsed":262125,"internal_node_id":"0.0-4.0-0.29","subject_id":"60fca1e497655beee516dc72","study_id":"60edd13110225f80f9f3709b","session_id":"6196c1f7bbd1fb53a12aebf1","condition":"contingent","relevant_dimensions":["antennae","legs"],"bee_group":{"antennae":"A","wings":"X","pattern":"X","legs":"F"},"action":"harvest","summary":"good-harvest","bonus":1.1600000000000013},{"rt":731.2000000029802,"stimulus":"\n                    <p><b>Action: <em>harvest</em></b></p>\n                    <p>This is the bee that you just saw.</p>\n                    <img src=\"bees-with-color/bee-B2DM.svg\" width=\"200\">\n                    <p><span class=\"greenText\"><b>Successful harvest!</b></span><br>Your pay has increased by $0.02. Your bonus pay is now $0.30.</p>\n            ","response":0,"trial_type":"html-button-response","trial_index":66,"time_elapsed":262860,"internal_node_id":"0.0-4.0-1.29","subject_id":"60fca1e497655beee516dc72","study_id":"60edd13110225f80f9f3709b","session_id":"6196c1f7bbd1fb53a12aebf1","condition":"contingent","relevant_dimensions":["antennae","legs"],"bee_group":{"antennae":"A","wings":"X","pattern":"X","legs":"F"},"bonus":1.1600000000000013},{"rt":1347.2999999970198,"stimulus":"bees-with-color/bee-B1DF.svg","response":0,"trial_type":"image-button-response","trial_index":67,"time_elapsed":264210,"internal_node_id":"0.0-4.0-0.30","subject_id":"60fca1e497655beee516dc72","study_id":"60edd13110225f80f9f3709b","session_id":"6196c1f7bbd1fb53a12aebf1","condition":"contingent","relevant_dimensions":["antennae","legs"],"bee_group":{"antennae":"A","wings":"X","pattern":"X","legs":"F"},"action":"harvest","summary":"good-harvest","bonus":1.1600000000000013},{"rt":662.6999999880791,"stimulus":"\n                    <p><b>Action: <em>harvest</em></b></p>\n                    <p>This is the bee that you just saw.</p>\n                    <img src=\"bees-with-color/bee-B1DF.svg\" width=\"200\">\n                    <p><span class=\"greenText\"><b>Successful harvest!</b></span><br>Your pay has increased by $0.02. Your bonus pay is now $0.32.</p>\n            ","response":0,"trial_type":"html-button-response","trial_index":68,"time_elapsed":264876,"internal_node_id":"0.0-4.0-1.30","subject_id":"60fca1e497655beee516dc72","study_id":"60edd13110225f80f9f3709b","session_id":"6196c1f7bbd1fb53a12aebf1","condition":"contingent","relevant_dimensions":["antennae","legs"],"bee_group":{"antennae":"A","wings":"X","pattern":"X","legs":"F"},"bonus":1.1600000000000013},{"rt":863.5999999940395,"stimulus":"bees-with-color/bee-A1SM.svg","response":0,"trial_type":"image-button-response","trial_index":69,"time_elapsed":265742,"internal_node_id":"0.0-4.0-0.31","subject_id":"60fca1e497655beee516dc72","study_id":"60edd13110225f80f9f3709b","session_id":"6196c1f7bbd1fb53a12aebf1","condition":"contingent","relevant_dimensions":["antennae","legs"],"bee_group":{"antennae":"A","wings":"X","pattern":"X","legs":"F"},"action":"harvest","summary":"good-harvest","bonus":1.1600000000000013},{"rt":597.9000000059605,"stimulus":"\n                    <p><b>Action: <em>harvest</em></b></p>\n                    <p>This is the bee that you just saw.</p>\n                    <img src=\"bees-with-color/bee-A1SM.svg\" width=\"200\">\n                    <p><span class=\"greenText\"><b>Successful harvest!</b></span><br>Your pay has increased by $0.02. Your bonus pay is now $0.34.</p>\n            ","response":0,"trial_type":"html-button-response","trial_index":70,"time_elapsed":266343,"internal_node_id":"0.0-4.0-1.31","subject_id":"60fca1e497655beee516dc72","study_id":"60edd13110225f80f9f3709b","session_id":"6196c1f7bbd1fb53a12aebf1","condition":"contingent","relevant_dimensions":["antennae","legs"],"bee_group":{"antennae":"A","wings":"X","pattern":"X","legs":"F"},"bonus":1.1600000000000013},{"rt":862.4000000059605,"stimulus":"bees-with-color/bee-A2DM.svg","response":0,"trial_type":"image-button-response","trial_index":71,"time_elapsed":267209,"internal_node_id":"0.0-4.0-0.32","subject_id":"60fca1e497655beee516dc72","study_id":"60edd13110225f80f9f3709b","session_id":"6196c1f7bbd1fb53a12aebf1","condition":"contingent","relevant_dimensions":["antennae","legs"],"bee_group":{"antennae":"A","wings":"X","pattern":"X","legs":"F"},"action":"harvest","summary":"good-harvest","bonus":1.1600000000000013},{"rt":730.4000000059605,"stimulus":"\n                    <p><b>Action: <em>harvest</em></b></p>\n                    <p>This is the bee that you just saw.</p>\n                    <img src=\"bees-with-color/bee-A2DM.svg\" width=\"200\">\n                    <p><span class=\"greenText\"><b>Successful harvest!</b></span><br>Your pay has increased by $0.02. Your bonus pay is now $0.36.</p>\n            ","response":0,"trial_type":"html-button-response","trial_index":72,"time_elapsed":267942,"internal_node_id":"0.0-4.0-1.32","subject_id":"60fca1e497655beee516dc72","study_id":"60edd13110225f80f9f3709b","session_id":"6196c1f7bbd1fb53a12aebf1","condition":"contingent","relevant_dimensions":["antennae","legs"],"bee_group":{"antennae":"A","wings":"X","pattern":"X","legs":"F"},"bonus":1.1600000000000013},{"rt":1196.5,"stimulus":"bees-with-color/bee-A1SM.svg","response":0,"trial_type":"image-button-response","trial_index":73,"time_elapsed":269142,"internal_node_id":"0.0-4.0-0.33","subject_id":"60fca1e497655beee516dc72","study_id":"60edd13110225f80f9f3709b","session_id":"6196c1f7bbd1fb53a12aebf1","condition":"contingent","relevant_dimensions":["antennae","legs"],"bee_group":{"antennae":"A","wings":"X","pattern":"X","legs":"F"},"action":"harvest","summary":"good-harvest","bonus":1.1600000000000013},{"rt":680.2999999970198,"stimulus":"\n                    <p><b>Action: <em>harvest</em></b></p>\n                    <p>This is the bee that you just saw.</p>\n                    <img src=\"bees-with-color/bee-A1SM.svg\" width=\"200\">\n                    <p><span class=\"greenText\"><b>Successful harvest!</b></span><br>Your pay has increased by $0.02. Your bonus pay is now $0.38.</p>\n            ","response":0,"trial_type":"html-button-response","trial_index":74,"time_elapsed":269825,"internal_node_id":"0.0-4.0-1.33","subject_id":"60fca1e497655beee516dc72","study_id":"60edd13110225f80f9f3709b","session_id":"6196c1f7bbd1fb53a12aebf1","condition":"contingent","relevant_dimensions":["antennae","legs"],"bee_group":{"antennae":"A","wings":"X","pattern":"X","legs":"F"},"bonus":1.1600000000000013},{"rt":1548,"stimulus":"bees-with-color/bee-B2SF.svg","response":1,"trial_type":"image-button-response","trial_index":75,"time_elapsed":271377,"internal_node_id":"0.0-4.0-0.34","subject_id":"60fca1e497655beee516dc72","study_id":"60edd13110225f80f9f3709b","session_id":"6196c1f7bbd1fb53a12aebf1","condition":"contingent","relevant_dimensions":["antennae","legs"],"bee_group":{"antennae":"A","wings":"X","pattern":"X","legs":"F"},"action":"avoid","summary":"bad-avoid","bonus":1.1600000000000013},{"rt":813,"stimulus":"\n                    <p><b>Action: <em>avoid</em></b></p>\n                    <p>This is the bee that you just saw.</p>\n                    <img src=\"bees-with-color/bee-B2SF.svg\" width=\"200\">\n                    <p><br>Your bonus pay is unchanged, and remains at $0.38.</p>\n            ","response":0,"trial_type":"html-button-response","trial_index":76,"time_elapsed":272193,"internal_node_id":"0.0-4.0-1.34","subject_id":"60fca1e497655beee516dc72","study_id":"60edd13110225f80f9f3709b","session_id":"6196c1f7bbd1fb53a12aebf1","condition":"contingent","relevant_dimensions":["antennae","legs"],"bee_group":{"antennae":"A","wings":"X","pattern":"X","legs":"F"},"bonus":1.1600000000000013},{"rt":1096.2000000029802,"stimulus":"bees-with-color/bee-A1SF.svg","response":0,"trial_type":"image-button-response","trial_index":77,"time_elapsed":273292,"internal_node_id":"0.0-4.0-0.35","subject_id":"60fca1e497655beee516dc72","study_id":"60edd13110225f80f9f3709b","session_id":"6196c1f7bbd1fb53a12aebf1","condition":"contingent","relevant_dimensions":["antennae","legs"],"bee_group":{"antennae":"A","wings":"X","pattern":"X","legs":"F"},"action":"harvest","summary":"bad-harvest","bonus":1.1600000000000013},{"rt":845.7999999970198,"stimulus":"\n                    <p><b>Action: <em>harvest</em></b></p>\n                    <p>This is the bee that you just saw.</p>\n                    <img src=\"bees-with-color/bee-A1SF.svg\" width=\"200\">\n                    <p><span class=\"redText\">Bad choice, the bee was angry.</span><br><b>You have been stung!</b><br>Your pay has been decreased by $0.10. Your bonus pay is now $0.28.</p>\n            ","response":0,"trial_type":"html-button-response","trial_index":78,"time_elapsed":274142,"internal_node_id":"0.0-4.0-1.35","subject_id":"60fca1e497655beee516dc72","study_id":"60edd13110225f80f9f3709b","session_id":"6196c1f7bbd1fb53a12aebf1","condition":"contingent","relevant_dimensions":["antennae","legs"],"bee_group":{"antennae":"A","wings":"X","pattern":"X","legs":"F"},"bonus":1.1600000000000013},{"rt":1330.3999999910593,"stimulus":"bees-with-color/bee-A1DF.svg","response":1,"trial_type":"image-button-response","trial_index":79,"time_elapsed":275476,"internal_node_id":"0.0-4.0-0.36","subject_id":"60fca1e497655beee516dc72","study_id":"60edd13110225f80f9f3709b","session_id":"6196c1f7bbd1fb53a12aebf1","condition":"contingent","relevant_dimensions":["antennae","legs"],"bee_group":{"antennae":"A","wings":"X","pattern":"X","legs":"F"},"action":"avoid","summary":"good-avoid","bonus":1.1600000000000013},{"rt":646.5,"stimulus":"\n                    <p><b>Action: <em>avoid</em></b></p>\n                    <p>This is the bee that you just saw.</p>\n                    <img src=\"bees-with-color/bee-A1DF.svg\" width=\"200\">\n                    <p><br>Your bonus pay is unchanged, and remains at $0.28.</p>\n            ","response":0,"trial_type":"html-button-response","trial_index":80,"time_elapsed":276126,"internal_node_id":"0.0-4.0-1.36","subject_id":"60fca1e497655beee516dc72","study_id":"60edd13110225f80f9f3709b","session_id":"6196c1f7bbd1fb53a12aebf1","condition":"contingent","relevant_dimensions":["antennae","legs"],"bee_group":{"antennae":"A","wings":"X","pattern":"X","legs":"F"},"bonus":1.1600000000000013},{"rt":813.2000000029802,"stimulus":"bees-with-color/bee-A1DM.svg","response":0,"trial_type":"image-button-response","trial_index":81,"time_elapsed":276942,"internal_node_id":"0.0-4.0-0.37","subject_id":"60fca1e497655beee516dc72","study_id":"60edd13110225f80f9f3709b","session_id":"6196c1f7bbd1fb53a12aebf1","condition":"contingent","relevant_dimensions":["antennae","legs"],"bee_group":{"antennae":"A","wings":"X","pattern":"X","legs":"F"},"action":"harvest","summary":"good-harvest","bonus":1.1600000000000013},{"rt":597.7999999970198,"stimulus":"\n                    <p><b>Action: <em>harvest</em></b></p>\n                    <p>This is the bee that you just saw.</p>\n                    <img src=\"bees-with-color/bee-A1DM.svg\" width=\"200\">\n                    <p><span class=\"greenText\"><b>Successful harvest!</b></span><br>Your pay has increased by $0.02. Your bonus pay is now $0.30.</p>\n            ","response":0,"trial_type":"html-button-response","trial_index":82,"time_elapsed":277543,"internal_node_id":"0.0-4.0-1.37","subject_id":"60fca1e497655beee516dc72","study_id":"60edd13110225f80f9f3709b","session_id":"6196c1f7bbd1fb53a12aebf1","condition":"contingent","relevant_dimensions":["antennae","legs"],"bee_group":{"antennae":"A","wings":"X","pattern":"X","legs":"F"},"bonus":1.1600000000000013},{"rt":1012.6000000089407,"stimulus":"bees-with-color/bee-B2DF.svg","response":0,"trial_type":"image-button-response","trial_index":83,"time_elapsed":278559,"internal_node_id":"0.0-4.0-0.38","subject_id":"60fca1e497655beee516dc72","study_id":"60edd13110225f80f9f3709b","session_id":"6196c1f7bbd1fb53a12aebf1","condition":"contingent","relevant_dimensions":["antennae","legs"],"bee_group":{"antennae":"A","wings":"X","pattern":"X","legs":"F"},"action":"harvest","summary":"good-harvest","bonus":1.1600000000000013},{"rt":596,"stimulus":"\n                    <p><b>Action: <em>harvest</em></b></p>\n                    <p>This is the bee that you just saw.</p>\n                    <img src=\"bees-with-color/bee-B2DF.svg\" width=\"200\">\n                    <p><span class=\"greenText\"><b>Successful harvest!</b></span><br>Your pay has increased by $0.02. Your bonus pay is now $0.32.</p>\n            ","response":0,"trial_type":"html-button-response","trial_index":84,"time_elapsed":279159,"internal_node_id":"0.0-4.0-1.38","subject_id":"60fca1e497655beee516dc72","study_id":"60edd13110225f80f9f3709b","session_id":"6196c1f7bbd1fb53a12aebf1","condition":"contingent","relevant_dimensions":["antennae","legs"],"bee_group":{"antennae":"A","wings":"X","pattern":"X","legs":"F"},"bonus":1.1600000000000013},{"rt":896.7000000029802,"stimulus":"bees-with-color/bee-B1DM.svg","response":0,"trial_type":"image-button-response","trial_index":85,"time_elapsed":280059,"internal_node_id":"0.0-4.0-0.39","subject_id":"60fca1e497655beee516dc72","study_id":"60edd13110225f80f9f3709b","session_id":"6196c1f7bbd1fb53a12aebf1","condition":"contingent","relevant_dimensions":["antennae","legs"],"bee_group":{"antennae":"A","wings":"X","pattern":"X","legs":"F"},"action":"harvest","summary":"good-harvest","bonus":1.1600000000000013},{"rt":663,"stimulus":"\n                    <p><b>Action: <em>harvest</em></b></p>\n                    <p>This is the bee that you just saw.</p>\n                    <img src=\"bees-with-color/bee-B1DM.svg\" width=\"200\">\n                    <p><span class=\"greenText\"><b>Successful harvest!</b></span><br>Your pay has increased by $0.02. Your bonus pay is now $0.34.</p>\n            ","response":0,"trial_type":"html-button-response","trial_index":86,"time_elapsed":280726,"internal_node_id":"0.0-4.0-1.39","subject_id":"60fca1e497655beee516dc72","study_id":"60edd13110225f80f9f3709b","session_id":"6196c1f7bbd1fb53a12aebf1","condition":"contingent","relevant_dimensions":["antennae","legs"],"bee_group":{"antennae":"A","wings":"X","pattern":"X","legs":"F"},"bonus":1.1600000000000013},{"rt":1830.2000000029802,"stimulus":"bees-with-color/bee-B1DF.svg","response":0,"trial_type":"image-button-response","trial_index":87,"time_elapsed":282560,"internal_node_id":"0.0-4.0-0.40","subject_id":"60fca1e497655beee516dc72","study_id":"60edd13110225f80f9f3709b","session_id":"6196c1f7bbd1fb53a12aebf1","condition":"contingent","relevant_dimensions":["antennae","legs"],"bee_group":{"antennae":"A","wings":"X","pattern":"X","legs":"F"},"action":"harvest","summary":"good-harvest","bonus":1.1600000000000013},{"rt":679.0999999940395,"stimulus":"\n                    <p><b>Action: <em>harvest</em></b></p>\n                    <p>This is the bee that you just saw.</p>\n                    <img src=\"bees-with-color/bee-B1DF.svg\" width=\"200\">\n                    <p><span class=\"greenText\"><b>Successful harvest!</b></span><br>Your pay has increased by $0.02. Your bonus pay is now $0.36.</p>\n            ","response":0,"trial_type":"html-button-response","trial_index":88,"time_elapsed":283243,"internal_node_id":"0.0-4.0-1.40","subject_id":"60fca1e497655beee516dc72","study_id":"60edd13110225f80f9f3709b","session_id":"6196c1f7bbd1fb53a12aebf1","condition":"contingent","relevant_dimensions":["antennae","legs"],"bee_group":{"antennae":"A","wings":"X","pattern":"X","legs":"F"},"bonus":1.1600000000000013},{"rt":813.9000000059605,"stimulus":"bees-with-color/bee-B1SF.svg","response":0,"trial_type":"image-button-response","trial_index":89,"time_elapsed":284060,"internal_node_id":"0.0-4.0-0.41","subject_id":"60fca1e497655beee516dc72","study_id":"60edd13110225f80f9f3709b","session_id":"6196c1f7bbd1fb53a12aebf1","condition":"contingent","relevant_dimensions":["antennae","legs"],"bee_group":{"antennae":"A","wings":"X","pattern":"X","legs":"F"},"action":"harvest","summary":"good-harvest","bonus":1.1600000000000013},{"rt":628.7000000029802,"stimulus":"\n                    <p><b>Action: <em>harvest</em></b></p>\n                    <p>This is the bee that you just saw.</p>\n                    <img src=\"bees-with-color/bee-B1SF.svg\" width=\"200\">\n                    <p><span class=\"greenText\"><b>Successful harvest!</b></span><br>Your pay has increased by $0.02. Your bonus pay is now $0.38.</p>\n            ","response":0,"trial_type":"html-button-response","trial_index":90,"time_elapsed":284693,"internal_node_id":"0.0-4.0-1.41","subject_id":"60fca1e497655beee516dc72","study_id":"60edd13110225f80f9f3709b","session_id":"6196c1f7bbd1fb53a12aebf1","condition":"contingent","relevant_dimensions":["antennae","legs"],"bee_group":{"antennae":"A","wings":"X","pattern":"X","legs":"F"},"bonus":1.1600000000000013},{"rt":996,"stimulus":"bees-with-color/bee-B1SM.svg","response":0,"trial_type":"image-button-response","trial_index":91,"time_elapsed":285693,"internal_node_id":"0.0-4.0-0.42","subject_id":"60fca1e497655beee516dc72","study_id":"60edd13110225f80f9f3709b","session_id":"6196c1f7bbd1fb53a12aebf1","condition":"contingent","relevant_dimensions":["antennae","legs"],"bee_group":{"antennae":"A","wings":"X","pattern":"X","legs":"F"},"action":"harvest","summary":"good-harvest","bonus":1.1600000000000013},{"rt":945.9000000059605,"stimulus":"\n                    <p><b>Action: <em>harvest</em></b></p>\n                    <p>This is the bee that you just saw.</p>\n                    <img src=\"bees-with-color/bee-B1SM.svg\" width=\"200\">\n                    <p><span class=\"greenText\"><b>Successful harvest!</b></span><br>Your pay has increased by $0.02. Your bonus pay is now $0.40.</p>\n            ","response":0,"trial_type":"html-button-response","trial_index":92,"time_elapsed":286642,"internal_node_id":"0.0-4.0-1.42","subject_id":"60fca1e497655beee516dc72","study_id":"60edd13110225f80f9f3709b","session_id":"6196c1f7bbd1fb53a12aebf1","condition":"contingent","relevant_dimensions":["antennae","legs"],"bee_group":{"antennae":"A","wings":"X","pattern":"X","legs":"F"},"bonus":1.1600000000000013},{"rt":946.7000000029802,"stimulus":"bees-with-color/bee-A2SM.svg","response":0,"trial_type":"image-button-response","trial_index":93,"time_elapsed":287592,"internal_node_id":"0.0-4.0-0.43","subject_id":"60fca1e497655beee516dc72","study_id":"60edd13110225f80f9f3709b","session_id":"6196c1f7bbd1fb53a12aebf1","condition":"contingent","relevant_dimensions":["antennae","legs"],"bee_group":{"antennae":"A","wings":"X","pattern":"X","legs":"F"},"action":"harvest","summary":"good-harvest","bonus":1.1600000000000013},{"rt":646.7999999970198,"stimulus":"\n                    <p><b>Action: <em>harvest</em></b></p>\n                    <p>This is the bee that you just saw.</p>\n                    <img src=\"bees-with-color/bee-A2SM.svg\" width=\"200\">\n                    <p><span class=\"greenText\"><b>Successful harvest!</b></span><br>Your pay has increased by $0.02. Your bonus pay is now $0.42.</p>\n            ","response":0,"trial_type":"html-button-response","trial_index":94,"time_elapsed":288242,"internal_node_id":"0.0-4.0-1.43","subject_id":"60fca1e497655beee516dc72","study_id":"60edd13110225f80f9f3709b","session_id":"6196c1f7bbd1fb53a12aebf1","condition":"contingent","relevant_dimensions":["antennae","legs"],"bee_group":{"antennae":"A","wings":"X","pattern":"X","legs":"F"},"bonus":1.1600000000000013},{"rt":2697.6000000089407,"stimulus":"bees-with-color/bee-A2SF.svg","response":1,"trial_type":"image-button-response","trial_index":95,"time_elapsed":290942,"internal_node_id":"0.0-4.0-0.44","subject_id":"60fca1e497655beee516dc72","study_id":"60edd13110225f80f9f3709b","session_id":"6196c1f7bbd1fb53a12aebf1","condition":"contingent","relevant_dimensions":["antennae","legs"],"bee_group":{"antennae":"A","wings":"X","pattern":"X","legs":"F"},"action":"avoid","summary":"good-avoid","bonus":1.1600000000000013},{"rt":630.0999999940395,"stimulus":"\n                    <p><b>Action: <em>avoid</em></b></p>\n                    <p>This is the bee that you just saw.</p>\n                    <img src=\"bees-with-color/bee-A2SF.svg\" width=\"200\">\n                    <p><br>Your bonus pay is unchanged, and remains at $0.42.</p>\n            ","response":0,"trial_type":"html-button-response","trial_index":96,"time_elapsed":291576,"internal_node_id":"0.0-4.0-1.44","subject_id":"60fca1e497655beee516dc72","study_id":"60edd13110225f80f9f3709b","session_id":"6196c1f7bbd1fb53a12aebf1","condition":"contingent","relevant_dimensions":["antennae","legs"],"bee_group":{"antennae":"A","wings":"X","pattern":"X","legs":"F"},"bonus":1.1600000000000013},{"rt":1263,"stimulus":"bees-with-color/bee-A2DF.svg","response":1,"trial_type":"image-button-response","trial_index":97,"time_elapsed":292842,"internal_node_id":"0.0-4.0-0.45","subject_id":"60fca1e497655beee516dc72","study_id":"60edd13110225f80f9f3709b","session_id":"6196c1f7bbd1fb53a12aebf1","condition":"contingent","relevant_dimensions":["antennae","legs"],"bee_group":{"antennae":"A","wings":"X","pattern":"X","legs":"F"},"action":"avoid","summary":"good-avoid","bonus":1.1600000000000013},{"rt":647.0999999940395,"stimulus":"\n                    <p><b>Action: <em>avoid</em></b></p>\n                    <p>This is the bee that you just saw.</p>\n                    <img src=\"bees-with-color/bee-A2DF.svg\" width=\"200\">\n                    <p><br>Your bonus pay is unchanged, and remains at $0.42.</p>\n            ","response":0,"trial_type":"html-button-response","trial_index":98,"time_elapsed":293492,"internal_node_id":"0.0-4.0-1.45","subject_id":"60fca1e497655beee516dc72","study_id":"60edd13110225f80f9f3709b","session_id":"6196c1f7bbd1fb53a12aebf1","condition":"contingent","relevant_dimensions":["antennae","legs"],"bee_group":{"antennae":"A","wings":"X","pattern":"X","legs":"F"},"bonus":1.1600000000000013},{"rt":1213.699999988079,"stimulus":"bees-with-color/bee-B2SM.svg","response":0,"trial_type":"image-button-response","trial_index":99,"time_elapsed":294709,"internal_node_id":"0.0-4.0-0.46","subject_id":"60fca1e497655beee516dc72","study_id":"60edd13110225f80f9f3709b","session_id":"6196c1f7bbd1fb53a12aebf1","condition":"contingent","relevant_dimensions":["antennae","legs"],"bee_group":{"antennae":"A","wings":"X","pattern":"X","legs":"F"},"action":"harvest","summary":"good-harvest","bonus":1.1600000000000013},{"rt":597.7000000029802,"stimulus":"\n                    <p><b>Action: <em>harvest</em></b></p>\n                    <p>This is the bee that you just saw.</p>\n                    <img src=\"bees-with-color/bee-B2SM.svg\" width=\"200\">\n                    <p><span class=\"greenText\"><b>Successful harvest!</b></span><br>Your pay has increased by $0.02. Your bonus pay is now $0.44.</p>\n            ","response":0,"trial_type":"html-button-response","trial_index":100,"time_elapsed":295310,"internal_node_id":"0.0-4.0-1.46","subject_id":"60fca1e497655beee516dc72","study_id":"60edd13110225f80f9f3709b","session_id":"6196c1f7bbd1fb53a12aebf1","condition":"contingent","relevant_dimensions":["antennae","legs"],"bee_group":{"antennae":"A","wings":"X","pattern":"X","legs":"F"},"bonus":1.1600000000000013},{"rt":1329.5999999940395,"stimulus":"bees-with-color/bee-B2DM.svg","response":0,"trial_type":"image-button-response","trial_index":101,"time_elapsed":296642,"internal_node_id":"0.0-4.0-0.47","subject_id":"60fca1e497655beee516dc72","study_id":"60edd13110225f80f9f3709b","session_id":"6196c1f7bbd1fb53a12aebf1","condition":"contingent","relevant_dimensions":["antennae","legs"],"bee_group":{"antennae":"A","wings":"X","pattern":"X","legs":"F"},"action":"harvest","summary":"good-harvest","bonus":1.1600000000000013},{"rt":930.2999999970198,"stimulus":"\n                    <p><b>Action: <em>harvest</em></b></p>\n                    <p>This is the bee that you just saw.</p>\n                    <img src=\"bees-with-color/bee-B2DM.svg\" width=\"200\">\n                    <p><span class=\"greenText\"><b>Successful harvest!</b></span><br>Your pay has increased by $0.02. Your bonus pay is now $0.46.</p>\n            ","response":0,"trial_type":"html-button-response","trial_index":102,"time_elapsed":297576,"internal_node_id":"0.0-4.0-1.47","subject_id":"60fca1e497655beee516dc72","study_id":"60edd13110225f80f9f3709b","session_id":"6196c1f7bbd1fb53a12aebf1","condition":"contingent","relevant_dimensions":["antennae","legs"],"bee_group":{"antennae":"A","wings":"X","pattern":"X","legs":"F"},"bonus":1.1600000000000013},{"rt":946.7000000029802,"stimulus":"bees-with-color/bee-A2DM.svg","response":0,"trial_type":"image-button-response","trial_index":103,"time_elapsed":298526,"internal_node_id":"0.0-4.0-0.48","subject_id":"60fca1e497655beee516dc72","study_id":"60edd13110225f80f9f3709b","session_id":"6196c1f7bbd1fb53a12aebf1","condition":"contingent","relevant_dimensions":["antennae","legs"],"bee_group":{"antennae":"A","wings":"X","pattern":"X","legs":"F"},"action":"harvest","summary":"good-harvest","bonus":1.1600000000000013},{"rt":663.5,"stimulus":"\n                    <p><b>Action: <em>harvest</em></b></p>\n                    <p>This is the bee that you just saw.</p>\n                    <img src=\"bees-with-color/bee-A2DM.svg\" width=\"200\">\n                    <p><span class=\"greenText\"><b>Successful harvest!</b></span><br>Your pay has increased by $0.02. Your bonus pay is now $0.48.</p>\n            ","response":0,"trial_type":"html-button-response","trial_index":104,"time_elapsed":299192,"internal_node_id":"0.0-4.0-1.48","subject_id":"60fca1e497655beee516dc72","study_id":"60edd13110225f80f9f3709b","session_id":"6196c1f7bbd1fb53a12aebf1","condition":"contingent","relevant_dimensions":["antennae","legs"],"bee_group":{"antennae":"A","wings":"X","pattern":"X","legs":"F"},"bonus":1.1600000000000013},{"rt":2264.0999999940395,"stimulus":"bees-with-color/bee-B1SF.svg","response":0,"trial_type":"image-button-response","trial_index":105,"time_elapsed":301459,"internal_node_id":"0.0-4.0-0.49","subject_id":"60fca1e497655beee516dc72","study_id":"60edd13110225f80f9f3709b","session_id":"6196c1f7bbd1fb53a12aebf1","condition":"contingent","relevant_dimensions":["antennae","legs"],"bee_group":{"antennae":"A","wings":"X","pattern":"X","legs":"F"},"action":"harvest","summary":"good-harvest","bonus":1.1600000000000013},{"rt":763.8999999910593,"stimulus":"\n                    <p><b>Action: <em>harvest</em></b></p>\n                    <p>This is the bee that you just saw.</p>\n                    <img src=\"bees-with-color/bee-B1SF.svg\" width=\"200\">\n                    <p><span class=\"greenText\"><b>Successful harvest!</b></span><br>Your pay has increased by $0.02. Your bonus pay is now $0.50.</p>\n            ","response":0,"trial_type":"html-button-response","trial_index":106,"time_elapsed":302226,"internal_node_id":"0.0-4.0-1.49","subject_id":"60fca1e497655beee516dc72","study_id":"60edd13110225f80f9f3709b","session_id":"6196c1f7bbd1fb53a12aebf1","condition":"contingent","relevant_dimensions":["antennae","legs"],"bee_group":{"antennae":"A","wings":"X","pattern":"X","legs":"F"},"bonus":1.1600000000000013},{"rt":863.5,"stimulus":"bees-with-color/bee-B2SF.svg","response":0,"trial_type":"image-button-response","trial_index":107,"time_elapsed":303092,"internal_node_id":"0.0-4.0-0.50","subject_id":"60fca1e497655beee516dc72","study_id":"60edd13110225f80f9f3709b","session_id":"6196c1f7bbd1fb53a12aebf1","condition":"contingent","relevant_dimensions":["antennae","legs"],"bee_group":{"antennae":"A","wings":"X","pattern":"X","legs":"F"},"action":"harvest","summary":"good-harvest","bonus":1.1600000000000013},{"rt":881.0999999940395,"stimulus":"\n                    <p><b>Action: <em>harvest</em></b></p>\n                    <p>This is the bee that you just saw.</p>\n                    <img src=\"bees-with-color/bee-B2SF.svg\" width=\"200\">\n                    <p><span class=\"greenText\"><b>Successful harvest!</b></span><br>Your pay has increased by $0.02. Your bonus pay is now $0.52.</p>\n            ","response":0,"trial_type":"html-button-response","trial_index":108,"time_elapsed":303977,"internal_node_id":"0.0-4.0-1.50","subject_id":"60fca1e497655beee516dc72","study_id":"60edd13110225f80f9f3709b","session_id":"6196c1f7bbd1fb53a12aebf1","condition":"contingent","relevant_dimensions":["antennae","legs"],"bee_group":{"antennae":"A","wings":"X","pattern":"X","legs":"F"},"bonus":1.1600000000000013},{"rt":1680.5,"stimulus":"bees-with-color/bee-A1DF.svg","response":1,"trial_type":"image-button-response","trial_index":109,"time_elapsed":305660,"internal_node_id":"0.0-4.0-0.51","subject_id":"60fca1e497655beee516dc72","study_id":"60edd13110225f80f9f3709b","session_id":"6196c1f7bbd1fb53a12aebf1","condition":"contingent","relevant_dimensions":["antennae","legs"],"bee_group":{"antennae":"A","wings":"X","pattern":"X","legs":"F"},"action":"avoid","summary":"good-avoid","bonus":1.1600000000000013},{"rt":1197.2000000029802,"stimulus":"\n                    <p><b>Action: <em>avoid</em></b></p>\n                    <p>This is the bee that you just saw.</p>\n                    <img src=\"bees-with-color/bee-A1DF.svg\" width=\"200\">\n                    <p><br>Your bonus pay is unchanged, and remains at $0.52.</p>\n            ","response":0,"trial_type":"html-button-response","trial_index":110,"time_elapsed":306861,"internal_node_id":"0.0-4.0-1.51","subject_id":"60fca1e497655beee516dc72","study_id":"60edd13110225f80f9f3709b","session_id":"6196c1f7bbd1fb53a12aebf1","condition":"contingent","relevant_dimensions":["antennae","legs"],"bee_group":{"antennae":"A","wings":"X","pattern":"X","legs":"F"},"bonus":1.1600000000000013},{"rt":1844.7999999970198,"stimulus":"bees-with-color/bee-A2DF.svg","response":1,"trial_type":"image-button-response","trial_index":111,"time_elapsed":308710,"internal_node_id":"0.0-4.0-0.52","subject_id":"60fca1e497655beee516dc72","study_id":"60edd13110225f80f9f3709b","session_id":"6196c1f7bbd1fb53a12aebf1","condition":"contingent","relevant_dimensions":["antennae","legs"],"bee_group":{"antennae":"A","wings":"X","pattern":"X","legs":"F"},"action":"avoid","summary":"good-avoid","bonus":1.1600000000000013},{"rt":695.1000000089407,"stimulus":"\n                    <p><b>Action: <em>avoid</em></b></p>\n                    <p>This is the bee that you just saw.</p>\n                    <img src=\"bees-with-color/bee-A2DF.svg\" width=\"200\">\n                    <p><br>Your bonus pay is unchanged, and remains at $0.52.</p>\n            ","response":0,"trial_type":"html-button-response","trial_index":112,"time_elapsed":309407,"internal_node_id":"0.0-4.0-1.52","subject_id":"60fca1e497655beee516dc72","study_id":"60edd13110225f80f9f3709b","session_id":"6196c1f7bbd1fb53a12aebf1","condition":"contingent","relevant_dimensions":["antennae","legs"],"bee_group":{"antennae":"A","wings":"X","pattern":"X","legs":"F"},"bonus":1.1600000000000013},{"rt":900.0999999940395,"stimulus":"bees-with-color/bee-B1DF.svg","response":0,"trial_type":"image-button-response","trial_index":113,"time_elapsed":310309,"internal_node_id":"0.0-4.0-0.53","subject_id":"60fca1e497655beee516dc72","study_id":"60edd13110225f80f9f3709b","session_id":"6196c1f7bbd1fb53a12aebf1","condition":"contingent","relevant_dimensions":["antennae","legs"],"bee_group":{"antennae":"A","wings":"X","pattern":"X","legs":"F"},"action":"harvest","summary":"good-harvest","bonus":1.1600000000000013},{"rt":896.9000000059605,"stimulus":"\n                    <p><b>Action: <em>harvest</em></b></p>\n                    <p>This is the bee that you just saw.</p>\n                    <img src=\"bees-with-color/bee-B1DF.svg\" width=\"200\">\n                    <p><span class=\"greenText\"><b>Successful harvest!</b></span><br>Your pay has increased by $0.02. Your bonus pay is now $0.54.</p>\n            ","response":0,"trial_type":"html-button-response","trial_index":114,"time_elapsed":311209,"internal_node_id":"0.0-4.0-1.53","subject_id":"60fca1e497655beee516dc72","study_id":"60edd13110225f80f9f3709b","session_id":"6196c1f7bbd1fb53a12aebf1","condition":"contingent","relevant_dimensions":["antennae","legs"],"bee_group":{"antennae":"A","wings":"X","pattern":"X","legs":"F"},"bonus":1.1600000000000013},{"rt":1113,"stimulus":"bees-with-color/bee-A2SM.svg","response":0,"trial_type":"image-button-response","trial_index":115,"time_elapsed":312325,"internal_node_id":"0.0-4.0-0.54","subject_id":"60fca1e497655beee516dc72","study_id":"60edd13110225f80f9f3709b","session_id":"6196c1f7bbd1fb53a12aebf1","condition":"contingent","relevant_dimensions":["antennae","legs"],"bee_group":{"antennae":"A","wings":"X","pattern":"X","legs":"F"},"action":"harvest","summary":"good-harvest","bonus":1.1600000000000013},{"rt":797.1000000089407,"stimulus":"\n                    <p><b>Action: <em>harvest</em></b></p>\n                    <p>This is the bee that you just saw.</p>\n                    <img src=\"bees-with-color/bee-A2SM.svg\" width=\"200\">\n                    <p><span class=\"greenText\"><b>Successful harvest!</b></span><br>Your pay has increased by $0.02. Your bonus pay is now $0.56.</p>\n            ","response":0,"trial_type":"html-button-response","trial_index":116,"time_elapsed":313126,"internal_node_id":"0.0-4.0-1.54","subject_id":"60fca1e497655beee516dc72","study_id":"60edd13110225f80f9f3709b","session_id":"6196c1f7bbd1fb53a12aebf1","condition":"contingent","relevant_dimensions":["antennae","legs"],"bee_group":{"antennae":"A","wings":"X","pattern":"X","legs":"F"},"bonus":1.1600000000000013},{"rt":1580.2999999970198,"stimulus":"bees-with-color/bee-B2SM.svg","response":0,"trial_type":"image-button-response","trial_index":117,"time_elapsed":314710,"internal_node_id":"0.0-4.0-0.55","subject_id":"60fca1e497655beee516dc72","study_id":"60edd13110225f80f9f3709b","session_id":"6196c1f7bbd1fb53a12aebf1","condition":"contingent","relevant_dimensions":["antennae","legs"],"bee_group":{"antennae":"A","wings":"X","pattern":"X","legs":"F"},"action":"harvest","summary":"good-harvest","bonus":1.1600000000000013},{"rt":930.5999999940395,"stimulus":"\n                    <p><b>Action: <em>harvest</em></b></p>\n                    <p>This is the bee that you just saw.</p>\n                    <img src=\"bees-with-color/bee-B2SM.svg\" width=\"200\">\n                    <p><span class=\"greenText\"><b>Successful harvest!</b></span><br>Your pay has increased by $0.02. Your bonus pay is now $0.58.</p>\n            ","response":0,"trial_type":"html-button-response","trial_index":118,"time_elapsed":315644,"internal_node_id":"0.0-4.0-1.55","subject_id":"60fca1e497655beee516dc72","study_id":"60edd13110225f80f9f3709b","session_id":"6196c1f7bbd1fb53a12aebf1","condition":"contingent","relevant_dimensions":["antennae","legs"],"bee_group":{"antennae":"A","wings":"X","pattern":"X","legs":"F"},"bonus":1.1600000000000013},{"rt":1929.2000000029802,"stimulus":"bees-with-color/bee-A1SF.svg","response":1,"trial_type":"image-button-response","trial_index":119,"time_elapsed":317576,"internal_node_id":"0.0-4.0-0.56","subject_id":"60fca1e497655beee516dc72","study_id":"60edd13110225f80f9f3709b","session_id":"6196c1f7bbd1fb53a12aebf1","condition":"contingent","relevant_dimensions":["antennae","legs"],"bee_group":{"antennae":"A","wings":"X","pattern":"X","legs":"F"},"action":"avoid","summary":"good-avoid","bonus":1.1600000000000013},{"rt":979.2000000029802,"stimulus":"\n                    <p><b>Action: <em>avoid</em></b></p>\n                    <p>This is the bee that you just saw.</p>\n                    <img src=\"bees-with-color/bee-A1SF.svg\" width=\"200\">\n                    <p><br>Your bonus pay is unchanged, and remains at $0.58.</p>\n            ","response":0,"trial_type":"html-button-response","trial_index":120,"time_elapsed":318559,"internal_node_id":"0.0-4.0-1.56","subject_id":"60fca1e497655beee516dc72","study_id":"60edd13110225f80f9f3709b","session_id":"6196c1f7bbd1fb53a12aebf1","condition":"contingent","relevant_dimensions":["antennae","legs"],"bee_group":{"antennae":"A","wings":"X","pattern":"X","legs":"F"},"bonus":1.1600000000000013},{"rt":830,"stimulus":"bees-with-color/bee-A1DM.svg","response":0,"trial_type":"image-button-response","trial_index":121,"time_elapsed":319393,"internal_node_id":"0.0-4.0-0.57","subject_id":"60fca1e497655beee516dc72","study_id":"60edd13110225f80f9f3709b","session_id":"6196c1f7bbd1fb53a12aebf1","condition":"contingent","relevant_dimensions":["antennae","legs"],"bee_group":{"antennae":"A","wings":"X","pattern":"X","legs":"F"},"action":"harvest","summary":"good-harvest","bonus":1.1600000000000013},{"rt":729.2000000029802,"stimulus":"\n                    <p><b>Action: <em>harvest</em></b></p>\n                    <p>This is the bee that you just saw.</p>\n                    <img src=\"bees-with-color/bee-A1DM.svg\" width=\"200\">\n                    <p><span class=\"greenText\"><b>Successful harvest!</b></span><br>Your pay has increased by $0.02. Your bonus pay is now $0.60.</p>\n            ","response":0,"trial_type":"html-button-response","trial_index":122,"time_elapsed":320127,"internal_node_id":"0.0-4.0-1.57","subject_id":"60fca1e497655beee516dc72","study_id":"60edd13110225f80f9f3709b","session_id":"6196c1f7bbd1fb53a12aebf1","condition":"contingent","relevant_dimensions":["antennae","legs"],"bee_group":{"antennae":"A","wings":"X","pattern":"X","legs":"F"},"bonus":1.1600000000000013},{"rt":1146.7000000029802,"stimulus":"bees-with-color/bee-B1SM.svg","response":0,"trial_type":"image-button-response","trial_index":123,"time_elapsed":321277,"internal_node_id":"0.0-4.0-0.58","subject_id":"60fca1e497655beee516dc72","study_id":"60edd13110225f80f9f3709b","session_id":"6196c1f7bbd1fb53a12aebf1","condition":"contingent","relevant_dimensions":["antennae","legs"],"bee_group":{"antennae":"A","wings":"X","pattern":"X","legs":"F"},"action":"harvest","summary":"good-harvest","bonus":1.1600000000000013},{"rt":595.2999999970198,"stimulus":"\n                    <p><b>Action: <em>harvest</em></b></p>\n                    <p>This is the bee that you just saw.</p>\n                    <img src=\"bees-with-color/bee-B1SM.svg\" width=\"200\">\n                    <p><span class=\"greenText\"><b>Successful harvest!</b></span><br>Your pay has increased by $0.02. Your bonus pay is now $0.62.</p>\n            ","response":0,"trial_type":"html-button-response","trial_index":124,"time_elapsed":321877,"internal_node_id":"0.0-4.0-1.58","subject_id":"60fca1e497655beee516dc72","study_id":"60edd13110225f80f9f3709b","session_id":"6196c1f7bbd1fb53a12aebf1","condition":"contingent","relevant_dimensions":["antennae","legs"],"bee_group":{"antennae":"A","wings":"X","pattern":"X","legs":"F"},"bonus":1.1600000000000013},{"rt":1229.2000000029802,"stimulus":"bees-with-color/bee-B1DM.svg","response":0,"trial_type":"image-button-response","trial_index":125,"time_elapsed":323109,"internal_node_id":"0.0-4.0-0.59","subject_id":"60fca1e497655beee516dc72","study_id":"60edd13110225f80f9f3709b","session_id":"6196c1f7bbd1fb53a12aebf1","condition":"contingent","relevant_dimensions":["antennae","legs"],"bee_group":{"antennae":"A","wings":"X","pattern":"X","legs":"F"},"action":"harvest","summary":"good-harvest","bonus":1.1600000000000013},{"rt":1112.0999999940395,"stimulus":"\n                    <p><b>Action: <em>harvest</em></b></p>\n                    <p>This is the bee that you just saw.</p>\n                    <img src=\"bees-with-color/bee-B1DM.svg\" width=\"200\">\n                    <p><span class=\"greenText\"><b>Successful harvest!</b></span><br>Your pay has increased by $0.02. Your bonus pay is now $0.64.</p>\n            ","response":0,"trial_type":"html-button-response","trial_index":126,"time_elapsed":324226,"internal_node_id":"0.0-4.0-1.59","subject_id":"60fca1e497655beee516dc72","study_id":"60edd13110225f80f9f3709b","session_id":"6196c1f7bbd1fb53a12aebf1","condition":"contingent","relevant_dimensions":["antennae","legs"],"bee_group":{"antennae":"A","wings":"X","pattern":"X","legs":"F"},"bonus":1.1600000000000013},{"rt":1796.9000000059605,"stimulus":"bees-with-color/bee-B2DF.svg","response":0,"trial_type":"image-button-response","trial_index":127,"time_elapsed":326025,"internal_node_id":"0.0-4.0-0.60","subject_id":"60fca1e497655beee516dc72","study_id":"60edd13110225f80f9f3709b","session_id":"6196c1f7bbd1fb53a12aebf1","condition":"contingent","relevant_dimensions":["antennae","legs"],"bee_group":{"antennae":"A","wings":"X","pattern":"X","legs":"F"},"action":"harvest","summary":"good-harvest","bonus":1.1600000000000013},{"rt":1231,"stimulus":"\n                    <p><b>Action: <em>harvest</em></b></p>\n                    <p>This is the bee that you just saw.</p>\n                    <img src=\"bees-with-color/bee-B2DF.svg\" width=\"200\">\n                    <p><span class=\"greenText\"><b>Successful harvest!</b></span><br>Your pay has increased by $0.02. Your bonus pay is now $0.66.</p>\n            ","response":0,"trial_type":"html-button-response","trial_index":128,"time_elapsed":327259,"internal_node_id":"0.0-4.0-1.60","subject_id":"60fca1e497655beee516dc72","study_id":"60edd13110225f80f9f3709b","session_id":"6196c1f7bbd1fb53a12aebf1","condition":"contingent","relevant_dimensions":["antennae","legs"],"bee_group":{"antennae":"A","wings":"X","pattern":"X","legs":"F"},"bonus":1.1600000000000013},{"rt":1413.2000000029802,"stimulus":"bees-with-color/bee-B2DM.svg","response":0,"trial_type":"image-button-response","trial_index":129,"time_elapsed":328676,"internal_node_id":"0.0-4.0-0.61","subject_id":"60fca1e497655beee516dc72","study_id":"60edd13110225f80f9f3709b","session_id":"6196c1f7bbd1fb53a12aebf1","condition":"contingent","relevant_dimensions":["antennae","legs"],"bee_group":{"antennae":"A","wings":"X","pattern":"X","legs":"F"},"action":"harvest","summary":"good-harvest","bonus":1.1600000000000013},{"rt":1297.4000000059605,"stimulus":"\n                    <p><b>Action: <em>harvest</em></b></p>\n                    <p>This is the bee that you just saw.</p>\n                    <img src=\"bees-with-color/bee-B2DM.svg\" width=\"200\">\n                    <p><span class=\"greenText\"><b>Successful harvest!</b></span><br>Your pay has increased by $0.02. Your bonus pay is now $0.68.</p>\n            ","response":0,"trial_type":"html-button-response","trial_index":130,"time_elapsed":329976,"internal_node_id":"0.0-4.0-1.61","subject_id":"60fca1e497655beee516dc72","study_id":"60edd13110225f80f9f3709b","session_id":"6196c1f7bbd1fb53a12aebf1","condition":"contingent","relevant_dimensions":["antennae","legs"],"bee_group":{"antennae":"A","wings":"X","pattern":"X","legs":"F"},"bonus":1.1600000000000013},{"rt":1163.9000000059605,"stimulus":"bees-with-color/bee-A1SM.svg","response":0,"trial_type":"image-button-response","trial_index":131,"time_elapsed":331143,"internal_node_id":"0.0-4.0-0.62","subject_id":"60fca1e497655beee516dc72","study_id":"60edd13110225f80f9f3709b","session_id":"6196c1f7bbd1fb53a12aebf1","condition":"contingent","relevant_dimensions":["antennae","legs"],"bee_group":{"antennae":"A","wings":"X","pattern":"X","legs":"F"},"action":"harvest","summary":"good-harvest","bonus":1.1600000000000013},{"rt":879.8999999910593,"stimulus":"\n                    <p><b>Action: <em>harvest</em></b></p>\n                    <p>This is the bee that you just saw.</p>\n                    <img src=\"bees-with-color/bee-A1SM.svg\" width=\"200\">\n                    <p><span class=\"greenText\"><b>Successful harvest!</b></span><br>Your pay has increased by $0.02. Your bonus pay is now $0.70.</p>\n            ","response":0,"trial_type":"html-button-response","trial_index":132,"time_elapsed":332026,"internal_node_id":"0.0-4.0-1.62","subject_id":"60fca1e497655beee516dc72","study_id":"60edd13110225f80f9f3709b","session_id":"6196c1f7bbd1fb53a12aebf1","condition":"contingent","relevant_dimensions":["antennae","legs"],"bee_group":{"antennae":"A","wings":"X","pattern":"X","legs":"F"},"bonus":1.1600000000000013},{"rt":1847.2000000029802,"stimulus":"bees-with-color/bee-A2SF.svg","response":1,"trial_type":"image-button-response","trial_index":133,"time_elapsed":333876,"internal_node_id":"0.0-4.0-0.63","subject_id":"60fca1e497655beee516dc72","study_id":"60edd13110225f80f9f3709b","session_id":"6196c1f7bbd1fb53a12aebf1","condition":"contingent","relevant_dimensions":["antennae","legs"],"bee_group":{"antennae":"A","wings":"X","pattern":"X","legs":"F"},"action":"avoid","summary":"good-avoid","bonus":1.1600000000000013},{"rt":1213.300000011921,"stimulus":"\n                    <p><b>Action: <em>avoid</em></b></p>\n                    <p>This is the bee that you just saw.</p>\n                    <img src=\"bees-with-color/bee-A2SF.svg\" width=\"200\">\n                    <p><br>Your bonus pay is unchanged, and remains at $0.70.</p>\n            ","response":0,"trial_type":"html-button-response","trial_index":134,"time_elapsed":335092,"internal_node_id":"0.0-4.0-1.63","subject_id":"60fca1e497655beee516dc72","study_id":"60edd13110225f80f9f3709b","session_id":"6196c1f7bbd1fb53a12aebf1","condition":"contingent","relevant_dimensions":["antennae","legs"],"bee_group":{"antennae":"A","wings":"X","pattern":"X","legs":"F"},"bonus":1.1600000000000013},{"rt":6612.5999999940395,"stimulus":"You have completed the first part of this experiment.<br><br>You will now begin a shorter second part, in which you will receive no feedback.<br>The same rules regarding bonus pay apply.<br><br>Press any key to begin.","response":" ","trial_type":"html-keyboard-response","trial_index":135,"time_elapsed":341708,"internal_node_id":"0.0-5.0","subject_id":"60fca1e497655beee516dc72","study_id":"60edd13110225f80f9f3709b","session_id":"6196c1f7bbd1fb53a12aebf1","condition":"contingent","relevant_dimensions":["antennae","legs"],"bee_group":{"antennae":"A","wings":"X","pattern":"X","legs":"F"},"bonus":1.1600000000000013},{"rt":1558,"stimulus":"bees-with-color/bee-B1SF.svg","response":0,"trial_type":"image-button-response","trial_index":136,"time_elapsed":343277,"internal_node_id":"0.0-6.0-0.0","subject_id":"60fca1e497655beee516dc72","study_id":"60edd13110225f80f9f3709b","session_id":"6196c1f7bbd1fb53a12aebf1","condition":"contingent","relevant_dimensions":["antennae","legs"],"bee_group":{"antennae":"A","wings":"X","pattern":"X","legs":"F"},"bonus":1.1600000000000013},{"rt":1962,"stimulus":"bees-with-color/bee-A2DF.svg","response":1,"trial_type":"image-button-response","trial_index":137,"time_elapsed":345243,"internal_node_id":"0.0-6.0-0.1","subject_id":"60fca1e497655beee516dc72","study_id":"60edd13110225f80f9f3709b","session_id":"6196c1f7bbd1fb53a12aebf1","condition":"contingent","relevant_dimensions":["antennae","legs"],"bee_group":{"antennae":"A","wings":"X","pattern":"X","legs":"F"},"bonus":1.1600000000000013},{"rt":1178.8999999910593,"stimulus":"bees-with-color/bee-B2DM.svg","response":0,"trial_type":"image-button-response","trial_index":138,"time_elapsed":346426,"internal_node_id":"0.0-6.0-0.2","subject_id":"60fca1e497655beee516dc72","study_id":"60edd13110225f80f9f3709b","session_id":"6196c1f7bbd1fb53a12aebf1","condition":"contingent","relevant_dimensions":["antennae","legs"],"bee_group":{"antennae":"A","wings":"X","pattern":"X","legs":"F"},"bonus":1.1600000000000013},{"rt":844.9000000059605,"stimulus":"bees-with-color/bee-B1DM.svg","response":0,"trial_type":"image-button-response","trial_index":139,"time_elapsed":347276,"internal_node_id":"0.0-6.0-0.3","subject_id":"60fca1e497655beee516dc72","study_id":"60edd13110225f80f9f3709b","session_id":"6196c1f7bbd1fb53a12aebf1","condition":"contingent","relevant_dimensions":["antennae","legs"],"bee_group":{"antennae":"A","wings":"X","pattern":"X","legs":"F"},"bonus":1.1600000000000013},{"rt":961.9000000059605,"stimulus":"bees-with-color/bee-A1DF.svg","response":1,"trial_type":"image-button-response","trial_index":140,"time_elapsed":348243,"internal_node_id":"0.0-6.0-0.4","subject_id":"60fca1e497655beee516dc72","study_id":"60edd13110225f80f9f3709b","session_id":"6196c1f7bbd1fb53a12aebf1","condition":"contingent","relevant_dimensions":["antennae","legs"],"bee_group":{"antennae":"A","wings":"X","pattern":"X","legs":"F"},"bonus":1.1600000000000013},{"rt":1130.4000000059605,"stimulus":"bees-with-color/bee-A1DM.svg","response":0,"trial_type":"image-button-response","trial_index":141,"time_elapsed":349377,"internal_node_id":"0.0-6.0-0.5","subject_id":"60fca1e497655beee516dc72","study_id":"60edd13110225f80f9f3709b","session_id":"6196c1f7bbd1fb53a12aebf1","condition":"contingent","relevant_dimensions":["antennae","legs"],"bee_group":{"antennae":"A","wings":"X","pattern":"X","legs":"F"},"bonus":1.1600000000000013},{"rt":961.1000000089407,"stimulus":"bees-with-color/bee-B2SF.svg","response":0,"trial_type":"image-button-response","trial_index":142,"time_elapsed":350343,"internal_node_id":"0.0-6.0-0.6","subject_id":"60fca1e497655beee516dc72","study_id":"60edd13110225f80f9f3709b","session_id":"6196c1f7bbd1fb53a12aebf1","condition":"contingent","relevant_dimensions":["antennae","legs"],"bee_group":{"antennae":"A","wings":"X","pattern":"X","legs":"F"},"bonus":1.1600000000000013},{"rt":878.5,"stimulus":"bees-with-color/bee-B2SM.svg","response":0,"trial_type":"image-button-response","trial_index":143,"time_elapsed":351226,"internal_node_id":"0.0-6.0-0.7","subject_id":"60fca1e497655beee516dc72","study_id":"60edd13110225f80f9f3709b","session_id":"6196c1f7bbd1fb53a12aebf1","condition":"contingent","relevant_dimensions":["antennae","legs"],"bee_group":{"antennae":"A","wings":"X","pattern":"X","legs":"F"},"bonus":1.1600000000000013},{"rt":913.2999999970198,"stimulus":"bees-with-color/bee-A1SF.svg","response":1,"trial_type":"image-button-response","trial_index":144,"time_elapsed":352144,"internal_node_id":"0.0-6.0-0.8","subject_id":"60fca1e497655beee516dc72","study_id":"60edd13110225f80f9f3709b","session_id":"6196c1f7bbd1fb53a12aebf1","condition":"contingent","relevant_dimensions":["antennae","legs"],"bee_group":{"antennae":"A","wings":"X","pattern":"X","legs":"F"},"bonus":1.1600000000000013},{"rt":5645.0999999940395,"stimulus":"bees-with-color/bee-A1SM.svg","response":0,"trial_type":"image-button-response","trial_index":145,"time_elapsed":357793,"internal_node_id":"0.0-6.0-0.9","subject_id":"60fca1e497655beee516dc72","study_id":"60edd13110225f80f9f3709b","session_id":"6196c1f7bbd1fb53a12aebf1","condition":"contingent","relevant_dimensions":["antennae","legs"],"bee_group":{"antennae":"A","wings":"X","pattern":"X","legs":"F"},"bonus":1.1600000000000013},{"rt":911.2999999970198,"stimulus":"bees-with-color/bee-B1SM.svg","response":0,"trial_type":"image-button-response","trial_index":146,"time_elapsed":358710,"internal_node_id":"0.0-6.0-0.10","subject_id":"60fca1e497655beee516dc72","study_id":"60edd13110225f80f9f3709b","session_id":"6196c1f7bbd1fb53a12aebf1","condition":"contingent","relevant_dimensions":["antennae","legs"],"bee_group":{"antennae":"A","wings":"X","pattern":"X","legs":"F"},"bonus":1.1600000000000013},{"rt":1247.4000000059605,"stimulus":"bees-with-color/bee-B2DF.svg","response":0,"trial_type":"image-button-response","trial_index":147,"time_elapsed":359962,"internal_node_id":"0.0-6.0-0.11","subject_id":"60fca1e497655beee516dc72","study_id":"60edd13110225f80f9f3709b","session_id":"6196c1f7bbd1fb53a12aebf1","condition":"contingent","relevant_dimensions":["antennae","legs"],"bee_group":{"antennae":"A","wings":"X","pattern":"X","legs":"F"},"bonus":1.1600000000000013},{"rt":979.0999999940395,"stimulus":"bees-with-color/bee-A2SF.svg","response":1,"trial_type":"image-button-response","trial_index":148,"time_elapsed":360946,"internal_node_id":"0.0-6.0-0.12","subject_id":"60fca1e497655beee516dc72","study_id":"60edd13110225f80f9f3709b","session_id":"6196c1f7bbd1fb53a12aebf1","condition":"contingent","relevant_dimensions":["antennae","legs"],"bee_group":{"antennae":"A","wings":"X","pattern":"X","legs":"F"},"bonus":1.1600000000000013},{"rt":895.1999999880791,"stimulus":"bees-with-color/bee-A2DM.svg","response":0,"trial_type":"image-button-response","trial_index":149,"time_elapsed":361845,"internal_node_id":"0.0-6.0-0.13","subject_id":"60fca1e497655beee516dc72","study_id":"60edd13110225f80f9f3709b","session_id":"6196c1f7bbd1fb53a12aebf1","condition":"contingent","relevant_dimensions":["antennae","legs"],"bee_group":{"antennae":"A","wings":"X","pattern":"X","legs":"F"},"bonus":1.1600000000000013},{"rt":762.0999999940395,"stimulus":"bees-with-color/bee-A2SM.svg","response":0,"trial_type":"image-button-response","trial_index":150,"time_elapsed":362612,"internal_node_id":"0.0-6.0-0.14","subject_id":"60fca1e497655beee516dc72","study_id":"60edd13110225f80f9f3709b","session_id":"6196c1f7bbd1fb53a12aebf1","condition":"contingent","relevant_dimensions":["antennae","legs"],"bee_group":{"antennae":"A","wings":"X","pattern":"X","legs":"F"},"bonus":1.1600000000000013},{"rt":962,"stimulus":"bees-with-color/bee-B1DF.svg","response":0,"trial_type":"image-button-response","trial_index":151,"time_elapsed":363579,"internal_node_id":"0.0-6.0-0.15","subject_id":"60fca1e497655beee516dc72","study_id":"60edd13110225f80f9f3709b","session_id":"6196c1f7bbd1fb53a12aebf1","condition":"contingent","relevant_dimensions":["antennae","legs"],"bee_group":{"antennae":"A","wings":"X","pattern":"X","legs":"F"},"bonus":1.1600000000000013},{"rt":795.5999999940395,"stimulus":"bees-with-color/bee-A2DM.svg","response":0,"trial_type":"image-button-response","trial_index":152,"time_elapsed":364379,"internal_node_id":"0.0-6.0-0.16","subject_id":"60fca1e497655beee516dc72","study_id":"60edd13110225f80f9f3709b","session_id":"6196c1f7bbd1fb53a12aebf1","condition":"contingent","relevant_dimensions":["antennae","legs"],"bee_group":{"antennae":"A","wings":"X","pattern":"X","legs":"F"},"bonus":1.1600000000000013},{"rt":927.6000000089407,"stimulus":"bees-with-color/bee-B1DF.svg","response":0,"trial_type":"image-button-response","trial_index":153,"time_elapsed":365310,"internal_node_id":"0.0-6.0-0.17","subject_id":"60fca1e497655beee516dc72","study_id":"60edd13110225f80f9f3709b","session_id":"6196c1f7bbd1fb53a12aebf1","condition":"contingent","relevant_dimensions":["antennae","legs"],"bee_group":{"antennae":"A","wings":"X","pattern":"X","legs":"F"},"bonus":1.1600000000000013},{"rt":1512.1000000089407,"stimulus":"bees-with-color/bee-B2SF.svg","response":0,"trial_type":"image-button-response","trial_index":154,"time_elapsed":366826,"internal_node_id":"0.0-6.0-0.18","subject_id":"60fca1e497655beee516dc72","study_id":"60edd13110225f80f9f3709b","session_id":"6196c1f7bbd1fb53a12aebf1","condition":"contingent","relevant_dimensions":["antennae","legs"],"bee_group":{"antennae":"A","wings":"X","pattern":"X","legs":"F"},"bonus":1.1600000000000013},{"rt":1313.9000000059605,"stimulus":"bees-with-color/bee-A1DF.svg","response":1,"trial_type":"image-button-response","trial_index":155,"time_elapsed":368144,"internal_node_id":"0.0-6.0-0.19","subject_id":"60fca1e497655beee516dc72","study_id":"60edd13110225f80f9f3709b","session_id":"6196c1f7bbd1fb53a12aebf1","condition":"contingent","relevant_dimensions":["antennae","legs"],"bee_group":{"antennae":"A","wings":"X","pattern":"X","legs":"F"},"bonus":1.1600000000000013},{"rt":1545.8999999910593,"stimulus":"bees-with-color/bee-A2SF.svg","response":1,"trial_type":"image-button-response","trial_index":156,"time_elapsed":369693,"internal_node_id":"0.0-6.0-0.20","subject_id":"60fca1e497655beee516dc72","study_id":"60edd13110225f80f9f3709b","session_id":"6196c1f7bbd1fb53a12aebf1","condition":"contingent","relevant_dimensions":["antennae","legs"],"bee_group":{"antennae":"A","wings":"X","pattern":"X","legs":"F"},"bonus":1.1600000000000013},{"rt":662.8000000119209,"stimulus":"bees-with-color/bee-A1SM.svg","response":1,"trial_type":"image-button-response","trial_index":157,"time_elapsed":370360,"internal_node_id":"0.0-6.0-0.21","subject_id":"60fca1e497655beee516dc72","study_id":"60edd13110225f80f9f3709b","session_id":"6196c1f7bbd1fb53a12aebf1","condition":"contingent","relevant_dimensions":["antennae","legs"],"bee_group":{"antennae":"A","wings":"X","pattern":"X","legs":"F"},"bonus":1.1600000000000013},{"rt":862.7999999970198,"stimulus":"bees-with-color/bee-B2DF.svg","response":0,"trial_type":"image-button-response","trial_index":158,"time_elapsed":371226,"internal_node_id":"0.0-6.0-0.22","subject_id":"60fca1e497655beee516dc72","study_id":"60edd13110225f80f9f3709b","session_id":"6196c1f7bbd1fb53a12aebf1","condition":"contingent","relevant_dimensions":["antennae","legs"],"bee_group":{"antennae":"A","wings":"X","pattern":"X","legs":"F"},"bonus":1.1600000000000013},{"rt":746.0999999940395,"stimulus":"bees-with-color/bee-B1SM.svg","response":0,"trial_type":"image-button-response","trial_index":159,"time_elapsed":371976,"internal_node_id":"0.0-6.0-0.23","subject_id":"60fca1e497655beee516dc72","study_id":"60edd13110225f80f9f3709b","session_id":"6196c1f7bbd1fb53a12aebf1","condition":"contingent","relevant_dimensions":["antennae","legs"],"bee_group":{"antennae":"A","wings":"X","pattern":"X","legs":"F"},"bonus":1.1600000000000013},{"rt":1446.8999999910593,"stimulus":"bees-with-color/bee-B1SF.svg","response":0,"trial_type":"image-button-response","trial_index":160,"time_elapsed":373426,"internal_node_id":"0.0-6.0-0.24","subject_id":"60fca1e497655beee516dc72","study_id":"60edd13110225f80f9f3709b","session_id":"6196c1f7bbd1fb53a12aebf1","condition":"contingent","relevant_dimensions":["antennae","legs"],"bee_group":{"antennae":"A","wings":"X","pattern":"X","legs":"F"},"bonus":1.1600000000000013},{"rt":1463.2999999970198,"stimulus":"bees-with-color/bee-A2SM.svg","response":0,"trial_type":"image-button-response","trial_index":161,"time_elapsed":374893,"