[{"success":true,"trial_type":"fullscreen","trial_index":0,"time_elapsed":45128,"internal_node_id":"0.0-0.0","subject_id":"6108878a6817adc0fb1bfbf9","study_id":"60edd13110225f80f9f3709b","session_id":"6196c7026eb9baaf09605ade","condition":"full-information","relevant_dimensions":["antennae","pattern"],"bee_group":{"antennae":"A","wings":"X","pattern":"D","legs":"X"},"bonus":1.720000000000001},{"success":true,"timeout":false,"failed_images":[],"failed_audio":[],"failed_video":[],"trial_type":"preload","trial_index":1,"time_elapsed":47096,"internal_node_id":"0.0-1.0","subject_id":"6108878a6817adc0fb1bfbf9","study_id":"60edd13110225f80f9f3709b","session_id":"6196c7026eb9baaf09605ade","condition":"full-information","relevant_dimensions":["antennae","pattern"],"bee_group":{"antennae":"A","wings":"X","pattern":"D","legs":"X"},"bonus":1.720000000000001},{"rt":1855.699999988079,"stimulus":"Welcome! Press any key to begin.","response":" ","trial_type":"html-keyboard-response","trial_index":2,"time_elapsed":48953,"internal_node_id":"0.0-2.0","subject_id":"6108878a6817adc0fb1bfbf9","study_id":"60edd13110225f80f9f3709b","session_id":"6196c7026eb9baaf09605ade","condition":"full-information","relevant_dimensions":["antennae","pattern"],"bee_group":{"antennae":"A","wings":"X","pattern":"D","legs":"X"},"bonus":1.720000000000001},{"view_history":[{"page_index":0,"viewing_time":3315},{"page_index":1,"viewing_time":20452.80000001192},{"page_index":2,"viewing_time":13521.800000011921},{"page_index":3,"viewing_time":79404.09999996424},{"page_index":4,"viewing_time":7885.900000035763},{"page_index":5,"viewing_time":5892.899999976158},{"page_index":6,"viewing_time":11939.600000023842},{"page_index":7,"viewing_time":6530.800000011921},{"page_index":8,"viewing_time":6460.699999988079},{"page_index":9,"viewing_time":6856.099999964237},{"page_index":10,"viewing_time":3240.800000011921},{"page_index":11,"viewing_time":9691.199999988079},{"page_index":12,"viewing_time":13867},{"page_index":13,"viewing_time":1679.300000011921},{"page_index":14,"viewing_time":2730.100000023842}],"rt":193468.19999998808,"trial_type":"instructions","trial_index":3,"time_elapsed":242422,"internal_node_id":"0.0-3.0-0.0","subject_id":"6108878a6817adc0fb1bfbf9","study_id":"60edd13110225f80f9f3709b","session_id":"6196c7026eb9baaf09605ade","condition":"full-information","relevant_dimensions":["antennae","pattern"],"bee_group":{"antennae":"A","wings":"X","pattern":"D","legs":"X"},"bonus":1.720000000000001},{"rt":17262.899999976158,"response":{"Q0":["Two or six legs","Stripes or spots on body","Single or double wings","Antennae or no antennae"]},"question_order":[0],"trial_type":"survey-multi-select","trial_index":4,"time_elapsed":259687,"internal_node_id":"0.0-3.0-1.0","subject_id":"6108878a6817adc0fb1bfbf9","study_id":"60edd13110225f80f9f3709b","session_id":"6196c7026eb9baaf09605ade","condition":"full-information","relevant_dimensions":["antennae","pattern"],"bee_group":{"antennae":"A","wings":"X","pattern":"D","legs":"X"},"correct":true,"bonus":1.720000000000001},{"rt":24045.899999976158,"response":{"Q1":"No.","Q2":"Based on the four features of the bee.","Q3":"You learn if it was friendly or dangerous, but do not alter your bonus."},"question_order":[0,1,2],"trial_type":"survey-multi-choice","trial_index":5,"time_elapsed":283736,"internal_node_id":"0.0-3.0-2.0","subject_id":"6108878a6817adc0fb1bfbf9","study_id":"60edd13110225f80f9f3709b","session_id":"6196c7026eb9baaf09605ade","condition":"full-information","relevant_dimensions":["antennae","pattern"],"bee_group":{"antennae":"A","wings":"X","pattern":"D","legs":"X"},"correct":true,"bonus":1.720000000000001},{"rt":3295.7999999523163,"stimulus":"<p>Congrats, you got everything right<br>When you're ready, click the button below to continue to the experiment.</p>","response":0,"trial_type":"html-button-response","trial_index":6,"time_elapsed":287035,"internal_node_id":"0.0-3.0-3.0","subject_id":"6108878a6817adc0fb1bfbf9","study_id":"60edd13110225f80f9f3709b","session_id":"6196c7026eb9baaf09605ade","condition":"full-information","relevant_dimensions":["antennae","pattern"],"bee_group":{"antennae":"A","wings":"X","pattern":"D","legs":"X"},"bonus":1.720000000000001},{"rt":6461.299999952316,"stimulus":"bees-with-color/bee-A2SM.svg","response":0,"trial_type":"image-button-response","trial_index":7,"time_elapsed":293497,"internal_node_id":"0.0-4.0-0.0","subject_id":"6108878a6817adc0fb1bfbf9","study_id":"60edd13110225f80f9f3709b","session_id":"6196c7026eb9baaf09605ade","condition":"full-information","relevant_dimensions":["antennae","pattern"],"bee_group":{"antennae":"A","wings":"X","pattern":"D","legs":"X"},"action":"harvest","summary":"good-harvest","bonus":1.720000000000001},{"rt":44466.89999997616,"stimulus":"\n                    <p><b>Action: <em>harvest</em></b></p>\n                    <p>This is the bee that you just saw.</p>\n                    <img src=\"bees-with-color/bee-A2SM.svg\" width=\"200\">\n                    <p><span class=\"greenText\"><b>Successful harvest!</b></span><br>Your pay has increased by $0.02. Your bonus pay is now $0.56.</p>\n            ","response":0,"trial_type":"html-button-response","trial_index":8,"time_elapsed":337966,"internal_node_id":"0.0-4.0-1.0","subject_id":"6108878a6817adc0fb1bfbf9","study_id":"60edd13110225f80f9f3709b","session_id":"6196c7026eb9baaf09605ade","condition":"full-information","relevant_dimensions":["antennae","pattern"],"bee_group":{"antennae":"A","wings":"X","pattern":"D","legs":"X"},"bonus":1.720000000000001},{"rt":1683.699999988079,"stimulus":"bees-with-color/bee-A1DM.svg","response":1,"trial_type":"image-button-response","trial_index":9,"time_elapsed":339651,"internal_node_id":"0.0-4.0-0.1","subject_id":"6108878a6817adc0fb1bfbf9","study_id":"60edd13110225f80f9f3709b","session_id":"6196c7026eb9baaf09605ade","condition":"full-information","relevant_dimensions":["antennae","pattern"],"bee_group":{"antennae":"A","wings":"X","pattern":"D","legs":"X"},"action":"avoid","summary":"good-avoid","bonus":1.720000000000001},{"rt":44564.59999996424,"stimulus":"\n                    <p><b>Action: <em>avoid</em></b></p>\n                    <p>This is the bee that you just saw.</p>\n                    <img src=\"bees-with-color/bee-A1DM.svg\" width=\"200\">\n                    <p><span class=\"greenText\">Good choice!</span>  This bee would have stung you.<br>Your bonus pay is unchanged, and remains at $0.56.</p>\n            ","response":0,"trial_type":"html-button-response","trial_index":10,"time_elapsed":384217,"internal_node_id":"0.0-4.0-1.1","subject_id":"6108878a6817adc0fb1bfbf9","study_id":"60edd13110225f80f9f3709b","session_id":"6196c7026eb9baaf09605ade","condition":"full-information","relevant_dimensions":["antennae","pattern"],"bee_group":{"antennae":"A","wings":"X","pattern":"D","legs":"X"},"bonus":1.720000000000001},{"rt":4600.699999988079,"stimulus":"bees-with-color/bee-A1SM.svg","response":0,"trial_type":"image-button-response","trial_index":11,"time_elapsed":388819,"internal_node_id":"0.0-4.0-0.2","subject_id":"6108878a6817adc0fb1bfbf9","study_id":"60edd13110225f80f9f3709b","session_id":"6196c7026eb9baaf09605ade","condition":"full-information","relevant_dimensions":["antennae","pattern"],"bee_group":{"antennae":"A","wings":"X","pattern":"D","legs":"X"},"action":"harvest","summary":"good-harvest","bonus":1.720000000000001},{"rt":18903,"stimulus":"\n                    <p><b>Action: <em>harvest</em></b></p>\n                    <p>This is the bee that you just saw.</p>\n                    <img src=\"bees-with-color/bee-A1SM.svg\" width=\"200\">\n                    <p><span class=\"greenText\"><b>Successful harvest!</b></span><br>Your pay has increased by $0.02. Your bonus pay is now $0.58.</p>\n            ","response":0,"trial_type":"html-button-response","trial_index":12,"time_elapsed":407723,"internal_node_id":"0.0-4.0-1.2","subject_id":"6108878a6817adc0fb1bfbf9","study_id":"60edd13110225f80f9f3709b","session_id":"6196c7026eb9baaf09605ade","condition":"full-information","relevant_dimensions":["antennae","pattern"],"bee_group":{"antennae":"A","wings":"X","pattern":"D","legs":"X"},"bonus":1.720000000000001},{"rt":2569.699999988079,"stimulus":"bees-with-color/bee-A2SF.svg","response":1,"trial_type":"image-button-response","trial_index":13,"time_elapsed":410294,"internal_node_id":"0.0-4.0-0.3","subject_id":"6108878a6817adc0fb1bfbf9","study_id":"60edd13110225f80f9f3709b","session_id":"6196c7026eb9baaf09605ade","condition":"full-information","relevant_dimensions":["antennae","pattern"],"bee_group":{"antennae":"A","wings":"X","pattern":"D","legs":"X"},"action":"avoid","summary":"bad-avoid","bonus":1.720000000000001},{"rt":15218.5,"stimulus":"\n                    <p><b>Action: <em>avoid</em></b></p>\n                    <p>This is the bee that you just saw.</p>\n                    <img src=\"bees-with-color/bee-A2SF.svg\" width=\"200\">\n                    <p><span class=\"redText\">Bad choice,</span> the bee was friendly.<br>Your bonus pay is unchanged, and remains at $0.58.</p>\n            ","response":0,"trial_type":"html-button-response","trial_index":14,"time_elapsed":425513,"internal_node_id":"0.0-4.0-1.3","subject_id":"6108878a6817adc0fb1bfbf9","study_id":"60edd13110225f80f9f3709b","session_id":"6196c7026eb9baaf09605ade","condition":"full-information","relevant_dimensions":["antennae","pattern"],"bee_group":{"antennae":"A","wings":"X","pattern":"D","legs":"X"},"bonus":1.720000000000001},{"rt":4895.399999976158,"stimulus":"bees-with-color/bee-B2SF.svg","response":1,"trial_type":"image-button-response","trial_index":15,"time_elapsed":430410,"internal_node_id":"0.0-4.0-0.4","subject_id":"6108878a6817adc0fb1bfbf9","study_id":"60edd13110225f80f9f3709b","session_id":"6196c7026eb9baaf09605ade","condition":"full-information","relevant_dimensions":["antennae","pattern"],"bee_group":{"antennae":"A","wings":"X","pattern":"D","legs":"X"},"action":"avoid","summary":"bad-avoid","bonus":1.720000000000001},{"rt":10308.099999964237,"stimulus":"\n                    <p><b>Action: <em>avoid</em></b></p>\n                    <p>This is the bee that you just saw.</p>\n                    <img src=\"bees-with-color/bee-B2SF.svg\" width=\"200\">\n                    <p><span class=\"redText\">Bad choice,</span> the bee was friendly.<br>Your bonus pay is unchanged, and remains at $0.58.</p>\n            ","response":0,"trial_type":"html-button-response","trial_index":16,"time_elapsed":440719,"internal_node_id":"0.0-4.0-1.4","subject_id":"6108878a6817adc0fb1bfbf9","study_id":"60edd13110225f80f9f3709b","session_id":"6196c7026eb9baaf09605ade","condition":"full-information","relevant_dimensions":["antennae","pattern"],"bee_group":{"antennae":"A","wings":"X","pattern":"D","legs":"X"},"bonus":1.720000000000001},{"rt":2683.600000023842,"stimulus":"bees-with-color/bee-A2DM.svg","response":1,"trial_type":"image-button-response","trial_index":17,"time_elapsed":443404,"internal_node_id":"0.0-4.0-0.5","subject_id":"6108878a6817adc0fb1bfbf9","study_id":"60edd13110225f80f9f3709b","session_id":"6196c7026eb9baaf09605ade","condition":"full-information","relevant_dimensions":["antennae","pattern"],"bee_group":{"antennae":"A","wings":"X","pattern":"D","legs":"X"},"action":"avoid","summary":"good-avoid","bonus":1.720000000000001},{"rt":21120.80000001192,"stimulus":"\n                    <p><b>Action: <em>avoid</em></b></p>\n                    <p>This is the bee that you just saw.</p>\n                    <img src=\"bees-with-color/bee-A2DM.svg\" width=\"200\">\n                    <p><span class=\"greenText\">Good choice!</span>  This bee would have stung you.<br>Your bonus pay is unchanged, and remains at $0.58.</p>\n            ","response":0,"trial_type":"html-button-response","trial_index":18,"time_elapsed":464525,"internal_node_id":"0.0-4.0-1.5","subject_id":"6108878a6817adc0fb1bfbf9","study_id":"60edd13110225f80f9f3709b","session_id":"6196c7026eb9baaf09605ade","condition":"full-information","relevant_dimensions":["antennae","pattern"],"bee_group":{"antennae":"A","wings":"X","pattern":"D","legs":"X"},"bonus":1.720000000000001},{"rt":2343.899999976158,"stimulus":"bees-with-color/bee-B1DM.svg","response":1,"trial_type":"image-button-response","trial_index":19,"time_elapsed":466870,"internal_node_id":"0.0-4.0-0.6","subject_id":"6108878a6817adc0fb1bfbf9","study_id":"60edd13110225f80f9f3709b","session_id":"6196c7026eb9baaf09605ade","condition":"full-information","relevant_dimensions":["antennae","pattern"],"bee_group":{"antennae":"A","wings":"X","pattern":"D","legs":"X"},"action":"avoid","summary":"bad-avoid","bonus":1.720000000000001},{"rt":20318.19999998808,"stimulus":"\n                    <p><b>Action: <em>avoid</em></b></p>\n                    <p>This is the bee that you just saw.</p>\n                    <img src=\"bees-with-color/bee-B1DM.svg\" width=\"200\">\n                    <p><span class=\"redText\">Bad choice,</span> the bee was friendly.<br>Your bonus pay is unchanged, and remains at $0.58.</p>\n            ","response":0,"trial_type":"html-button-response","trial_index":20,"time_elapsed":487190,"internal_node_id":"0.0-4.0-1.6","subject_id":"6108878a6817adc0fb1bfbf9","study_id":"60edd13110225f80f9f3709b","session_id":"6196c7026eb9baaf09605ade","condition":"full-information","relevant_dimensions":["antennae","pattern"],"bee_group":{"antennae":"A","wings":"X","pattern":"D","legs":"X"},"bonus":1.720000000000001},{"rt":3662.300000011921,"stimulus":"bees-with-color/bee-B1DF.svg","response":0,"trial_type":"image-button-response","trial_index":21,"time_elapsed":490853,"internal_node_id":"0.0-4.0-0.7","subject_id":"6108878a6817adc0fb1bfbf9","study_id":"60edd13110225f80f9f3709b","session_id":"6196c7026eb9baaf09605ade","condition":"full-information","relevant_dimensions":["antennae","pattern"],"bee_group":{"antennae":"A","wings":"X","pattern":"D","legs":"X"},"action":"harvest","summary":"good-harvest","bonus":1.720000000000001},{"rt":10568.300000011921,"stimulus":"\n                    <p><b>Action: <em>harvest</em></b></p>\n                    <p>This is the bee that you just saw.</p>\n                    <img src=\"bees-with-color/bee-B1DF.svg\" width=\"200\">\n                    <p><span class=\"greenText\"><b>Successful harvest!</b></span><br>Your pay has increased by $0.02. Your bonus pay is now $0.60.</p>\n            ","response":0,"trial_type":"html-button-response","trial_index":22,"time_elapsed":501422,"internal_node_id":"0.0-4.0-1.7","subject_id":"6108878a6817adc0fb1bfbf9","study_id":"60edd13110225f80f9f3709b","session_id":"6196c7026eb9baaf09605ade","condition":"full-information","relevant_dimensions":["antennae","pattern"],"bee_group":{"antennae":"A","wings":"X","pattern":"D","legs":"X"},"bonus":1.720000000000001},{"rt":7419.100000023842,"stimulus":"bees-with-color/bee-B1SM.svg","response":0,"trial_type":"image-button-response","trial_index":23,"time_elapsed":508843,"internal_node_id":"0.0-4.0-0.8","subject_id":"6108878a6817adc0fb1bfbf9","study_id":"60edd13110225f80f9f3709b","session_id":"6196c7026eb9baaf09605ade","condition":"full-information","relevant_dimensions":["antennae","pattern"],"bee_group":{"antennae":"A","wings":"X","pattern":"D","legs":"X"},"action":"harvest","summary":"good-harvest","bonus":1.720000000000001},{"rt":1207,"stimulus":"\n                    <p><b>Action: <em>harvest</em></b></p>\n                    <p>This is the bee that you just saw.</p>\n                    <img src=\"bees-with-color/bee-B1SM.svg\" width=\"200\">\n                    <p><span class=\"greenText\"><b>Successful harvest!</b></span><br>Your pay has increased by $0.02. Your bonus pay is now $0.62.</p>\n            ","response":0,"trial_type":"html-button-response","trial_index":24,"time_elapsed":510051,"internal_node_id":"0.0-4.0-1.8","subject_id":"6108878a6817adc0fb1bfbf9","study_id":"60edd13110225f80f9f3709b","session_id":"6196c7026eb9baaf09605ade","condition":"full-information","relevant_dimensions":["antennae","pattern"],"bee_group":{"antennae":"A","wings":"X","pattern":"D","legs":"X"},"bonus":1.720000000000001},{"rt":8865.5,"stimulus":"bees-with-color/bee-B2DF.svg","response":0,"trial_type":"image-button-response","trial_index":25,"time_elapsed":518918,"internal_node_id":"0.0-4.0-0.9","subject_id":"6108878a6817adc0fb1bfbf9","study_id":"60edd13110225f80f9f3709b","session_id":"6196c7026eb9baaf09605ade","condition":"full-information","relevant_dimensions":["antennae","pattern"],"bee_group":{"antennae":"A","wings":"X","pattern":"D","legs":"X"},"action":"harvest","summary":"good-harvest","bonus":1.720000000000001},{"rt":10498.599999964237,"stimulus":"\n                    <p><b>Action: <em>harvest</em></b></p>\n                    <p>This is the bee that you just saw.</p>\n                    <img src=\"bees-with-color/bee-B2DF.svg\" width=\"200\">\n                    <p><span class=\"greenText\"><b>Successful harvest!</b></span><br>Your pay has increased by $0.02. Your bonus pay is now $0.64.</p>\n            ","response":0,"trial_type":"html-button-response","trial_index":26,"time_elapsed":529417,"internal_node_id":"0.0-4.0-1.9","subject_id":"6108878a6817adc0fb1bfbf9","study_id":"60edd13110225f80f9f3709b","session_id":"6196c7026eb9baaf09605ade","condition":"full-information","relevant_dimensions":["antennae","pattern"],"bee_group":{"antennae":"A","wings":"X","pattern":"D","legs":"X"},"bonus":1.720000000000001},{"rt":3577.199999988079,"stimulus":"bees-with-color/bee-A1SF.svg","response":0,"trial_type":"image-button-response","trial_index":27,"time_elapsed":532996,"internal_node_id":"0.0-4.0-0.10","subject_id":"6108878a6817adc0fb1bfbf9","study_id":"60edd13110225f80f9f3709b","session_id":"6196c7026eb9baaf09605ade","condition":"full-information","relevant_dimensions":["antennae","pattern"],"bee_group":{"antennae":"A","wings":"X","pattern":"D","legs":"X"},"action":"harvest","summary":"good-harvest","bonus":1.720000000000001},{"rt":1235.300000011921,"stimulus":"\n                    <p><b>Action: <em>harvest</em></b></p>\n                    <p>This is the bee that you just saw.</p>\n                    <img src=\"bees-with-color/bee-A1SF.svg\" width=\"200\">\n                    <p><span class=\"greenText\"><b>Successful harvest!</b></span><br>Your pay has increased by $0.02. Your bonus pay is now $0.66.</p>\n            ","response":0,"trial_type":"html-button-response","trial_index":28,"time_elapsed":534232,"internal_node_id":"0.0-4.0-1.10","subject_id":"6108878a6817adc0fb1bfbf9","study_id":"60edd13110225f80f9f3709b","session_id":"6196c7026eb9baaf09605ade","condition":"full-information","relevant_dimensions":["antennae","pattern"],"bee_group":{"antennae":"A","wings":"X","pattern":"D","legs":"X"},"bonus":1.720000000000001},{"rt":1791.800000011921,"stimulus":"bees-with-color/bee-B2SM.svg","response":0,"trial_type":"image-button-response","trial_index":29,"time_elapsed":536025,"internal_node_id":"0.0-4.0-0.11","subject_id":"6108878a6817adc0fb1bfbf9","study_id":"60edd13110225f80f9f3709b","session_id":"6196c7026eb9baaf09605ade","condition":"full-information","relevant_dimensions":["antennae","pattern"],"bee_group":{"antennae":"A","wings":"X","pattern":"D","legs":"X"},"action":"harvest","summary":"good-harvest","bonus":1.720000000000001},{"rt":1019.3000000119209,"stimulus":"\n                    <p><b>Action: <em>harvest</em></b></p>\n                    <p>This is the bee that you just saw.</p>\n                    <img src=\"bees-with-color/bee-B2SM.svg\" width=\"200\">\n                    <p><span class=\"greenText\"><b>Successful harvest!</b></span><br>Your pay has increased by $0.02. Your bonus pay is now $0.68.</p>\n            ","response":0,"trial_type":"html-button-response","trial_index":30,"time_elapsed":537045,"internal_node_id":"0.0-4.0-1.11","subject_id":"6108878a6817adc0fb1bfbf9","study_id":"60edd13110225f80f9f3709b","session_id":"6196c7026eb9baaf09605ade","condition":"full-information","relevant_dimensions":["antennae","pattern"],"bee_group":{"antennae":"A","wings":"X","pattern":"D","legs":"X"},"bonus":1.720000000000001},{"rt":4196.599999964237,"stimulus":"bees-with-color/bee-A1DF.svg","response":1,"trial_type":"image-button-response","trial_index":31,"time_elapsed":541243,"internal_node_id":"0.0-4.0-0.12","subject_id":"6108878a6817adc0fb1bfbf9","study_id":"60edd13110225f80f9f3709b","session_id":"6196c7026eb9baaf09605ade","condition":"full-information","relevant_dimensions":["antennae","pattern"],"bee_group":{"antennae":"A","wings":"X","pattern":"D","legs":"X"},"action":"avoid","summary":"good-avoid","bonus":1.720000000000001},{"rt":1506.300000011921,"stimulus":"\n                    <p><b>Action: <em>avoid</em></b></p>\n                    <p>This is the bee that you just saw.</p>\n                    <img src=\"bees-with-color/bee-A1DF.svg\" width=\"200\">\n                    <p><span class=\"greenText\">Good choice!</span>  This bee would have stung you.<br>Your bonus pay is unchanged, and remains at $0.68.</p>\n            ","response":0,"trial_type":"html-button-response","trial_index":32,"time_elapsed":542750,"internal_node_id":"0.0-4.0-1.12","subject_id":"6108878a6817adc0fb1bfbf9","study_id":"60edd13110225f80f9f3709b","session_id":"6196c7026eb9baaf09605ade","condition":"full-information","relevant_dimensions":["antennae","pattern"],"bee_group":{"antennae":"A","wings":"X","pattern":"D","legs":"X"},"bonus":1.720000000000001},{"rt":4181,"stimulus":"bees-with-color/bee-B1SF.svg","response":0,"trial_type":"image-button-response","trial_index":33,"time_elapsed":546932,"internal_node_id":"0.0-4.0-0.13","subject_id":"6108878a6817adc0fb1bfbf9","study_id":"60edd13110225f80f9f3709b","session_id":"6196c7026eb9baaf09605ade","condition":"full-information","relevant_dimensions":["antennae","pattern"],"bee_group":{"antennae":"A","wings":"X","pattern":"D","legs":"X"},"action":"harvest","summary":"good-harvest","bonus":1.720000000000001},{"rt":7523.099999964237,"stimulus":"\n                    <p><b>Action: <em>harvest</em></b></p>\n                    <p>This is the bee that you just saw.</p>\n                    <img src=\"bees-with-color/bee-B1SF.svg\" width=\"200\">\n                    <p><span class=\"greenText\"><b>Successful harvest!</b></span><br>Your pay has increased by $0.02. Your bonus pay is now $0.70.</p>\n            ","response":0,"trial_type":"html-button-response","trial_index":34,"time_elapsed":554456,"internal_node_id":"0.0-4.0-1.13","subject_id":"6108878a6817adc0fb1bfbf9","study_id":"60edd13110225f80f9f3709b","session_id":"6196c7026eb9baaf09605ade","condition":"full-information","relevant_dimensions":["antennae","pattern"],"bee_group":{"antennae":"A","wings":"X","pattern":"D","legs":"X"},"bonus":1.720000000000001},{"rt":5212.300000011921,"stimulus":"bees-with-color/bee-A2DF.svg","response":1,"trial_type":"image-button-response","trial_index":35,"time_elapsed":559670,"internal_node_id":"0.0-4.0-0.14","subject_id":"6108878a6817adc0fb1bfbf9","study_id":"60edd13110225f80f9f3709b","session_id":"6196c7026eb9baaf09605ade","condition":"full-information","relevant_dimensions":["antennae","pattern"],"bee_group":{"antennae":"A","wings":"X","pattern":"D","legs":"X"},"action":"avoid","summary":"good-avoid","bonus":1.720000000000001},{"rt":1277.6000000238419,"stimulus":"\n                    <p><b>Action: <em>avoid</em></b></p>\n                    <p>This is the bee that you just saw.</p>\n                    <img src=\"bees-with-color/bee-A2DF.svg\" width=\"200\">\n                    <p><span class=\"greenText\">Good choice!</span>  This bee would have stung you.<br>Your bonus pay is unchanged, and remains at $0.70.</p>\n            ","response":0,"trial_type":"html-button-response","trial_index":36,"time_elapsed":560949,"internal_node_id":"0.0-4.0-1.14","subject_id":"6108878a6817adc0fb1bfbf9","study_id":"60edd13110225f80f9f3709b","session_id":"6196c7026eb9baaf09605ade","condition":"full-information","relevant_dimensions":["antennae","pattern"],"bee_group":{"antennae":"A","wings":"X","pattern":"D","legs":"X"},"bonus":1.720000000000001},{"rt":3870.800000011921,"stimulus":"bees-with-color/bee-B2DM.svg","response":0,"trial_type":"image-button-response","trial_index":37,"time_elapsed":564821,"internal_node_id":"0.0-4.0-0.15","subject_id":"6108878a6817adc0fb1bfbf9","study_id":"60edd13110225f80f9f3709b","session_id":"6196c7026eb9baaf09605ade","condition":"full-information","relevant_dimensions":["antennae","pattern"],"bee_group":{"antennae":"A","wings":"X","pattern":"D","legs":"X"},"action":"harvest","summary":"good-harvest","bonus":1.720000000000001},{"rt":1024.5,"stimulus":"\n                    <p><b>Action: <em>harvest</em></b></p>\n                    <p>This is the bee that you just saw.</p>\n                    <img src=\"bees-with-color/bee-B2DM.svg\" width=\"200\">\n                    <p><span class=\"greenText\"><b>Successful harvest!</b></span><br>Your pay has increased by $0.02. Your bonus pay is now $0.72.</p>\n            ","response":0,"trial_type":"html-button-response","trial_index":38,"time_elapsed":565847,"internal_node_id":"0.0-4.0-1.15","subject_id":"6108878a6817adc0fb1bfbf9","study_id":"60edd13110225f80f9f3709b","session_id":"6196c7026eb9baaf09605ade","condition":"full-information","relevant_dimensions":["antennae","pattern"],"bee_group":{"antennae":"A","wings":"X","pattern":"D","legs":"X"},"bonus":1.720000000000001},{"rt":1331,"stimulus":"bees-with-color/bee-B2DM.svg","response":0,"trial_type":"image-button-response","trial_index":39,"time_elapsed":567179,"internal_node_id":"0.0-4.0-0.16","subject_id":"6108878a6817adc0fb1bfbf9","study_id":"60edd13110225f80f9f3709b","session_id":"6196c7026eb9baaf09605ade","condition":"full-information","relevant_dimensions":["antennae","pattern"],"bee_group":{"antennae":"A","wings":"X","pattern":"D","legs":"X"},"action":"harvest","summary":"good-harvest","bonus":1.720000000000001},{"rt":1385.3999999761581,"stimulus":"\n                    <p><b>Action: <em>harvest</em></b></p>\n                    <p>This is the bee that you just saw.</p>\n                    <img src=\"bees-with-color/bee-B2DM.svg\" width=\"200\">\n                    <p><span class=\"greenText\"><b>Successful harvest!</b></span><br>Your pay has increased by $0.02. Your bonus pay is now $0.74.</p>\n            ","response":0,"trial_type":"html-button-response","trial_index":40,"time_elapsed":568566,"internal_node_id":"0.0-4.0-1.16","subject_id":"6108878a6817adc0fb1bfbf9","study_id":"60edd13110225f80f9f3709b","session_id":"6196c7026eb9baaf09605ade","condition":"full-information","relevant_dimensions":["antennae","pattern"],"bee_group":{"antennae":"A","wings":"X","pattern":"D","legs":"X"},"bonus":1.720000000000001},{"rt":2957.599999964237,"stimulus":"bees-with-color/bee-A1DF.svg","response":1,"trial_type":"image-button-response","trial_index":41,"time_elapsed":571524,"internal_node_id":"0.0-4.0-0.17","subject_id":"6108878a6817adc0fb1bfbf9","study_id":"60edd13110225f80f9f3709b","session_id":"6196c7026eb9baaf09605ade","condition":"full-information","relevant_dimensions":["antennae","pattern"],"bee_group":{"antennae":"A","wings":"X","pattern":"D","legs":"X"},"action":"avoid","summary":"good-avoid","bonus":1.720000000000001},{"rt":1154.5,"stimulus":"\n                    <p><b>Action: <em>avoid</em></b></p>\n                    <p>This is the bee that you just saw.</p>\n                    <img src=\"bees-with-color/bee-A1DF.svg\" width=\"200\">\n                    <p><span class=\"greenText\">Good choice!</span>  This bee would have stung you.<br>Your bonus pay is unchanged, and remains at $0.74.</p>\n            ","response":0,"trial_type":"html-button-response","trial_index":42,"time_elapsed":572680,"internal_node_id":"0.0-4.0-1.17","subject_id":"6108878a6817adc0fb1bfbf9","study_id":"60edd13110225f80f9f3709b","session_id":"6196c7026eb9baaf09605ade","condition":"full-information","relevant_dimensions":["antennae","pattern"],"bee_group":{"antennae":"A","wings":"X","pattern":"D","legs":"X"},"bonus":1.720000000000001},{"rt":1658.8999999761581,"stimulus":"bees-with-color/bee-A2SF.svg","response":0,"trial_type":"image-button-response","trial_index":43,"time_elapsed":574340,"internal_node_id":"0.0-4.0-0.18","subject_id":"6108878a6817adc0fb1bfbf9","study_id":"60edd13110225f80f9f3709b","session_id":"6196c7026eb9baaf09605ade","condition":"full-information","relevant_dimensions":["antennae","pattern"],"bee_group":{"antennae":"A","wings":"X","pattern":"D","legs":"X"},"action":"harvest","summary":"good-harvest","bonus":1.720000000000001},{"rt":997.5999999642372,"stimulus":"\n                    <p><b>Action: <em>harvest</em></b></p>\n                    <p>This is the bee that you just saw.</p>\n                    <img src=\"bees-with-color/bee-A2SF.svg\" width=\"200\">\n                    <p><span class=\"greenText\"><b>Successful harvest!</b></span><br>Your pay has increased by $0.02. Your bonus pay is now $0.76.</p>\n            ","response":0,"trial_type":"html-button-response","trial_index":44,"time_elapsed":575338,"internal_node_id":"0.0-4.0-1.18","subject_id":"6108878a6817adc0fb1bfbf9","study_id":"60edd13110225f80f9f3709b","session_id":"6196c7026eb9baaf09605ade","condition":"full-information","relevant_dimensions":["antennae","pattern"],"bee_group":{"antennae":"A","wings":"X","pattern":"D","legs":"X"},"bonus":1.720000000000001},{"rt":2002.699999988079,"stimulus":"bees-with-color/bee-A2DM.svg","response":0,"trial_type":"image-button-response","trial_index":45,"time_elapsed":577342,"internal_node_id":"0.0-4.0-0.19","subject_id":"6108878a6817adc0fb1bfbf9","study_id":"60edd13110225f80f9f3709b","session_id":"6196c7026eb9baaf09605ade","condition":"full-information","relevant_dimensions":["antennae","pattern"],"bee_group":{"antennae":"A","wings":"X","pattern":"D","legs":"X"},"action":"harvest","summary":"bad-harvest","bonus":1.720000000000001},{"rt":2368.300000011921,"stimulus":"\n                    <p><b>Action: <em>harvest</em></b></p>\n                    <p>This is the bee that you just saw.</p>\n                    <img src=\"bees-with-color/bee-A2DM.svg\" width=\"200\">\n                    <p><span class=\"redText\">Bad choice, the bee was angry.</span><br><b>You have been stung!</b><br>Your pay has been decreased by $0.10. Your bonus pay is now $0.66.</p>\n            ","response":0,"trial_type":"html-button-response","trial_index":46,"time_elapsed":579711,"internal_node_id":"0.0-4.0-1.19","subject_id":"6108878a6817adc0fb1bfbf9","study_id":"60edd13110225f80f9f3709b","session_id":"6196c7026eb9baaf09605ade","condition":"full-information","relevant_dimensions":["antennae","pattern"],"bee_group":{"antennae":"A","wings":"X","pattern":"D","legs":"X"},"bonus":1.720000000000001},{"rt":3427.599999964237,"stimulus":"bees-with-color/bee-B1DM.svg","response":0,"trial_type":"image-button-response","trial_index":47,"time_elapsed":583140,"internal_node_id":"0.0-4.0-0.20","subject_id":"6108878a6817adc0fb1bfbf9","study_id":"60edd13110225f80f9f3709b","session_id":"6196c7026eb9baaf09605ade","condition":"full-information","relevant_dimensions":["antennae","pattern"],"bee_group":{"antennae":"A","wings":"X","pattern":"D","legs":"X"},"action":"harvest","summary":"good-harvest","bonus":1.720000000000001},{"rt":1329.9000000357628,"stimulus":"\n                    <p><b>Action: <em>harvest</em></b></p>\n                    <p>This is the bee that you just saw.</p>\n                    <img src=\"bees-with-color/bee-B1DM.svg\" width=\"200\">\n                    <p><span class=\"greenText\"><b>Successful harvest!</b></span><br>Your pay has increased by $0.02. Your bonus pay is now $0.68.</p>\n            ","response":0,"trial_type":"html-button-response","trial_index":48,"time_elapsed":584471,"internal_node_id":"0.0-4.0-1.20","subject_id":"6108878a6817adc0fb1bfbf9","study_id":"60edd13110225f80f9f3709b","session_id":"6196c7026eb9baaf09605ade","condition":"full-information","relevant_dimensions":["antennae","pattern"],"bee_group":{"antennae":"A","wings":"X","pattern":"D","legs":"X"},"bonus":1.720000000000001},{"rt":9501.899999976158,"stimulus":"bees-with-color/bee-B1SF.svg","response":0,"trial_type":"image-button-response","trial_index":49,"time_elapsed":593973,"internal_node_id":"0.0-4.0-0.21","subject_id":"6108878a6817adc0fb1bfbf9","study_id":"60edd13110225f80f9f3709b","session_id":"6196c7026eb9baaf09605ade","condition":"full-information","relevant_dimensions":["antennae","pattern"],"bee_group":{"antennae":"A","wings":"X","pattern":"D","legs":"X"},"action":"harvest","summary":"good-harvest","bonus":1.720000000000001},{"rt":950.9000000357628,"stimulus":"\n                    <p><b>Action: <em>harvest</em></b></p>\n                    <p>This is the bee that you just saw.</p>\n                    <img src=\"bees-with-color/bee-B1SF.svg\" width=\"200\">\n                    <p><span class=\"greenText\"><b>Successful harvest!</b></span><br>Your pay has increased by $0.02. Your bonus pay is now $0.70.</p>\n            ","response":0,"trial_type":"html-button-response","trial_index":50,"time_elapsed":594925,"internal_node_id":"0.0-4.0-1.21","subject_id":"6108878a6817adc0fb1bfbf9","study_id":"60edd13110225f80f9f3709b","session_id":"6196c7026eb9baaf09605ade","condition":"full-information","relevant_dimensions":["antennae","pattern"],"bee_group":{"antennae":"A","wings":"X","pattern":"D","legs":"X"},"bonus":1.720000000000001},{"rt":1676,"stimulus":"bees-with-color/bee-A1SM.svg","response":0,"trial_type":"image-button-response","trial_index":51,"time_elapsed":596602,"internal_node_id":"0.0-4.0-0.22","subject_id":"6108878a6817adc0fb1bfbf9","study_id":"60edd13110225f80f9f3709b","session_id":"6196c7026eb9baaf09605ade","condition":"full-information","relevant_dimensions":["antennae","pattern"],"bee_group":{"antennae":"A","wings":"X","pattern":"D","legs":"X"},"action":"harvest","summary":"good-harvest","bonus":1.720000000000001},{"rt":915.9000000357628,"stimulus":"\n                    <p><b>Action: <em>harvest</em></b></p>\n                    <p>This is the bee that you just saw.</p>\n                    <img src=\"bees-with-color/bee-A1SM.svg\" width=\"200\">\n                    <p><span class=\"greenText\"><b>Successful harvest!</b></span><br>Your pay has increased by $0.02. Your bonus pay is now $0.72.</p>\n            ","response":0,"trial_type":"html-button-response","trial_index":52,"time_elapsed":597519,"internal_node_id":"0.0-4.0-1.22","subject_id":"6108878a6817adc0fb1bfbf9","study_id":"60edd13110225f80f9f3709b","session_id":"6196c7026eb9baaf09605ade","condition":"full-information","relevant_dimensions":["antennae","pattern"],"bee_group":{"antennae":"A","wings":"X","pattern":"D","legs":"X"},"bonus":1.720000000000001},{"rt":6081.699999988079,"stimulus":"bees-with-color/bee-B2SF.svg","response":0,"trial_type":"image-button-response","trial_index":53,"time_elapsed":603602,"internal_node_id":"0.0-4.0-0.23","subject_id":"6108878a6817adc0fb1bfbf9","study_id":"60edd13110225f80f9f3709b","session_id":"6196c7026eb9baaf09605ade","condition":"full-information","relevant_dimensions":["antennae","pattern"],"bee_group":{"antennae":"A","wings":"X","pattern":"D","legs":"X"},"action":"harvest","summary":"good-harvest","bonus":1.720000000000001},{"rt":1021.1000000238419,"stimulus":"\n                    <p><b>Action: <em>harvest</em></b></p>\n                    <p>This is the bee that you just saw.</p>\n                    <img src=\"bees-with-color/bee-B2SF.svg\" width=\"200\">\n                    <p><span class=\"greenText\"><b>Successful harvest!</b></span><br>Your pay has increased by $0.02. Your bonus pay is now $0.74.</p>\n            ","response":0,"trial_type":"html-button-response","trial_index":54,"time_elapsed":604624,"internal_node_id":"0.0-4.0-1.23","subject_id":"6108878a6817adc0fb1bfbf9","study_id":"60edd13110225f80f9f3709b","session_id":"6196c7026eb9baaf09605ade","condition":"full-information","relevant_dimensions":["antennae","pattern"],"bee_group":{"antennae":"A","wings":"X","pattern":"D","legs":"X"},"bonus":1.720000000000001},{"rt":1944.699999988079,"stimulus":"bees-with-color/bee-B1SM.svg","response":0,"trial_type":"image-button-response","trial_index":55,"time_elapsed":606570,"internal_node_id":"0.0-4.0-0.24","subject_id":"6108878a6817adc0fb1bfbf9","study_id":"60edd13110225f80f9f3709b","session_id":"6196c7026eb9baaf09605ade","condition":"full-information","relevant_dimensions":["antennae","pattern"],"bee_group":{"antennae":"A","wings":"X","pattern":"D","legs":"X"},"action":"harvest","summary":"good-harvest","bonus":1.720000000000001},{"rt":822.3000000119209,"stimulus":"\n                    <p><b>Action: <em>harvest</em></b></p>\n                    <p>This is the bee that you just saw.</p>\n                    <img src=\"bees-with-color/bee-B1SM.svg\" width=\"200\">\n                    <p><span class=\"greenText\"><b>Successful harvest!</b></span><br>Your pay has increased by $0.02. Your bonus pay is now $0.76.</p>\n            ","response":0,"trial_type":"html-button-response","trial_index":56,"time_elapsed":607393,"internal_node_id":"0.0-4.0-1.24","subject_id":"6108878a6817adc0fb1bfbf9","study_id":"60edd13110225f80f9f3709b","session_id":"6196c7026eb9baaf09605ade","condition":"full-information","relevant_dimensions":["antennae","pattern"],"bee_group":{"antennae":"A","wings":"X","pattern":"D","legs":"X"},"bonus":1.720000000000001},{"rt":1293.199999988079,"stimulus":"bees-with-color/bee-A1SF.svg","response":0,"trial_type":"image-button-response","trial_index":57,"time_elapsed":608688,"internal_node_id":"0.0-4.0-0.25","subject_id":"6108878a6817adc0fb1bfbf9","study_id":"60edd13110225f80f9f3709b","session_id":"6196c7026eb9baaf09605ade","condition":"full-information","relevant_dimensions":["antennae","pattern"],"bee_group":{"antennae":"A","wings":"X","pattern":"D","legs":"X"},"action":"harvest","summary":"good-harvest","bonus":1.720000000000001},{"rt":900.3000000119209,"stimulus":"\n                    <p><b>Action: <em>harvest</em></b></p>\n                    <p>This is the bee that you just saw.</p>\n                    <img src=\"bees-with-color/bee-A1SF.svg\" width=\"200\">\n                    <p><span class=\"greenText\"><b>Successful harvest!</b></span><br>Your pay has increased by $0.02. Your bonus pay is now $0.78.</p>\n            ","response":0,"trial_type":"html-button-response","trial_index":58,"time_elapsed":609589,"internal_node_id":"0.0-4.0-1.25","subject_id":"6108878a6817adc0fb1bfbf9","study_id":"60edd13110225f80f9f3709b","session_id":"6196c7026eb9baaf09605ade","condition":"full-information","relevant_dimensions":["antennae","pattern"],"bee_group":{"antennae":"A","wings":"X","pattern":"D","legs":"X"},"bonus":1.720000000000001},{"rt":2761.100000023842,"stimulus":"bees-with-color/bee-A1DM.svg","response":1,"trial_type":"image-button-response","trial_index":59,"time_elapsed":612351,"internal_node_id":"0.0-4.0-0.26","subject_id":"6108878a6817adc0fb1bfbf9","study_id":"60edd13110225f80f9f3709b","session_id":"6196c7026eb9baaf09605ade","condition":"full-information","relevant_dimensions":["antennae","pattern"],"bee_group":{"antennae":"A","wings":"X","pattern":"D","legs":"X"},"action":"avoid","summary":"good-avoid","bonus":1.720000000000001},{"rt":804.5999999642372,"stimulus":"\n                    <p><b>Action: <em>avoid</em></b></p>\n                    <p>This is the bee that you just saw.</p>\n                    <img src=\"bees-with-color/bee-A1DM.svg\" width=\"200\">\n                    <p><span class=\"greenText\">Good choice!</span>  This bee would have stung you.<br>Your bonus pay is unchanged, and remains at $0.78.</p>\n            ","response":0,"trial_type":"html-button-response","trial_index":60,"time_elapsed":613157,"internal_node_id":"0.0-4.0-1.26","subject_id":"6108878a6817adc0fb1bfbf9","study_id":"60edd13110225f80f9f3709b","session_id":"6196c7026eb9baaf09605ade","condition":"full-information","relevant_dimensions":["antennae","pattern"],"bee_group":{"antennae":"A","wings":"X","pattern":"D","legs":"X"},"bonus":1.720000000000001},{"rt":1918.800000011921,"stimulus":"bees-with-color/bee-B1DF.svg","response":0,"trial_type":"image-button-response","trial_index":61,"time_elapsed":615076,"internal_node_id":"0.0-4.0-0.27","subject_id":"6108878a6817adc0fb1bfbf9","study_id":"60edd13110225f80f9f3709b","session_id":"6196c7026eb9baaf09605ade","condition":"full-information","relevant_dimensions":["antennae","pattern"],"bee_group":{"antennae":"A","wings":"X","pattern":"D","legs":"X"},"action":"harvest","summary":"good-harvest","bonus":1.720000000000001},{"rt":1159.5,"stimulus":"\n                    <p><b>Action: <em>harvest</em></b></p>\n                    <p>This is the bee that you just saw.</p>\n                    <img src=\"bees-with-color/bee-B1DF.svg\" width=\"200\">\n                    <p><span class=\"greenText\"><b>Successful harvest!</b></span><br>Your pay has increased by $0.02. Your bonus pay is now $0.80.</p>\n            ","response":0,"trial_type":"html-button-response","trial_index":62,"time_elapsed":616237,"internal_node_id":"0.0-4.0-1.27","subject_id":"6108878a6817adc0fb1bfbf9","study_id":"60edd13110225f80f9f3709b","session_id":"6196c7026eb9baaf09605ade","condition":"full-information","relevant_dimensions":["antennae","pattern"],"bee_group":{"antennae":"A","wings":"X","pattern":"D","legs":"X"},"bonus":1.720000000000001},{"rt":2050.899999976158,"stimulus":"bees-with-color/bee-A2DF.svg","response":1,"trial_type":"image-button-response","trial_index":63,"time_elapsed":618289,"internal_node_id":"0.0-4.0-0.28","subject_id":"6108878a6817adc0fb1bfbf9","study_id":"60edd13110225f80f9f3709b","session_id":"6196c7026eb9baaf09605ade","condition":"full-information","relevant_dimensions":["antennae","pattern"],"bee_group":{"antennae":"A","wings":"X","pattern":"D","legs":"X"},"action":"avoid","summary":"good-avoid","bonus":1.720000000000001},{"rt":938.8999999761581,"stimulus":"\n                    <p><b>Action: <em>avoid</em></b></p>\n                    <p>This is the bee that you just saw.</p>\n                    <img src=\"bees-with-color/bee-A2DF.svg\" width=\"200\">\n                    <p><span class=\"greenText\">Good choice!</span>  This bee would have stung you.<br>Your bonus pay is unchanged, and remains at $0.80.</p>\n            ","response":0,"trial_type":"html-button-response","trial_index":64,"time_elapsed":619228,"internal_node_id":"0.0-4.0-1.28","subject_id":"6108878a6817adc0fb1bfbf9","study_id":"60edd13110225f80f9f3709b","session_id":"6196c7026eb9baaf09605ade","condition":"full-information","relevant_dimensions":["antennae","pattern"],"bee_group":{"antennae":"A","wings":"X","pattern":"D","legs":"X"},"bonus":1.720000000000001},{"rt":2190.399999976158,"stimulus":"bees-with-color/bee-B2DF.svg","response":0,"trial_type":"image-button-response","trial_index":65,"time_elapsed":621420,"internal_node_id":"0.0-4.0-0.29","subject_id":"6108878a6817adc0fb1bfbf9","study_id":"60edd13110225f80f9f3709b","session_id":"6196c7026eb9baaf09605ade","condition":"full-information","relevant_dimensions":["antennae","pattern"],"bee_group":{"antennae":"A","wings":"X","pattern":"D","legs":"X"},"action":"harvest","summary":"good-harvest","bonus":1.720000000000001},{"rt":837.8000000119209,"stimulus":"\n                    <p><b>Action: <em>harvest</em></b></p>\n                    <p>This is the bee that you just saw.</p>\n                    <img src=\"bees-with-color/bee-B2DF.svg\" width=\"200\">\n                    <p><span class=\"greenText\"><b>Successful harvest!</b></span><br>Your pay has increased by $0.02. Your bonus pay is now $0.82.</p>\n            ","response":0,"trial_type":"html-button-response","trial_index":66,"time_elapsed":622259,"internal_node_id":"0.0-4.0-1.29","subject_id":"6108878a6817adc0fb1bfbf9","study_id":"60edd13110225f80f9f3709b","session_id":"6196c7026eb9baaf09605ade","condition":"full-information","relevant_dimensions":["antennae","pattern"],"bee_group":{"antennae":"A","wings":"X","pattern":"D","legs":"X"},"bonus":1.720000000000001},{"rt":1762.800000011921,"stimulus":"bees-with-color/bee-B2SM.svg","response":0,"trial_type":"image-button-response","trial_index":67,"time_elapsed":624023,"internal_node_id":"0.0-4.0-0.30","subject_id":"6108878a6817adc0fb1bfbf9","study_id":"60edd13110225f80f9f3709b","session_id":"6196c7026eb9baaf09605ade","condition":"full-information","relevant_dimensions":["antennae","pattern"],"bee_group":{"antennae":"A","wings":"X","pattern":"D","legs":"X"},"action":"harvest","summary":"good-harvest","bonus":1.720000000000001},{"rt":904.6000000238419,"stimulus":"\n                    <p><b>Action: <em>harvest</em></b></p>\n                    <p>This is the bee that you just saw.</p>\n                    <img src=\"bees-with-color/bee-B2SM.svg\" width=\"200\">\n                    <p><span class=\"greenText\"><b>Successful harvest!</b></span><br>Your pay has increased by $0.02. Your bonus pay is now $0.84.</p>\n            ","response":0,"trial_type":"html-button-response","trial_index":68,"time_elapsed":624929,"internal_node_id":"0.0-4.0-1.30","subject_id":"6108878a6817adc0fb1bfbf9","study_id":"60edd13110225f80f9f3709b","session_id":"6196c7026eb9baaf09605ade","condition":"full-information","relevant_dimensions":["antennae","pattern"],"bee_group":{"antennae":"A","wings":"X","pattern":"D","legs":"X"},"bonus":1.720000000000001},{"rt":1339.3999999761581,"stimulus":"bees-with-color/bee-A2SM.svg","response":0,"trial_type":"image-button-response","trial_index":69,"time_elapsed":626269,"internal_node_id":"0.0-4.0-0.31","subject_id":"6108878a6817adc0fb1bfbf9","study_id":"60edd13110225f80f9f3709b","session_id":"6196c7026eb9baaf09605ade","condition":"full-information","relevant_dimensions":["antennae","pattern"],"bee_group":{"antennae":"A","wings":"X","pattern":"D","legs":"X"},"action":"harvest","summary":"good-harvest","bonus":1.720000000000001},{"rt":780.7999999523163,"stimulus":"\n                    <p><b>Action: <em>harvest</em></b></p>\n                    <p>This is the bee that you just saw.</p>\n                    <img src=\"bees-with-color/bee-A2SM.svg\" width=\"200\">\n                    <p><span class=\"greenText\"><b>Successful harvest!</b></span><br>Your pay has increased by $0.02. Your bonus pay is now $0.86.</p>\n            ","response":0,"trial_type":"html-button-response","trial_index":70,"time_elapsed":627050,"internal_node_id":"0.0-4.0-1.31","subject_id":"6108878a6817adc0fb1bfbf9","study_id":"60edd13110225f80f9f3709b","session_id":"6196c7026eb9baaf09605ade","condition":"full-information","relevant_dimensions":["antennae","pattern"],"bee_group":{"antennae":"A","wings":"X","pattern":"D","legs":"X"},"bonus":1.720000000000001},{"rt":2458,"stimulus":"bees-with-color/bee-A2DM.svg","response":1,"trial_type":"image-button-response","trial_index":71,"time_elapsed":629509,"internal_node_id":"0.0-4.0-0.32","subject_id":"6108878a6817adc0fb1bfbf9","study_id":"60edd13110225f80f9f3709b","session_id":"6196c7026eb9baaf09605ade","condition":"full-information","relevant_dimensions":["antennae","pattern"],"bee_group":{"antennae":"A","wings":"X","pattern":"D","legs":"X"},"action":"avoid","summary":"good-avoid","bonus":1.720000000000001},{"rt":888.9000000357628,"stimulus":"\n                    <p><b>Action: <em>avoid</em></b></p>\n                    <p>This is the bee that you just saw.</p>\n                    <img src=\"bees-with-color/bee-A2DM.svg\" width=\"200\">\n                    <p><span class=\"greenText\">Good choice!</span>  This bee would have stung you.<br>Your bonus pay is unchanged, and remains at $0.86.</p>\n            ","response":0,"trial_type":"html-button-response","trial_index":72,"time_elapsed":630399,"internal_node_id":"0.0-4.0-1.32","subject_id":"6108878a6817adc0fb1bfbf9","study_id":"60edd13110225f80f9f3709b","session_id":"6196c7026eb9baaf09605ade","condition":"full-information","relevant_dimensions":["antennae","pattern"],"bee_group":{"antennae":"A","wings":"X","pattern":"D","legs":"X"},"bonus":1.720000000000001},{"rt":1606.7000000476837,"stimulus":"bees-with-color/bee-B2DF.svg","response":0,"trial_type":"image-button-response","trial_index":73,"time_elapsed":632007,"internal_node_id":"0.0-4.0-0.33","subject_id":"6108878a6817adc0fb1bfbf9","study_id":"60edd13110225f80f9f3709b","session_id":"6196c7026eb9baaf09605ade","condition":"full-information","relevant_dimensions":["antennae","pattern"],"bee_group":{"antennae":"A","wings":"X","pattern":"D","legs":"X"},"action":"harvest","summary":"good-harvest","bonus":1.720000000000001},{"rt":787.5999999642372,"stimulus":"\n                    <p><b>Action: <em>harvest</em></b></p>\n                    <p>This is the bee that you just saw.</p>\n                    <img src=\"bees-with-color/bee-B2DF.svg\" width=\"200\">\n                    <p><span class=\"greenText\"><b>Successful harvest!</b></span><br>Your pay has increased by $0.02. Your bonus pay is now $0.88.</p>\n            ","response":0,"trial_type":"html-button-response","trial_index":74,"time_elapsed":632795,"internal_node_id":"0.0-4.0-1.33","subject_id":"6108878a6817adc0fb1bfbf9","study_id":"60edd13110225f80f9f3709b","session_id":"6196c7026eb9baaf09605ade","condition":"full-information","relevant_dimensions":["antennae","pattern"],"bee_group":{"antennae":"A","wings":"X","pattern":"D","legs":"X"},"bonus":1.720000000000001},{"rt":1449.300000011921,"stimulus":"bees-with-color/bee-B2DM.svg","response":0,"trial_type":"image-button-response","trial_index":75,"time_elapsed":634245,"internal_node_id":"0.0-4.0-0.34","subject_id":"6108878a6817adc0fb1bfbf9","study_id":"60edd13110225f80f9f3709b","session_id":"6196c7026eb9baaf09605ade","condition":"full-information","relevant_dimensions":["antennae","pattern"],"bee_group":{"antennae":"A","wings":"X","pattern":"D","legs":"X"},"action":"harvest","summary":"good-harvest","bonus":1.720000000000001},{"rt":865.1999999880791,"stimulus":"\n                    <p><b>Action: <em>harvest</em></b></p>\n                    <p>This is the bee that you just saw.</p>\n                    <img src=\"bees-with-color/bee-B2DM.svg\" width=\"200\">\n                    <p><span class=\"greenText\"><b>Successful harvest!</b></span><br>Your pay has increased by $0.02. Your bonus pay is now $0.90.</p>\n            ","response":0,"trial_type":"html-button-response","trial_index":76,"time_elapsed":635111,"internal_node_id":"0.0-4.0-1.34","subject_id":"6108878a6817adc0fb1bfbf9","study_id":"60edd13110225f80f9f3709b","session_id":"6196c7026eb9baaf09605ade","condition":"full-information","relevant_dimensions":["antennae","pattern"],"bee_group":{"antennae":"A","wings":"X","pattern":"D","legs":"X"},"bonus":1.720000000000001},{"rt":1667.6000000238419,"stimulus":"bees-with-color/bee-B2SF.svg","response":0,"trial_type":"image-button-response","trial_index":77,"time_elapsed":636780,"internal_node_id":"0.0-4.0-0.35","subject_id":"6108878a6817adc0fb1bfbf9","study_id":"60edd13110225f80f9f3709b","session_id":"6196c7026eb9baaf09605ade","condition":"full-information","relevant_dimensions":["antennae","pattern"],"bee_group":{"antennae":"A","wings":"X","pattern":"D","legs":"X"},"action":"harvest","summary":"good-harvest","bonus":1.720000000000001},{"rt":858.5,"stimulus":"\n                    <p><b>Action: <em>harvest</em></b></p>\n                    <p>This is the bee that you just saw.</p>\n                    <img src=\"bees-with-color/bee-B2SF.svg\" width=\"200\">\n                    <p><span class=\"greenText\"><b>Successful harvest!</b></span><br>Your pay has increased by $0.02. Your bonus pay is now $0.92.</p>\n            ","response":0,"trial_type":"html-button-response","trial_index":78,"time_elapsed":637639,"internal_node_id":"0.0-4.0-1.35","subject_id":"6108878a6817adc0fb1bfbf9","study_id":"60edd13110225f80f9f3709b","session_id":"6196c7026eb9baaf09605ade","condition":"full-information","relevant_dimensions":["antennae","pattern"],"bee_group":{"antennae":"A","wings":"X","pattern":"D","legs":"X"},"bonus":1.720000000000001},{"rt":2119.7999999523163,"stimulus":"bees-with-color/bee-A2DF.svg","response":1,"trial_type":"image-button-response","trial_index":79,"time_elapsed":639760,"internal_node_id":"0.0-4.0-0.36","subject_id":"6108878a6817adc0fb1bfbf9","study_id":"60edd13110225f80f9f3709b","session_id":"6196c7026eb9baaf09605ade","condition":"full-information","relevant_dimensions":["antennae","pattern"],"bee_group":{"antennae":"A","wings":"X","pattern":"D","legs":"X"},"action":"avoid","summary":"good-avoid","bonus":1.720000000000001},{"rt":866.3999999761581,"stimulus":"\n                    <p><b>Action: <em>avoid</em></b></p>\n                    <p>This is the bee that you just saw.</p>\n                    <img src=\"bees-with-color/bee-A2DF.svg\" width=\"200\">\n                    <p><span class=\"greenText\">Good choice!</span>  This bee would have stung you.<br>Your bonus pay is unchanged, and remains at $0.92.</p>\n            ","response":0,"trial_type":"html-button-response","trial_index":80,"time_elapsed":640627,"internal_node_id":"0.0-4.0-1.36","subject_id":"6108878a6817adc0fb1bfbf9","study_id":"60edd13110225f80f9f3709b","session_id":"6196c7026eb9baaf09605ade","condition":"full-information","relevant_dimensions":["antennae","pattern"],"bee_group":{"antennae":"A","wings":"X","pattern":"D","legs":"X"},"bonus":1.720000000000001},{"rt":1264,"stimulus":"bees-with-color/bee-B2SM.svg","response":0,"trial_type":"image-button-response","trial_index":81,"time_elapsed":641892,"internal_node_id":"0.0-4.0-0.37","subject_id":"6108878a6817adc0fb1bfbf9","study_id":"60edd13110225f80f9f3709b","session_id":"6196c7026eb9baaf09605ade","condition":"full-information","relevant_dimensions":["antennae","pattern"],"bee_group":{"antennae":"A","wings":"X","pattern":"D","legs":"X"},"action":"harvest","summary":"good-harvest","bonus":1.720000000000001},{"rt":880.6000000238419,"stimulus":"\n                    <p><b>Action: <em>harvest</em></b></p>\n                    <p>This is the bee that you just saw.</p>\n                    <img src=\"bees-with-color/bee-B2SM.svg\" width=\"200\">\n                    <p><span class=\"greenText\"><b>Successful harvest!</b></span><br>Your pay has increased by $0.02. Your bonus pay is now $0.94.</p>\n            ","response":0,"trial_type":"html-button-response","trial_index":82,"time_elapsed":642774,"internal_node_id":"0.0-4.0-1.37","subject_id":"6108878a6817adc0fb1bfbf9","study_id":"60edd13110225f80f9f3709b","session_id":"6196c7026eb9baaf09605ade","condition":"full-information","relevant_dimensions":["antennae","pattern"],"bee_group":{"antennae":"A","wings":"X","pattern":"D","legs":"X"},"bonus":1.720000000000001},{"rt":1505.3999999761581,"stimulus":"bees-with-color/bee-B1SF.svg","response":0,"trial_type":"image-button-response","trial_index":83,"time_elapsed":644280,"internal_node_id":"0.0-4.0-0.38","subject_id":"6108878a6817adc0fb1bfbf9","study_id":"60edd13110225f80f9f3709b","session_id":"6196c7026eb9baaf09605ade","condition":"full-information","relevant_dimensions":["antennae","pattern"],"bee_group":{"antennae":"A","wings":"X","pattern":"D","legs":"X"},"action":"harvest","summary":"good-harvest","bonus":1.720000000000001},{"rt":796,"stimulus":"\n                    <p><b>Action: <em>harvest</em></b></p>\n                    <p>This is the bee that you just saw.</p>\n                    <img src=\"bees-with-color/bee-B1SF.svg\" width=\"200\">\n                    <p><span class=\"greenText\"><b>Successful harvest!</b></span><br>Your pay has increased by $0.02. Your bonus pay is now $0.96.</p>\n            ","response":0,"trial_type":"html-button-response","trial_index":84,"time_elapsed":645077,"internal_node_id":"0.0-4.0-1.38","subject_id":"6108878a6817adc0fb1bfbf9","study_id":"60edd13110225f80f9f3709b","session_id":"6196c7026eb9baaf09605ade","condition":"full-information","relevant_dimensions":["antennae","pattern"],"bee_group":{"antennae":"A","wings":"X","pattern":"D","legs":"X"},"bonus":1.720000000000001},{"rt":1351.5,"stimulus":"bees-with-color/bee-B1DM.svg","response":0,"trial_type":"image-button-response","trial_index":85,"time_elapsed":646430,"internal_node_id":"0.0-4.0-0.39","subject_id":"6108878a6817adc0fb1bfbf9","study_id":"60edd13110225f80f9f3709b","session_id":"6196c7026eb9baaf09605ade","condition":"full-information","relevant_dimensions":["antennae","pattern"],"bee_group":{"antennae":"A","wings":"X","pattern":"D","legs":"X"},"action":"harvest","summary":"good-harvest","bonus":1.720000000000001},{"rt":836,"stimulus":"\n                    <p><b>Action: <em>harvest</em></b></p>\n                    <p>This is the bee that you just saw.</p>\n                    <img src=\"bees-with-color/bee-B1DM.svg\" width=\"200\">\n                    <p><span class=\"greenText\"><b>Successful harvest!</b></span><br>Your pay has increased by $0.02. Your bonus pay is now $0.98.</p>\n            ","response":0,"trial_type":"html-button-response","trial_index":86,"time_elapsed":647266,"internal_node_id":"0.0-4.0-1.39","subject_id":"6108878a6817adc0fb1bfbf9","study_id":"60edd13110225f80f9f3709b","session_id":"6196c7026eb9baaf09605ade","condition":"full-information","relevant_dimensions":["antennae","pattern"],"bee_group":{"antennae":"A","wings":"X","pattern":"D","legs":"X"},"bonus":1.720000000000001},{"rt":1492.7999999523163,"stimulus":"bees-with-color/bee-A2SM.svg","response":0,"trial_type":"image-button-response","trial_index":87,"time_elapsed":648760,"internal_node_id":"0.0-4.0-0.40","subject_id":"6108878a6817adc0fb1bfbf9","study_id":"60edd13110225f80f9f3709b","session_id":"6196c7026eb9baaf09605ade","condition":"full-information","relevant_dimensions":["antennae","pattern"],"bee_group":{"antennae":"A","wings":"X","pattern":"D","legs":"X"},"action":"harvest","summary":"good-harvest","bonus":1.720000000000001},{"rt":817.5,"stimulus":"\n                    <p><b>Action: <em>harvest</em></b></p>\n                    <p>This is the bee that you just saw.</p>\n                    <img src=\"bees-with-color/bee-A2SM.svg\" width=\"200\">\n                    <p><span class=\"greenText\"><b>Successful harvest!</b></span><br>Your pay has increased by $0.02. Your bonus pay is now $1.00.</p>\n            ","response":0,"trial_type":"html-button-response","trial_index":88,"time_elapsed":649579,"internal_node_id":"0.0-4.0-1.40","subject_id":"6108878a6817adc0fb1bfbf9","study_id":"60edd13110225f80f9f3709b","session_id":"6196c7026eb9baaf09605ade","condition":"full-information","relevant_dimensions":["antennae","pattern"],"bee_group":{"antennae":"A","wings":"X","pattern":"D","legs":"X"},"bonus":1.720000000000001},{"rt":989.8000000119209,"stimulus":"bees-with-color/bee-A1SF.svg","response":0,"trial_type":"image-button-response","trial_index":89,"time_elapsed":650569,"internal_node_id":"0.0-4.0-0.41","subject_id":"6108878a6817adc0fb1bfbf9","study_id":"60edd13110225f80f9f3709b","session_id":"6196c7026eb9baaf09605ade","condition":"full-information","relevant_dimensions":["antennae","pattern"],"bee_group":{"antennae":"A","wings":"X","pattern":"D","legs":"X"},"action":"harvest","summary":"good-harvest","bonus":1.720000000000001},{"rt":806.4000000357628,"stimulus":"\n                    <p><b>Action: <em>harvest</em></b></p>\n                    <p>This is the bee that you just saw.</p>\n                    <img src=\"bees-with-color/bee-A1SF.svg\" width=\"200\">\n                    <p><span class=\"greenText\"><b>Successful harvest!</b></span><br>Your pay has increased by $0.02. Your bonus pay is now $1.02.</p>\n            ","response":0,"trial_type":"html-button-response","trial_index":90,"time_elapsed":651377,"internal_node_id":"0.0-4.0-1.41","subject_id":"6108878a6817adc0fb1bfbf9","study_id":"60edd13110225f80f9f3709b","session_id":"6196c7026eb9baaf09605ade","condition":"full-information","relevant_dimensions":["antennae","pattern"],"bee_group":{"antennae":"A","wings":"X","pattern":"D","legs":"X"},"bonus":1.720000000000001},{"rt":869.7000000476837,"stimulus":"bees-with-color/bee-A1SM.svg","response":0,"trial_type":"image-button-response","trial_index":91,"time_elapsed":652247,"internal_node_id":"0.0-4.0-0.42","subject_id":"6108878a6817adc0fb1bfbf9","study_id":"60edd13110225f80f9f3709b","session_id":"6196c7026eb9baaf09605ade","condition":"full-information","relevant_dimensions":["antennae","pattern"],"bee_group":{"antennae":"A","wings":"X","pattern":"D","legs":"X"},"action":"harvest","summary":"good-harvest","bonus":1.720000000000001},{"rt":1230.5,"stimulus":"\n                    <p><b>Action: <em>harvest</em></b></p>\n                    <p>This is the bee that you just saw.</p>\n                    <img src=\"bees-with-color/bee-A1SM.svg\" width=\"200\">\n                    <p><span class=\"greenText\"><b>Successful harvest!</b></span><br>Your pay has increased by $0.02. Your bonus pay is now $1.04.</p>\n            ","response":0,"trial_type":"html-button-response","trial_index":92,"time_elapsed":653479,"internal_node_id":"0.0-4.0-1.42","subject_id":"6108878a6817adc0fb1bfbf9","study_id":"60edd13110225f80f9f3709b","session_id":"6196c7026eb9baaf09605ade","condition":"full-information","relevant_dimensions":["antennae","pattern"],"bee_group":{"antennae":"A","wings":"X","pattern":"D","legs":"X"},"bonus":1.720000000000001},{"rt":1440.1000000238419,"stimulus":"bees-with-color/bee-A1DM.svg","response":1,"trial_type":"image-button-response","trial_index":93,"time_elapsed":654920,"internal_node_id":"0.0-4.0-0.43","subject_id":"6108878a6817adc0fb1bfbf9","study_id":"60edd13110225f80f9f3709b","session_id":"6196c7026eb9baaf09605ade","condition":"full-information","relevant_dimensions":["antennae","pattern"],"bee_group":{"antennae":"A","wings":"X","pattern":"D","legs":"X"},"action":"avoid","summary":"good-avoid","bonus":1.720000000000001},{"rt":711.1000000238419,"stimulus":"\n                    <p><b>Action: <em>avoid</em></b></p>\n                    <p>This is the bee that you just saw.</p>\n                    <img src=\"bees-with-color/bee-A1DM.svg\" width=\"200\">\n                    <p><span class=\"greenText\">Good choice!</span>  This bee would have stung you.<br>Your bonus pay is unchanged, and remains at $1.04.</p>\n            ","response":0,"trial_type":"html-button-response","trial_index":94,"time_elapsed":655632,"internal_node_id":"0.0-4.0-1.43","subject_id":"6108878a6817adc0fb1bfbf9","study_id":"60edd13110225f80f9f3709b","session_id":"6196c7026eb9baaf09605ade","condition":"full-information","relevant_dimensions":["antennae","pattern"],"bee_group":{"antennae":"A","wings":"X","pattern":"D","legs":"X"},"bonus":1.720000000000001},{"rt":1293.199999988079,"stimulus":"bees-with-color/bee-A1DF.svg","response":1,"trial_type":"image-button-response","trial_index":95,"time_elapsed":656926,"internal_node_id":"0.0-4.0-0.44","subject_id":"6108878a6817adc0fb1bfbf9","study_id":"60edd13110225f80f9f3709b","session_id":"6196c7026eb9baaf09605ade","condition":"full-information","relevant_dimensions":["antennae","pattern"],"bee_group":{"antennae":"A","wings":"X","pattern":"D","legs":"X"},"action":"avoid","summary":"good-avoid","bonus":1.720000000000001},{"rt":1119.699999988079,"stimulus":"\n                    <p><b>Action: <em>avoid</em></b></p>\n                    <p>This is the bee that you just saw.</p>\n                    <img src=\"bees-with-color/bee-A1DF.svg\" width=\"200\">\n                    <p><span class=\"greenText\">Good choice!</span>  This bee would have stung you.<br>Your bonus pay is unchanged, and remains at $1.04.</p>\n            ","response":0,"trial_type":"html-button-response","trial_index":96,"time_elapsed":658047,"internal_node_id":"0.0-4.0-1.44","subject_id":"6108878a6817adc0fb1bfbf9","study_id":"60edd13110225f80f9f3709b","session_id":"6196c7026eb9baaf09605ade","condition":"full-information","relevant_dimensions":["antennae","pattern"],"bee_group":{"antennae":"A","wings":"X","pattern":"D","legs":"X"},"bonus":1.720000000000001},{"rt":1549.0999999642372,"stimulus":"bees-with-color/bee-A2SF.svg","response":0,"trial_type":"image-button-response","trial_index":97,"time_elapsed":659597,"internal_node_id":"0.0-4.0-0.45","subject_id":"6108878a6817adc0fb1bfbf9","study_id":"60edd13110225f80f9f3709b","session_id":"6196c7026eb9baaf09605ade","condition":"full-information","relevant_dimensions":["antennae","pattern"],"bee_group":{"antennae":"A","wings":"X","pattern":"D","legs":"X"},"action":"harvest","summary":"good-harvest","bonus":1.720000000000001},{"rt":1086.1000000238419,"stimulus":"\n                    <p><b>Action: <em>harvest</em></b></p>\n                    <p>This is the bee that you just saw.</p>\n                    <img src=\"bees-with-color/bee-A2SF.svg\" width=\"200\">\n                    <p><span class=\"greenText\"><b>Successful harvest!</b></span><br>Your pay has increased by $0.02. Your bonus pay is now $1.06.</p>\n            ","response":0,"trial_type":"html-button-response","trial_index":98,"time_elapsed":660684,"internal_node_id":"0.0-4.0-1.45","subject_id":"6108878a6817adc0fb1bfbf9","study_id":"60edd13110225f80f9f3709b","session_id":"6196c7026eb9baaf09605ade","condition":"full-information","relevant_dimensions":["antennae","pattern"],"bee_group":{"antennae":"A","wings":"X","pattern":"D","legs":"X"},"bonus":1.720000000000001},{"rt":2042.0999999642372,"stimulus":"bees-with-color/bee-B1SM.svg","response":0,"trial_type":"image-button-response","trial_index":99,"time_elapsed":662727,"internal_node_id":"0.0-4.0-0.46","subject_id":"6108878a6817adc0fb1bfbf9","study_id":"60edd13110225f80f9f3709b","session_id":"6196c7026eb9baaf09605ade","condition":"full-information","relevant_dimensions":["antennae","pattern"],"bee_group":{"antennae":"A","wings":"X","pattern":"D","legs":"X"},"action":"harvest","summary":"good-harvest","bonus":1.720000000000001},{"rt":825.8000000119209,"stimulus":"\n                    <p><b>Action: <em>harvest</em></b></p>\n                    <p>This is the bee that you just saw.</p>\n                    <img src=\"bees-with-color/bee-B1SM.svg\" width=\"200\">\n                    <p><span class=\"greenText\"><b>Successful harvest!</b></span><br>Your pay has increased by $0.02. Your bonus pay is now $1.08.</p>\n            ","response":0,"trial_type":"html-button-response","trial_index":100,"time_elapsed":663554,"internal_node_id":"0.0-4.0-1.46","subject_id":"6108878a6817adc0fb1bfbf9","study_id":"60edd13110225f80f9f3709b","session_id":"6196c7026eb9baaf09605ade","condition":"full-information","relevant_dimensions":["antennae","pattern"],"bee_group":{"antennae":"A","wings":"X","pattern":"D","legs":"X"},"bonus":1.720000000000001},{"rt":1666.8999999761581,"stimulus":"bees-with-color/bee-B1DF.svg","response":0,"trial_type":"image-button-response","trial_index":101,"time_elapsed":665222,"internal_node_id":"0.0-4.0-0.47","subject_id":"6108878a6817adc0fb1bfbf9","study_id":"60edd13110225f80f9f3709b","session_id":"6196c7026eb9baaf09605ade","condition":"full-information","relevant_dimensions":["antennae","pattern"],"bee_group":{"antennae":"A","wings":"X","pattern":"D","legs":"X"},"action":"harvest","summary":"good-harvest","bonus":1.720000000000001},{"rt":754,"stimulus":"\n                    <p><b>Action: <em>harvest</em></b></p>\n                    <p>This is the bee that you just saw.</p>\n                    <img src=\"bees-with-color/bee-B1DF.svg\" width=\"200\">\n                    <p><span class=\"greenText\"><b>Successful harvest!</b></span><br>Your pay has increased by $0.02. Your bonus pay is now $1.10.</p>\n            ","response":0,"trial_type":"html-button-response","trial_index":102,"time_elapsed":665977,"internal_node_id":"0.0-4.0-1.47","subject_id":"6108878a6817adc0fb1bfbf9","study_id":"60edd13110225f80f9f3709b","session_id":"6196c7026eb9baaf09605ade","condition":"full-information","relevant_dimensions":["antennae","pattern"],"bee_group":{"antennae":"A","wings":"X","pattern":"D","legs":"X"},"bonus":1.720000000000001},{"rt":1075.800000011921,"stimulus":"bees-with-color/bee-B1DM.svg","response":0,"trial_type":"image-button-response","trial_index":103,"time_elapsed":667054,"internal_node_id":"0.0-4.0-0.48","subject_id":"6108878a6817adc0fb1bfbf9","study_id":"60edd13110225f80f9f3709b","session_id":"6196c7026eb9baaf09605ade","condition":"full-information","relevant_dimensions":["antennae","pattern"],"bee_group":{"antennae":"A","wings":"X","pattern":"D","legs":"X"},"action":"harvest","summary":"good-harvest","bonus":1.720000000000001},{"rt":777.5,"stimulus":"\n                    <p><b>Action: <em>harvest</em></b></p>\n                    <p>This is the bee that you just saw.</p>\n                    <img src=\"bees-with-color/bee-B1DM.svg\" width=\"200\">\n                    <p><span class=\"greenText\"><b>Successful harvest!</b></span><br>Your pay has increased by $0.02. Your bonus pay is now $1.12.</p>\n            ","response":0,"trial_type":"html-button-response","trial_index":104,"time_elapsed":667832,"internal_node_id":"0.0-4.0-1.48","subject_id":"6108878a6817adc0fb1bfbf9","study_id":"60edd13110225f80f9f3709b","session_id":"6196c7026eb9baaf09605ade","condition":"full-information","relevant_dimensions":["antennae","pattern"],"bee_group":{"antennae":"A","wings":"X","pattern":"D","legs":"X"},"bonus":1.720000000000001},{"rt":1623.6000000238419,"stimulus":"bees-with-color/bee-B1SF.svg","response":0,"trial_type":"image-button-response","trial_index":105,"time_elapsed":669457,"internal_node_id":"0.0-4.0-0.49","subject_id":"6108878a6817adc0fb1bfbf9","study_id":"60edd13110225f80f9f3709b","session_id":"6196c7026eb9baaf09605ade","condition":"full-information","relevant_dimensions":["antennae","pattern"],"bee_group":{"antennae":"A","wings":"X","pattern":"D","legs":"X"},"action":"harvest","summary":"good-harvest","bonus":1.720000000000001},{"rt":837,"stimulus":"\n                    <p><b>Action: <em>harvest</em></b></p>\n                    <p>This is the bee that you just saw.</p>\n                    <img src=\"bees-with-color/bee-B1SF.svg\" width=\"200\">\n                    <p><span class=\"greenText\"><b>Successful harvest!</b></span><br>Your pay has increased by $0.02. Your bonus pay is now $1.14.</p>\n            ","response":0,"trial_type":"html-button-response","trial_index":106,"time_elapsed":670295,"internal_node_id":"0.0-4.0-1.49","subject_id":"6108878a6817adc0fb1bfbf9","study_id":"60edd13110225f80f9f3709b","session_id":"6196c7026eb9baaf09605ade","condition":"full-information","relevant_dimensions":["antennae","pattern"],"bee_group":{"antennae":"A","wings":"X","pattern":"D","legs":"X"},"bonus":1.720000000000001},{"rt":2175.599999964237,"stimulus":"bees-with-color/bee-B2SF.svg","response":0,"trial_type":"image-button-response","trial_index":107,"time_elapsed":672471,"internal_node_id":"0.0-4.0-0.50","subject_id":"6108878a6817adc0fb1bfbf9","study_id":"60edd13110225f80f9f3709b","session_id":"6196c7026eb9baaf09605ade","condition":"full-information","relevant_dimensions":["antennae","pattern"],"bee_group":{"antennae":"A","wings":"X","pattern":"D","legs":"X"},"action":"harvest","summary":"good-harvest","bonus":1.720000000000001},{"rt":1290.5,"stimulus":"\n                    <p><b>Action: <em>harvest</em></b></p>\n                    <p>This is the bee that you just saw.</p>\n                    <img src=\"bees-with-color/bee-B2SF.svg\" width=\"200\">\n                    <p><span class=\"greenText\"><b>Successful harvest!</b></span><br>Your pay has increased by $0.02. Your bonus pay is now $1.16.</p>\n            ","response":0,"trial_type":"html-button-response","trial_index":108,"time_elapsed":673763,"internal_node_id":"0.0-4.0-1.50","subject_id":"6108878a6817adc0fb1bfbf9","study_id":"60edd13110225f80f9f3709b","session_id":"6196c7026eb9baaf09605ade","condition":"full-information","relevant_dimensions":["antennae","pattern"],"bee_group":{"antennae":"A","wings":"X","pattern":"D","legs":"X"},"bonus":1.720000000000001},{"rt":1484.699999988079,"stimulus":"bees-with-color/bee-A2SF.svg","response":0,"trial_type":"image-button-response","trial_index":109,"time_elapsed":675248,"internal_node_id":"0.0-4.0-0.51","subject_id":"6108878a6817adc0fb1bfbf9","study_id":"60edd13110225f80f9f3709b","session_id":"6196c7026eb9baaf09605ade","condition":"full-information","relevant_dimensions":["antennae","pattern"],"bee_group":{"antennae":"A","wings":"X","pattern":"D","legs":"X"},"action":"harvest","summary":"good-harvest","bonus":1.720000000000001},{"rt":1084.3999999761581,"stimulus":"\n                    <p><b>Action: <em>harvest</em></b></p>\n                    <p>This is the bee that you just saw.</p>\n                    <img src=\"bees-with-color/bee-A2SF.svg\" width=\"200\">\n                    <p><span class=\"greenText\"><b>Successful harvest!</b></span><br>Your pay has increased by $0.02. Your bonus pay is now $1.18.</p>\n            ","response":0,"trial_type":"html-button-response","trial_index":110,"time_elapsed":676334,"internal_node_id":"0.0-4.0-1.51","subject_id":"6108878a6817adc0fb1bfbf9","study_id":"60edd13110225f80f9f3709b","session_id":"6196c7026eb9baaf09605ade","condition":"full-information","relevant_dimensions":["antennae","pattern"],"bee_group":{"antennae":"A","wings":"X","pattern":"D","legs":"X"},"bonus":1.720000000000001},{"rt":1433.300000011921,"stimulus":"bees-with-color/bee-B1DF.svg","response":0,"trial_type":"image-button-response","trial_index":111,"time_elapsed":677768,"internal_node_id":"0.0-4.0-0.52","subject_id":"6108878a6817adc0fb1bfbf9","study_id":"60edd13110225f80f9f3709b","session_id":"6196c7026eb9baaf09605ade","condition":"full-information","relevant_dimensions":["antennae","pattern"],"bee_group":{"antennae":"A","wings":"X","pattern":"D","legs":"X"},"action":"harvest","summary":"good-harvest","bonus":1.720000000000001},{"rt":775.1999999880791,"stimulus":"\n                    <p><b>Action: <em>harvest</em></b></p>\n                    <p>This is the bee that you just saw.</p>\n                    <img src=\"bees-with-color/bee-B1DF.svg\" width=\"200\">\n                    <p><span class=\"greenText\"><b>Successful harvest!</b></span><br>Your pay has increased by $0.02. Your bonus pay is now $1.20.</p>\n            ","response":0,"trial_type":"html-button-response","trial_index":112,"time_elapsed":678544,"internal_node_id":"0.0-4.0-1.52","subject_id":"6108878a6817adc0fb1bfbf9","study_id":"60edd13110225f80f9f3709b","session_id":"6196c7026eb9baaf09605ade","condition":"full-information","relevant_dimensions":["antennae","pattern"],"bee_group":{"antennae":"A","wings":"X","pattern":"D","legs":"X"},"bonus":1.720000000000001},{"rt":1212,"stimulus":"bees-with-color/bee-A1DF.svg","response":1,"trial_type":"image-button-response","trial_index":113,"time_elapsed":679757,"internal_node_id":"0.0-4.0-0.53","subject_id":"6108878a6817adc0fb1bfbf9","study_id":"60edd13110225f80f9f3709b","session_id":"6196c7026eb9baaf09605ade","condition":"full-information","relevant_dimensions":["antennae","pattern"],"bee_group":{"antennae":"A","wings":"X","pattern":"D","legs":"X"},"action":"avoid","summary":"good-avoid","bonus":1.720000000000001},{"rt":977.5,"stimulus":"\n                    <p><b>Action: <em>avoid</em></b></p>\n                    <p>This is the bee that you just saw.</p>\n                    <img src=\"bees-with-color/bee-A1DF.svg\" width=\"200\">\n                    <p><span class=\"greenText\">Good choice!</span>  This bee would have stung you.<br>Your bonus pay is unchanged, and remains at $1.20.</p>\n            ","response":0,"trial_type":"html-button-response","trial_index":114,"time_elapsed":680735,"internal_node_id":"0.0-4.0-1.53","subject_id":"6108878a6817adc0fb1bfbf9","study_id":"60edd13110225f80f9f3709b","session_id":"6196c7026eb9baaf09605ade","condition":"full-information","relevant_dimensions":["antennae","pattern"],"bee_group":{"antennae":"A","wings":"X","pattern":"D","legs":"X"},"bonus":1.720000000000001},{"rt":1084.3999999761581,"stimulus":"bees-with-color/bee-A1SM.svg","response":0,"trial_type":"image-button-response","trial_index":115,"time_elapsed":681820,"internal_node_id":"0.0-4.0-0.54","subject_id":"6108878a6817adc0fb1bfbf9","study_id":"60edd13110225f80f9f3709b","session_id":"6196c7026eb9baaf09605ade","condition":"full-information","relevant_dimensions":["antennae","pattern"],"bee_group":{"antennae":"A","wings":"X","pattern":"D","legs":"X"},"action":"harvest","summary":"good-harvest","bonus":1.720000000000001},{"rt":789.5,"stimulus":"\n                    <p><b>Action: <em>harvest</em></b></p>\n                    <p>This is the bee that you just saw.</p>\n                    <img src=\"bees-with-color/bee-A1SM.svg\" width=\"200\">\n                    <p><span class=\"greenText\"><b>Successful harvest!</b></span><br>Your pay has increased by $0.02. Your bonus pay is now $1.22.</p>\n            ","response":0,"trial_type":"html-button-response","trial_index":116,"time_elapsed":682611,"internal_node_id":"0.0-4.0-1.54","subject_id":"6108878a6817adc0fb1bfbf9","study_id":"60edd13110225f80f9f3709b","session_id":"6196c7026eb9baaf09605ade","condition":"full-information","relevant_dimensions":["antennae","pattern"],"bee_group":{"antennae":"A","wings":"X","pattern":"D","legs":"X"},"bonus":1.720000000000001},{"rt":1794.800000011921,"stimulus":"bees-with-color/bee-A2DM.svg","response":1,"trial_type":"image-button-response","trial_index":117,"time_elapsed":684406,"internal_node_id":"0.0-4.0-0.55","subject_id":"6108878a6817adc0fb1bfbf9","study_id":"60edd13110225f80f9f3709b","session_id":"6196c7026eb9baaf09605ade","condition":"full-information","relevant_dimensions":["antennae","pattern"],"bee_group":{"antennae":"A","wings":"X","pattern":"D","legs":"X"},"action":"avoid","summary":"good-avoid","bonus":1.720000000000001},{"rt":976.3000000119209,"stimulus":"\n                    <p><b>Action: <em>avoid</em></b></p>\n                    <p>This is the bee that you just saw.</p>\n                    <img src=\"bees-with-color/bee-A2DM.svg\" width=\"200\">\n                    <p><span class=\"greenText\">Good choice!</span>  This bee would have stung you.<br>Your bonus pay is unchanged, and remains at $1.22.</p>\n            ","response":0,"trial_type":"html-button-response","trial_index":118,"time_elapsed":685384,"internal_node_id":"0.0-4.0-1.55","subject_id":"6108878a6817adc0fb1bfbf9","study_id":"60edd13110225f80f9f3709b","session_id":"6196c7026eb9baaf09605ade","condition":"full-information","relevant_dimensions":["antennae","pattern"],"bee_group":{"antennae":"A","wings":"X","pattern":"D","legs":"X"},"bonus":1.720000000000001},{"rt":1059.2000000476837,"stimulus":"bees-with-color/bee-B2SM.svg","response":0,"trial_type":"image-button-response","trial_index":119,"time_elapsed":686444,"internal_node_id":"0.0-4.0-0.56","subject_id":"6108878a6817adc0fb1bfbf9","study_id":"60edd13110225f80f9f3709b","session_id":"6196c7026eb9baaf09605ade","condition":"full-information","relevant_dimensions":["antennae","pattern"],"bee_group":{"antennae":"A","wings":"X","pattern":"D","legs":"X"},"action":"harvest","summary":"good-harvest","bonus":1.720000000000001},{"rt":1152.699999988079,"stimulus":"\n                    <p><b>Action: <em>harvest</em></b></p>\n                    <p>This is the bee that you just saw.</p>\n                    <img src=\"bees-with-color/bee-B2SM.svg\" width=\"200\">\n                    <p><span class=\"greenText\"><b>Successful harvest!</b></span><br>Your pay has increased by $0.02. Your bonus pay is now $1.24.</p>\n            ","response":0,"trial_type":"html-button-response","trial_index":120,"time_elapsed":687598,"internal_node_id":"0.0-4.0-1.56","subject_id":"6108878a6817adc0fb1bfbf9","study_id":"60edd13110225f80f9f3709b","session_id":"6196c7026eb9baaf09605ade","condition":"full-information","relevant_dimensions":["antennae","pattern"],"bee_group":{"antennae":"A","wings":"X","pattern":"D","legs":"X"},"bonus":1.720000000000001},{"rt":1064.1000000238419,"stimulus":"bees-with-color/bee-A2SM.svg","response":0,"trial_type":"image-button-response","trial_index":121,"time_elapsed":688662,"internal_node_id":"0.0-4.0-0.57","subject_id":"6108878a6817adc0fb1bfbf9","study_id":"60edd13110225f80f9f3709b","session_id":"6196c7026eb9baaf09605ade","condition":"full-information","relevant_dimensions":["antennae","pattern"],"bee_group":{"antennae":"A","wings":"X","pattern":"D","legs":"X"},"action":"harvest","summary":"good-harvest","bonus":1.720000000000001},{"rt":1152,"stimulus":"\n                    <p><b>Action: <em>harvest</em></b></p>\n                    <p>This is the bee that you just saw.</p>\n                    <img src=\"bees-with-color/bee-A2SM.svg\" width=\"200\">\n                    <p><span class=\"greenText\"><b>Successful harvest!</b></span><br>Your pay has increased by $0.02. Your bonus pay is now $1.26.</p>\n            ","response":0,"trial_type":"html-button-response","trial_index":122,"time_elapsed":689815,"internal_node_id":"0.0-4.0-1.57","subject_id":"6108878a6817adc0fb1bfbf9","study_id":"60edd13110225f80f9f3709b","session_id":"6196c7026eb9baaf09605ade","condition":"full-information","relevant_dimensions":["antennae","pattern"],"bee_group":{"antennae":"A","wings":"X","pattern":"D","legs":"X"},"bonus":1.720000000000001},{"rt":1295.699999988079,"stimulus":"bees-with-color/bee-B2DF.svg","response":0,"trial_type":"image-button-response","trial_index":123,"time_elapsed":691112,"internal_node_id":"0.0-4.0-0.58","subject_id":"6108878a6817adc0fb1bfbf9","study_id":"60edd13110225f80f9f3709b","session_id":"6196c7026eb9baaf09605ade","condition":"full-information","relevant_dimensions":["antennae","pattern"],"bee_group":{"antennae":"A","wings":"X","pattern":"D","legs":"X"},"action":"harvest","summary":"good-harvest","bonus":1.720000000000001},{"rt":740.6999999880791,"stimulus":"\n                    <p><b>Action: <em>harvest</em></b></p>\n                    <p>This is the bee that you just saw.</p>\n                    <img src=\"bees-with-color/bee-B2DF.svg\" width=\"200\">\n                    <p><span class=\"greenText\"><b>Successful harvest!</b></span><br>Your pay has increased by $0.02. Your bonus pay is now $1.28.</p>\n            ","response":0,"trial_type":"html-button-response","trial_index":124,"time_elapsed":691853,"internal_node_id":"0.0-4.0-1.58","subject_id":"6108878a6817adc0fb1bfbf9","study_id":"60edd13110225f80f9f3709b","session_id":"6196c7026eb9baaf09605ade","condition":"full-information","relevant_dimensions":["antennae","pattern"],"bee_group":{"antennae":"A","wings":"X","pattern":"D","legs":"X"},"bonus":1.720000000000001},{"rt":1044.3999999761581,"stimulus":"bees-with-color/bee-B2DM.svg","response":0,"trial_type":"image-button-response","trial_index":125,"time_elapsed":692899,"internal_node_id":"0.0-4.0-0.59","subject_id":"6108878a6817adc0fb1bfbf9","study_id":"60edd13110225f80f9f3709b","session_id":"6196c7026eb9baaf09605ade","condition":"full-information","relevant_dimensions":["antennae","pattern"],"bee_group":{"antennae":"A","wings":"X","pattern":"D","legs":"X"},"action":"harvest","summary":"good-harvest","bonus":1.720000000000001},{"rt":776,"stimulus":"\n                    <p><b>Action: <em>harvest</em></b></p>\n                    <p>This is the bee that you just saw.</p>\n                    <img src=\"bees-with-color/bee-B2DM.svg\" width=\"200\">\n                    <p><span class=\"greenText\"><b>Successful harvest!</b></span><br>Your pay has increased by $0.02. Your bonus pay is now $1.30.</p>\n            ","response":0,"trial_type":"html-button-response","trial_index":126,"time_elapsed":693676,"internal_node_id":"0.0-4.0-1.59","subject_id":"6108878a6817adc0fb1bfbf9","study_id":"60edd13110225f80f9f3709b","session_id":"6196c7026eb9baaf09605ade","condition":"full-information","relevant_dimensions":["antennae","pattern"],"bee_group":{"antennae":"A","wings":"X","pattern":"D","legs":"X"},"bonus":1.720000000000001},{"rt":1502.800000011921,"stimulus":"bees-with-color/bee-A1SF.svg","response":0,"trial_type":"image-button-response","trial_index":127,"time_elapsed":695180,"internal_node_id":"0.0-4.0-0.60","subject_id":"6108878a6817adc0fb1bfbf9","study_id":"60edd13110225f80f9f3709b","session_id":"6196c7026eb9baaf09605ade","condition":"full-information","relevant_dimensions":["antennae","pattern"],"bee_group":{"antennae":"A","wings":"X","pattern":"D","legs":"X"},"action":"harvest","summary":"good-harvest","bonus":1.720000000000001},{"rt":878.5,"stimulus":"\n                    <p><b>Action: <em>harvest</em></b></p>\n                    <p>This is the bee that you just saw.</p>\n                    <img src=\"bees-with-color/bee-A1SF.svg\" width=\"200\">\n                    <p><span class=\"greenText\"><b>Successful harvest!</b></span><br>Your pay has increased by $0.02. Your bonus pay is now $1.32.</p>\n            ","response":0,"trial_type":"html-button-response","trial_index":128,"time_elapsed":696060,"internal_node_id":"0.0-4.0-1.60","subject_id":"6108878a6817adc0fb1bfbf9","study_id":"60edd13110225f80f9f3709b","session_id":"6196c7026eb9baaf09605ade","condition":"full-information","relevant_dimensions":["antennae","pattern"],"bee_group":{"antennae":"A","wings":"X","pattern":"D","legs":"X"},"bonus":1.720000000000001},{"rt":1358.699999988079,"stimulus":"bees-with-color/bee-A1DM.svg","response":1,"trial_type":"image-button-response","trial_index":129,"time_elapsed":697419,"internal_node_id":"0.0-4.0-0.61","subject_id":"6108878a6817adc0fb1bfbf9","study_id":"60edd13110225f80f9f3709b","session_id":"6196c7026eb9baaf09605ade","condition":"full-information","relevant_dimensions":["antennae","pattern"],"bee_group":{"antennae":"A","wings":"X","pattern":"D","legs":"X"},"action":"avoid","summary":"good-avoid","bonus":1.720000000000001},{"rt":758.8000000119209,"stimulus":"\n                    <p><b>Action: <em>avoid</em></b></p>\n                    <p>This is the bee that you just saw.</p>\n                    <img src=\"bees-with-color/bee-A1DM.svg\" width=\"200\">\n                    <p><span class=\"greenText\">Good choice!</span>  This bee would have stung you.<br>Your bonus pay is unchanged, and remains at $1.32.</p>\n            ","response":0,"trial_type":"html-button-response","trial_index":130,"time_elapsed":698179,"internal_node_id":"0.0-4.0-1.61","subject_id":"6108878a6817adc0fb1bfbf9","study_id":"60edd13110225f80f9f3709b","session_id":"6196c7026eb9baaf09605ade","condition":"full-information","relevant_dimensions":["antennae","pattern"],"bee_group":{"antennae":"A","wings":"X","pattern":"D","legs":"X"},"bonus":1.720000000000001},{"rt":1059.8999999761581,"stimulus":"bees-with-color/bee-B1SM.svg","response":0,"trial_type":"image-button-response","trial_index":131,"time_elapsed":699240,"internal_node_id":"0.0-4.0-0.62","subject_id":"6108878a6817adc0fb1bfbf9","study_id":"60edd13110225f80f9f3709b","session_id":"6196c7026eb9baaf09605ade","condition":"full-information","relevant_dimensions":["antennae","pattern"],"bee_group":{"antennae":"A","wings":"X","pattern":"D","legs":"X"},"action":"harvest","summary":"good-harvest","bonus":1.720000000000001},{"rt":1802.5,"stimulus":"\n                    <p><b>Action: <em>harvest</em></b></p>\n                    <p>This is the bee that you just saw.</p>\n                    <img src=\"bees-with-color/bee-B1SM.svg\" width=\"200\">\n                    <p><span class=\"greenText\"><b>Successful harvest!</b></span><br>Your pay has increased by $0.02. Your bonus pay is now $1.34.</p>\n            ","response":0,"trial_type":"html-button-response","trial_index":132,"time_elapsed":701043,"internal_node_id":"0.0-4.0-1.62","subject_id":"6108878a6817adc0fb1bfbf9","study_id":"60edd13110225f80f9f3709b","session_id":"6196c7026eb9baaf09605ade","condition":"full-information","relevant_dimensions":["antennae","pattern"],"bee_group":{"antennae":"A","wings":"X","pattern":"D","legs":"X"},"bonus":1.720000000000001},{"rt":1442.6000000238419,"stimulus":"bees-with-color/bee-A2DF.svg","response":1,"trial_type":"image-button-response","trial_index":133,"time_elapsed":702487,"internal_node_id":"0.0-4.0-0.63","subject_id":"6108878a6817adc0fb1bfbf9","study_id":"60edd13110225f80f9f3709b","session_id":"6196c7026eb9baaf09605ade","condition":"full-information","relevant_dimensions":["antennae","pattern"],"bee_group":{"antennae":"A","wings":"X","pattern":"D","legs":"X"},"action":"avoid","summary":"good-avoid","bonus":1.720000000000001},{"rt":1587.9000000357628,"stimulus":"\n                    <p><b>Action: <em>avoid</em></b></p>\n                    <p>This is the bee that you just saw.</p>\n                    <img src=\"bees-with-color/bee-A2DF.svg\" width=\"200\">\n                    <p><span class=\"greenText\">Good choice!</span>  This bee would have stung you.<br>Your bonus pay is unchanged, and remains at $1.34.</p>\n            ","response":0,"trial_type":"html-button-response","trial_index":134,"time_elapsed":704076,"internal_node_id":"0.0-4.0-1.63","subject_id":"6108878a6817adc0fb1bfbf9","study_id":"60edd13110225f80f9f3709b","session_id":"6196c7026eb9baaf09605ade","condition":"full-information","relevant_dimensions":["antennae","pattern"],"bee_group":{"antennae":"A","wings":"X","pattern":"D","legs":"X"},"bonus":1.720000000000001},{"rt":10339.5,"stimulus":"You have completed the first part of this experiment.<br><br>You will now begin a shorter second part, in which you will receive no feedback.<br>The same rules regarding bonus pay apply.<br><br>Press any key to begin.","response":" ","trial_type":"html-keyboard-response","trial_index":135,"time_elapsed":714417,"internal_node_id":"0.0-5.0","subject_id":"6108878a6817adc0fb1bfbf9","study_id":"60edd13110225f80f9f3709b","session_id":"6196c7026eb9baaf09605ade","condition":"full-information","relevant_dimensions":["antennae","pattern"],"bee_group":{"antennae":"A","wings":"X","pattern":"D","legs":"X"},"bonus":1.720000000000001},{"rt":3081.800000011921,"stimulus":"bees-with-color/bee-A1SM.svg","response":0,"trial_type":"image-button-response","trial_index":136,"time_elapsed":717507,"internal_node_id":"0.0-6.0-0.0","subject_id":"6108878a6817adc0fb1bfbf9","study_id":"60edd13110225f80f9f3709b","session_id":"6196c7026eb9baaf09605ade","condition":"full-information","relevant_dimensions":["antennae","pattern"],"bee_group":{"antennae":"A","wings":"X","pattern":"D","legs":"X"},"bonus":1.720000000000001},{"rt":1803.5,"stimulus":"bees-with-color/bee-B2DM.svg","response":0,"trial_type":"image-button-response","trial_index":137,"time_elapsed":719312,"internal_node_id":"0.0-6.0-0.1","subject_id":"6108878a6817adc0fb1bfbf9","study_id":"60edd13110225f80f9f3709b","session_id":"6196c7026eb9baaf09605ade","condition":"full-information","relevant_dimensions":["antennae","pattern"],"bee_group":{"antennae":"A","wings":"X","pattern":"D","legs":"X"},"bonus":1.720000000000001},{"rt":1257.699999988079,"stimulus":"bees-with-color/bee-A2SM.svg","response":0,"trial_type":"image-button-response","trial_index":138,"time_elapsed":720571,"internal_node_id":"0.0-6.0-0.2","subject_id":"6108878a6817adc0fb1bfbf9","study_id":"60edd13110225f80f9f3709b","session_id":"6196c7026eb9baaf09605ade","condition":"full-information","relevant_dimensions":["antennae","pattern"],"bee_group":{"antennae":"A","wings":"X","pattern":"D","legs":"X"},"bonus":1.720000000000001},{"rt":1134.800000011921,"stimulus":"bees-with-color/bee-A2SF.svg","response":0,"trial_type":"image-button-response","trial_index":139,"time_elapsed":721707,"internal_node_id":"0.0-6.0-0.3","subject_id":"6108878a6817adc0fb1bfbf9","study_id":"60edd13110225f80f9f3709b","session_id":"6196c7026eb9baaf09605ade","condition":"full-information","relevant_dimensions":["antennae","pattern"],"bee_group":{"antennae":"A","wings":"X","pattern":"D","legs":"X"},"bonus":1.720000000000001},{"rt":1257.3999999761581,"stimulus":"bees-with-color/bee-A2DF.svg","response":1,"trial_type":"image-button-response","trial_index":140,"time_elapsed":722965,"internal_node_id":"0.0-6.0-0.4","subject_id":"6108878a6817adc0fb1bfbf9","study_id":"60edd13110225f80f9f3709b","session_id":"6196c7026eb9baaf09605ade","condition":"full-information","relevant_dimensions":["antennae","pattern"],"bee_group":{"antennae":"A","wings":"X","pattern":"D","legs":"X"},"bonus":1.720000000000001},{"rt":890,"stimulus":"bees-with-color/bee-B1SF.svg","response":0,"trial_type":"image-button-response","trial_index":141,"time_elapsed":723857,"internal_node_id":"0.0-6.0-0.5","subject_id":"6108878a6817adc0fb1bfbf9","study_id":"60edd13110225f80f9f3709b","session_id":"6196c7026eb9baaf09605ade","condition":"full-information","relevant_dimensions":["antennae","pattern"],"bee_group":{"antennae":"A","wings":"X","pattern":"D","legs":"X"},"bonus":1.720000000000001},{"rt":1098.5,"stimulus":"bees-with-color/bee-B2DF.svg","response":0,"trial_type":"image-button-response","trial_index":142,"time_elapsed":724956,"internal_node_id":"0.0-6.0-0.6","subject_id":"6108878a6817adc0fb1bfbf9","study_id":"60edd13110225f80f9f3709b","session_id":"6196c7026eb9baaf09605ade","condition":"full-information","relevant_dimensions":["antennae","pattern"],"bee_group":{"antennae":"A","wings":"X","pattern":"D","legs":"X"},"bonus":1.720000000000001},{"rt":1662.5,"stimulus":"bees-with-color/bee-A2DM.svg","response":1,"trial_type":"image-button-response","trial_index":143,"time_elapsed":726620,"internal_node_id":"0.0-6.0-0.7","subject_id":"6108878a6817adc0fb1bfbf9","study_id":"60edd13110225f80f9f3709b","session_id":"6196c7026eb9baaf09605ade","condition":"full-information","relevant_dimensions":["antennae","pattern"],"bee_group":{"antennae":"A","wings":"X","pattern":"D","legs":"X"},"bonus":1.720000000000001},{"rt":723,"stimulus":"bees-with-color/bee-B2SF.svg","response":0,"trial_type":"image-button-response","trial_index":144,"time_elapsed":727344,"internal_node_id":"0.0-6.0-0.8","subject_id":"6108878a6817adc0fb1bfbf9","study_id":"60edd13110225f80f9f3709b","session_id":"6196c7026eb9baaf09605ade","condition":"full-information","relevant_dimensions":["antennae","pattern"],"bee_group":{"antennae":"A","wings":"X","pattern":"D","legs":"X"},"bonus":1.720000000000001},{"rt":599.8000000119209,"stimulus":"bees-with-color/bee-B2SM.svg","response":0,"trial_type":"image-button-response","trial_index":145,"time_elapsed":727945,"internal_node_id":"0.0-6.0-0.9","subject_id":"6108878a6817adc0fb1bfbf9","study_id":"60edd13110225f80f9f3709b","session_id":"6196c7026eb9baaf09605ade","condition":"full-information","relevant_dimensions":["antennae","pattern"],"bee_group":{"antennae":"A","wings":"X","pattern":"D","legs":"X"},"bonus":1.720000000000001},{"rt":1417.300000011921,"stimulus":"bees-with-color/bee-B1DM.svg","response":0,"trial_type":"image-button-response","trial_index":146,"time_elapsed":729363,"internal_node_id":"0.0-6.0-0.10","subject_id":"6108878a6817adc0fb1bfbf9","study_id":"60edd13110225f80f9f3709b","session_id":"6196c7026eb9baaf09605ade","condition":"full-information","relevant_dimensions":["antennae","pattern"],"bee_group":{"antennae":"A","wings":"X","pattern":"D","legs":"X"},"bonus":1.720000000000001},{"rt":1041.5,"stimulus":"bees-with-color/bee-A1DF.svg","response":1,"trial_type":"image-button-response","trial_index":147,"time_elapsed":730406,"internal_node_id":"0.0-6.0-0.11","subject_id":"6108878a6817adc0fb1bfbf9","study_id":"60edd13110225f80f9f3709b","session_id":"6196c7026eb9baaf09605ade","condition":"full-information","relevant_dimensions":["antennae","pattern"],"bee_group":{"antennae":"A","wings":"X","pattern":"D","legs":"X"},"bonus":1.720000000000001},{"rt":881.4000000357628,"stimulus":"bees-with-color/bee-B1DF.svg","response":0,"trial_type":"image-button-response","trial_index":148,"time_elapsed":731288,"internal_node_id":"0.0-6.0-0.12","subject_id":"6108878a6817adc0fb1bfbf9","study_id":"60edd13110225f80f9f3709b","session_id":"6196c7026eb9baaf09605ade","condition":"full-information","relevant_dimensions":["antennae","pattern"],"bee_group":{"antennae":"A","wings":"X","pattern":"D","legs":"X"},"bonus":1.720000000000001},{"rt":831.2000000476837,"stimulus":"bees-with-color/bee-B1SM.svg","response":0,"trial_type":"image-button-response","trial_index":149,"time_elapsed":732120,"internal_node_id":"0.0-6.0-0.13","subject_id":"6108878a6817adc0fb1bfbf9","study_id":"60edd13110225f80f9f3709b","session_id":"6196c7026eb9baaf09605ade","condition":"full-information","relevant_dimensions":["antennae","pattern"],"bee_group":{"antennae":"A","wings":"X","pattern":"D","legs":"X"},"bonus":1.720000000000001},{"rt":570.5,"stimulus":"bees-with-color/bee-A1SF.svg","response":0,"trial_type":"image-button-response","trial_index":150,"time_elapsed":732692,"internal_node_id":"0.0-6.0-0.14","subject_id":"6108878a6817adc0fb1bfbf9","study_id":"60edd13110225f80f9f3709b","session_id":"6196c7026eb9baaf09605ade","condition":"full-information","relevant_dimensions":["antennae","pattern"],"bee_group":{"antennae":"A","wings":"X","pattern":"D","legs":"X"},"bonus":1.720000000000001},{"rt":1257.5,"stimulus":"bees-with-color/bee-A1DM.svg","response":1,"trial_type":"image-button-response","trial_index":151,"time_elapsed":733951,"internal_node_id":"0.0-6.0-0.15","subject_id":"6108878a6817adc0fb1bfbf9","study_id":"60edd13110225f80f9f3709b","session_id":"6196c7026eb9baaf09605ade","condition":"full-information","relevant_dimensions":["antennae","pattern"],"bee_group":{"antennae":"A","wings":"X","pattern":"D","legs":"X"},"bonus":1.720000000000001},{"rt":701.2999999523163,"stimulus":"bees-with-color/bee-B1SF.svg","response":0,"trial_type":"image-button-response","trial_index":152,"time_elapsed":734653,"internal_node_id":"0.0-6.0-0.16","subject_id":"6108878a6817adc0fb1bfbf9","study_id":"60edd13110225f80f9f3709b","session_id":"6196c7026eb9baaf09605ade","condition":"full-information","relevant_dimensions":["antennae","pattern"],"bee_group":{"antennae":"A","wings":"X","pattern":"D","legs":"X"},"bonus":1.720000000000001},{"rt":1627.0999999642372,"stimulus":"bees-with-color/bee-B1DM.svg","response":0,"trial_type":"image-button-response","trial_index":153,"time_elapsed":736281,"internal_node_id":"0.0-6.0-0.17","subject_id":"6108878a6817adc0fb1bfbf9","study_id":"60edd13110225f80f9f3709b","session_id":"6196c7026eb9baaf09605ade","condition":"full-information","relevant_dimensions":["antennae","pattern"],"bee_group":{"antennae":"A","wings":"X","pattern":"D","legs":"X"},"bonus":1.720000000000001},{"rt":997.1999999880791,"stimulus":"bees-with-color/bee-A2SM.svg","response":0,"trial_type":"image-button-response","trial_index":154,"time_elapsed":737279,"internal_node_id":"0.0-6.0-0.18","subject_id":"6108878a6817adc0fb1bfbf9","study_id":"60edd13110225f80f9f3709b","session_id":"6196c7026eb9baaf09605ade","condition":"full-information","relevant_dimensions":["antennae","pattern"],"bee_group":{"antennae":"A","wings":"X","pattern":"D","legs":"X"},"bonus":1.720000000000001},{"rt":1396.2000000476837,"stimulus":"bees-with-color/bee-A1DF.svg","response":1,"trial_type":"image-button-response","trial_index":155,"time_elapsed":738676,"internal_node_id":"0.0-6.0-0.19","subject_id":"6108878a6817adc0fb1bfbf9","study_id":"60edd13110225f80f9f3709b","session_id":"6196c7026eb9baaf09605ade","condition":"full-information","relevant_dimensions":["antennae","pattern"],"bee_group":{"antennae":"A","wings":"X","pattern":"D","legs":"X"},"bonus":1.720000000000001},{"rt":1012.1000000238419,"stimulus":"bees-with-color/bee-A2SF.svg","response":0,"trial_type":"image-button-response","trial_index":156,"time_elapsed":739689,"internal_node_id":"0.0-6.0-0.20","subject_id":"6108878a6817adc0fb1bfbf9","study_id":"60edd13110225f80f9f3709b","session_id":"6196c7026eb9baaf09605ade","condition":"full-information","relevant_dimensions":["antennae","pattern"],"bee_group":{"antennae":"A","wings":"X","pattern":"D","legs":"X"},"bonus":1.720000000000001},{"rt":772.9000000357628,"stimulus":"bees-with-color/bee-A