[{"success":true,"trial_type":"fullscreen","trial_index":0,"time_elapsed":5007,"internal_node_id":"0.0-0.0","subject_id":"5e7a2fc429c35307d86105a1","study_id":"60edd13110225f80f9f3709b","session_id":"6196c95c6933d8225a97f379","condition":"contingent","relevant_dimensions":["antennae","legs"],"bee_group":{"antennae":"A","wings":"X","pattern":"X","legs":"F"},"bonus":0.1399999999999999},{"success":true,"timeout":false,"failed_images":[],"failed_audio":[],"failed_video":[],"trial_type":"preload","trial_index":1,"time_elapsed":8348,"internal_node_id":"0.0-1.0","subject_id":"5e7a2fc429c35307d86105a1","study_id":"60edd13110225f80f9f3709b","session_id":"6196c95c6933d8225a97f379","condition":"contingent","relevant_dimensions":["antennae","legs"],"bee_group":{"antennae":"A","wings":"X","pattern":"X","legs":"F"},"bonus":0.1399999999999999},{"rt":13285.700000047684,"stimulus":"Welcome! Press any key to begin.","response":"g","trial_type":"html-keyboard-response","trial_index":2,"time_elapsed":21634,"internal_node_id":"0.0-2.0","subject_id":"5e7a2fc429c35307d86105a1","study_id":"60edd13110225f80f9f3709b","session_id":"6196c95c6933d8225a97f379","condition":"contingent","relevant_dimensions":["antennae","legs"],"bee_group":{"antennae":"A","wings":"X","pattern":"X","legs":"F"},"bonus":0.1399999999999999},{"view_history":[{"page_index":0,"viewing_time":6337.699999928474},{"page_index":1,"viewing_time":43975.89999997616},{"page_index":2,"viewing_time":126200.20000004768},{"page_index":3,"viewing_time":13928.200000047684},{"page_index":4,"viewing_time":8663.899999976158},{"page_index":5,"viewing_time":8176.299999952316},{"page_index":6,"viewing_time":8095.800000071526},{"page_index":7,"viewing_time":6943.899999976158},{"page_index":8,"viewing_time":3560.399999976158},{"page_index":9,"viewing_time":2591.600000023842},{"page_index":10,"viewing_time":1392.1000000238419},{"page_index":11,"viewing_time":6384},{"page_index":12,"viewing_time":7144.399999976158},{"page_index":13,"viewing_time":1288},{"page_index":14,"viewing_time":2351.5}],"rt":247034.19999992847,"trial_type":"instructions","trial_index":3,"time_elapsed":268669,"internal_node_id":"0.0-3.0-0.0","subject_id":"5e7a2fc429c35307d86105a1","study_id":"60edd13110225f80f9f3709b","session_id":"6196c95c6933d8225a97f379","condition":"contingent","relevant_dimensions":["antennae","legs"],"bee_group":{"antennae":"A","wings":"X","pattern":"X","legs":"F"},"bonus":0.1399999999999999},{"rt":12046.200000047684,"response":{"Q0":["Two or six legs","Stripes or spots on body","Single or double wings","Antennae or no antennae"]},"question_order":[0],"trial_type":"survey-multi-select","trial_index":4,"time_elapsed":280718,"internal_node_id":"0.0-3.0-1.0","subject_id":"5e7a2fc429c35307d86105a1","study_id":"60edd13110225f80f9f3709b","session_id":"6196c95c6933d8225a97f379","condition":"contingent","relevant_dimensions":["antennae","legs"],"bee_group":{"antennae":"A","wings":"X","pattern":"X","legs":"F"},"correct":true,"bonus":0.1399999999999999},{"rt":24805.700000047684,"response":{"Q1":"No.","Q2":"Based on the four features of the bee.","Q3":"You do not learn if it was friendly or dangerous, and do not alter your bonus."},"question_order":[0,1,2],"trial_type":"survey-multi-choice","trial_index":5,"time_elapsed":305525,"internal_node_id":"0.0-3.0-2.0","subject_id":"5e7a2fc429c35307d86105a1","study_id":"60edd13110225f80f9f3709b","session_id":"6196c95c6933d8225a97f379","condition":"contingent","relevant_dimensions":["antennae","legs"],"bee_group":{"antennae":"A","wings":"X","pattern":"X","legs":"F"},"correct":true,"bonus":0.1399999999999999},{"rt":3383,"stimulus":"<p>Congrats, you got everything right<br>When you're ready, click the button below to continue to the experiment.</p>","response":0,"trial_type":"html-button-response","trial_index":6,"time_elapsed":308909,"internal_node_id":"0.0-3.0-3.0","subject_id":"5e7a2fc429c35307d86105a1","study_id":"60edd13110225f80f9f3709b","session_id":"6196c95c6933d8225a97f379","condition":"contingent","relevant_dimensions":["antennae","legs"],"bee_group":{"antennae":"A","wings":"X","pattern":"X","legs":"F"},"bonus":0.1399999999999999},{"rt":3413.399999976158,"stimulus":"bees-with-color/bee-B1SF.svg","response":0,"trial_type":"image-button-response","trial_index":7,"time_elapsed":312325,"internal_node_id":"0.0-4.0-0.0","subject_id":"5e7a2fc429c35307d86105a1","study_id":"60edd13110225f80f9f3709b","session_id":"6196c95c6933d8225a97f379","condition":"contingent","relevant_dimensions":["antennae","legs"],"bee_group":{"antennae":"A","wings":"X","pattern":"X","legs":"F"},"action":"harvest","summary":"good-harvest","bonus":0.1399999999999999},{"rt":5838.5,"stimulus":"\n                    <p><b>Action: <em>harvest</em></b></p>\n                    <p>This is the bee that you just saw.</p>\n                    <img src=\"bees-with-color/bee-B1SF.svg\" width=\"200\">\n                    <p><span class=\"greenText\"><b>Successful harvest!</b></span><br>Your pay has increased by $0.02. Your bonus pay is now $0.56.</p>\n            ","response":0,"trial_type":"html-button-response","trial_index":8,"time_elapsed":318165,"internal_node_id":"0.0-4.0-1.0","subject_id":"5e7a2fc429c35307d86105a1","study_id":"60edd13110225f80f9f3709b","session_id":"6196c95c6933d8225a97f379","condition":"contingent","relevant_dimensions":["antennae","legs"],"bee_group":{"antennae":"A","wings":"X","pattern":"X","legs":"F"},"bonus":0.1399999999999999},{"rt":3893.899999976158,"stimulus":"bees-with-color/bee-B1DM.svg","response":0,"trial_type":"image-button-response","trial_index":9,"time_elapsed":322061,"internal_node_id":"0.0-4.0-0.1","subject_id":"5e7a2fc429c35307d86105a1","study_id":"60edd13110225f80f9f3709b","session_id":"6196c95c6933d8225a97f379","condition":"contingent","relevant_dimensions":["antennae","legs"],"bee_group":{"antennae":"A","wings":"X","pattern":"X","legs":"F"},"action":"harvest","summary":"good-harvest","bonus":0.1399999999999999},{"rt":6534.099999904633,"stimulus":"\n                    <p><b>Action: <em>harvest</em></b></p>\n                    <p>This is the bee that you just saw.</p>\n                    <img src=\"bees-with-color/bee-B1DM.svg\" width=\"200\">\n                    <p><span class=\"greenText\"><b>Successful harvest!</b></span><br>Your pay has increased by $0.02. Your bonus pay is now $0.58.</p>\n            ","response":0,"trial_type":"html-button-response","trial_index":10,"time_elapsed":328597,"internal_node_id":"0.0-4.0-1.1","subject_id":"5e7a2fc429c35307d86105a1","study_id":"60edd13110225f80f9f3709b","session_id":"6196c95c6933d8225a97f379","condition":"contingent","relevant_dimensions":["antennae","legs"],"bee_group":{"antennae":"A","wings":"X","pattern":"X","legs":"F"},"bonus":0.1399999999999999},{"rt":2302.600000023842,"stimulus":"bees-with-color/bee-A2SF.svg","response":0,"trial_type":"image-button-response","trial_index":11,"time_elapsed":330901,"internal_node_id":"0.0-4.0-0.2","subject_id":"5e7a2fc429c35307d86105a1","study_id":"60edd13110225f80f9f3709b","session_id":"6196c95c6933d8225a97f379","condition":"contingent","relevant_dimensions":["antennae","legs"],"bee_group":{"antennae":"A","wings":"X","pattern":"X","legs":"F"},"action":"harvest","summary":"bad-harvest","bonus":0.1399999999999999},{"rt":2942.5,"stimulus":"\n                    <p><b>Action: <em>harvest</em></b></p>\n                    <p>This is the bee that you just saw.</p>\n                    <img src=\"bees-with-color/bee-A2SF.svg\" width=\"200\">\n                    <p><span class=\"redText\">Bad choice, the bee was angry.</span><br><b>You have been stung!</b><br>Your pay has been decreased by $0.10. Your bonus pay is now $0.48.</p>\n            ","response":0,"trial_type":"html-button-response","trial_index":12,"time_elapsed":333845,"internal_node_id":"0.0-4.0-1.2","subject_id":"5e7a2fc429c35307d86105a1","study_id":"60edd13110225f80f9f3709b","session_id":"6196c95c6933d8225a97f379","condition":"contingent","relevant_dimensions":["antennae","legs"],"bee_group":{"antennae":"A","wings":"X","pattern":"X","legs":"F"},"bonus":0.1399999999999999},{"rt":4399.299999952316,"stimulus":"bees-with-color/bee-A2DF.svg","response":0,"trial_type":"image-button-response","trial_index":13,"time_elapsed":338245,"internal_node_id":"0.0-4.0-0.3","subject_id":"5e7a2fc429c35307d86105a1","study_id":"60edd13110225f80f9f3709b","session_id":"6196c95c6933d8225a97f379","condition":"contingent","relevant_dimensions":["antennae","legs"],"bee_group":{"antennae":"A","wings":"X","pattern":"X","legs":"F"},"action":"harvest","summary":"bad-harvest","bonus":0.1399999999999999},{"rt":886.5,"stimulus":"\n                    <p><b>Action: <em>harvest</em></b></p>\n                    <p>This is the bee that you just saw.</p>\n                    <img src=\"bees-with-color/bee-A2DF.svg\" width=\"200\">\n                    <p><span class=\"redText\">Bad choice, the bee was angry.</span><br><b>You have been stung!</b><br>Your pay has been decreased by $0.10. Your bonus pay is now $0.38.</p>\n            ","response":0,"trial_type":"html-button-response","trial_index":14,"time_elapsed":339133,"internal_node_id":"0.0-4.0-1.3","subject_id":"5e7a2fc429c35307d86105a1","study_id":"60edd13110225f80f9f3709b","session_id":"6196c95c6933d8225a97f379","condition":"contingent","relevant_dimensions":["antennae","legs"],"bee_group":{"antennae":"A","wings":"X","pattern":"X","legs":"F"},"bonus":0.1399999999999999},{"rt":1294.6999999284744,"stimulus":"bees-with-color/bee-A2DM.svg","response":1,"trial_type":"image-button-response","trial_index":15,"time_elapsed":340429,"internal_node_id":"0.0-4.0-0.4","subject_id":"5e7a2fc429c35307d86105a1","study_id":"60edd13110225f80f9f3709b","session_id":"6196c95c6933d8225a97f379","condition":"contingent","relevant_dimensions":["antennae","legs"],"bee_group":{"antennae":"A","wings":"X","pattern":"X","legs":"F"},"action":"avoid","summary":"bad-avoid","bonus":0.1399999999999999},{"rt":1086.5,"stimulus":"\n                    <p><b>Action: <em>avoid</em></b></p>\n                    <p>This is the bee that you just saw.</p>\n                    <img src=\"bees-with-color/bee-A2DM.svg\" width=\"200\">\n                    <p><br>Your bonus pay is unchanged, and remains at $0.38.</p>\n            ","response":0,"trial_type":"html-button-response","trial_index":16,"time_elapsed":341517,"internal_node_id":"0.0-4.0-1.4","subject_id":"5e7a2fc429c35307d86105a1","study_id":"60edd13110225f80f9f3709b","session_id":"6196c95c6933d8225a97f379","condition":"contingent","relevant_dimensions":["antennae","legs"],"bee_group":{"antennae":"A","wings":"X","pattern":"X","legs":"F"},"bonus":0.1399999999999999},{"rt":1191.1999999284744,"stimulus":"bees-with-color/bee-B2SF.svg","response":1,"trial_type":"image-button-response","trial_index":17,"time_elapsed":342709,"internal_node_id":"0.0-4.0-0.5","subject_id":"5e7a2fc429c35307d86105a1","study_id":"60edd13110225f80f9f3709b","session_id":"6196c95c6933d8225a97f379","condition":"contingent","relevant_dimensions":["antennae","legs"],"bee_group":{"antennae":"A","wings":"X","pattern":"X","legs":"F"},"action":"avoid","summary":"bad-avoid","bonus":0.1399999999999999},{"rt":527.2000000476837,"stimulus":"\n                    <p><b>Action: <em>avoid</em></b></p>\n                    <p>This is the bee that you just saw.</p>\n                    <img src=\"bees-with-color/bee-B2SF.svg\" width=\"200\">\n                    <p><br>Your bonus pay is unchanged, and remains at $0.38.</p>\n            ","response":0,"trial_type":"html-button-response","trial_index":18,"time_elapsed":343237,"internal_node_id":"0.0-4.0-1.5","subject_id":"5e7a2fc429c35307d86105a1","study_id":"60edd13110225f80f9f3709b","session_id":"6196c95c6933d8225a97f379","condition":"contingent","relevant_dimensions":["antennae","legs"],"bee_group":{"antennae":"A","wings":"X","pattern":"X","legs":"F"},"bonus":0.1399999999999999},{"rt":878.3999999761581,"stimulus":"bees-with-color/bee-B2DM.svg","response":1,"trial_type":"image-button-response","trial_index":19,"time_elapsed":344117,"internal_node_id":"0.0-4.0-0.6","subject_id":"5e7a2fc429c35307d86105a1","study_id":"60edd13110225f80f9f3709b","session_id":"6196c95c6933d8225a97f379","condition":"contingent","relevant_dimensions":["antennae","legs"],"bee_group":{"antennae":"A","wings":"X","pattern":"X","legs":"F"},"action":"avoid","summary":"bad-avoid","bonus":0.1399999999999999},{"rt":479,"stimulus":"\n                    <p><b>Action: <em>avoid</em></b></p>\n                    <p>This is the bee that you just saw.</p>\n                    <img src=\"bees-with-color/bee-B2DM.svg\" width=\"200\">\n                    <p><br>Your bonus pay is unchanged, and remains at $0.38.</p>\n            ","response":0,"trial_type":"html-button-response","trial_index":20,"time_elapsed":344597,"internal_node_id":"0.0-4.0-1.6","subject_id":"5e7a2fc429c35307d86105a1","study_id":"60edd13110225f80f9f3709b","session_id":"6196c95c6933d8225a97f379","condition":"contingent","relevant_dimensions":["antennae","legs"],"bee_group":{"antennae":"A","wings":"X","pattern":"X","legs":"F"},"bonus":0.1399999999999999},{"rt":1631,"stimulus":"bees-with-color/bee-B2DF.svg","response":1,"trial_type":"image-button-response","trial_index":21,"time_elapsed":346229,"internal_node_id":"0.0-4.0-0.7","subject_id":"5e7a2fc429c35307d86105a1","study_id":"60edd13110225f80f9f3709b","session_id":"6196c95c6933d8225a97f379","condition":"contingent","relevant_dimensions":["antennae","legs"],"bee_group":{"antennae":"A","wings":"X","pattern":"X","legs":"F"},"action":"avoid","summary":"bad-avoid","bonus":0.1399999999999999},{"rt":527.4000000953674,"stimulus":"\n                    <p><b>Action: <em>avoid</em></b></p>\n                    <p>This is the bee that you just saw.</p>\n                    <img src=\"bees-with-color/bee-B2DF.svg\" width=\"200\">\n                    <p><br>Your bonus pay is unchanged, and remains at $0.38.</p>\n            ","response":0,"trial_type":"html-button-response","trial_index":22,"time_elapsed":346757,"internal_node_id":"0.0-4.0-1.7","subject_id":"5e7a2fc429c35307d86105a1","study_id":"60edd13110225f80f9f3709b","session_id":"6196c95c6933d8225a97f379","condition":"contingent","relevant_dimensions":["antennae","legs"],"bee_group":{"antennae":"A","wings":"X","pattern":"X","legs":"F"},"bonus":0.1399999999999999},{"rt":1053.8000000715256,"stimulus":"bees-with-color/bee-B1DF.svg","response":0,"trial_type":"image-button-response","trial_index":23,"time_elapsed":347813,"internal_node_id":"0.0-4.0-0.8","subject_id":"5e7a2fc429c35307d86105a1","study_id":"60edd13110225f80f9f3709b","session_id":"6196c95c6933d8225a97f379","condition":"contingent","relevant_dimensions":["antennae","legs"],"bee_group":{"antennae":"A","wings":"X","pattern":"X","legs":"F"},"action":"harvest","summary":"good-harvest","bonus":0.1399999999999999},{"rt":759.2000000476837,"stimulus":"\n                    <p><b>Action: <em>harvest</em></b></p>\n                    <p>This is the bee that you just saw.</p>\n                    <img src=\"bees-with-color/bee-B1DF.svg\" width=\"200\">\n                    <p><span class=\"greenText\"><b>Successful harvest!</b></span><br>Your pay has increased by $0.02. Your bonus pay is now $0.40.</p>\n            ","response":0,"trial_type":"html-button-response","trial_index":24,"time_elapsed":348573,"internal_node_id":"0.0-4.0-1.8","subject_id":"5e7a2fc429c35307d86105a1","study_id":"60edd13110225f80f9f3709b","session_id":"6196c95c6933d8225a97f379","condition":"contingent","relevant_dimensions":["antennae","legs"],"bee_group":{"antennae":"A","wings":"X","pattern":"X","legs":"F"},"bonus":0.1399999999999999},{"rt":774.8999999761581,"stimulus":"bees-with-color/bee-A1DM.svg","response":0,"trial_type":"image-button-response","trial_index":25,"time_elapsed":349349,"internal_node_id":"0.0-4.0-0.9","subject_id":"5e7a2fc429c35307d86105a1","study_id":"60edd13110225f80f9f3709b","session_id":"6196c95c6933d8225a97f379","condition":"contingent","relevant_dimensions":["antennae","legs"],"bee_group":{"antennae":"A","wings":"X","pattern":"X","legs":"F"},"action":"harvest","summary":"good-harvest","bonus":0.1399999999999999},{"rt":846.8999999761581,"stimulus":"\n                    <p><b>Action: <em>harvest</em></b></p>\n                    <p>This is the bee that you just saw.</p>\n                    <img src=\"bees-with-color/bee-A1DM.svg\" width=\"200\">\n                    <p><span class=\"greenText\"><b>Successful harvest!</b></span><br>Your pay has increased by $0.02. Your bonus pay is now $0.42.</p>\n            ","response":0,"trial_type":"html-button-response","trial_index":26,"time_elapsed":350197,"internal_node_id":"0.0-4.0-1.9","subject_id":"5e7a2fc429c35307d86105a1","study_id":"60edd13110225f80f9f3709b","session_id":"6196c95c6933d8225a97f379","condition":"contingent","relevant_dimensions":["antennae","legs"],"bee_group":{"antennae":"A","wings":"X","pattern":"X","legs":"F"},"bonus":0.1399999999999999},{"rt":1743.2999999523163,"stimulus":"bees-with-color/bee-A2SM.svg","response":0,"trial_type":"image-button-response","trial_index":27,"time_elapsed":351941,"internal_node_id":"0.0-4.0-0.10","subject_id":"5e7a2fc429c35307d86105a1","study_id":"60edd13110225f80f9f3709b","session_id":"6196c95c6933d8225a97f379","condition":"contingent","relevant_dimensions":["antennae","legs"],"bee_group":{"antennae":"A","wings":"X","pattern":"X","legs":"F"},"action":"harvest","summary":"good-harvest","bonus":0.1399999999999999},{"rt":17646.699999928474,"stimulus":"\n                    <p><b>Action: <em>harvest</em></b></p>\n                    <p>This is the bee that you just saw.</p>\n                    <img src=\"bees-with-color/bee-A2SM.svg\" width=\"200\">\n                    <p><span class=\"greenText\"><b>Successful harvest!</b></span><br>Your pay has increased by $0.02. Your bonus pay is now $0.44.</p>\n            ","response":0,"trial_type":"html-button-response","trial_index":28,"time_elapsed":369589,"internal_node_id":"0.0-4.0-1.10","subject_id":"5e7a2fc429c35307d86105a1","study_id":"60edd13110225f80f9f3709b","session_id":"6196c95c6933d8225a97f379","condition":"contingent","relevant_dimensions":["antennae","legs"],"bee_group":{"antennae":"A","wings":"X","pattern":"X","legs":"F"},"bonus":0.1399999999999999},{"rt":2086.7999999523163,"stimulus":"bees-with-color/bee-A1DF.svg","response":0,"trial_type":"image-button-response","trial_index":29,"time_elapsed":371677,"internal_node_id":"0.0-4.0-0.11","subject_id":"5e7a2fc429c35307d86105a1","study_id":"60edd13110225f80f9f3709b","session_id":"6196c95c6933d8225a97f379","condition":"contingent","relevant_dimensions":["antennae","legs"],"bee_group":{"antennae":"A","wings":"X","pattern":"X","legs":"F"},"action":"harvest","summary":"bad-harvest","bonus":0.1399999999999999},{"rt":3278.7999999523163,"stimulus":"\n                    <p><b>Action: <em>harvest</em></b></p>\n                    <p>This is the bee that you just saw.</p>\n                    <img src=\"bees-with-color/bee-A1DF.svg\" width=\"200\">\n                    <p><span class=\"redText\">Bad choice, the bee was angry.</span><br><b>You have been stung!</b><br>Your pay has been decreased by $0.10. Your bonus pay is now $0.34.</p>\n            ","response":0,"trial_type":"html-button-response","trial_index":30,"time_elapsed":374957,"internal_node_id":"0.0-4.0-1.11","subject_id":"5e7a2fc429c35307d86105a1","study_id":"60edd13110225f80f9f3709b","session_id":"6196c95c6933d8225a97f379","condition":"contingent","relevant_dimensions":["antennae","legs"],"bee_group":{"antennae":"A","wings":"X","pattern":"X","legs":"F"},"bonus":0.1399999999999999},{"rt":1894.6999999284744,"stimulus":"bees-with-color/bee-B1SM.svg","response":0,"trial_type":"image-button-response","trial_index":31,"time_elapsed":376853,"internal_node_id":"0.0-4.0-0.12","subject_id":"5e7a2fc429c35307d86105a1","study_id":"60edd13110225f80f9f3709b","session_id":"6196c95c6933d8225a97f379","condition":"contingent","relevant_dimensions":["antennae","legs"],"bee_group":{"antennae":"A","wings":"X","pattern":"X","legs":"F"},"action":"harvest","summary":"good-harvest","bonus":0.1399999999999999},{"rt":4007.399999976158,"stimulus":"\n                    <p><b>Action: <em>harvest</em></b></p>\n                    <p>This is the bee that you just saw.</p>\n                    <img src=\"bees-with-color/bee-B1SM.svg\" width=\"200\">\n                    <p><span class=\"greenText\"><b>Successful harvest!</b></span><br>Your pay has increased by $0.02. Your bonus pay is now $0.36.</p>\n            ","response":0,"trial_type":"html-button-response","trial_index":32,"time_elapsed":380861,"internal_node_id":"0.0-4.0-1.12","subject_id":"5e7a2fc429c35307d86105a1","study_id":"60edd13110225f80f9f3709b","session_id":"6196c95c6933d8225a97f379","condition":"contingent","relevant_dimensions":["antennae","legs"],"bee_group":{"antennae":"A","wings":"X","pattern":"X","legs":"F"},"bonus":0.1399999999999999},{"rt":1334.7999999523163,"stimulus":"bees-with-color/bee-A1SF.svg","response":0,"trial_type":"image-button-response","trial_index":33,"time_elapsed":382197,"internal_node_id":"0.0-4.0-0.13","subject_id":"5e7a2fc429c35307d86105a1","study_id":"60edd13110225f80f9f3709b","session_id":"6196c95c6933d8225a97f379","condition":"contingent","relevant_dimensions":["antennae","legs"],"bee_group":{"antennae":"A","wings":"X","pattern":"X","legs":"F"},"action":"harvest","summary":"bad-harvest","bonus":0.1399999999999999},{"rt":2278.2999999523163,"stimulus":"\n                    <p><b>Action: <em>harvest</em></b></p>\n                    <p>This is the bee that you just saw.</p>\n                    <img src=\"bees-with-color/bee-A1SF.svg\" width=\"200\">\n                    <p><span class=\"redText\">Bad choice, the bee was angry.</span><br><b>You have been stung!</b><br>Your pay has been decreased by $0.10. Your bonus pay is now $0.26.</p>\n            ","response":0,"trial_type":"html-button-response","trial_index":34,"time_elapsed":384477,"internal_node_id":"0.0-4.0-1.13","subject_id":"5e7a2fc429c35307d86105a1","study_id":"60edd13110225f80f9f3709b","session_id":"6196c95c6933d8225a97f379","condition":"contingent","relevant_dimensions":["antennae","legs"],"bee_group":{"antennae":"A","wings":"X","pattern":"X","legs":"F"},"bonus":0.1399999999999999},{"rt":3022.5,"stimulus":"bees-with-color/bee-A1SM.svg","response":0,"trial_type":"image-button-response","trial_index":35,"time_elapsed":387501,"internal_node_id":"0.0-4.0-0.14","subject_id":"5e7a2fc429c35307d86105a1","study_id":"60edd13110225f80f9f3709b","session_id":"6196c95c6933d8225a97f379","condition":"contingent","relevant_dimensions":["antennae","legs"],"bee_group":{"antennae":"A","wings":"X","pattern":"X","legs":"F"},"action":"harvest","summary":"good-harvest","bonus":0.1399999999999999},{"rt":6935.199999928474,"stimulus":"\n                    <p><b>Action: <em>harvest</em></b></p>\n                    <p>This is the bee that you just saw.</p>\n                    <img src=\"bees-with-color/bee-A1SM.svg\" width=\"200\">\n                    <p><span class=\"greenText\"><b>Successful harvest!</b></span><br>Your pay has increased by $0.02. Your bonus pay is now $0.28.</p>\n            ","response":0,"trial_type":"html-button-response","trial_index":36,"time_elapsed":394437,"internal_node_id":"0.0-4.0-1.14","subject_id":"5e7a2fc429c35307d86105a1","study_id":"60edd13110225f80f9f3709b","session_id":"6196c95c6933d8225a97f379","condition":"contingent","relevant_dimensions":["antennae","legs"],"bee_group":{"antennae":"A","wings":"X","pattern":"X","legs":"F"},"bonus":0.1399999999999999},{"rt":3190.8000000715256,"stimulus":"bees-with-color/bee-B2SM.svg","response":0,"trial_type":"image-button-response","trial_index":37,"time_elapsed":397629,"internal_node_id":"0.0-4.0-0.15","subject_id":"5e7a2fc429c35307d86105a1","study_id":"60edd13110225f80f9f3709b","session_id":"6196c95c6933d8225a97f379","condition":"contingent","relevant_dimensions":["antennae","legs"],"bee_group":{"antennae":"A","wings":"X","pattern":"X","legs":"F"},"action":"harvest","summary":"good-harvest","bonus":0.1399999999999999},{"rt":1598.5,"stimulus":"\n                    <p><b>Action: <em>harvest</em></b></p>\n                    <p>This is the bee that you just saw.</p>\n                    <img src=\"bees-with-color/bee-B2SM.svg\" width=\"200\">\n                    <p><span class=\"greenText\"><b>Successful harvest!</b></span><br>Your pay has increased by $0.02. Your bonus pay is now $0.30.</p>\n            ","response":0,"trial_type":"html-button-response","trial_index":38,"time_elapsed":399229,"internal_node_id":"0.0-4.0-1.15","subject_id":"5e7a2fc429c35307d86105a1","study_id":"60edd13110225f80f9f3709b","session_id":"6196c95c6933d8225a97f379","condition":"contingent","relevant_dimensions":["antennae","legs"],"bee_group":{"antennae":"A","wings":"X","pattern":"X","legs":"F"},"bonus":0.1399999999999999},{"rt":3878.600000023842,"stimulus":"bees-with-color/bee-B2DM.svg","response":0,"trial_type":"image-button-response","trial_index":39,"time_elapsed":403109,"internal_node_id":"0.0-4.0-0.16","subject_id":"5e7a2fc429c35307d86105a1","study_id":"60edd13110225f80f9f3709b","session_id":"6196c95c6933d8225a97f379","condition":"contingent","relevant_dimensions":["antennae","legs"],"bee_group":{"antennae":"A","wings":"X","pattern":"X","legs":"F"},"action":"harvest","summary":"good-harvest","bonus":0.1399999999999999},{"rt":1326.5999999046326,"stimulus":"\n                    <p><b>Action: <em>harvest</em></b></p>\n                    <p>This is the bee that you just saw.</p>\n                    <img src=\"bees-with-color/bee-B2DM.svg\" width=\"200\">\n                    <p><span class=\"greenText\"><b>Successful harvest!</b></span><br>Your pay has increased by $0.02. Your bonus pay is now $0.32.</p>\n            ","response":0,"trial_type":"html-button-response","trial_index":40,"time_elapsed":404437,"internal_node_id":"0.0-4.0-1.16","subject_id":"5e7a2fc429c35307d86105a1","study_id":"60edd13110225f80f9f3709b","session_id":"6196c95c6933d8225a97f379","condition":"contingent","relevant_dimensions":["antennae","legs"],"bee_group":{"antennae":"A","wings":"X","pattern":"X","legs":"F"},"bonus":0.1399999999999999},{"rt":2782.899999976158,"stimulus":"bees-with-color/bee-B2DF.svg","response":0,"trial_type":"image-button-response","trial_index":41,"time_elapsed":407221,"internal_node_id":"0.0-4.0-0.17","subject_id":"5e7a2fc429c35307d86105a1","study_id":"60edd13110225f80f9f3709b","session_id":"6196c95c6933d8225a97f379","condition":"contingent","relevant_dimensions":["antennae","legs"],"bee_group":{"antennae":"A","wings":"X","pattern":"X","legs":"F"},"action":"harvest","summary":"good-harvest","bonus":0.1399999999999999},{"rt":998.3999999761581,"stimulus":"\n                    <p><b>Action: <em>harvest</em></b></p>\n                    <p>This is the bee that you just saw.</p>\n                    <img src=\"bees-with-color/bee-B2DF.svg\" width=\"200\">\n                    <p><span class=\"greenText\"><b>Successful harvest!</b></span><br>Your pay has increased by $0.02. Your bonus pay is now $0.34.</p>\n            ","response":0,"trial_type":"html-button-response","trial_index":42,"time_elapsed":408221,"internal_node_id":"0.0-4.0-1.17","subject_id":"5e7a2fc429c35307d86105a1","study_id":"60edd13110225f80f9f3709b","session_id":"6196c95c6933d8225a97f379","condition":"contingent","relevant_dimensions":["antennae","legs"],"bee_group":{"antennae":"A","wings":"X","pattern":"X","legs":"F"},"bonus":0.1399999999999999},{"rt":1622.5,"stimulus":"bees-with-color/bee-A2DF.svg","response":0,"trial_type":"image-button-response","trial_index":43,"time_elapsed":409845,"internal_node_id":"0.0-4.0-0.18","subject_id":"5e7a2fc429c35307d86105a1","study_id":"60edd13110225f80f9f3709b","session_id":"6196c95c6933d8225a97f379","condition":"contingent","relevant_dimensions":["antennae","legs"],"bee_group":{"antennae":"A","wings":"X","pattern":"X","legs":"F"},"action":"harvest","summary":"bad-harvest","bonus":0.1399999999999999},{"rt":22703.399999976158,"stimulus":"\n                    <p><b>Action: <em>harvest</em></b></p>\n                    <p>This is the bee that you just saw.</p>\n                    <img src=\"bees-with-color/bee-A2DF.svg\" width=\"200\">\n                    <p><span class=\"redText\">Bad choice, the bee was angry.</span><br><b>You have been stung!</b><br>Your pay has been decreased by $0.10. Your bonus pay is now $0.24.</p>\n            ","response":0,"trial_type":"html-button-response","trial_index":44,"time_elapsed":432549,"internal_node_id":"0.0-4.0-1.18","subject_id":"5e7a2fc429c35307d86105a1","study_id":"60edd13110225f80f9f3709b","session_id":"6196c95c6933d8225a97f379","condition":"contingent","relevant_dimensions":["antennae","legs"],"bee_group":{"antennae":"A","wings":"X","pattern":"X","legs":"F"},"bonus":0.1399999999999999},{"rt":1430.1000000238419,"stimulus":"bees-with-color/bee-B1SF.svg","response":0,"trial_type":"image-button-response","trial_index":45,"time_elapsed":433981,"internal_node_id":"0.0-4.0-0.19","subject_id":"5e7a2fc429c35307d86105a1","study_id":"60edd13110225f80f9f3709b","session_id":"6196c95c6933d8225a97f379","condition":"contingent","relevant_dimensions":["antennae","legs"],"bee_group":{"antennae":"A","wings":"X","pattern":"X","legs":"F"},"action":"harvest","summary":"good-harvest","bonus":0.1399999999999999},{"rt":742.6000000238419,"stimulus":"\n                    <p><b>Action: <em>harvest</em></b></p>\n                    <p>This is the bee that you just saw.</p>\n                    <img src=\"bees-with-color/bee-B1SF.svg\" width=\"200\">\n                    <p><span class=\"greenText\"><b>Successful harvest!</b></span><br>Your pay has increased by $0.02. Your bonus pay is now $0.26.</p>\n            ","response":0,"trial_type":"html-button-response","trial_index":46,"time_elapsed":434725,"internal_node_id":"0.0-4.0-1.19","subject_id":"5e7a2fc429c35307d86105a1","study_id":"60edd13110225f80f9f3709b","session_id":"6196c95c6933d8225a97f379","condition":"contingent","relevant_dimensions":["antennae","legs"],"bee_group":{"antennae":"A","wings":"X","pattern":"X","legs":"F"},"bonus":0.1399999999999999},{"rt":2062.7000000476837,"stimulus":"bees-with-color/bee-A1SF.svg","response":0,"trial_type":"image-button-response","trial_index":47,"time_elapsed":436789,"internal_node_id":"0.0-4.0-0.20","subject_id":"5e7a2fc429c35307d86105a1","study_id":"60edd13110225f80f9f3709b","session_id":"6196c95c6933d8225a97f379","condition":"contingent","relevant_dimensions":["antennae","legs"],"bee_group":{"antennae":"A","wings":"X","pattern":"X","legs":"F"},"action":"harvest","summary":"bad-harvest","bonus":0.1399999999999999},{"rt":19886.700000047684,"stimulus":"\n                    <p><b>Action: <em>harvest</em></b></p>\n                    <p>This is the bee that you just saw.</p>\n                    <img src=\"bees-with-color/bee-A1SF.svg\" width=\"200\">\n                    <p><span class=\"redText\">Bad choice, the bee was angry.</span><br><b>You have been stung!</b><br>Your pay has been decreased by $0.10. Your bonus pay is now $0.16.</p>\n            ","response":0,"trial_type":"html-button-response","trial_index":48,"time_elapsed":456677,"internal_node_id":"0.0-4.0-1.20","subject_id":"5e7a2fc429c35307d86105a1","study_id":"60edd13110225f80f9f3709b","session_id":"6196c95c6933d8225a97f379","condition":"contingent","relevant_dimensions":["antennae","legs"],"bee_group":{"antennae":"A","wings":"X","pattern":"X","legs":"F"},"bonus":0.1399999999999999},{"rt":5558.200000047684,"stimulus":"bees-with-color/bee-B1DM.svg","response":0,"trial_type":"image-button-response","trial_index":49,"time_elapsed":462237,"internal_node_id":"0.0-4.0-0.21","subject_id":"5e7a2fc429c35307d86105a1","study_id":"60edd13110225f80f9f3709b","session_id":"6196c95c6933d8225a97f379","condition":"contingent","relevant_dimensions":["antennae","legs"],"bee_group":{"antennae":"A","wings":"X","pattern":"X","legs":"F"},"action":"harvest","summary":"good-harvest","bonus":0.1399999999999999},{"rt":1254.8999999761581,"stimulus":"\n                    <p><b>Action: <em>harvest</em></b></p>\n                    <p>This is the bee that you just saw.</p>\n                    <img src=\"bees-with-color/bee-B1DM.svg\" width=\"200\">\n                    <p><span class=\"greenText\"><b>Successful harvest!</b></span><br>Your pay has increased by $0.02. Your bonus pay is now $0.18.</p>\n            ","response":0,"trial_type":"html-button-response","trial_index":50,"time_elapsed":463493,"internal_node_id":"0.0-4.0-1.21","subject_id":"5e7a2fc429c35307d86105a1","study_id":"60edd13110225f80f9f3709b","session_id":"6196c95c6933d8225a97f379","condition":"contingent","relevant_dimensions":["antennae","legs"],"bee_group":{"antennae":"A","wings":"X","pattern":"X","legs":"F"},"bonus":0.1399999999999999},{"rt":5342.799999952316,"stimulus":"bees-with-color/bee-B2SF.svg","response":0,"trial_type":"image-button-response","trial_index":51,"time_elapsed":468837,"internal_node_id":"0.0-4.0-0.22","subject_id":"5e7a2fc429c35307d86105a1","study_id":"60edd13110225f80f9f3709b","session_id":"6196c95c6933d8225a97f379","condition":"contingent","relevant_dimensions":["antennae","legs"],"bee_group":{"antennae":"A","wings":"X","pattern":"X","legs":"F"},"action":"harvest","summary":"good-harvest","bonus":0.1399999999999999},{"rt":1071.2999999523163,"stimulus":"\n                    <p><b>Action: <em>harvest</em></b></p>\n                    <p>This is the bee that you just saw.</p>\n                    <img src=\"bees-with-color/bee-B2SF.svg\" width=\"200\">\n                    <p><span class=\"greenText\"><b>Successful harvest!</b></span><br>Your pay has increased by $0.02. Your bonus pay is now $0.20.</p>\n            ","response":0,"trial_type":"html-button-response","trial_index":52,"time_elapsed":469909,"internal_node_id":"0.0-4.0-1.22","subject_id":"5e7a2fc429c35307d86105a1","study_id":"60edd13110225f80f9f3709b","session_id":"6196c95c6933d8225a97f379","condition":"contingent","relevant_dimensions":["antennae","legs"],"bee_group":{"antennae":"A","wings":"X","pattern":"X","legs":"F"},"bonus":0.1399999999999999},{"rt":4270.5,"stimulus":"bees-with-color/bee-A1DM.svg","response":0,"trial_type":"image-button-response","trial_index":53,"time_elapsed":474181,"internal_node_id":"0.0-4.0-0.23","subject_id":"5e7a2fc429c35307d86105a1","study_id":"60edd13110225f80f9f3709b","session_id":"6196c95c6933d8225a97f379","condition":"contingent","relevant_dimensions":["antennae","legs"],"bee_group":{"antennae":"A","wings":"X","pattern":"X","legs":"F"},"action":"harvest","summary":"good-harvest","bonus":0.1399999999999999},{"rt":1095.1000000238419,"stimulus":"\n                    <p><b>Action: <em>harvest</em></b></p>\n                    <p>This is the bee that you just saw.</p>\n                    <img src=\"bees-with-color/bee-A1DM.svg\" width=\"200\">\n                    <p><span class=\"greenText\"><b>Successful harvest!</b></span><br>Your pay has increased by $0.02. Your bonus pay is now $0.22.</p>\n            ","response":0,"trial_type":"html-button-response","trial_index":54,"time_elapsed":475277,"internal_node_id":"0.0-4.0-1.23","subject_id":"5e7a2fc429c35307d86105a1","study_id":"60edd13110225f80f9f3709b","session_id":"6196c95c6933d8225a97f379","condition":"contingent","relevant_dimensions":["antennae","legs"],"bee_group":{"antennae":"A","wings":"X","pattern":"X","legs":"F"},"bonus":0.1399999999999999},{"rt":1799,"stimulus":"bees-with-color/bee-B1DF.svg","response":0,"trial_type":"image-button-response","trial_index":55,"time_elapsed":477077,"internal_node_id":"0.0-4.0-0.24","subject_id":"5e7a2fc429c35307d86105a1","study_id":"60edd13110225f80f9f3709b","session_id":"6196c95c6933d8225a97f379","condition":"contingent","relevant_dimensions":["antennae","legs"],"bee_group":{"antennae":"A","wings":"X","pattern":"X","legs":"F"},"action":"harvest","summary":"good-harvest","bonus":0.1399999999999999},{"rt":951,"stimulus":"\n                    <p><b>Action: <em>harvest</em></b></p>\n                    <p>This is the bee that you just saw.</p>\n                    <img src=\"bees-with-color/bee-B1DF.svg\" width=\"200\">\n                    <p><span class=\"greenText\"><b>Successful harvest!</b></span><br>Your pay has increased by $0.02. Your bonus pay is now $0.24.</p>\n            ","response":0,"trial_type":"html-button-response","trial_index":56,"time_elapsed":478029,"internal_node_id":"0.0-4.0-1.24","subject_id":"5e7a2fc429c35307d86105a1","study_id":"60edd13110225f80f9f3709b","session_id":"6196c95c6933d8225a97f379","condition":"contingent","relevant_dimensions":["antennae","legs"],"bee_group":{"antennae":"A","wings":"X","pattern":"X","legs":"F"},"bonus":0.1399999999999999},{"rt":6991.299999952316,"stimulus":"bees-with-color/bee-A2SF.svg","response":0,"trial_type":"image-button-response","trial_index":57,"time_elapsed":485021,"internal_node_id":"0.0-4.0-0.25","subject_id":"5e7a2fc429c35307d86105a1","study_id":"60edd13110225f80f9f3709b","session_id":"6196c95c6933d8225a97f379","condition":"contingent","relevant_dimensions":["antennae","legs"],"bee_group":{"antennae":"A","wings":"X","pattern":"X","legs":"F"},"action":"harvest","summary":"bad-harvest","bonus":0.1399999999999999},{"rt":6390.799999952316,"stimulus":"\n                    <p><b>Action: <em>harvest</em></b></p>\n                    <p>This is the bee that you just saw.</p>\n                    <img src=\"bees-with-color/bee-A2SF.svg\" width=\"200\">\n                    <p><span class=\"redText\">Bad choice, the bee was angry.</span><br><b>You have been stung!</b><br>Your pay has been decreased by $0.10. Your bonus pay is now $0.14.</p>\n            ","response":0,"trial_type":"html-button-response","trial_index":58,"time_elapsed":491413,"internal_node_id":"0.0-4.0-1.25","subject_id":"5e7a2fc429c35307d86105a1","study_id":"60edd13110225f80f9f3709b","session_id":"6196c95c6933d8225a97f379","condition":"contingent","relevant_dimensions":["antennae","legs"],"bee_group":{"antennae":"A","wings":"X","pattern":"X","legs":"F"},"bonus":0.1399999999999999},{"rt":3238.600000023842,"stimulus":"bees-with-color/bee-A1DF.svg","response":0,"trial_type":"image-button-response","trial_index":59,"time_elapsed":494653,"internal_node_id":"0.0-4.0-0.26","subject_id":"5e7a2fc429c35307d86105a1","study_id":"60edd13110225f80f9f3709b","session_id":"6196c95c6933d8225a97f379","condition":"contingent","relevant_dimensions":["antennae","legs"],"bee_group":{"antennae":"A","wings":"X","pattern":"X","legs":"F"},"action":"harvest","summary":"bad-harvest","bonus":0.1399999999999999},{"rt":17399.100000023842,"stimulus":"\n                    <p><b>Action: <em>harvest</em></b></p>\n                    <p>This is the bee that you just saw.</p>\n                    <img src=\"bees-with-color/bee-A1DF.svg\" width=\"200\">\n                    <p><span class=\"redText\">Bad choice, the bee was angry.</span><br><b>You have been stung!</b><br>Your pay has been decreased by $0.10. Your bonus pay is now $0.04.</p>\n            ","response":0,"trial_type":"html-button-response","trial_index":60,"time_elapsed":512053,"internal_node_id":"0.0-4.0-1.26","subject_id":"5e7a2fc429c35307d86105a1","study_id":"60edd13110225f80f9f3709b","session_id":"6196c95c6933d8225a97f379","condition":"contingent","relevant_dimensions":["antennae","legs"],"bee_group":{"antennae":"A","wings":"X","pattern":"X","legs":"F"},"bonus":0.1399999999999999},{"rt":4030.5,"stimulus":"bees-with-color/bee-A1SM.svg","response":0,"trial_type":"image-button-response","trial_index":61,"time_elapsed":516085,"internal_node_id":"0.0-4.0-0.27","subject_id":"5e7a2fc429c35307d86105a1","study_id":"60edd13110225f80f9f3709b","session_id":"6196c95c6933d8225a97f379","condition":"contingent","relevant_dimensions":["antennae","legs"],"bee_group":{"antennae":"A","wings":"X","pattern":"X","legs":"F"},"action":"harvest","summary":"good-harvest","bonus":0.1399999999999999},{"rt":4519,"stimulus":"\n                    <p><b>Action: <em>harvest</em></b></p>\n                    <p>This is the bee that you just saw.</p>\n                    <img src=\"bees-with-color/bee-A1SM.svg\" width=\"200\">\n                    <p><span class=\"greenText\"><b>Successful harvest!</b></span><br>Your pay has increased by $0.02. Your bonus pay is now $0.06.</p>\n            ","response":0,"trial_type":"html-button-response","trial_index":62,"time_elapsed":520605,"internal_node_id":"0.0-4.0-1.27","subject_id":"5e7a2fc429c35307d86105a1","study_id":"60edd13110225f80f9f3709b","session_id":"6196c95c6933d8225a97f379","condition":"contingent","relevant_dimensions":["antennae","legs"],"bee_group":{"antennae":"A","wings":"X","pattern":"X","legs":"F"},"bonus":0.1399999999999999},{"rt":3495,"stimulus":"bees-with-color/bee-A2DM.svg","response":0,"trial_type":"image-button-response","trial_index":63,"time_elapsed":524102,"internal_node_id":"0.0-4.0-0.28","subject_id":"5e7a2fc429c35307d86105a1","study_id":"60edd13110225f80f9f3709b","session_id":"6196c95c6933d8225a97f379","condition":"contingent","relevant_dimensions":["antennae","legs"],"bee_group":{"antennae":"A","wings":"X","pattern":"X","legs":"F"},"action":"harvest","summary":"good-harvest","bonus":0.1399999999999999},{"rt":3446.600000023842,"stimulus":"\n                    <p><b>Action: <em>harvest</em></b></p>\n                    <p>This is the bee that you just saw.</p>\n                    <img src=\"bees-with-color/bee-A2DM.svg\" width=\"200\">\n                    <p><span class=\"greenText\"><b>Successful harvest!</b></span><br>Your pay has increased by $0.02. Your bonus pay is now $0.08.</p>\n            ","response":0,"trial_type":"html-button-response","trial_index":64,"time_elapsed":527549,"internal_node_id":"0.0-4.0-1.28","subject_id":"5e7a2fc429c35307d86105a1","study_id":"60edd13110225f80f9f3709b","session_id":"6196c95c6933d8225a97f379","condition":"contingent","relevant_dimensions":["antennae","legs"],"bee_group":{"antennae":"A","wings":"X","pattern":"X","legs":"F"},"bonus":0.1399999999999999},{"rt":1663,"stimulus":"bees-with-color/bee-B1SM.svg","response":0,"trial_type":"image-button-response","trial_index":65,"time_elapsed":529214,"internal_node_id":"0.0-4.0-0.29","subject_id":"5e7a2fc429c35307d86105a1","study_id":"60edd13110225f80f9f3709b","session_id":"6196c95c6933d8225a97f379","condition":"contingent","relevant_dimensions":["antennae","legs"],"bee_group":{"antennae":"A","wings":"X","pattern":"X","legs":"F"},"action":"harvest","summary":"good-harvest","bonus":0.1399999999999999},{"rt":974.5,"stimulus":"\n                    <p><b>Action: <em>harvest</em></b></p>\n                    <p>This is the bee that you just saw.</p>\n                    <img src=\"bees-with-color/bee-B1SM.svg\" width=\"200\">\n                    <p><span class=\"greenText\"><b>Successful harvest!</b></span><br>Your pay has increased by $0.02. Your bonus pay is now $0.10.</p>\n            ","response":0,"trial_type":"html-button-response","trial_index":66,"time_elapsed":530189,"internal_node_id":"0.0-4.0-1.29","subject_id":"5e7a2fc429c35307d86105a1","study_id":"60edd13110225f80f9f3709b","session_id":"6196c95c6933d8225a97f379","condition":"contingent","relevant_dimensions":["antennae","legs"],"bee_group":{"antennae":"A","wings":"X","pattern":"X","legs":"F"},"bonus":0.1399999999999999},{"rt":3199.100000023842,"stimulus":"bees-with-color/bee-A2SM.svg","response":1,"trial_type":"image-button-response","trial_index":67,"time_elapsed":533390,"internal_node_id":"0.0-4.0-0.30","subject_id":"5e7a2fc429c35307d86105a1","study_id":"60edd13110225f80f9f3709b","session_id":"6196c95c6933d8225a97f379","condition":"contingent","relevant_dimensions":["antennae","legs"],"bee_group":{"antennae":"A","wings":"X","pattern":"X","legs":"F"},"action":"avoid","summary":"bad-avoid","bonus":0.1399999999999999},{"rt":1238.6999999284744,"stimulus":"\n                    <p><b>Action: <em>avoid</em></b></p>\n                    <p>This is the bee that you just saw.</p>\n                    <img src=\"bees-with-color/bee-A2SM.svg\" width=\"200\">\n                    <p><br>Your bonus pay is unchanged, and remains at $0.10.</p>\n            ","response":0,"trial_type":"html-button-response","trial_index":68,"time_elapsed":534629,"internal_node_id":"0.0-4.0-1.30","subject_id":"5e7a2fc429c35307d86105a1","study_id":"60edd13110225f80f9f3709b","session_id":"6196c95c6933d8225a97f379","condition":"contingent","relevant_dimensions":["antennae","legs"],"bee_group":{"antennae":"A","wings":"X","pattern":"X","legs":"F"},"bonus":0.1399999999999999},{"rt":2014.8999999761581,"stimulus":"bees-with-color/bee-B2SM.svg","response":0,"trial_type":"image-button-response","trial_index":69,"time_elapsed":536646,"internal_node_id":"0.0-4.0-0.31","subject_id":"5e7a2fc429c35307d86105a1","study_id":"60edd13110225f80f9f3709b","session_id":"6196c95c6933d8225a97f379","condition":"contingent","relevant_dimensions":["antennae","legs"],"bee_group":{"antennae":"A","wings":"X","pattern":"X","legs":"F"},"action":"harvest","summary":"good-harvest","bonus":0.1399999999999999},{"rt":918.6000000238419,"stimulus":"\n                    <p><b>Action: <em>harvest</em></b></p>\n                    <p>This is the bee that you just saw.</p>\n                    <img src=\"bees-with-color/bee-B2SM.svg\" width=\"200\">\n                    <p><span class=\"greenText\"><b>Successful harvest!</b></span><br>Your pay has increased by $0.02. Your bonus pay is now $0.12.</p>\n            ","response":0,"trial_type":"html-button-response","trial_index":70,"time_elapsed":537565,"internal_node_id":"0.0-4.0-1.31","subject_id":"5e7a2fc429c35307d86105a1","study_id":"60edd13110225f80f9f3709b","session_id":"6196c95c6933d8225a97f379","condition":"contingent","relevant_dimensions":["antennae","legs"],"bee_group":{"antennae":"A","wings":"X","pattern":"X","legs":"F"},"bonus":0.1399999999999999},{"rt":4423.200000047684,"stimulus":"bees-with-color/bee-B2DM.svg","response":0,"trial_type":"image-button-response","trial_index":71,"time_elapsed":541989,"internal_node_id":"0.0-4.0-0.32","subject_id":"5e7a2fc429c35307d86105a1","study_id":"60edd13110225f80f9f3709b","session_id":"6196c95c6933d8225a97f379","condition":"contingent","relevant_dimensions":["antennae","legs"],"bee_group":{"antennae":"A","wings":"X","pattern":"X","legs":"F"},"action":"harvest","summary":"good-harvest","bonus":0.1399999999999999},{"rt":830.8000000715256,"stimulus":"\n                    <p><b>Action: <em>harvest</em></b></p>\n                    <p>This is the bee that you just saw.</p>\n                    <img src=\"bees-with-color/bee-B2DM.svg\" width=\"200\">\n                    <p><span class=\"greenText\"><b>Successful harvest!</b></span><br>Your pay has increased by $0.02. Your bonus pay is now $0.14.</p>\n            ","response":0,"trial_type":"html-button-response","trial_index":72,"time_elapsed":542821,"internal_node_id":"0.0-4.0-1.32","subject_id":"5e7a2fc429c35307d86105a1","study_id":"60edd13110225f80f9f3709b","session_id":"6196c95c6933d8225a97f379","condition":"contingent","relevant_dimensions":["antennae","legs"],"bee_group":{"antennae":"A","wings":"X","pattern":"X","legs":"F"},"bonus":0.1399999999999999},{"rt":8534.700000047684,"stimulus":"bees-with-color/bee-A2SF.svg","response":0,"trial_type":"image-button-response","trial_index":73,"time_elapsed":551357,"internal_node_id":"0.0-4.0-0.33","subject_id":"5e7a2fc429c35307d86105a1","study_id":"60edd13110225f80f9f3709b","session_id":"6196c95c6933d8225a97f379","condition":"contingent","relevant_dimensions":["antennae","legs"],"bee_group":{"antennae":"A","wings":"X","pattern":"X","legs":"F"},"action":"harvest","summary":"bad-harvest","bonus":0.1399999999999999},{"rt":3526.7999999523163,"stimulus":"\n                    <p><b>Action: <em>harvest</em></b></p>\n                    <p>This is the bee that you just saw.</p>\n                    <img src=\"bees-with-color/bee-A2SF.svg\" width=\"200\">\n                    <p><span class=\"redText\">Bad choice, the bee was angry.</span><br><b>You have been stung!</b><br>Your pay has been decreased by $0.10. Your bonus pay is now $0.04.</p>\n            ","response":0,"trial_type":"html-button-response","trial_index":74,"time_elapsed":554885,"internal_node_id":"0.0-4.0-1.33","subject_id":"5e7a2fc429c35307d86105a1","study_id":"60edd13110225f80f9f3709b","session_id":"6196c95c6933d8225a97f379","condition":"contingent","relevant_dimensions":["antennae","legs"],"bee_group":{"antennae":"A","wings":"X","pattern":"X","legs":"F"},"bonus":0.1399999999999999},{"rt":1535,"stimulus":"bees-with-color/bee-A1SM.svg","response":0,"trial_type":"image-button-response","trial_index":75,"time_elapsed":556422,"internal_node_id":"0.0-4.0-0.34","subject_id":"5e7a2fc429c35307d86105a1","study_id":"60edd13110225f80f9f3709b","session_id":"6196c95c6933d8225a97f379","condition":"contingent","relevant_dimensions":["antennae","legs"],"bee_group":{"antennae":"A","wings":"X","pattern":"X","legs":"F"},"action":"harvest","summary":"good-harvest","bonus":0.1399999999999999},{"rt":702.3999999761581,"stimulus":"\n                    <p><b>Action: <em>harvest</em></b></p>\n                    <p>This is the bee that you just saw.</p>\n                    <img src=\"bees-with-color/bee-A1SM.svg\" width=\"200\">\n                    <p><span class=\"greenText\"><b>Successful harvest!</b></span><br>Your pay has increased by $0.02. Your bonus pay is now $0.06.</p>\n            ","response":0,"trial_type":"html-button-response","trial_index":76,"time_elapsed":557125,"internal_node_id":"0.0-4.0-1.34","subject_id":"5e7a2fc429c35307d86105a1","study_id":"60edd13110225f80f9f3709b","session_id":"6196c95c6933d8225a97f379","condition":"contingent","relevant_dimensions":["antennae","legs"],"bee_group":{"antennae":"A","wings":"X","pattern":"X","legs":"F"},"bonus":0.1399999999999999},{"rt":1646.8000000715256,"stimulus":"bees-with-color/bee-B2SM.svg","response":0,"trial_type":"image-button-response","trial_index":77,"time_elapsed":558773,"internal_node_id":"0.0-4.0-0.35","subject_id":"5e7a2fc429c35307d86105a1","study_id":"60edd13110225f80f9f3709b","session_id":"6196c95c6933d8225a97f379","condition":"contingent","relevant_dimensions":["antennae","legs"],"bee_group":{"antennae":"A","wings":"X","pattern":"X","legs":"F"},"action":"harvest","summary":"good-harvest","bonus":0.1399999999999999},{"rt":734.8000000715256,"stimulus":"\n                    <p><b>Action: <em>harvest</em></b></p>\n                    <p>This is the bee that you just saw.</p>\n                    <img src=\"bees-with-color/bee-B2SM.svg\" width=\"200\">\n                    <p><span class=\"greenText\"><b>Successful harvest!</b></span><br>Your pay has increased by $0.02. Your bonus pay is now $0.08.</p>\n            ","response":0,"trial_type":"html-button-response","trial_index":78,"time_elapsed":559509,"internal_node_id":"0.0-4.0-1.35","subject_id":"5e7a2fc429c35307d86105a1","study_id":"60edd13110225f80f9f3709b","session_id":"6196c95c6933d8225a97f379","condition":"contingent","relevant_dimensions":["antennae","legs"],"bee_group":{"antennae":"A","wings":"X","pattern":"X","legs":"F"},"bonus":0.1399999999999999},{"rt":1271.0999999046326,"stimulus":"bees-with-color/bee-B1DF.svg","response":0,"trial_type":"image-button-response","trial_index":79,"time_elapsed":560782,"internal_node_id":"0.0-4.0-0.36","subject_id":"5e7a2fc429c35307d86105a1","study_id":"60edd13110225f80f9f3709b","session_id":"6196c95c6933d8225a97f379","condition":"contingent","relevant_dimensions":["antennae","legs"],"bee_group":{"antennae":"A","wings":"X","pattern":"X","legs":"F"},"action":"harvest","summary":"good-harvest","bonus":0.1399999999999999},{"rt":614.5,"stimulus":"\n                    <p><b>Action: <em>harvest</em></b></p>\n                    <p>This is the bee that you just saw.</p>\n                    <img src=\"bees-with-color/bee-B1DF.svg\" width=\"200\">\n                    <p><span class=\"greenText\"><b>Successful harvest!</b></span><br>Your pay has increased by $0.02. Your bonus pay is now $0.10.</p>\n            ","response":0,"trial_type":"html-button-response","trial_index":80,"time_elapsed":561397,"internal_node_id":"0.0-4.0-1.36","subject_id":"5e7a2fc429c35307d86105a1","study_id":"60edd13110225f80f9f3709b","session_id":"6196c95c6933d8225a97f379","condition":"contingent","relevant_dimensions":["antennae","legs"],"bee_group":{"antennae":"A","wings":"X","pattern":"X","legs":"F"},"bonus":0.1399999999999999},{"rt":2223.100000023842,"stimulus":"bees-with-color/bee-A2DM.svg","response":1,"trial_type":"image-button-response","trial_index":81,"time_elapsed":563622,"internal_node_id":"0.0-4.0-0.37","subject_id":"5e7a2fc429c35307d86105a1","study_id":"60edd13110225f80f9f3709b","session_id":"6196c95c6933d8225a97f379","condition":"contingent","relevant_dimensions":["antennae","legs"],"bee_group":{"antennae":"A","wings":"X","pattern":"X","legs":"F"},"action":"avoid","summary":"bad-avoid","bonus":0.1399999999999999},{"rt":686.3999999761581,"stimulus":"\n                    <p><b>Action: <em>avoid</em></b></p>\n                    <p>This is the bee that you just saw.</p>\n                    <img src=\"bees-with-color/bee-A2DM.svg\" width=\"200\">\n                    <p><br>Your bonus pay is unchanged, and remains at $0.10.</p>\n            ","response":0,"trial_type":"html-button-response","trial_index":82,"time_elapsed":564309,"internal_node_id":"0.0-4.0-1.37","subject_id":"5e7a2fc429c35307d86105a1","study_id":"60edd13110225f80f9f3709b","session_id":"6196c95c6933d8225a97f379","condition":"contingent","relevant_dimensions":["antennae","legs"],"bee_group":{"antennae":"A","wings":"X","pattern":"X","legs":"F"},"bonus":0.1399999999999999},{"rt":1375,"stimulus":"bees-with-color/bee-A2DF.svg","response":1,"trial_type":"image-button-response","trial_index":83,"time_elapsed":565685,"internal_node_id":"0.0-4.0-0.38","subject_id":"5e7a2fc429c35307d86105a1","study_id":"60edd13110225f80f9f3709b","session_id":"6196c95c6933d8225a97f379","condition":"contingent","relevant_dimensions":["antennae","legs"],"bee_group":{"antennae":"A","wings":"X","pattern":"X","legs":"F"},"action":"avoid","summary":"good-avoid","bonus":0.1399999999999999},{"rt":566.9000000953674,"stimulus":"\n                    <p><b>Action: <em>avoid</em></b></p>\n                    <p>This is the bee that you just saw.</p>\n                    <img src=\"bees-with-color/bee-A2DF.svg\" width=\"200\">\n                    <p><br>Your bonus pay is unchanged, and remains at $0.10.</p>\n            ","response":0,"trial_type":"html-button-response","trial_index":84,"time_elapsed":566253,"internal_node_id":"0.0-4.0-1.38","subject_id":"5e7a2fc429c35307d86105a1","study_id":"60edd13110225f80f9f3709b","session_id":"6196c95c6933d8225a97f379","condition":"contingent","relevant_dimensions":["antennae","legs"],"bee_group":{"antennae":"A","wings":"X","pattern":"X","legs":"F"},"bonus":0.1399999999999999},{"rt":1630.8000000715256,"stimulus":"bees-with-color/bee-B1DM.svg","response":0,"trial_type":"image-button-response","trial_index":85,"time_elapsed":567885,"internal_node_id":"0.0-4.0-0.39","subject_id":"5e7a2fc429c35307d86105a1","study_id":"60edd13110225f80f9f3709b","session_id":"6196c95c6933d8225a97f379","condition":"contingent","relevant_dimensions":["antennae","legs"],"bee_group":{"antennae":"A","wings":"X","pattern":"X","legs":"F"},"action":"harvest","summary":"good-harvest","bonus":0.1399999999999999},{"rt":526.7000000476837,"stimulus":"\n                    <p><b>Action: <em>harvest</em></b></p>\n                    <p>This is the bee that you just saw.</p>\n                    <img src=\"bees-with-color/bee-B1DM.svg\" width=\"200\">\n                    <p><span class=\"greenText\"><b>Successful harvest!</b></span><br>Your pay has increased by $0.02. Your bonus pay is now $0.12.</p>\n            ","response":0,"trial_type":"html-button-response","trial_index":86,"time_elapsed":568413,"internal_node_id":"0.0-4.0-1.39","subject_id":"5e7a2fc429c35307d86105a1","study_id":"60edd13110225f80f9f3709b","session_id":"6196c95c6933d8225a97f379","condition":"contingent","relevant_dimensions":["antennae","legs"],"bee_group":{"antennae":"A","wings":"X","pattern":"X","legs":"F"},"bonus":0.1399999999999999},{"rt":1230.8000000715256,"stimulus":"bees-with-color/bee-A1DF.svg","response":0,"trial_type":"image-button-response","trial_index":87,"time_elapsed":569645,"internal_node_id":"0.0-4.0-0.40","subject_id":"5e7a2fc429c35307d86105a1","study_id":"60edd13110225f80f9f3709b","session_id":"6196c95c6933d8225a97f379","condition":"contingent","relevant_dimensions":["antennae","legs"],"bee_group":{"antennae":"A","wings":"X","pattern":"X","legs":"F"},"action":"harvest","summary":"bad-harvest","bonus":0.1399999999999999},{"rt":3383,"stimulus":"\n                    <p><b>Action: <em>harvest</em></b></p>\n                    <p>This is the bee that you just saw.</p>\n                    <img src=\"bees-with-color/bee-A1DF.svg\" width=\"200\">\n                    <p><span class=\"redText\">Bad choice, the bee was angry.</span><br><b>You have been stung!</b><br>Your pay has been decreased by $0.10. Your bonus pay is now $0.02.</p>\n            ","response":0,"trial_type":"html-button-response","trial_index":88,"time_elapsed":573030,"internal_node_id":"0.0-4.0-1.40","subject_id":"5e7a2fc429c35307d86105a1","study_id":"60edd13110225f80f9f3709b","session_id":"6196c95c6933d8225a97f379","condition":"contingent","relevant_dimensions":["antennae","legs"],"bee_group":{"antennae":"A","wings":"X","pattern":"X","legs":"F"},"bonus":0.1399999999999999},{"rt":1358.4000000953674,"stimulus":"bees-with-color/bee-B2DF.svg","response":0,"trial_type":"image-button-response","trial_index":89,"time_elapsed":574389,"internal_node_id":"0.0-4.0-0.41","subject_id":"5e7a2fc429c35307d86105a1","study_id":"60edd13110225f80f9f3709b","session_id":"6196c95c6933d8225a97f379","condition":"contingent","relevant_dimensions":["antennae","legs"],"bee_group":{"antennae":"A","wings":"X","pattern":"X","legs":"F"},"action":"harvest","summary":"good-harvest","bonus":0.1399999999999999},{"rt":494.8000000715256,"stimulus":"\n                    <p><b>Action: <em>harvest</em></b></p>\n                    <p>This is the bee that you just saw.</p>\n                    <img src=\"bees-with-color/bee-B2DF.svg\" width=\"200\">\n                    <p><span class=\"greenText\"><b>Successful harvest!</b></span><br>Your pay has increased by $0.02. Your bonus pay is now $0.04.</p>\n            ","response":0,"trial_type":"html-button-response","trial_index":90,"time_elapsed":574885,"internal_node_id":"0.0-4.0-1.41","subject_id":"5e7a2fc429c35307d86105a1","study_id":"60edd13110225f80f9f3709b","session_id":"6196c95c6933d8225a97f379","condition":"contingent","relevant_dimensions":["antennae","legs"],"bee_group":{"antennae":"A","wings":"X","pattern":"X","legs":"F"},"bonus":0.1399999999999999},{"rt":1183,"stimulus":"bees-with-color/bee-B1SF.svg","response":0,"trial_type":"image-button-response","trial_index":91,"time_elapsed":576070,"internal_node_id":"0.0-4.0-0.42","subject_id":"5e7a2fc429c35307d86105a1","study_id":"60edd13110225f80f9f3709b","session_id":"6196c95c6933d8225a97f379","condition":"contingent","relevant_dimensions":["antennae","legs"],"bee_group":{"antennae":"A","wings":"X","pattern":"X","legs":"F"},"action":"harvest","summary":"good-harvest","bonus":0.1399999999999999},{"rt":430.89999997615814,"stimulus":"\n                    <p><b>Action: <em>harvest</em></b></p>\n                    <p>This is the bee that you just saw.</p>\n                    <img src=\"bees-with-color/bee-B1SF.svg\" width=\"200\">\n                    <p><span class=\"greenText\"><b>Successful harvest!</b></span><br>Your pay has increased by $0.02. Your bonus pay is now $0.06.</p>\n            ","response":0,"trial_type":"html-button-response","trial_index":92,"time_elapsed":576501,"internal_node_id":"0.0-4.0-1.42","subject_id":"5e7a2fc429c35307d86105a1","study_id":"60edd13110225f80f9f3709b","session_id":"6196c95c6933d8225a97f379","condition":"contingent","relevant_dimensions":["antennae","legs"],"bee_group":{"antennae":"A","wings":"X","pattern":"X","legs":"F"},"bonus":0.1399999999999999},{"rt":1438.7999999523163,"stimulus":"bees-with-color/bee-B1SM.svg","response":0,"trial_type":"image-button-response","trial_index":93,"time_elapsed":577941,"internal_node_id":"0.0-4.0-0.43","subject_id":"5e7a2fc429c35307d86105a1","study_id":"60edd13110225f80f9f3709b","session_id":"6196c95c6933d8225a97f379","condition":"contingent","relevant_dimensions":["antennae","legs"],"bee_group":{"antennae":"A","wings":"X","pattern":"X","legs":"F"},"action":"harvest","summary":"good-harvest","bonus":0.1399999999999999},{"rt":502.60000002384186,"stimulus":"\n                    <p><b>Action: <em>harvest</em></b></p>\n                    <p>This is the bee that you just saw.</p>\n                    <img src=\"bees-with-color/bee-B1SM.svg\" width=\"200\">\n                    <p><span class=\"greenText\"><b>Successful harvest!</b></span><br>Your pay has increased by $0.02. Your bonus pay is now $0.08.</p>\n            ","response":0,"trial_type":"html-button-response","trial_index":94,"time_elapsed":578445,"internal_node_id":"0.0-4.0-1.43","subject_id":"5e7a2fc429c35307d86105a1","study_id":"60edd13110225f80f9f3709b","session_id":"6196c95c6933d8225a97f379","condition":"contingent","relevant_dimensions":["antennae","legs"],"bee_group":{"antennae":"A","wings":"X","pattern":"X","legs":"F"},"bonus":0.1399999999999999},{"rt":1191.5,"stimulus":"bees-with-color/bee-B2SF.svg","response":0,"trial_type":"image-button-response","trial_index":95,"time_elapsed":579637,"internal_node_id":"0.0-4.0-0.44","subject_id":"5e7a2fc429c35307d86105a1","study_id":"60edd13110225f80f9f3709b","session_id":"6196c95c6933d8225a97f379","condition":"contingent","relevant_dimensions":["antennae","legs"],"bee_group":{"antennae":"A","wings":"X","pattern":"X","legs":"F"},"action":"harvest","summary":"good-harvest","bonus":0.1399999999999999},{"rt":582.5999999046326,"stimulus":"\n                    <p><b>Action: <em>harvest</em></b></p>\n                    <p>This is the bee that you just saw.</p>\n                    <img src=\"bees-with-color/bee-B2SF.svg\" width=\"200\">\n                    <p><span class=\"greenText\"><b>Successful harvest!</b></span><br>Your pay has increased by $0.02. Your bonus pay is now $0.10.</p>\n            ","response":0,"trial_type":"html-button-response","trial_index":96,"time_elapsed":580221,"internal_node_id":"0.0-4.0-1.44","subject_id":"5e7a2fc429c35307d86105a1","study_id":"60edd13110225f80f9f3709b","session_id":"6196c95c6933d8225a97f379","condition":"contingent","relevant_dimensions":["antennae","legs"],"bee_group":{"antennae":"A","wings":"X","pattern":"X","legs":"F"},"bonus":0.1399999999999999},{"rt":3670.899999976158,"stimulus":"bees-with-color/bee-A1DM.svg","response":1,"trial_type":"image-button-response","trial_index":97,"time_elapsed":583893,"internal_node_id":"0.0-4.0-0.45","subject_id":"5e7a2fc429c35307d86105a1","study_id":"60edd13110225f80f9f3709b","session_id":"6196c95c6933d8225a97f379","condition":"contingent","relevant_dimensions":["antennae","legs"],"bee_group":{"antennae":"A","wings":"X","pattern":"X","legs":"F"},"action":"avoid","summary":"bad-avoid","bonus":0.1399999999999999},{"rt":591.2000000476837,"stimulus":"\n                    <p><b>Action: <em>avoid</em></b></p>\n                    <p>This is the bee that you just saw.</p>\n                    <img src=\"bees-with-color/bee-A1DM.svg\" width=\"200\">\n                    <p><br>Your bonus pay is unchanged, and remains at $0.10.</p>\n            ","response":0,"trial_type":"html-button-response","trial_index":98,"time_elapsed":584485,"internal_node_id":"0.0-4.0-1.45","subject_id":"5e7a2fc429c35307d86105a1","study_id":"60edd13110225f80f9f3709b","session_id":"6196c95c6933d8225a97f379","condition":"contingent","relevant_dimensions":["antennae","legs"],"bee_group":{"antennae":"A","wings":"X","pattern":"X","legs":"F"},"bonus":0.1399999999999999},{"rt":4134.899999976158,"stimulus":"bees-with-color/bee-A2SM.svg","response":0,"trial_type":"image-button-response","trial_index":99,"time_elapsed":588621,"internal_node_id":"0.0-4.0-0.46","subject_id":"5e7a2fc429c35307d86105a1","study_id":"60edd13110225f80f9f3709b","session_id":"6196c95c6933d8225a97f379","condition":"contingent","relevant_dimensions":["antennae","legs"],"bee_group":{"antennae":"A","wings":"X","pattern":"X","legs":"F"},"action":"harvest","summary":"good-harvest","bonus":0.1399999999999999},{"rt":630.8999999761581,"stimulus":"\n                    <p><b>Action: <em>harvest</em></b></p>\n                    <p>This is the bee that you just saw.</p>\n                    <img src=\"bees-with-color/bee-A2SM.svg\" width=\"200\">\n                    <p><span class=\"greenText\"><b>Successful harvest!</b></span><br>Your pay has increased by $0.02. Your bonus pay is now $0.12.</p>\n            ","response":0,"trial_type":"html-button-response","trial_index":100,"time_elapsed":589253,"internal_node_id":"0.0-4.0-1.46","subject_id":"5e7a2fc429c35307d86105a1","study_id":"60edd13110225f80f9f3709b","session_id":"6196c95c6933d8225a97f379","condition":"contingent","relevant_dimensions":["antennae","legs"],"bee_group":{"antennae":"A","wings":"X","pattern":"X","legs":"F"},"bonus":0.1399999999999999},{"rt":3550.9000000953674,"stimulus":"bees-with-color/bee-A1SF.svg","response":0,"trial_type":"image-button-response","trial_index":101,"time_elapsed":592805,"internal_node_id":"0.0-4.0-0.47","subject_id":"5e7a2fc429c35307d86105a1","study_id":"60edd13110225f80f9f3709b","session_id":"6196c95c6933d8225a97f379","condition":"contingent","relevant_dimensions":["antennae","legs"],"bee_group":{"antennae":"A","wings":"X","pattern":"X","legs":"F"},"action":"harvest","summary":"bad-harvest","bonus":0.1399999999999999},{"rt":7366.899999976158,"stimulus":"\n                    <p><b>Action: <em>harvest</em></b></p>\n                    <p>This is the bee that you just saw.</p>\n                    <img src=\"bees-with-color/bee-A1SF.svg\" width=\"200\">\n                    <p><span class=\"redText\">Bad choice, the bee was angry.</span><br><b>You have been stung!</b><br>Your pay has been decreased by $0.10. Your bonus pay is now $0.02.</p>\n            ","response":0,"trial_type":"html-button-response","trial_index":102,"time_elapsed":600173,"internal_node_id":"0.0-4.0-1.47","subject_id":"5e7a2fc429c35307d86105a1","study_id":"60edd13110225f80f9f3709b","session_id":"6196c95c6933d8225a97f379","condition":"contingent","relevant_dimensions":["antennae","legs"],"bee_group":{"antennae":"A","wings":"X","pattern":"X","legs":"F"},"bonus":0.1399999999999999},{"rt":11631.399999976158,"stimulus":"bees-with-color/bee-B2SM.svg","response":0,"trial_type":"image-button-response","trial_index":103,"time_elapsed":611806,"internal_node_id":"0.0-4.0-0.48","subject_id":"5e7a2fc429c35307d86105a1","study_id":"60edd13110225f80f9f3709b","session_id":"6196c95c6933d8225a97f379","condition":"contingent","relevant_dimensions":["antennae","legs"],"bee_group":{"antennae":"A","wings":"X","pattern":"X","legs":"F"},"action":"harvest","summary":"good-harvest","bonus":0.1399999999999999},{"rt":862.3999999761581,"stimulus":"\n                    <p><b>Action: <em>harvest</em></b></p>\n                    <p>This is the bee that you just saw.</p>\n                    <img src=\"bees-with-color/bee-B2SM.svg\" width=\"200\">\n                    <p><span class=\"greenText\"><b>Successful harvest!</b></span><br>Your pay has increased by $0.02. Your bonus pay is now $0.04.</p>\n            ","response":0,"trial_type":"html-button-response","trial_index":104,"time_elapsed":612669,"internal_node_id":"0.0-4.0-1.48","subject_id":"5e7a2fc429c35307d86105a1","study_id":"60edd13110225f80f9f3709b","session_id":"6196c95c6933d8225a97f379","condition":"contingent","relevant_dimensions":["antennae","legs"],"bee_group":{"antennae":"A","wings":"X","pattern":"X","legs":"F"},"bonus":0.1399999999999999},{"rt":8582.799999952316,"stimulus":"bees-with-color/bee-A1DM.svg","response":1,"trial_type":"image-button-response","trial_index":105,"time_elapsed":621253,"internal_node_id":"0.0-4.0-0.49","subject_id":"5e7a2fc429c35307d86105a1","study_id":"60edd13110225f80f9f3709b","session_id":"6196c95c6933d8225a97f379","condition":"contingent","relevant_dimensions":["antennae","legs"],"bee_group":{"antennae":"A","wings":"X","pattern":"X","legs":"F"},"action":"avoid","summary":"bad-avoid","bonus":0.1399999999999999},{"rt":646.8000000715256,"stimulus":"\n                    <p><b>Action: <em>avoid</em></b></p>\n                    <p>This is the bee that you just saw.</p>\n                    <img src=\"bees-with-color/bee-A1DM.svg\" width=\"200\">\n                    <p><br>Your bonus pay is unchanged, and remains at $0.04.</p>\n            ","response":0,"trial_type":"html-button-response","trial_index":106,"time_elapsed":621901,"internal_node_id":"0.0-4.0-1.49","subject_id":"5e7a2fc429c35307d86105a1","study_id":"60edd13110225f80f9f3709b","session_id":"6196c95c6933d8225a97f379","condition":"contingent","relevant_dimensions":["antennae","legs"],"bee_group":{"antennae":"A","wings":"X","pattern":"X","legs":"F"},"bonus":0.1399999999999999},{"rt":2598.6999999284744,"stimulus":"bees-with-color/bee-A2DF.svg","response":1,"trial_type":"image-button-response","trial_index":107,"time_elapsed":624501,"internal_node_id":"0.0-4.0-0.50","subject_id":"5e7a2fc429c35307d86105a1","study_id":"60edd13110225f80f9f3709b","session_id":"6196c95c6933d8225a97f379","condition":"contingent","relevant_dimensions":["antennae","legs"],"bee_group":{"antennae":"A","wings":"X","pattern":"X","legs":"F"},"action":"avoid","summary":"good-avoid","bonus":0.1399999999999999},{"rt":534.9000000953674,"stimulus":"\n                    <p><b>Action: <em>avoid</em></b></p>\n                    <p>This is the bee that you just saw.</p>\n                    <img src=\"bees-with-color/bee-A2DF.svg\" width=\"200\">\n                    <p><br>Your bonus pay is unchanged, and remains at $0.04.</p>\n            ","response":0,"trial_type":"html-button-response","trial_index":108,"time_elapsed":625037,"internal_node_id":"0.0-4.0-1.50","subject_id":"5e7a2fc429c35307d86105a1","study_id":"60edd13110225f80f9f3709b","session_id":"6196c95c6933d8225a97f379","condition":"contingent","relevant_dimensions":["antennae","legs"],"bee_group":{"antennae":"A","wings":"X","pattern":"X","legs":"F"},"bonus":0.1399999999999999},{"rt":1830.6000000238419,"stimulus":"bees-with-color/bee-B2DF.svg","response":0,"trial_type":"image-button-response","trial_index":109,"time_elapsed":626869,"internal_node_id":"0.0-4.0-0.51","subject_id":"5e7a2fc429c35307d86105a1","study_id":"60edd13110225f80f9f3709b","session_id":"6196c95c6933d8225a97f379","condition":"contingent","relevant_dimensions":["antennae","legs"],"bee_group":{"antennae":"A","wings":"X","pattern":"X","legs":"F"},"action":"harvest","summary":"good-harvest","bonus":0.1399999999999999},{"rt":527.1000000238419,"stimulus":"\n                    <p><b>Action: <em>harvest</em></b></p>\n                    <p>This is the bee that you just saw.</p>\n                    <img src=\"bees-with-color/bee-B2DF.svg\" width=\"200\">\n                    <p><span class=\"greenText\"><b>Successful harvest!</b></span><br>Your pay has increased by $0.02. Your bonus pay is now $0.06.</p>\n            ","response":0,"trial_type":"html-button-response","trial_index":110,"time_elapsed":627397,"internal_node_id":"0.0-4.0-1.51","subject_id":"5e7a2fc429c35307d86105a1","study_id":"60edd13110225f80f9f3709b","session_id":"6196c95c6933d8225a97f379","condition":"contingent","relevant_dimensions":["antennae","legs"],"bee_group":{"antennae":"A","wings":"X","pattern":"X","legs":"F"},"bonus":0.1399999999999999},{"rt":3367.5999999046326,"stimulus":"bees-with-color/bee-B1SM.svg","response":0,"trial_type":"image-button-response","trial_index":111,"time_elapsed":630766,"internal_node_id":"0.0-4.0-0.52","subject_id":"5e7a2fc429c35307d86105a1","study_id":"60edd13110225f80f9f3709b","session_id":"6196c95c6933d8225a97f379","condition":"contingent","relevant_dimensions":["antennae","legs"],"bee_group":{"antennae":"A","wings":"X","pattern":"X","legs":"F"},"action":"harvest","summary":"good-harvest","bonus":0.1399999999999999},{"rt":502.39999997615814,"stimulus":"\n                    <p><b>Action: <em>harvest</em></b></p>\n                    <p>This is the bee that you just saw.</p>\n                    <img src=\"bees-with-color/bee-B1SM.svg\" width=\"200\">\n                    <p><span class=\"greenText\"><b>Successful harvest!</b></span><br>Your pay has increased by $0.02. Your bonus pay is now $0.08.</p>\n            ","response":0,"trial_type":"html-button-response","trial_index":112,"time_elapsed":631269,"internal_node_id":"0.0-4.0-1.52","subject_id":"5e7a2fc429c35307d86105a1","study_id":"60edd13110225f80f9f3709b","session_id":"6196c95c6933d8225a97f379","condition":"contingent","relevant_dimensions":["antennae","legs"],"bee_group":{"antennae":"A","wings":"X","pattern":"X","legs":"F"},"bonus":0.1399999999999999},{"rt":5127.100000023842,"stimulus":"bees-with-color/bee-A2SF.svg","response":0,"trial_type":"image-button-response","trial_index":113,"time_elapsed":636398,"internal_node_id":"0.0-4.0-0.53","subject_id":"5e7a2fc429c35307d86105a1","study_id":"60edd13110225f80f9f3709b","session_id":"6196c95c6933d8225a97f379","condition":"contingent","relevant_dimensions":["antennae","legs"],"bee_group":{"antennae":"A","wings":"X","pattern":"X","legs":"F"},"action":"harvest","summary":"bad-harvest","bonus":0.1399999999999999},{"rt":1486.4000000953674,"stimulus":"\n                    <p><b>Action: <em>harvest</em></b></p>\n                    <p>This is the bee that you just saw.</p>\n                    <img src=\"bees-with-color/bee-A2SF.svg\" width=\"200\">\n                    <p><span class=\"redText\">Bad choice, the bee was angry.</span><br><b>You have been stung!</b><br>Your pay has been decreased by $0.10. Your bonus pay is now $0.00.</p>\n            ","response":0,"trial_type":"html-button-response","trial_index":114,"time_elapsed":637886,"internal_node_id":"0.0-4.0-1.53","subject_id":"5e7a2fc429c35307d86105a1","study_id":"60edd13110225f80f9f3709b","session_id":"6196c95c6933d8225a97f379","condition":"contingent","relevant_dimensions":["antennae","legs"],"bee_group":{"antennae":"A","wings":"X","pattern":"X","legs":"F"},"bonus":0.1399999999999999},{"rt":3934.600000023842,"stimulus":"bees-with-color/bee-B2DM.svg","response":0,"trial_type":"image-button-response","trial_index":115,"time_elapsed":641822,"internal_node_id":"0.0-4.0-0.54","subject_id":"5e7a2fc429c35307d86105a1","study_id":"60edd13110225f80f9f3709b","session_id":"6196c95c6933d8225a97f379","condition":"contingent","relevant_dimensions":["antennae","legs"],"bee_group":{"antennae":"A","wings":"X","pattern":"X","legs":"F"},"action":"harvest","summary":"good-harvest","bonus":0.1399999999999999},{"rt":582.8999999761581,"stimulus":"\n                    <p><b>Action: <em>harvest</em></b></p>\n                    <p>This is the bee that you just saw.</p>\n                    <img src=\"bees-with-color/bee-B2DM.svg\" width=\"200\">\n                    <p><span class=\"greenText\"><b>Successful harvest!</b></span><br>Your pay has increased by $0.02. Your bonus pay is now $0.02.</p>\n            ","response":0,"trial_type":"html-button-response","trial_index":116,"time_elapsed":642406,"internal_node_id":"0.0-4.0-1.54","subject_id":"5e7a2fc429c35307d86105a1","study_id":"60edd13110225f80f9f3709b","session_id":"6196c95c6933d8225a97f379","condition":"contingent","relevant_dimensions":["antennae","legs"],"bee_group":{"antennae":"A","wings":"X","pattern":"X","legs":"F"},"bonus":0.1399999999999999},{"rt":2806.5,"stimulus":"bees-with-color/bee-B1SF.svg","response":0,"trial_type":"image-button-response","trial_index":117,"time_elapsed":645213,"internal_node_id":"0.0-4.0-0.55","subject_id":"5e7a2fc429c35307d86105a1","study_id":"60edd13110225f80f9f3709b","session_id":"6196c95c6933d8225a97f379","condition":"contingent","relevant_dimensions":["antennae","legs"],"bee_group":{"antennae":"A","wings":"X","pattern":"X","legs":"F"},"action":"harvest","summary":"good-harvest","bonus":0.1399999999999999},{"rt":494.8000000715256,"stimulus":"\n                    <p><b>Action: <em>harvest</em></b></p>\n                    <p>This is the bee that you just saw.</p>\n                    <img src=\"bees-with-color/bee-B1SF.svg\" width=\"200\">\n                    <p><span class=\"greenText\"><b>Successful harvest!</b></span><br>Your pay has increased by $0.02. Your bonus pay is now $0.04.</p>\n            ","response":0,"trial_type":"html-button-response","trial_index":118,"time_elapsed":645710,"internal_node_id":"0.0-4.0-1.55","subject_id":"5e7a2fc429c35307d86105a1","study_id":"60edd13110225f80f9f3709b","session_id":"6196c95c6933d8225a97f379","condition":"contingent","relevant_dimensions":["antennae","legs"],"bee_group":{"antennae":"A","wings":"X","pattern":"X","legs":"F"},"bonus":0.1399999999999999},{"rt":2366.899999976158,"stimulus":"bees-with-color/bee-B2SF.svg","response":0,"trial_type":"image-button-response","trial_index":119,"time_elapsed":648078,"internal_node_id":"0.0-4.0-0.56","subject_id":"5e7a2fc429c35307d86105a1","study_id":"60edd13110225f80f9f3709b","session_id":"6196c95c6933d8225a97f379","condition":"contingent","relevant_dimensions":["antennae","legs"],"bee_group":{"antennae":"A","wings":"X","pattern":"X","legs":"F"},"action":"harvest","summary":"good-harvest","bonus":0.1399999999999999},{"rt":486.5,"stimulus":"\n                    <p><b>Action: <em>harvest</em></b></p>\n                    <p>This is the bee that you just saw.</p>\n                    <img src=\"bees-with-color/bee-B2SF.svg\" width=\"200\">\n                    <p><span class=\"greenText\"><b>Successful harvest!</b></span><br>Your pay has increased by $0.02. Your bonus pay is now $0.06.</p>\n            ","response":0,"trial_type":"html-button-response","trial_index":120,"time_elapsed":648566,"internal_node_id":"0.0-4.0-1.56","subject_id":"5e7a2fc429c35307d86105a1","study_id":"60edd13110225f80f9f3709b","session_id":"6196c95c6933d8225a97f379","condition":"contingent","relevant_dimensions":["antennae","legs"],"bee_group":{"antennae":"A","wings":"X","pattern":"X","legs":"F"},"bonus":0.1399999999999999},{"rt":2655.3000000715256,"stimulus":"bees-with-color/bee-A1DF.svg","response":0,"trial_type":"image-button-response","trial_index":121,"time_elapsed":651222,"internal_node_id":"0.0-4.0-0.57","subject_id":"5e7a2fc429c35307d86105a1","study_id":"60edd13110225f80f9f3709b","session_id":"6196c95c6933d8225a97f379","condition":"contingent","relevant_dimensions":["antennae","legs"],"bee_group":{"antennae":"A","wings":"X","pattern":"X","legs":"F"},"action":"harvest","summary":"bad-harvest","bonus":0.1399999999999999},{"rt":2206.4000000953674,"stimulus":"\n                    <p><b>Action: <em>harvest</em></b></p>\n                    <p>This is the bee that you just saw.</p>\n                    <img src=\"bees-with-color/bee-A1DF.svg\" width=\"200\">\n                    <p><span class=\"redText\">Bad choice, the bee was angry.</span><br><b>You have been stung!</b><br>Your pay has been decreased by $0.10. Your bonus pay is now $0.00.</p>\n            ","response":0,"trial_type":"html-button-response","trial_index":122,"time_elapsed":653429,"internal_node_id":"0.0-4.0-1.57","subject_id":"5e7a2fc429c35307d86105a1","study_id":"60edd13110225f80f9f3709b","session_id":"6196c95c6933d8225a97f379","condition":"contingent","relevant_dimensions":["antennae","legs"],"bee_group":{"antennae":"A","wings":"X","pattern":"X","legs":"F"},"bonus":0.1399999999999999},{"rt":5126.799999952316,"stimulus":"bees-with-color/bee-B1DM.svg","response":0,"trial_type":"image-button-response","trial_index":123,"time_elapsed":658558,"internal_node_id":"0.0-4.0-0.58","subject_id":"5e7a2fc429c35307d86105a1","study_id":"60edd13110225f80f9f3709b","session_id":"6196c95c6933d8225a97f379","condition":"contingent","relevant_dimensions":["antennae","legs"],"bee_group":{"antennae":"A","wings":"X","pattern":"X","legs":"F"},"action":"harvest","summary":"good-harvest","bonus":0.1399999999999999},{"rt":431.2999999523163,"stimulus":"\n                    <p><b>Action: <em>harvest</em></b></p>\n                    <p>This is the bee that you just saw.</p>\n                    <img src=\"bees-with-color/bee-B1DM.svg\" width=\"200\">\n                    <p><span class=\"greenText\"><b>Successful harvest!</b></span><br>Your pay has increased by $0.02. Your bonus pay is now $0.02.</p>\n            ","response":0,"trial_type":"html-button-response","trial_index":124,"time_elapsed":658990,"internal_node_id":"0.0-4.0-1.58","subject_id":"5e7a2fc429c35307d86105a1","study_id":"60edd13110225f80f9f3709b","session_id":"6196c95c6933d8225a97f379","condition":"contingent","relevant_dimensions":["antennae","legs"],"bee_group":{"antennae":"A","wings":"X","pattern":"X","legs":"F"},"bonus":0.1399999999999999},{"rt":998.2999999523163,"stimulus":"bees-with-color/bee-B1DF.svg","response":0,"trial_type":"image-button-response","trial_index":125,"time_elapsed":659990,"internal_node_id":"0.0-4.0-0.59","subject_id":"5e7a2fc429c35307d86105a1","study_id":"60edd13110225f80f9f3709b","session_id":"6196c95c6933d8225a97f379","condition":"contingent","relevant_dimensions":["antennae","legs"],"bee_group":{"antennae":"A","wings":"X","pattern":"X","legs":"F"},"action":"harvest","summary":"good-harvest","bonus":0.1399999999999999},{"rt":358.7999999523163,"stimulus":"\n                    <p><b>Action: <em>harvest</em></b></p>\n                    <p>This is the bee that you just saw.</p>\n                    <img src=\"bees-with-color/bee-B1DF.svg\" width=\"200\">\n                    <p><span class=\"greenText\"><b>Successful harvest!</b></span><br>Your pay has increased by $0.02. Your bonus pay is now $0.04.</p>\n            ","response":0,"trial_type":"html-button-response","trial_index":126,"time_elapsed":660350,"internal_node_id":"0.0-4.0-1.59","subject_id":"5e7a2fc429c35307d86105a1","study_id":"60edd13110225f80f9f3709b","session_id":"6196c95c6933d8225a97f379","condition":"contingent","relevant_dimensions":["antennae","legs"],"bee_group":{"antennae":"A","wings":"X","pattern":"X","legs":"F"},"bonus":0.1399999999999999},{"rt":5975,"stimulus":"bees-with-color/bee-A1SF.svg","response":1,"trial_type":"image-button-response","trial_index":127,"time_elapsed":666326,"internal_node_id":"0.0-4.0-0.60","subject_id":"5e7a2fc429c35307d86105a1","study_id":"60edd13110225f80f9f3709b","session_id":"6196c95c6933d8225a97f379","condition":"contingent","relevant_dimensions":["antennae","legs"],"bee_group":{"antennae":"A","wings":"X","pattern":"X","legs":"F"},"action":"avoid","summary":"good-avoid","bonus":0.1399999999999999},{"rt":470.7999999523163,"stimulus":"\n                    <p><b>Action: <em>avoid</em></b></p>\n                    <p>This is the bee that you just saw.</p>\n                    <img src=\"bees-with-color/bee-A1SF.svg\" width=\"200\">\n                    <p><br>Your bonus pay is unchanged, and remains at $0.04.</p>\n            ","response":0,"trial_type":"html-button-response","trial_index":128,"time_elapsed":666798,"internal_node_id":"0.0-4.0-1.60","subject_id":"5e7a2fc429c35307d86105a1","study_id":"60edd13110225f80f9f3709b","session_id":"6196c95c6933d8225a97f379","condition":"contingent","relevant_dimensions":["antennae","legs"],"bee_group":{"antennae":"A","wings":"X","pattern":"X","legs":"F"},"bonus":0.1399999999999999},{"rt":5334.5,"stimulus":"bees-with-color/bee-A1SM.svg","response":0,"trial_type":"image-button-response","trial_index":129,"time_elapsed":672134,"internal_node_id":"0.0-4.0-0.61","subject_id":"5e7a2fc429c35307d86105a1","study_id":"60edd13110225f80f9f3709b","session_id":"6196c95c6933d8225a97f379","condition":"contingent","relevant_dimensions":["antennae","legs"],"bee_group":{"antennae":"A","wings":"X","pattern":"X","legs":"F"},"action":"harvest","summary":"good-harvest","bonus":0.1399999999999999},{"rt":847.1000000238419,"stimulus":"\n                    <p><b>Action: <em>harvest</em></b></p>\n                    <p>This is the bee that you just saw.</p>\n                    <img src=\"bees-with-color/bee-A1SM.svg\" width=\"200\">\n                    <p><span class=\"greenText\"><b>Successful harvest!</b></span><br>Your pay has increased by $0.02. Your bonus pay is now $0.06.</p>\n            ","response":0,"trial_type":"html-button-response","trial_index":130,"time_elapsed":672982,"internal_node_id":"0.0-4.0-1.61","subject_id":"5e7a2fc429c35307d86105a1","study_id":"60edd13110225f80f9f3709b","session_id":"6196c95c6933d8225a97f379","condition":"contingent","relevant_dimensions":["antennae","legs"],"bee_group":{"antennae":"A","wings":"X","pattern":"X","legs":"F"},"bonus":0.1399999999999999},{"rt":3390.2000000476837,"stimulus":"bees-with-color/bee-A2DM.svg","response":1,"trial_type":"image-button-response","trial_index":131,"time_elapsed":676374,"internal_node_id":"0.0-4.0-0.62","subject_id":"5e7a2fc429c35307d86105a1","study_id":"60edd13110225f80f9f3709b","session_id":"6196c95c6933d8225a97f379","condition":"contingent","relevant_dimensions":["antennae","legs"],"bee_group":{"antennae":"A","wings":"X","pattern":"X","legs":"F"},"action":"avoid","summary":"bad-avoid","bonus":0.1399999999999999},{"rt":462.7999999523163,"stimulus":"\n                    <p><b>Action: <em>avoid</em></b></p>\n                    <p>This is the bee that you just saw.</p>\n                    <img src=\"bees-with-color/bee-A2DM.svg\" width=\"200\">\n                    <p><br>Your bonus pay is unchanged, and remains at $0.06.</p>\n            ","response":0,"trial_type":"html-button-response","trial_index":132,"time_elapsed":676838,"internal_node_id":"0.0-4.0-1.62","subject_id":"5e7a2fc429c35307d86105a1","study_id":"60edd13110225f80f9f3709b","session_id":"6196c95c6933d8225a97f379","condition":"contingent","relevant_dimensions":["antennae","legs"],"bee_group":{"antennae":"A","wings":"X","pattern":"X","legs":"F"},"bonus":0.1399999999999999},{"rt":8094.900000095367,"stimulus":"bees-with-color/bee-A2SM.svg","response":1,"trial_type":"image-button-response","trial_index":133,"time_elapsed":684934,"internal_node_id":"0.0-4.0-0.63","subject_id":"5e7a2fc429c35307d86105a1","study_id":"60edd13110225f80f9f3709b","session_id":"6196c95c6933d8225a97f379","condition":"contingent","relevant_dimensions":["antennae","legs"],"bee_group":{"antennae":"A","wings":"X","pattern":"X","legs":"F"},"action":"avoid","summary":"bad-avoid","bonus":0.1399999999999999},{"rt":526.2999999523163,"stimulus":"\n                    <p><b>Action: <em>avoid</em></b></p>\n                    <p>This is the bee that you just saw.</p>\n                    <img src=\"bees-with-color/bee-A2SM.svg\" width=\"200\">\n                    <p><br>Your bonus pay is unchanged, and remains at $0.06.</p>\n            ","response":0,"trial_type":"html-button-response","trial_index":134,"time_elapsed":685462,"internal_node_id":"0.0-4.0-1.63","subject_id":"5e7a2fc429c35307d86105a1","study_id":"60edd13110225f80f9f3709b","session_id":"6196c95c6933d8225a97f379","condition":"contingent","relevant_dimensions":["antennae","legs"],"bee_group":{"antennae":"A","wings":"X","pattern":"X","legs":"F"},"bonus":0.1399999999999999},{"rt":4687.100000023842,"stimulus":"You have completed the first part of this experiment.<br><br>You will now begin a shorter second part, in which you will receive no feedback.<br>The same rules regarding bonus pay apply.<br><br>Press any key to begin.","response":"g","trial_type":"html-keyboard-response","trial_index":135,"time_elapsed":690151,"internal_node_id":"0.0-5.0","subject_id":"5e7a2fc429c35307d86105a1","study_id":"60edd13110225f80f9f3709b","session_id":"6196c95c6933d8225a97f379","condition":"contingent","relevant_dimensions":["antennae","legs"],"bee_group":{"antennae":"A","wings":"X","pattern":"X","legs":"F"},"bonus":0.1399999999999999},{"rt":17676,"stimulus":"bees-with-color/bee-A1SM.svg","response":1,"trial_type":"image-button-response","trial_index":136,"time_elapsed":707838,"internal_node_id":"0.0-6.0-0.0","subject_id":"5e7a2fc429c35307d86105a1","study_id":"60edd13110225f80f9f3709b","session_id":"6196c95c6933d8225a97f379","condition":"contingent","relevant_dimensions":["antennae","legs"],"bee_group":{"antennae":"A","wings":"X","pattern":"X","legs":"F"},"bonus":0.1399999999999999},{"rt":1238.1000000238419,"stimulus":"bees-with-color/bee-A1SF.svg","response":0,"trial_type":"image-button-response","trial_index":137,"time_elapsed":709078,"internal_node_id":"0.0-6.0-0.1","subject_id":"5e7a2fc429c35307d86105a1","study_id":"60edd13110225f80f9f3709b","session_id":"6196c95c6933d8225a97f379","condition":"contingent","relevant_dimensions":["antennae","legs"],"bee_group":{"antennae":"A","wings":"X","pattern":"X","legs":"F"},"bonus":0.1399999999999999},{"rt":1886.6000000238419,"stimulus":"bees-with-color/bee-B2SM.svg","response":0,"trial_type":"image-button-response","trial_index":138,"time_elapsed":710966,"internal_node_id":"0.0-6.0-0.2","subject_id":"5e7a2fc429c35307d86105a1","study_id":"60edd13110225f80f9f3709b","session_id":"6196c95c6933d8225a97f379","condition":"contingent","relevant_dimensions":["antennae","legs"],"bee_group":{"antennae":"A","wings":"X","pattern":"X","legs":"F"},"bonus":0.1399999999999999},{"rt":5782.5,"stimulus":"bees-with-color/bee-A1DM.svg","response":1,"trial_type":"image-button-response","trial_index":139,"time_elapsed":716749,"internal_node_id":"0.0-6.0-0.3","subject_id":"5e7a2fc429c35307d86105a1","study_id":"60edd13110225f80f9f3709b","session_id":"6196c95c6933d8225a97f379","condition":"contingent","relevant_dimensions":["antennae","legs"],"bee_group":{"antennae":"A","wings":"X","pattern":"X","legs":"F"},"bonus":0.1399999999999999},{"rt":3430.1999999284744,"stimulus":"bees-with-color/bee-A2SF.svg","response":0,"trial_type":"image-button-response","trial_index":140,"time_elapsed":720181,"internal_node_id":"0.0-6.0-0.4","subject_id":"5e7a2fc429c35307d86105a1","study_id":"60edd13110225f80f9f3709b","session_id":"6196c95c6933d8225a97f379","condition":"contingent","relevant_dimensions":["antennae","legs"],"bee_group":{"antennae":"A","wings":"X","pattern":"X","legs":"F"},"bonus":0.1399999999999999},{"rt":1254.0999999046326,"stimulus":"bees-with-color/bee-B2DF.svg","response":0,"trial_type":"image-button-response","trial_index":141,"time_elapsed":721437,"internal_node_id":"0.0-6.0-0.5","subject_id":"5e7a2fc429c35307d86105a1","study_id":"60edd13110225f80f9f3709b","session_id":"6196c95c6933d8225a97f379","condition":"contingent","relevant_dimensions":["antennae","legs"],"bee_group":{"antennae":"A","wings":"X","pattern":"X","legs":"F"},"bonus":0.1399999999999999},{"rt":5382.799999952316,"stimulus":"bees-with-color/bee-A2DM.svg","response":1,"trial_type":"image-button-response","trial_index":142,"time_elapsed":726822,"internal_node_id":"0.0-6.0-0.6","subject_id":"5e7a2fc429c35307d86105a1","study_id":"60edd13110225f80f9f3709b","session_id":"6196c95c6933d8225a97f379","condition":"contingent","relevant_dimensions":["antennae","legs"],"bee_group":{"antennae":"A","wings":"X","pattern":"X","legs":"F"},"bonus":0.1399999999999999},{"rt":1286,"stimulus":"bees-with-color/bee-B2SF.svg","response":0,"trial_type":"image-button-response","trial_index":143,"time_elapsed":728109,"internal_node_id":"0.0-6.0-0.7","subject_id":"5e7a2fc429c35307d86105a1","study_id":"60edd13110225f80f9f3709b","session_id":"6196c95c6933d8225a97f379","condition":"contingent","relevant_dimensions":["antennae","legs"],"bee_group":{"antennae":"A","wings":"X","pattern":"X","legs":"F"},"bonus":0.1399999999999999},{"rt":3278.600000023842,"stimulus":"bees-with-color/bee-B1SM.svg","response":0,"trial_type":"image-button-response","trial_index":144,"time_elapsed":731389,"internal_node_id":"0.0-6.0-0.8","subject_id":"5e7a2fc429c35307d86105a1","study_id":"60edd13110225f80f9f3709b","session_id":"6196c95c6933d8225a97f379","condition":"contingent","relevant_dimensions":["antennae","legs"],"bee_group":{"antennae":"A","wings":"X","pattern":"X","legs":"F"},"bonus":0.1399999999999999},{"rt":990.8999999761581,"stimulus":"bees-with-color/bee-B1SF.svg","response":0,"trial_type":"image-button-response","trial_index":145,"time_elapsed":732382,"internal_node_id":"0.0-6.0-0.9","subject_id":"5e7a2fc429c35307d86105a1","study_id":"60edd13110225f80f9f3709b","session_id":"6196c95c6933d8225a97f379","condition":"contingent","relevant_dimensions":["antennae","legs"],"bee_group":{"antennae":"A","wings":"X","pattern":"X","legs":"F"},"bonus":0.1399999999999999},{"rt":4758.5,"stimulus":"bees-with-color/bee-A1DF.svg","response":1,"trial_type":"image-button-response","trial_index":146,"time_elapsed":737142,"internal_node_id":"0.0-6.0-0.10","subject_id":"5e7a2fc429c35307d86105a1","study_id":"60edd13110225f80f9f3709b","session_id":"6196c95c6933d8225a97f379","condition":"contingent","relevant_dimensions":["antennae","legs"],"bee_group":{"antennae":"A","wings":"X","pattern":"X","legs":"F"},"bonus":0.1399999999999999},{"rt":5341.799999952316,"stimulus":"bees-with-color/bee-B2DM.svg","response":0,"trial_type":"image-button-response","trial_index":147,"time_elapsed":742486,"internal_node_id":"0.0-6.0-0.11","subject_id":"5e7a2fc429c35307d86105a1","study_id":"60edd13110225f80f9f3709b","session_id":"6196c95c6933d8225a97f379","condition":"contingent","relevant_dimensions":["antennae","legs"],"bee_group":{"antennae":"A","wings":"X","pattern":"X","legs":"F"},"bonus":0.1399999999999999},{"rt":7046.199999928474,"stimulus":"bees-with-color/bee-A2DF.svg","response":1,"trial_type":"image-button-response","trial_index":148,"time_elapsed":749534,"internal_node_id":"0.0-6.0-0.12","subject_id":"5e7a2fc429c35307d86105a1","study_id":"60edd13110225f80f9f3709b","session_id":"6196c95c6933d8225a97f379","condition":"contingent","relevant_dimensions":["antennae","legs"],"bee_group":{"antennae":"A","wings":"X","pattern":"X","legs":"F"},"bonus":0.1399999999999999},{"rt":958.1000000238419,"stimulus":"bees-with-color/bee-B1DF.svg","response":0,"trial_type":"image-button-response","trial_index":149,"time_elapsed":750494,"internal_node_id":"0.0-6.0-0.13","subject_id":"5e7a2fc429c35307d86105a1","study_id":"60edd13110225f80f9f3709b","session_id":"6196c95c6933d8225a97f379","condition":"contingent","relevant_dimensions":["antennae","legs"],"bee_group":{"antennae":"A","wings":"X","pattern":"X","legs":"F"},"bonus":0.1399999999999999},{"rt":6062.700000047684,"stimulus":"bees-with-color/bee-A2SM.svg","response":1,"trial_type":"image-button-response","trial_index":150,"time_elapsed":756558,"internal_node_id":"0.0-6.0-0.14","subject_id":"5e7a2fc429c35307d86105a1","study_id":"60edd13110225f80f9f3709b","session_id":"6196c95c6933d8225a97f379","condition":"contingent","relevant_dimensions":["antennae","legs"],"bee_group":{"antennae":"A","wings":"X","pattern":"X","legs":"F"},"bonus":0.1399999999999999},{"rt":2022.4000000953674,"stimulus":"bees-with-color/bee-B1DM.svg","response":0,"trial_type":"image-button-response","trial_index":151,"time_elapsed":758582,"internal_node_id":"0.0-6.0-0.15","subject_id":"5e7a2fc429c35307d86105a1","study_id":"60edd13110225f80f9f3709b","session_id":"6196c95c6933d8225a97f379","condition":"contingent","relevant_dimensions":["antennae","legs"],"bee_group":{"antennae":"A","wings":"X","pattern":"X","legs":"F"},"bonus":0.1399999999999999},{"rt":3510.399999976158,"stimulus":"bees-with-color/bee-A1SM.svg","response":1,"trial_type":"image-button-response","trial_index":152,"time_elapsed":762093,"internal_node_id":"0.0-6.0-0.16","subject_id":"5e7a2fc429c35307d86105a1","study_id":"60edd13110225f80f9f3709b","session_id":"6196c95c6933d8225a97f379","condition":"contingent","relevant_dimensions":["antennae","legs"],"bee_group":{"antennae":"A","wings":"X","pattern":"X","legs":"F"},"bonus":0.1399999999999999},{"rt":1366.5,"stimulus":"bees-with-color/bee-B1DM.svg","response":0,"trial_type":"image-button-response","trial_index":153,"time_elapsed":763461,"internal_node_id":"0.0-6.0-0.17","subject_id":"5e7a2fc429c35307d86105a1","study_id":"60edd13110225f80f9f3709b","session_id":"6196c95c6933d8225a97f379","condition":"contingent","relevant_dimensions":["antennae","legs"],"bee_group":{"antennae":"A","wings":"X","pattern":"X","legs":"F"},"bonus":0.1399999999999999},{"rt":2415,"stimulus":"bees-with-color/bee-A1DF.svg","response":1,"trial_type":"image-button-response","trial_index":154,"time_elapsed":765878,"internal_node_id":"0.0-6.0-0.18","subject_id":"5e7a2fc429c35307d86105a1","study_id":"60edd13110225f80f9f3709b","session_id":"6196c95c6933d8225a97f379","condition":"contingent","relevant_dimensions":["antennae","legs"],"bee_group":{"antennae":"A","wings":"X","pattern":"X","legs":"F"},"bonus":0.1399999999999999},{"rt":6766.600000023842,"stimulus":"bees-with-color/bee-A1DM.svg","response":0,"trial_type":"image-button-response","trial_index":155,"time_elapsed":772645,"internal_node_id":"0.0-6.0-0.19","subject_id":"5e7a2fc429c35307d86105a1","study_id":"60edd13110225f80f9f3709b","session_id":"6196c95c6933d8225a97f379","condition":"contingent","relevant_dimensions":["antennae","legs"],"bee_group":{"antennae":"A","wings":"X","pattern":"X","legs":"F"},"bonus":0.1399999999999999},{"rt":2934.3000000715256,"stimulus":"bees-with-color/bee-A2DM.svg","response":1,"trial_type":"image-button-response","trial_index":156,"time_elapsed":775581,"internal_node_id":"0.0-6.0-0.20","subject_id":"5e7a2fc429c35307d86105a1","study_id":"60edd13110225f80f9f3709b","session_id":"6196c95c6933d8225a97f379","condition":"contingent","relevant_dimensions":["antennae","legs"],"bee_group":{"antennae":"A","wings":"X","pattern":"X","legs":"F"},"bonus":0.1399999999999999},{"rt":926.6000000238419,"stimulus":"bees-with-color/bee-B2SF.svg","response":0,"trial_type":"image-button-response","trial_index":157,"time_elapsed":776509,"internal_node_id":"0.0-6.0-0.21","subject_id":"5e7a2fc429c35307d86105a1","study_id":"60edd13110225f80f9f3709b","session_id":"6196c95c6933d8225a97f379","condition":"contingent","relevant_dimensions":["antennae","legs"],"bee_group":{"antennae":"A","wings":"X","pattern":"X","legs":"F"},"bonus":0.1399999999999999},{"rt":478.89999997615814,"stimulus":"bees-with-color/bee-B2SM.svg","response":0,"trial_type":"image-button-response","trial_index":158,"time_elapsed":776990,"internal_node_id":"0.0-6.0-0.22","subject_id":"5e7a2fc429c35307d86105a1","study_id":"60edd13110225f80f9f3709b","session_id":"6196c95c6933d8225a97f379","condition":"contingent","relevant_dimensions":["antennae","legs"],"bee_group":{"antennae":"A","wings":"X","pattern":"X","legs":"F"},"bonus":0.1399999999999999},{"rt":5974.299999952316,"stimulus":"bees-with-color/bee-A2SF.svg","response":0,"trial_type":"image-button-response","trial_index":159,"time_elapsed":782965,"internal_node_id":"0.0-6.0-0.23","subject_id":"5e7a2fc429c35307d86105a1","study_id":"60edd13110225f80f9f3709b","session_id":"6196c95c6933d8225a97f379","condition":"contingent","relevant_dimensions":["antennae","legs"],"bee_group":{"antennae":"A","wings":"X","pattern":"X","legs":"F"},"bonus":0.1399999999999999},{"rt":1358.2999999523163,"stimulus":"bees-with-color/bee-B2DM.svg","response":0,"trial_type":"image-button-response","trial_index":160,"time_elapsed":784325,"internal_node_id":"0.0-6.0-0.24","subject_id":"5e7a2fc429c35307d86105a1","study_id":"60edd13110225f80f9f3709b","session_id":"6196c95c6933d8225a97f379","condition":"contingent","relevant_dimensions":["antennae","legs"],"