[{"success":true,"trial_type":"fullscreen","trial_index":0,"time_elapsed":1810,"internal_node_id":"0.0-0.0","subject_id":"6014e16b6515752ddfe51263","study_id":"60edd13110225f80f9f3709b","session_id":"6196c7038ed6ab1744f0d2d1","condition":"contingent","relevant_dimensions":["antennae","pattern"],"bee_group":{"antennae":"B","wings":"X","pattern":"D","legs":"X"},"bonus":0.2800000000000011},{"success":true,"timeout":false,"failed_images":[],"failed_audio":[],"failed_video":[],"trial_type":"preload","trial_index":1,"time_elapsed":1853,"internal_node_id":"0.0-1.0","subject_id":"6014e16b6515752ddfe51263","study_id":"60edd13110225f80f9f3709b","session_id":"6196c7038ed6ab1744f0d2d1","condition":"contingent","relevant_dimensions":["antennae","pattern"],"bee_group":{"antennae":"B","wings":"X","pattern":"D","legs":"X"},"bonus":0.2800000000000011},{"rt":1307.2000000476837,"stimulus":"Welcome! Press any key to begin.","response":" ","trial_type":"html-keyboard-response","trial_index":2,"time_elapsed":3160,"internal_node_id":"0.0-2.0","subject_id":"6014e16b6515752ddfe51263","study_id":"60edd13110225f80f9f3709b","session_id":"6196c7038ed6ab1744f0d2d1","condition":"contingent","relevant_dimensions":["antennae","pattern"],"bee_group":{"antennae":"B","wings":"X","pattern":"D","legs":"X"},"bonus":0.2800000000000011},{"view_history":[{"page_index":0,"viewing_time":617.1000000238419},{"page_index":1,"viewing_time":2529.7999999523163},{"page_index":2,"viewing_time":2962},{"page_index":3,"viewing_time":1208.2000000476837},{"page_index":2,"viewing_time":3783.899999976158},{"page_index":3,"viewing_time":4310.899999976158},{"page_index":4,"viewing_time":4630},{"page_index":5,"viewing_time":849},{"page_index":6,"viewing_time":666.1000000238419},{"page_index":7,"viewing_time":805},{"page_index":8,"viewing_time":512},{"page_index":9,"viewing_time":510.89999997615814},{"page_index":10,"viewing_time":387.2000000476837},{"page_index":11,"viewing_time":1194.8999999761581},{"page_index":12,"viewing_time":1058.8999999761581},{"page_index":13,"viewing_time":742.1000000238419},{"page_index":14,"viewing_time":429.89999997615814}],"rt":27198.299999952316,"trial_type":"instructions","trial_index":3,"time_elapsed":30359,"internal_node_id":"0.0-3.0-0.0","subject_id":"6014e16b6515752ddfe51263","study_id":"60edd13110225f80f9f3709b","session_id":"6196c7038ed6ab1744f0d2d1","condition":"contingent","relevant_dimensions":["antennae","pattern"],"bee_group":{"antennae":"B","wings":"X","pattern":"D","legs":"X"},"bonus":0.2800000000000011},{"rt":6164.200000047684,"response":{"Q0":["Two or six legs","Stripes or spots on body","Single or double wings","Antennae or no antennae"]},"question_order":[0],"trial_type":"survey-multi-select","trial_index":4,"time_elapsed":36527,"internal_node_id":"0.0-3.0-1.0","subject_id":"6014e16b6515752ddfe51263","study_id":"60edd13110225f80f9f3709b","session_id":"6196c7038ed6ab1744f0d2d1","condition":"contingent","relevant_dimensions":["antennae","pattern"],"bee_group":{"antennae":"B","wings":"X","pattern":"D","legs":"X"},"correct":true,"bonus":0.2800000000000011},{"rt":5159.399999976158,"response":{"Q1":"Yes.","Q2":"Based on the four features of the bee.","Q3":"You do not learn if it was friendly or dangerous, and do not alter your bonus."},"question_order":[0,1,2],"trial_type":"survey-multi-choice","trial_index":5,"time_elapsed":41690,"internal_node_id":"0.0-3.0-2.0","subject_id":"6014e16b6515752ddfe51263","study_id":"60edd13110225f80f9f3709b","session_id":"6196c7038ed6ab1744f0d2d1","condition":"contingent","relevant_dimensions":["antennae","pattern"],"bee_group":{"antennae":"B","wings":"X","pattern":"D","legs":"X"},"correct":false,"bonus":0.2800000000000011},{"rt":1849.3999999761581,"stimulus":"<p>You did not answer all comprehension questions correctly.<br>Press <b>continue</b> to review the instructions again.</p>","response":0,"trial_type":"html-button-response","trial_index":6,"time_elapsed":43544,"internal_node_id":"0.0-3.0-3.0","subject_id":"6014e16b6515752ddfe51263","study_id":"60edd13110225f80f9f3709b","session_id":"6196c7038ed6ab1744f0d2d1","condition":"contingent","relevant_dimensions":["antennae","pattern"],"bee_group":{"antennae":"B","wings":"X","pattern":"D","legs":"X"},"bonus":0.2800000000000011},{"view_history":[{"page_index":0,"viewing_time":713.6999999284744},{"page_index":1,"viewing_time":545.2000000476837},{"page_index":2,"viewing_time":528.7999999523163},{"page_index":3,"viewing_time":457.89999997615814},{"page_index":4,"viewing_time":492.2000000476837},{"page_index":5,"viewing_time":368},{"page_index":6,"viewing_time":547.1000000238419},{"page_index":7,"viewing_time":794.7999999523163},{"page_index":8,"viewing_time":342.10000002384186},{"page_index":9,"viewing_time":320},{"page_index":10,"viewing_time":351},{"page_index":11,"viewing_time":780},{"page_index":12,"viewing_time":761},{"page_index":13,"viewing_time":736.2000000476837},{"page_index":14,"viewing_time":582.7999999523163}],"rt":8321,"trial_type":"instructions","trial_index":7,"time_elapsed":51866,"internal_node_id":"0.0-3.0-4.0-0.0","subject_id":"6014e16b6515752ddfe51263","study_id":"60edd13110225f80f9f3709b","session_id":"6196c7038ed6ab1744f0d2d1","condition":"contingent","relevant_dimensions":["antennae","pattern"],"bee_group":{"antennae":"B","wings":"X","pattern":"D","legs":"X"},"bonus":0.2800000000000011},{"rt":6418.400000095367,"response":{"Q0":["Two or six legs","Stripes or spots on body","Single or double wings","Antennae or no antennae"]},"question_order":[0],"trial_type":"survey-multi-select","trial_index":8,"time_elapsed":58287,"internal_node_id":"0.0-3.0-4.0-1.0","subject_id":"6014e16b6515752ddfe51263","study_id":"60edd13110225f80f9f3709b","session_id":"6196c7038ed6ab1744f0d2d1","condition":"contingent","relevant_dimensions":["antennae","pattern"],"bee_group":{"antennae":"B","wings":"X","pattern":"D","legs":"X"},"correct":true,"bonus":0.2800000000000011},{"rt":6893.600000023842,"response":{"Q1":"No.","Q2":"Based on the four features of the bee.","Q3":"You do not learn if it was friendly or dangerous, and do not alter your bonus."},"question_order":[0,1,2],"trial_type":"survey-multi-choice","trial_index":9,"time_elapsed":65185,"internal_node_id":"0.0-3.0-4.0-2.0","subject_id":"6014e16b6515752ddfe51263","study_id":"60edd13110225f80f9f3709b","session_id":"6196c7038ed6ab1744f0d2d1","condition":"contingent","relevant_dimensions":["antennae","pattern"],"bee_group":{"antennae":"B","wings":"X","pattern":"D","legs":"X"},"correct":true,"bonus":0.2800000000000011},{"rt":1883.1000000238419,"stimulus":"<p>Congrats, you got everything right<br>When you're ready, click the button below to continue to the experiment.</p>","response":0,"trial_type":"html-button-response","trial_index":10,"time_elapsed":67073,"internal_node_id":"0.0-3.0-4.0-3.0","subject_id":"6014e16b6515752ddfe51263","study_id":"60edd13110225f80f9f3709b","session_id":"6196c7038ed6ab1744f0d2d1","condition":"contingent","relevant_dimensions":["antennae","pattern"],"bee_group":{"antennae":"B","wings":"X","pattern":"D","legs":"X"},"bonus":0.2800000000000011},{"rt":2385,"stimulus":"bees-with-color/bee-B2SM.svg","response":0,"trial_type":"image-button-response","trial_index":11,"time_elapsed":69460,"internal_node_id":"0.0-4.0-0.0","subject_id":"6014e16b6515752ddfe51263","study_id":"60edd13110225f80f9f3709b","session_id":"6196c7038ed6ab1744f0d2d1","condition":"contingent","relevant_dimensions":["antennae","pattern"],"bee_group":{"antennae":"B","wings":"X","pattern":"D","legs":"X"},"action":"harvest","summary":"good-harvest","bonus":0.2800000000000011},{"rt":3381.399999976158,"stimulus":"\n                    <p><b>Action: <em>harvest</em></b></p>\n                    <p>This is the bee that you just saw.</p>\n                    <img src=\"bees-with-color/bee-B2SM.svg\" width=\"200\">\n                    <p><span class=\"greenText\"><b>Successful harvest!</b></span><br>Your pay has increased by $0.02. Your bonus pay is now $0.56.</p>\n            ","response":0,"trial_type":"html-button-response","trial_index":12,"time_elapsed":72843,"internal_node_id":"0.0-4.0-1.0","subject_id":"6014e16b6515752ddfe51263","study_id":"60edd13110225f80f9f3709b","session_id":"6196c7038ed6ab1744f0d2d1","condition":"contingent","relevant_dimensions":["antennae","pattern"],"bee_group":{"antennae":"B","wings":"X","pattern":"D","legs":"X"},"bonus":0.2800000000000011},{"rt":1317.7000000476837,"stimulus":"bees-with-color/bee-A1DF.svg","response":0,"trial_type":"image-button-response","trial_index":13,"time_elapsed":74162,"internal_node_id":"0.0-4.0-0.1","subject_id":"6014e16b6515752ddfe51263","study_id":"60edd13110225f80f9f3709b","session_id":"6196c7038ed6ab1744f0d2d1","condition":"contingent","relevant_dimensions":["antennae","pattern"],"bee_group":{"antennae":"B","wings":"X","pattern":"D","legs":"X"},"action":"harvest","summary":"good-harvest","bonus":0.2800000000000011},{"rt":2330.5,"stimulus":"\n                    <p><b>Action: <em>harvest</em></b></p>\n                    <p>This is the bee that you just saw.</p>\n                    <img src=\"bees-with-color/bee-A1DF.svg\" width=\"200\">\n                    <p><span class=\"greenText\"><b>Successful harvest!</b></span><br>Your pay has increased by $0.02. Your bonus pay is now $0.58.</p>\n            ","response":0,"trial_type":"html-button-response","trial_index":14,"time_elapsed":76494,"internal_node_id":"0.0-4.0-1.1","subject_id":"6014e16b6515752ddfe51263","study_id":"60edd13110225f80f9f3709b","session_id":"6196c7038ed6ab1744f0d2d1","condition":"contingent","relevant_dimensions":["antennae","pattern"],"bee_group":{"antennae":"B","wings":"X","pattern":"D","legs":"X"},"bonus":0.2800000000000011},{"rt":1238.6000000238419,"stimulus":"bees-with-color/bee-B2DF.svg","response":1,"trial_type":"image-button-response","trial_index":15,"time_elapsed":77734,"internal_node_id":"0.0-4.0-0.2","subject_id":"6014e16b6515752ddfe51263","study_id":"60edd13110225f80f9f3709b","session_id":"6196c7038ed6ab1744f0d2d1","condition":"contingent","relevant_dimensions":["antennae","pattern"],"bee_group":{"antennae":"B","wings":"X","pattern":"D","legs":"X"},"action":"avoid","summary":"good-avoid","bonus":0.2800000000000011},{"rt":1666.5,"stimulus":"\n                    <p><b>Action: <em>avoid</em></b></p>\n                    <p>This is the bee that you just saw.</p>\n                    <img src=\"bees-with-color/bee-B2DF.svg\" width=\"200\">\n                    <p><br>Your bonus pay is unchanged, and remains at $0.58.</p>\n            ","response":0,"trial_type":"html-button-response","trial_index":16,"time_elapsed":79402,"internal_node_id":"0.0-4.0-1.2","subject_id":"6014e16b6515752ddfe51263","study_id":"60edd13110225f80f9f3709b","session_id":"6196c7038ed6ab1744f0d2d1","condition":"contingent","relevant_dimensions":["antennae","pattern"],"bee_group":{"antennae":"B","wings":"X","pattern":"D","legs":"X"},"bonus":0.2800000000000011},{"rt":757.6000000238419,"stimulus":"bees-with-color/bee-B1SM.svg","response":0,"trial_type":"image-button-response","trial_index":17,"time_elapsed":80161,"internal_node_id":"0.0-4.0-0.3","subject_id":"6014e16b6515752ddfe51263","study_id":"60edd13110225f80f9f3709b","session_id":"6196c7038ed6ab1744f0d2d1","condition":"contingent","relevant_dimensions":["antennae","pattern"],"bee_group":{"antennae":"B","wings":"X","pattern":"D","legs":"X"},"action":"harvest","summary":"good-harvest","bonus":0.2800000000000011},{"rt":799.7000000476837,"stimulus":"\n                    <p><b>Action: <em>harvest</em></b></p>\n                    <p>This is the bee that you just saw.</p>\n                    <img src=\"bees-with-color/bee-B1SM.svg\" width=\"200\">\n                    <p><span class=\"greenText\"><b>Successful harvest!</b></span><br>Your pay has increased by $0.02. Your bonus pay is now $0.60.</p>\n            ","response":0,"trial_type":"html-button-response","trial_index":18,"time_elapsed":80962,"internal_node_id":"0.0-4.0-1.3","subject_id":"6014e16b6515752ddfe51263","study_id":"60edd13110225f80f9f3709b","session_id":"6196c7038ed6ab1744f0d2d1","condition":"contingent","relevant_dimensions":["antennae","pattern"],"bee_group":{"antennae":"B","wings":"X","pattern":"D","legs":"X"},"bonus":0.2800000000000011},{"rt":1088.8999999761581,"stimulus":"bees-with-color/bee-B2DM.svg","response":0,"trial_type":"image-button-response","trial_index":19,"time_elapsed":82052,"internal_node_id":"0.0-4.0-0.4","subject_id":"6014e16b6515752ddfe51263","study_id":"60edd13110225f80f9f3709b","session_id":"6196c7038ed6ab1744f0d2d1","condition":"contingent","relevant_dimensions":["antennae","pattern"],"bee_group":{"antennae":"B","wings":"X","pattern":"D","legs":"X"},"action":"harvest","summary":"bad-harvest","bonus":0.2800000000000011},{"rt":911.5,"stimulus":"\n                    <p><b>Action: <em>harvest</em></b></p>\n                    <p>This is the bee that you just saw.</p>\n                    <img src=\"bees-with-color/bee-B2DM.svg\" width=\"200\">\n                    <p><span class=\"redText\">Bad choice, the bee was angry.</span><br><b>You have been stung!</b><br>Your pay has been decreased by $0.10. Your bonus pay is now $0.50.</p>\n            ","response":0,"trial_type":"html-button-response","trial_index":20,"time_elapsed":82965,"internal_node_id":"0.0-4.0-1.4","subject_id":"6014e16b6515752ddfe51263","study_id":"60edd13110225f80f9f3709b","session_id":"6196c7038ed6ab1744f0d2d1","condition":"contingent","relevant_dimensions":["antennae","pattern"],"bee_group":{"antennae":"B","wings":"X","pattern":"D","legs":"X"},"bonus":0.2800000000000011},{"rt":839.7000000476837,"stimulus":"bees-with-color/bee-A1SM.svg","response":1,"trial_type":"image-button-response","trial_index":21,"time_elapsed":83806,"internal_node_id":"0.0-4.0-0.5","subject_id":"6014e16b6515752ddfe51263","study_id":"60edd13110225f80f9f3709b","session_id":"6196c7038ed6ab1744f0d2d1","condition":"contingent","relevant_dimensions":["antennae","pattern"],"bee_group":{"antennae":"B","wings":"X","pattern":"D","legs":"X"},"action":"avoid","summary":"bad-avoid","bonus":0.2800000000000011},{"rt":727.7000000476837,"stimulus":"\n                    <p><b>Action: <em>avoid</em></b></p>\n                    <p>This is the bee that you just saw.</p>\n                    <img src=\"bees-with-color/bee-A1SM.svg\" width=\"200\">\n                    <p><br>Your bonus pay is unchanged, and remains at $0.50.</p>\n            ","response":0,"trial_type":"html-button-response","trial_index":22,"time_elapsed":84535,"internal_node_id":"0.0-4.0-1.5","subject_id":"6014e16b6515752ddfe51263","study_id":"60edd13110225f80f9f3709b","session_id":"6196c7038ed6ab1744f0d2d1","condition":"contingent","relevant_dimensions":["antennae","pattern"],"bee_group":{"antennae":"B","wings":"X","pattern":"D","legs":"X"},"bonus":0.2800000000000011},{"rt":689.8999999761581,"stimulus":"bees-with-color/bee-A1SF.svg","response":0,"trial_type":"image-button-response","trial_index":23,"time_elapsed":85226,"internal_node_id":"0.0-4.0-0.6","subject_id":"6014e16b6515752ddfe51263","study_id":"60edd13110225f80f9f3709b","session_id":"6196c7038ed6ab1744f0d2d1","condition":"contingent","relevant_dimensions":["antennae","pattern"],"bee_group":{"antennae":"B","wings":"X","pattern":"D","legs":"X"},"action":"harvest","summary":"good-harvest","bonus":0.2800000000000011},{"rt":814.1000000238419,"stimulus":"\n                    <p><b>Action: <em>harvest</em></b></p>\n                    <p>This is the bee that you just saw.</p>\n                    <img src=\"bees-with-color/bee-A1SF.svg\" width=\"200\">\n                    <p><span class=\"greenText\"><b>Successful harvest!</b></span><br>Your pay has increased by $0.02. Your bonus pay is now $0.52.</p>\n            ","response":0,"trial_type":"html-button-response","trial_index":24,"time_elapsed":86041,"internal_node_id":"0.0-4.0-1.6","subject_id":"6014e16b6515752ddfe51263","study_id":"60edd13110225f80f9f3709b","session_id":"6196c7038ed6ab1744f0d2d1","condition":"contingent","relevant_dimensions":["antennae","pattern"],"bee_group":{"antennae":"B","wings":"X","pattern":"D","legs":"X"},"bonus":0.2800000000000011},{"rt":875.8999999761581,"stimulus":"bees-with-color/bee-A1DM.svg","response":0,"trial_type":"image-button-response","trial_index":25,"time_elapsed":86918,"internal_node_id":"0.0-4.0-0.7","subject_id":"6014e16b6515752ddfe51263","study_id":"60edd13110225f80f9f3709b","session_id":"6196c7038ed6ab1744f0d2d1","condition":"contingent","relevant_dimensions":["antennae","pattern"],"bee_group":{"antennae":"B","wings":"X","pattern":"D","legs":"X"},"action":"harvest","summary":"good-harvest","bonus":0.2800000000000011},{"rt":607,"stimulus":"\n                    <p><b>Action: <em>harvest</em></b></p>\n                    <p>This is the bee that you just saw.</p>\n                    <img src=\"bees-with-color/bee-A1DM.svg\" width=\"200\">\n                    <p><span class=\"greenText\"><b>Successful harvest!</b></span><br>Your pay has increased by $0.02. Your bonus pay is now $0.54.</p>\n            ","response":0,"trial_type":"html-button-response","trial_index":26,"time_elapsed":87526,"internal_node_id":"0.0-4.0-1.7","subject_id":"6014e16b6515752ddfe51263","study_id":"60edd13110225f80f9f3709b","session_id":"6196c7038ed6ab1744f0d2d1","condition":"contingent","relevant_dimensions":["antennae","pattern"],"bee_group":{"antennae":"B","wings":"X","pattern":"D","legs":"X"},"bonus":0.2800000000000011},{"rt":691.7000000476837,"stimulus":"bees-with-color/bee-A2DF.svg","response":0,"trial_type":"image-button-response","trial_index":27,"time_elapsed":88219,"internal_node_id":"0.0-4.0-0.8","subject_id":"6014e16b6515752ddfe51263","study_id":"60edd13110225f80f9f3709b","session_id":"6196c7038ed6ab1744f0d2d1","condition":"contingent","relevant_dimensions":["antennae","pattern"],"bee_group":{"antennae":"B","wings":"X","pattern":"D","legs":"X"},"action":"harvest","summary":"good-harvest","bonus":0.2800000000000011},{"rt":724,"stimulus":"\n                    <p><b>Action: <em>harvest</em></b></p>\n                    <p>This is the bee that you just saw.</p>\n                    <img src=\"bees-with-color/bee-A2DF.svg\" width=\"200\">\n                    <p><span class=\"greenText\"><b>Successful harvest!</b></span><br>Your pay has increased by $0.02. Your bonus pay is now $0.56.</p>\n            ","response":0,"trial_type":"html-button-response","trial_index":28,"time_elapsed":88944,"internal_node_id":"0.0-4.0-1.8","subject_id":"6014e16b6515752ddfe51263","study_id":"60edd13110225f80f9f3709b","session_id":"6196c7038ed6ab1744f0d2d1","condition":"contingent","relevant_dimensions":["antennae","pattern"],"bee_group":{"antennae":"B","wings":"X","pattern":"D","legs":"X"},"bonus":0.2800000000000011},{"rt":1055,"stimulus":"bees-with-color/bee-B1SF.svg","response":1,"trial_type":"image-button-response","trial_index":29,"time_elapsed":90000,"internal_node_id":"0.0-4.0-0.9","subject_id":"6014e16b6515752ddfe51263","study_id":"60edd13110225f80f9f3709b","session_id":"6196c7038ed6ab1744f0d2d1","condition":"contingent","relevant_dimensions":["antennae","pattern"],"bee_group":{"antennae":"B","wings":"X","pattern":"D","legs":"X"},"action":"avoid","summary":"bad-avoid","bonus":0.2800000000000011},{"rt":649.2000000476837,"stimulus":"\n                    <p><b>Action: <em>avoid</em></b></p>\n                    <p>This is the bee that you just saw.</p>\n                    <img src=\"bees-with-color/bee-B1SF.svg\" width=\"200\">\n                    <p><br>Your bonus pay is unchanged, and remains at $0.56.</p>\n            ","response":0,"trial_type":"html-button-response","trial_index":30,"time_elapsed":90651,"internal_node_id":"0.0-4.0-1.9","subject_id":"6014e16b6515752ddfe51263","study_id":"60edd13110225f80f9f3709b","session_id":"6196c7038ed6ab1744f0d2d1","condition":"contingent","relevant_dimensions":["antennae","pattern"],"bee_group":{"antennae":"B","wings":"X","pattern":"D","legs":"X"},"bonus":0.2800000000000011},{"rt":1046.3999999761581,"stimulus":"bees-with-color/bee-B2SF.svg","response":1,"trial_type":"image-button-response","trial_index":31,"time_elapsed":91698,"internal_node_id":"0.0-4.0-0.10","subject_id":"6014e16b6515752ddfe51263","study_id":"60edd13110225f80f9f3709b","session_id":"6196c7038ed6ab1744f0d2d1","condition":"contingent","relevant_dimensions":["antennae","pattern"],"bee_group":{"antennae":"B","wings":"X","pattern":"D","legs":"X"},"action":"avoid","summary":"bad-avoid","bonus":0.2800000000000011},{"rt":504.8000000715256,"stimulus":"\n                    <p><b>Action: <em>avoid</em></b></p>\n                    <p>This is the bee that you just saw.</p>\n                    <img src=\"bees-with-color/bee-B2SF.svg\" width=\"200\">\n                    <p><br>Your bonus pay is unchanged, and remains at $0.56.</p>\n            ","response":0,"trial_type":"html-button-response","trial_index":32,"time_elapsed":92204,"internal_node_id":"0.0-4.0-1.10","subject_id":"6014e16b6515752ddfe51263","study_id":"60edd13110225f80f9f3709b","session_id":"6196c7038ed6ab1744f0d2d1","condition":"contingent","relevant_dimensions":["antennae","pattern"],"bee_group":{"antennae":"B","wings":"X","pattern":"D","legs":"X"},"bonus":0.2800000000000011},{"rt":666.8999999761581,"stimulus":"bees-with-color/bee-B1DM.svg","response":0,"trial_type":"image-button-response","trial_index":33,"time_elapsed":92872,"internal_node_id":"0.0-4.0-0.11","subject_id":"6014e16b6515752ddfe51263","study_id":"60edd13110225f80f9f3709b","session_id":"6196c7038ed6ab1744f0d2d1","condition":"contingent","relevant_dimensions":["antennae","pattern"],"bee_group":{"antennae":"B","wings":"X","pattern":"D","legs":"X"},"action":"harvest","summary":"bad-harvest","bonus":0.2800000000000011},{"rt":1056.8999999761581,"stimulus":"\n                    <p><b>Action: <em>harvest</em></b></p>\n                    <p>This is the bee that you just saw.</p>\n                    <img src=\"bees-with-color/bee-B1DM.svg\" width=\"200\">\n                    <p><span class=\"redText\">Bad choice, the bee was angry.</span><br><b>You have been stung!</b><br>Your pay has been decreased by $0.10. Your bonus pay is now $0.46.</p>\n            ","response":0,"trial_type":"html-button-response","trial_index":34,"time_elapsed":93930,"internal_node_id":"0.0-4.0-1.11","subject_id":"6014e16b6515752ddfe51263","study_id":"60edd13110225f80f9f3709b","session_id":"6196c7038ed6ab1744f0d2d1","condition":"contingent","relevant_dimensions":["antennae","pattern"],"bee_group":{"antennae":"B","wings":"X","pattern":"D","legs":"X"},"bonus":0.2800000000000011},{"rt":843.8000000715256,"stimulus":"bees-with-color/bee-A2SM.svg","response":0,"trial_type":"image-button-response","trial_index":35,"time_elapsed":94775,"internal_node_id":"0.0-4.0-0.12","subject_id":"6014e16b6515752ddfe51263","study_id":"60edd13110225f80f9f3709b","session_id":"6196c7038ed6ab1744f0d2d1","condition":"contingent","relevant_dimensions":["antennae","pattern"],"bee_group":{"antennae":"B","wings":"X","pattern":"D","legs":"X"},"action":"harvest","summary":"good-harvest","bonus":0.2800000000000011},{"rt":559.8000000715256,"stimulus":"\n                    <p><b>Action: <em>harvest</em></b></p>\n                    <p>This is the bee that you just saw.</p>\n                    <img src=\"bees-with-color/bee-A2SM.svg\" width=\"200\">\n                    <p><span class=\"greenText\"><b>Successful harvest!</b></span><br>Your pay has increased by $0.02. Your bonus pay is now $0.48.</p>\n            ","response":0,"trial_type":"html-button-response","trial_index":36,"time_elapsed":95336,"internal_node_id":"0.0-4.0-1.12","subject_id":"6014e16b6515752ddfe51263","study_id":"60edd13110225f80f9f3709b","session_id":"6196c7038ed6ab1744f0d2d1","condition":"contingent","relevant_dimensions":["antennae","pattern"],"bee_group":{"antennae":"B","wings":"X","pattern":"D","legs":"X"},"bonus":0.2800000000000011},{"rt":1516.1000000238419,"stimulus":"bees-with-color/bee-B1DF.svg","response":0,"trial_type":"image-button-response","trial_index":37,"time_elapsed":96853,"internal_node_id":"0.0-4.0-0.13","subject_id":"6014e16b6515752ddfe51263","study_id":"60edd13110225f80f9f3709b","session_id":"6196c7038ed6ab1744f0d2d1","condition":"contingent","relevant_dimensions":["antennae","pattern"],"bee_group":{"antennae":"B","wings":"X","pattern":"D","legs":"X"},"action":"harvest","summary":"bad-harvest","bonus":0.2800000000000011},{"rt":1188.7000000476837,"stimulus":"\n                    <p><b>Action: <em>harvest</em></b></p>\n                    <p>This is the bee that you just saw.</p>\n                    <img src=\"bees-with-color/bee-B1DF.svg\" width=\"200\">\n                    <p><span class=\"redText\">Bad choice, the bee was angry.</span><br><b>You have been stung!</b><br>Your pay has been decreased by $0.10. Your bonus pay is now $0.38.</p>\n            ","response":0,"trial_type":"html-button-response","trial_index":38,"time_elapsed":98043,"internal_node_id":"0.0-4.0-1.13","subject_id":"6014e16b6515752ddfe51263","study_id":"60edd13110225f80f9f3709b","session_id":"6196c7038ed6ab1744f0d2d1","condition":"contingent","relevant_dimensions":["antennae","pattern"],"bee_group":{"antennae":"B","wings":"X","pattern":"D","legs":"X"},"bonus":0.2800000000000011},{"rt":674.8000000715256,"stimulus":"bees-with-color/bee-A2SF.svg","response":1,"trial_type":"image-button-response","trial_index":39,"time_elapsed":98719,"internal_node_id":"0.0-4.0-0.14","subject_id":"6014e16b6515752ddfe51263","study_id":"60edd13110225f80f9f3709b","session_id":"6196c7038ed6ab1744f0d2d1","condition":"contingent","relevant_dimensions":["antennae","pattern"],"bee_group":{"antennae":"B","wings":"X","pattern":"D","legs":"X"},"action":"avoid","summary":"bad-avoid","bonus":0.2800000000000011},{"rt":582.7000000476837,"stimulus":"\n                    <p><b>Action: <em>avoid</em></b></p>\n                    <p>This is the bee that you just saw.</p>\n                    <img src=\"bees-with-color/bee-A2SF.svg\" width=\"200\">\n                    <p><br>Your bonus pay is unchanged, and remains at $0.38.</p>\n            ","response":0,"trial_type":"html-button-response","trial_index":40,"time_elapsed":99303,"internal_node_id":"0.0-4.0-1.14","subject_id":"6014e16b6515752ddfe51263","study_id":"60edd13110225f80f9f3709b","session_id":"6196c7038ed6ab1744f0d2d1","condition":"contingent","relevant_dimensions":["antennae","pattern"],"bee_group":{"antennae":"B","wings":"X","pattern":"D","legs":"X"},"bonus":0.2800000000000011},{"rt":594.3999999761581,"stimulus":"bees-with-color/bee-A2DM.svg","response":0,"trial_type":"image-button-response","trial_index":41,"time_elapsed":99899,"internal_node_id":"0.0-4.0-0.15","subject_id":"6014e16b6515752ddfe51263","study_id":"60edd13110225f80f9f3709b","session_id":"6196c7038ed6ab1744f0d2d1","condition":"contingent","relevant_dimensions":["antennae","pattern"],"bee_group":{"antennae":"B","wings":"X","pattern":"D","legs":"X"},"action":"harvest","summary":"good-harvest","bonus":0.2800000000000011},{"rt":709.8999999761581,"stimulus":"\n                    <p><b>Action: <em>harvest</em></b></p>\n                    <p>This is the bee that you just saw.</p>\n                    <img src=\"bees-with-color/bee-A2DM.svg\" width=\"200\">\n                    <p><span class=\"greenText\"><b>Successful harvest!</b></span><br>Your pay has increased by $0.02. Your bonus pay is now $0.40.</p>\n            ","response":0,"trial_type":"html-button-response","trial_index":42,"time_elapsed":100610,"internal_node_id":"0.0-4.0-1.15","subject_id":"6014e16b6515752ddfe51263","study_id":"60edd13110225f80f9f3709b","session_id":"6196c7038ed6ab1744f0d2d1","condition":"contingent","relevant_dimensions":["antennae","pattern"],"bee_group":{"antennae":"B","wings":"X","pattern":"D","legs":"X"},"bonus":0.2800000000000011},{"rt":540.1000000238419,"stimulus":"bees-with-color/bee-B2SF.svg","response":0,"trial_type":"image-button-response","trial_index":43,"time_elapsed":101151,"internal_node_id":"0.0-4.0-0.16","subject_id":"6014e16b6515752ddfe51263","study_id":"60edd13110225f80f9f3709b","session_id":"6196c7038ed6ab1744f0d2d1","condition":"contingent","relevant_dimensions":["antennae","pattern"],"bee_group":{"antennae":"B","wings":"X","pattern":"D","legs":"X"},"action":"harvest","summary":"good-harvest","bonus":0.2800000000000011},{"rt":732,"stimulus":"\n                    <p><b>Action: <em>harvest</em></b></p>\n                    <p>This is the bee that you just saw.</p>\n                    <img src=\"bees-with-color/bee-B2SF.svg\" width=\"200\">\n                    <p><span class=\"greenText\"><b>Successful harvest!</b></span><br>Your pay has increased by $0.02. Your bonus pay is now $0.42.</p>\n            ","response":0,"trial_type":"html-button-response","trial_index":44,"time_elapsed":101884,"internal_node_id":"0.0-4.0-1.16","subject_id":"6014e16b6515752ddfe51263","study_id":"60edd13110225f80f9f3709b","session_id":"6196c7038ed6ab1744f0d2d1","condition":"contingent","relevant_dimensions":["antennae","pattern"],"bee_group":{"antennae":"B","wings":"X","pattern":"D","legs":"X"},"bonus":0.2800000000000011},{"rt":795,"stimulus":"bees-with-color/bee-B2DM.svg","response":1,"trial_type":"image-button-response","trial_index":45,"time_elapsed":102680,"internal_node_id":"0.0-4.0-0.17","subject_id":"6014e16b6515752ddfe51263","study_id":"60edd13110225f80f9f3709b","session_id":"6196c7038ed6ab1744f0d2d1","condition":"contingent","relevant_dimensions":["antennae","pattern"],"bee_group":{"antennae":"B","wings":"X","pattern":"D","legs":"X"},"action":"avoid","summary":"good-avoid","bonus":0.2800000000000011},{"rt":511.7999999523163,"stimulus":"\n                    <p><b>Action: <em>avoid</em></b></p>\n                    <p>This is the bee that you just saw.</p>\n                    <img src=\"bees-with-color/bee-B2DM.svg\" width=\"200\">\n                    <p><br>Your bonus pay is unchanged, and remains at $0.42.</p>\n            ","response":0,"trial_type":"html-button-response","trial_index":46,"time_elapsed":103193,"internal_node_id":"0.0-4.0-1.17","subject_id":"6014e16b6515752ddfe51263","study_id":"60edd13110225f80f9f3709b","session_id":"6196c7038ed6ab1744f0d2d1","condition":"contingent","relevant_dimensions":["antennae","pattern"],"bee_group":{"antennae":"B","wings":"X","pattern":"D","legs":"X"},"bonus":0.2800000000000011},{"rt":1160.2000000476837,"stimulus":"bees-with-color/bee-A1SM.svg","response":1,"trial_type":"image-button-response","trial_index":47,"time_elapsed":104354,"internal_node_id":"0.0-4.0-0.18","subject_id":"6014e16b6515752ddfe51263","study_id":"60edd13110225f80f9f3709b","session_id":"6196c7038ed6ab1744f0d2d1","condition":"contingent","relevant_dimensions":["antennae","pattern"],"bee_group":{"antennae":"B","wings":"X","pattern":"D","legs":"X"},"action":"avoid","summary":"bad-avoid","bonus":0.2800000000000011},{"rt":551.8999999761581,"stimulus":"\n                    <p><b>Action: <em>avoid</em></b></p>\n                    <p>This is the bee that you just saw.</p>\n                    <img src=\"bees-with-color/bee-A1SM.svg\" width=\"200\">\n                    <p><br>Your bonus pay is unchanged, and remains at $0.42.</p>\n            ","response":0,"trial_type":"html-button-response","trial_index":48,"time_elapsed":104907,"internal_node_id":"0.0-4.0-1.18","subject_id":"6014e16b6515752ddfe51263","study_id":"60edd13110225f80f9f3709b","session_id":"6196c7038ed6ab1744f0d2d1","condition":"contingent","relevant_dimensions":["antennae","pattern"],"bee_group":{"antennae":"B","wings":"X","pattern":"D","legs":"X"},"bonus":0.2800000000000011},{"rt":722,"stimulus":"bees-with-color/bee-A1DM.svg","response":0,"trial_type":"image-button-response","trial_index":49,"time_elapsed":105630,"internal_node_id":"0.0-4.0-0.19","subject_id":"6014e16b6515752ddfe51263","study_id":"60edd13110225f80f9f3709b","session_id":"6196c7038ed6ab1744f0d2d1","condition":"contingent","relevant_dimensions":["antennae","pattern"],"bee_group":{"antennae":"B","wings":"X","pattern":"D","legs":"X"},"action":"harvest","summary":"good-harvest","bonus":0.2800000000000011},{"rt":624.8999999761581,"stimulus":"\n                    <p><b>Action: <em>harvest</em></b></p>\n                    <p>This is the bee that you just saw.</p>\n                    <img src=\"bees-with-color/bee-A1DM.svg\" width=\"200\">\n                    <p><span class=\"greenText\"><b>Successful harvest!</b></span><br>Your pay has increased by $0.02. Your bonus pay is now $0.44.</p>\n            ","response":0,"trial_type":"html-button-response","trial_index":50,"time_elapsed":106256,"internal_node_id":"0.0-4.0-1.19","subject_id":"6014e16b6515752ddfe51263","study_id":"60edd13110225f80f9f3709b","session_id":"6196c7038ed6ab1744f0d2d1","condition":"contingent","relevant_dimensions":["antennae","pattern"],"bee_group":{"antennae":"B","wings":"X","pattern":"D","legs":"X"},"bonus":0.2800000000000011},{"rt":1370.8999999761581,"stimulus":"bees-with-color/bee-A2DF.svg","response":0,"trial_type":"image-button-response","trial_index":51,"time_elapsed":107628,"internal_node_id":"0.0-4.0-0.20","subject_id":"6014e16b6515752ddfe51263","study_id":"60edd13110225f80f9f3709b","session_id":"6196c7038ed6ab1744f0d2d1","condition":"contingent","relevant_dimensions":["antennae","pattern"],"bee_group":{"antennae":"B","wings":"X","pattern":"D","legs":"X"},"action":"harvest","summary":"good-harvest","bonus":0.2800000000000011},{"rt":719.9000000953674,"stimulus":"\n                    <p><b>Action: <em>harvest</em></b></p>\n                    <p>This is the bee that you just saw.</p>\n                    <img src=\"bees-with-color/bee-A2DF.svg\" width=\"200\">\n                    <p><span class=\"greenText\"><b>Successful harvest!</b></span><br>Your pay has increased by $0.02. Your bonus pay is now $0.46.</p>\n            ","response":0,"trial_type":"html-button-response","trial_index":52,"time_elapsed":108349,"internal_node_id":"0.0-4.0-1.20","subject_id":"6014e16b6515752ddfe51263","study_id":"60edd13110225f80f9f3709b","session_id":"6196c7038ed6ab1744f0d2d1","condition":"contingent","relevant_dimensions":["antennae","pattern"],"bee_group":{"antennae":"B","wings":"X","pattern":"D","legs":"X"},"bonus":0.2800000000000011},{"rt":833.8000000715256,"stimulus":"bees-with-color/bee-B1DF.svg","response":1,"trial_type":"image-button-response","trial_index":53,"time_elapsed":109184,"internal_node_id":"0.0-4.0-0.21","subject_id":"6014e16b6515752ddfe51263","study_id":"60edd13110225f80f9f3709b","session_id":"6196c7038ed6ab1744f0d2d1","condition":"contingent","relevant_dimensions":["antennae","pattern"],"bee_group":{"antennae":"B","wings":"X","pattern":"D","legs":"X"},"action":"avoid","summary":"good-avoid","bonus":0.2800000000000011},{"rt":466.89999997615814,"stimulus":"\n                    <p><b>Action: <em>avoid</em></b></p>\n                    <p>This is the bee that you just saw.</p>\n                    <img src=\"bees-with-color/bee-B1DF.svg\" width=\"200\">\n                    <p><br>Your bonus pay is unchanged, and remains at $0.46.</p>\n            ","response":0,"trial_type":"html-button-response","trial_index":54,"time_elapsed":109652,"internal_node_id":"0.0-4.0-1.21","subject_id":"6014e16b6515752ddfe51263","study_id":"60edd13110225f80f9f3709b","session_id":"6196c7038ed6ab1744f0d2d1","condition":"contingent","relevant_dimensions":["antennae","pattern"],"bee_group":{"antennae":"B","wings":"X","pattern":"D","legs":"X"},"bonus":0.2800000000000011},{"rt":883.8999999761581,"stimulus":"bees-with-color/bee-B1SF.svg","response":1,"trial_type":"image-button-response","trial_index":55,"time_elapsed":110537,"internal_node_id":"0.0-4.0-0.22","subject_id":"6014e16b6515752ddfe51263","study_id":"60edd13110225f80f9f3709b","session_id":"6196c7038ed6ab1744f0d2d1","condition":"contingent","relevant_dimensions":["antennae","pattern"],"bee_group":{"antennae":"B","wings":"X","pattern":"D","legs":"X"},"action":"avoid","summary":"bad-avoid","bonus":0.2800000000000011},{"rt":447,"stimulus":"\n                    <p><b>Action: <em>avoid</em></b></p>\n                    <p>This is the bee that you just saw.</p>\n                    <img src=\"bees-with-color/bee-B1SF.svg\" width=\"200\">\n                    <p><br>Your bonus pay is unchanged, and remains at $0.46.</p>\n            ","response":0,"trial_type":"html-button-response","trial_index":56,"time_elapsed":110985,"internal_node_id":"0.0-4.0-1.22","subject_id":"6014e16b6515752ddfe51263","study_id":"60edd13110225f80f9f3709b","session_id":"6196c7038ed6ab1744f0d2d1","condition":"contingent","relevant_dimensions":["antennae","pattern"],"bee_group":{"antennae":"B","wings":"X","pattern":"D","legs":"X"},"bonus":0.2800000000000011},{"rt":888.1000000238419,"stimulus":"bees-with-color/bee-B2SM.svg","response":0,"trial_type":"image-button-response","trial_index":57,"time_elapsed":111874,"internal_node_id":"0.0-4.0-0.23","subject_id":"6014e16b6515752ddfe51263","study_id":"60edd13110225f80f9f3709b","session_id":"6196c7038ed6ab1744f0d2d1","condition":"contingent","relevant_dimensions":["antennae","pattern"],"bee_group":{"antennae":"B","wings":"X","pattern":"D","legs":"X"},"action":"harvest","summary":"good-harvest","bonus":0.2800000000000011},{"rt":598.6000000238419,"stimulus":"\n                    <p><b>Action: <em>harvest</em></b></p>\n                    <p>This is the bee that you just saw.</p>\n                    <img src=\"bees-with-color/bee-B2SM.svg\" width=\"200\">\n                    <p><span class=\"greenText\"><b>Successful harvest!</b></span><br>Your pay has increased by $0.02. Your bonus pay is now $0.48.</p>\n            ","response":0,"trial_type":"html-button-response","trial_index":58,"time_elapsed":112474,"internal_node_id":"0.0-4.0-1.23","subject_id":"6014e16b6515752ddfe51263","study_id":"60edd13110225f80f9f3709b","session_id":"6196c7038ed6ab1744f0d2d1","condition":"contingent","relevant_dimensions":["antennae","pattern"],"bee_group":{"antennae":"B","wings":"X","pattern":"D","legs":"X"},"bonus":0.2800000000000011},{"rt":1040,"stimulus":"bees-with-color/bee-A1SF.svg","response":1,"trial_type":"image-button-response","trial_index":59,"time_elapsed":113515,"internal_node_id":"0.0-4.0-0.24","subject_id":"6014e16b6515752ddfe51263","study_id":"60edd13110225f80f9f3709b","session_id":"6196c7038ed6ab1744f0d2d1","condition":"contingent","relevant_dimensions":["antennae","pattern"],"bee_group":{"antennae":"B","wings":"X","pattern":"D","legs":"X"},"action":"avoid","summary":"bad-avoid","bonus":0.2800000000000011},{"rt":474.60000002384186,"stimulus":"\n                    <p><b>Action: <em>avoid</em></b></p>\n                    <p>This is the bee that you just saw.</p>\n                    <img src=\"bees-with-color/bee-A1SF.svg\" width=\"200\">\n                    <p><br>Your bonus pay is unchanged, and remains at $0.48.</p>\n            ","response":0,"trial_type":"html-button-response","trial_index":60,"time_elapsed":113992,"internal_node_id":"0.0-4.0-1.24","subject_id":"6014e16b6515752ddfe51263","study_id":"60edd13110225f80f9f3709b","session_id":"6196c7038ed6ab1744f0d2d1","condition":"contingent","relevant_dimensions":["antennae","pattern"],"bee_group":{"antennae":"B","wings":"X","pattern":"D","legs":"X"},"bonus":0.2800000000000011},{"rt":748.6000000238419,"stimulus":"bees-with-color/bee-B2DF.svg","response":0,"trial_type":"image-button-response","trial_index":61,"time_elapsed":114741,"internal_node_id":"0.0-4.0-0.25","subject_id":"6014e16b6515752ddfe51263","study_id":"60edd13110225f80f9f3709b","session_id":"6196c7038ed6ab1744f0d2d1","condition":"contingent","relevant_dimensions":["antennae","pattern"],"bee_group":{"antennae":"B","wings":"X","pattern":"D","legs":"X"},"action":"harvest","summary":"bad-harvest","bonus":0.2800000000000011},{"rt":756.8000000715256,"stimulus":"\n                    <p><b>Action: <em>harvest</em></b></p>\n                    <p>This is the bee that you just saw.</p>\n                    <img src=\"bees-with-color/bee-B2DF.svg\" width=\"200\">\n                    <p><span class=\"redText\">Bad choice, the bee was angry.</span><br><b>You have been stung!</b><br>Your pay has been decreased by $0.10. Your bonus pay is now $0.38.</p>\n            ","response":0,"trial_type":"html-button-response","trial_index":62,"time_elapsed":115499,"internal_node_id":"0.0-4.0-1.25","subject_id":"6014e16b6515752ddfe51263","study_id":"60edd13110225f80f9f3709b","session_id":"6196c7038ed6ab1744f0d2d1","condition":"contingent","relevant_dimensions":["antennae","pattern"],"bee_group":{"antennae":"B","wings":"X","pattern":"D","legs":"X"},"bonus":0.2800000000000011},{"rt":732,"stimulus":"bees-with-color/bee-A2SF.svg","response":1,"trial_type":"image-button-response","trial_index":63,"time_elapsed":116232,"internal_node_id":"0.0-4.0-0.26","subject_id":"6014e16b6515752ddfe51263","study_id":"60edd13110225f80f9f3709b","session_id":"6196c7038ed6ab1744f0d2d1","condition":"contingent","relevant_dimensions":["antennae","pattern"],"bee_group":{"antennae":"B","wings":"X","pattern":"D","legs":"X"},"action":"avoid","summary":"bad-avoid","bonus":0.2800000000000011},{"rt":522.1000000238419,"stimulus":"\n                    <p><b>Action: <em>avoid</em></b></p>\n                    <p>This is the bee that you just saw.</p>\n                    <img src=\"bees-with-color/bee-A2SF.svg\" width=\"200\">\n                    <p><br>Your bonus pay is unchanged, and remains at $0.38.</p>\n            ","response":0,"trial_type":"html-button-response","trial_index":64,"time_elapsed":116755,"internal_node_id":"0.0-4.0-1.26","subject_id":"6014e16b6515752ddfe51263","study_id":"60edd13110225f80f9f3709b","session_id":"6196c7038ed6ab1744f0d2d1","condition":"contingent","relevant_dimensions":["antennae","pattern"],"bee_group":{"antennae":"B","wings":"X","pattern":"D","legs":"X"},"bonus":0.2800000000000011},{"rt":730,"stimulus":"bees-with-color/bee-A2SM.svg","response":0,"trial_type":"image-button-response","trial_index":65,"time_elapsed":117486,"internal_node_id":"0.0-4.0-0.27","subject_id":"6014e16b6515752ddfe51263","study_id":"60edd13110225f80f9f3709b","session_id":"6196c7038ed6ab1744f0d2d1","condition":"contingent","relevant_dimensions":["antennae","pattern"],"bee_group":{"antennae":"B","wings":"X","pattern":"D","legs":"X"},"action":"harvest","summary":"good-harvest","bonus":0.2800000000000011},{"rt":786.8999999761581,"stimulus":"\n                    <p><b>Action: <em>harvest</em></b></p>\n                    <p>This is the bee that you just saw.</p>\n                    <img src=\"bees-with-color/bee-A2SM.svg\" width=\"200\">\n                    <p><span class=\"greenText\"><b>Successful harvest!</b></span><br>Your pay has increased by $0.02. Your bonus pay is now $0.40.</p>\n            ","response":0,"trial_type":"html-button-response","trial_index":66,"time_elapsed":118274,"internal_node_id":"0.0-4.0-1.27","subject_id":"6014e16b6515752ddfe51263","study_id":"60edd13110225f80f9f3709b","session_id":"6196c7038ed6ab1744f0d2d1","condition":"contingent","relevant_dimensions":["antennae","pattern"],"bee_group":{"antennae":"B","wings":"X","pattern":"D","legs":"X"},"bonus":0.2800000000000011},{"rt":573.1000000238419,"stimulus":"bees-with-color/bee-A2DM.svg","response":0,"trial_type":"image-button-response","trial_index":67,"time_elapsed":118848,"internal_node_id":"0.0-4.0-0.28","subject_id":"6014e16b6515752ddfe51263","study_id":"60edd13110225f80f9f3709b","session_id":"6196c7038ed6ab1744f0d2d1","condition":"contingent","relevant_dimensions":["antennae","pattern"],"bee_group":{"antennae":"B","wings":"X","pattern":"D","legs":"X"},"action":"harvest","summary":"good-harvest","bonus":0.2800000000000011},{"rt":582,"stimulus":"\n                    <p><b>Action: <em>harvest</em></b></p>\n                    <p>This is the bee that you just saw.</p>\n                    <img src=\"bees-with-color/bee-A2DM.svg\" width=\"200\">\n                    <p><span class=\"greenText\"><b>Successful harvest!</b></span><br>Your pay has increased by $0.02. Your bonus pay is now $0.42.</p>\n            ","response":0,"trial_type":"html-button-response","trial_index":68,"time_elapsed":119431,"internal_node_id":"0.0-4.0-1.28","subject_id":"6014e16b6515752ddfe51263","study_id":"60edd13110225f80f9f3709b","session_id":"6196c7038ed6ab1744f0d2d1","condition":"contingent","relevant_dimensions":["antennae","pattern"],"bee_group":{"antennae":"B","wings":"X","pattern":"D","legs":"X"},"bonus":0.2800000000000011},{"rt":459.2999999523163,"stimulus":"bees-with-color/bee-A1DF.svg","response":0,"trial_type":"image-button-response","trial_index":69,"time_elapsed":119891,"internal_node_id":"0.0-4.0-0.29","subject_id":"6014e16b6515752ddfe51263","study_id":"60edd13110225f80f9f3709b","session_id":"6196c7038ed6ab1744f0d2d1","condition":"contingent","relevant_dimensions":["antennae","pattern"],"bee_group":{"antennae":"B","wings":"X","pattern":"D","legs":"X"},"action":"harvest","summary":"good-harvest","bonus":0.2800000000000011},{"rt":497.8000000715256,"stimulus":"\n                    <p><b>Action: <em>harvest</em></b></p>\n                    <p>This is the bee that you just saw.</p>\n                    <img src=\"bees-with-color/bee-A1DF.svg\" width=\"200\">\n                    <p><span class=\"greenText\"><b>Successful harvest!</b></span><br>Your pay has increased by $0.02. Your bonus pay is now $0.44.</p>\n            ","response":0,"trial_type":"html-button-response","trial_index":70,"time_elapsed":120390,"internal_node_id":"0.0-4.0-1.29","subject_id":"6014e16b6515752ddfe51263","study_id":"60edd13110225f80f9f3709b","session_id":"6196c7038ed6ab1744f0d2d1","condition":"contingent","relevant_dimensions":["antennae","pattern"],"bee_group":{"antennae":"B","wings":"X","pattern":"D","legs":"X"},"bonus":0.2800000000000011},{"rt":649,"stimulus":"bees-with-color/bee-B1DM.svg","response":1,"trial_type":"image-button-response","trial_index":71,"time_elapsed":121040,"internal_node_id":"0.0-4.0-0.30","subject_id":"6014e16b6515752ddfe51263","study_id":"60edd13110225f80f9f3709b","session_id":"6196c7038ed6ab1744f0d2d1","condition":"contingent","relevant_dimensions":["antennae","pattern"],"bee_group":{"antennae":"B","wings":"X","pattern":"D","legs":"X"},"action":"avoid","summary":"good-avoid","bonus":0.2800000000000011},{"rt":435,"stimulus":"\n                    <p><b>Action: <em>avoid</em></b></p>\n                    <p>This is the bee that you just saw.</p>\n                    <img src=\"bees-with-color/bee-B1DM.svg\" width=\"200\">\n                    <p><br>Your bonus pay is unchanged, and remains at $0.44.</p>\n            ","response":0,"trial_type":"html-button-response","trial_index":72,"time_elapsed":121476,"internal_node_id":"0.0-4.0-1.30","subject_id":"6014e16b6515752ddfe51263","study_id":"60edd13110225f80f9f3709b","session_id":"6196c7038ed6ab1744f0d2d1","condition":"contingent","relevant_dimensions":["antennae","pattern"],"bee_group":{"antennae":"B","wings":"X","pattern":"D","legs":"X"},"bonus":0.2800000000000011},{"rt":800.8999999761581,"stimulus":"bees-with-color/bee-B1SM.svg","response":1,"trial_type":"image-button-response","trial_index":73,"time_elapsed":122278,"internal_node_id":"0.0-4.0-0.31","subject_id":"6014e16b6515752ddfe51263","study_id":"60edd13110225f80f9f3709b","session_id":"6196c7038ed6ab1744f0d2d1","condition":"contingent","relevant_dimensions":["antennae","pattern"],"bee_group":{"antennae":"B","wings":"X","pattern":"D","legs":"X"},"action":"avoid","summary":"bad-avoid","bonus":0.2800000000000011},{"rt":367.8000000715256,"stimulus":"\n                    <p><b>Action: <em>avoid</em></b></p>\n                    <p>This is the bee that you just saw.</p>\n                    <img src=\"bees-with-color/bee-B1SM.svg\" width=\"200\">\n                    <p><br>Your bonus pay is unchanged, and remains at $0.44.</p>\n            ","response":0,"trial_type":"html-button-response","trial_index":74,"time_elapsed":122647,"internal_node_id":"0.0-4.0-1.31","subject_id":"6014e16b6515752ddfe51263","study_id":"60edd13110225f80f9f3709b","session_id":"6196c7038ed6ab1744f0d2d1","condition":"contingent","relevant_dimensions":["antennae","pattern"],"bee_group":{"antennae":"B","wings":"X","pattern":"D","legs":"X"},"bonus":0.2800000000000011},{"rt":1182,"stimulus":"bees-with-color/bee-B2DF.svg","response":1,"trial_type":"image-button-response","trial_index":75,"time_elapsed":123830,"internal_node_id":"0.0-4.0-0.32","subject_id":"6014e16b6515752ddfe51263","study_id":"60edd13110225f80f9f3709b","session_id":"6196c7038ed6ab1744f0d2d1","condition":"contingent","relevant_dimensions":["antennae","pattern"],"bee_group":{"antennae":"B","wings":"X","pattern":"D","legs":"X"},"action":"avoid","summary":"good-avoid","bonus":0.2800000000000011},{"rt":425.90000009536743,"stimulus":"\n                    <p><b>Action: <em>avoid</em></b></p>\n                    <p>This is the bee that you just saw.</p>\n                    <img src=\"bees-with-color/bee-B2DF.svg\" width=\"200\">\n                    <p><br>Your bonus pay is unchanged, and remains at $0.44.</p>\n            ","response":0,"trial_type":"html-button-response","trial_index":76,"time_elapsed":124257,"internal_node_id":"0.0-4.0-1.32","subject_id":"6014e16b6515752ddfe51263","study_id":"60edd13110225f80f9f3709b","session_id":"6196c7038ed6ab1744f0d2d1","condition":"contingent","relevant_dimensions":["antennae","pattern"],"bee_group":{"antennae":"B","wings":"X","pattern":"D","legs":"X"},"bonus":0.2800000000000011},{"rt":764.7000000476837,"stimulus":"bees-with-color/bee-A1DF.svg","response":0,"trial_type":"image-button-response","trial_index":77,"time_elapsed":125023,"internal_node_id":"0.0-4.0-0.33","subject_id":"6014e16b6515752ddfe51263","study_id":"60edd13110225f80f9f3709b","session_id":"6196c7038ed6ab1744f0d2d1","condition":"contingent","relevant_dimensions":["antennae","pattern"],"bee_group":{"antennae":"B","wings":"X","pattern":"D","legs":"X"},"action":"harvest","summary":"good-harvest","bonus":0.2800000000000011},{"rt":650.9000000953674,"stimulus":"\n                    <p><b>Action: <em>harvest</em></b></p>\n                    <p>This is the bee that you just saw.</p>\n                    <img src=\"bees-with-color/bee-A1DF.svg\" width=\"200\">\n                    <p><span class=\"greenText\"><b>Successful harvest!</b></span><br>Your pay has increased by $0.02. Your bonus pay is now $0.46.</p>\n            ","response":0,"trial_type":"html-button-response","trial_index":78,"time_elapsed":125675,"internal_node_id":"0.0-4.0-1.33","subject_id":"6014e16b6515752ddfe51263","study_id":"60edd13110225f80f9f3709b","session_id":"6196c7038ed6ab1744f0d2d1","condition":"contingent","relevant_dimensions":["antennae","pattern"],"bee_group":{"antennae":"B","wings":"X","pattern":"D","legs":"X"},"bonus":0.2800000000000011},{"rt":889.1999999284744,"stimulus":"bees-with-color/bee-A2SF.svg","response":1,"trial_type":"image-button-response","trial_index":79,"time_elapsed":126565,"internal_node_id":"0.0-4.0-0.34","subject_id":"6014e16b6515752ddfe51263","study_id":"60edd13110225f80f9f3709b","session_id":"6196c7038ed6ab1744f0d2d1","condition":"contingent","relevant_dimensions":["antennae","pattern"],"bee_group":{"antennae":"B","wings":"X","pattern":"D","legs":"X"},"action":"avoid","summary":"bad-avoid","bonus":0.2800000000000011},{"rt":462.39999997615814,"stimulus":"\n                    <p><b>Action: <em>avoid</em></b></p>\n                    <p>This is the bee that you just saw.</p>\n                    <img src=\"bees-with-color/bee-A2SF.svg\" width=\"200\">\n                    <p><br>Your bonus pay is unchanged, and remains at $0.46.</p>\n            ","response":0,"trial_type":"html-button-response","trial_index":80,"time_elapsed":127029,"internal_node_id":"0.0-4.0-1.34","subject_id":"6014e16b6515752ddfe51263","study_id":"60edd13110225f80f9f3709b","session_id":"6196c7038ed6ab1744f0d2d1","condition":"contingent","relevant_dimensions":["antennae","pattern"],"bee_group":{"antennae":"B","wings":"X","pattern":"D","legs":"X"},"bonus":0.2800000000000011},{"rt":965.2000000476837,"stimulus":"bees-with-color/bee-B1DF.svg","response":0,"trial_type":"image-button-response","trial_index":81,"time_elapsed":127995,"internal_node_id":"0.0-4.0-0.35","subject_id":"6014e16b6515752ddfe51263","study_id":"60edd13110225f80f9f3709b","session_id":"6196c7038ed6ab1744f0d2d1","condition":"contingent","relevant_dimensions":["antennae","pattern"],"bee_group":{"antennae":"B","wings":"X","pattern":"D","legs":"X"},"action":"harvest","summary":"bad-harvest","bonus":0.2800000000000011},{"rt":1099,"stimulus":"\n                    <p><b>Action: <em>harvest</em></b></p>\n                    <p>This is the bee that you just saw.</p>\n                    <img src=\"bees-with-color/bee-B1DF.svg\" width=\"200\">\n                    <p><span class=\"redText\">Bad choice, the bee was angry.</span><br><b>You have been stung!</b><br>Your pay has been decreased by $0.10. Your bonus pay is now $0.36.</p>\n            ","response":0,"trial_type":"html-button-response","trial_index":82,"time_elapsed":129095,"internal_node_id":"0.0-4.0-1.35","subject_id":"6014e16b6515752ddfe51263","study_id":"60edd13110225f80f9f3709b","session_id":"6196c7038ed6ab1744f0d2d1","condition":"contingent","relevant_dimensions":["antennae","pattern"],"bee_group":{"antennae":"B","wings":"X","pattern":"D","legs":"X"},"bonus":0.2800000000000011},{"rt":970,"stimulus":"bees-with-color/bee-B1SM.svg","response":0,"trial_type":"image-button-response","trial_index":83,"time_elapsed":130066,"internal_node_id":"0.0-4.0-0.36","subject_id":"6014e16b6515752ddfe51263","study_id":"60edd13110225f80f9f3709b","session_id":"6196c7038ed6ab1744f0d2d1","condition":"contingent","relevant_dimensions":["antennae","pattern"],"bee_group":{"antennae":"B","wings":"X","pattern":"D","legs":"X"},"action":"harvest","summary":"good-harvest","bonus":0.2800000000000011},{"rt":542.1000000238419,"stimulus":"\n                    <p><b>Action: <em>harvest</em></b></p>\n                    <p>This is the bee that you just saw.</p>\n                    <img src=\"bees-with-color/bee-B1SM.svg\" width=\"200\">\n                    <p><span class=\"greenText\"><b>Successful harvest!</b></span><br>Your pay has increased by $0.02. Your bonus pay is now $0.38.</p>\n            ","response":0,"trial_type":"html-button-response","trial_index":84,"time_elapsed":130609,"internal_node_id":"0.0-4.0-1.36","subject_id":"6014e16b6515752ddfe51263","study_id":"60edd13110225f80f9f3709b","session_id":"6196c7038ed6ab1744f0d2d1","condition":"contingent","relevant_dimensions":["antennae","pattern"],"bee_group":{"antennae":"B","wings":"X","pattern":"D","legs":"X"},"bonus":0.2800000000000011},{"rt":804.8000000715256,"stimulus":"bees-with-color/bee-A2DM.svg","response":0,"trial_type":"image-button-response","trial_index":85,"time_elapsed":131415,"internal_node_id":"0.0-4.0-0.37","subject_id":"6014e16b6515752ddfe51263","study_id":"60edd13110225f80f9f3709b","session_id":"6196c7038ed6ab1744f0d2d1","condition":"contingent","relevant_dimensions":["antennae","pattern"],"bee_group":{"antennae":"B","wings":"X","pattern":"D","legs":"X"},"action":"harvest","summary":"good-harvest","bonus":0.2800000000000011},{"rt":573.1000000238419,"stimulus":"\n                    <p><b>Action: <em>harvest</em></b></p>\n                    <p>This is the bee that you just saw.</p>\n                    <img src=\"bees-with-color/bee-A2DM.svg\" width=\"200\">\n                    <p><span class=\"greenText\"><b>Successful harvest!</b></span><br>Your pay has increased by $0.02. Your bonus pay is now $0.40.</p>\n            ","response":0,"trial_type":"html-button-response","trial_index":86,"time_elapsed":131989,"internal_node_id":"0.0-4.0-1.37","subject_id":"6014e16b6515752ddfe51263","study_id":"60edd13110225f80f9f3709b","session_id":"6196c7038ed6ab1744f0d2d1","condition":"contingent","relevant_dimensions":["antennae","pattern"],"bee_group":{"antennae":"B","wings":"X","pattern":"D","legs":"X"},"bonus":0.2800000000000011},{"rt":609.9000000953674,"stimulus":"bees-with-color/bee-B1SF.svg","response":0,"trial_type":"image-button-response","trial_index":87,"time_elapsed":132600,"internal_node_id":"0.0-4.0-0.38","subject_id":"6014e16b6515752ddfe51263","study_id":"60edd13110225f80f9f3709b","session_id":"6196c7038ed6ab1744f0d2d1","condition":"contingent","relevant_dimensions":["antennae","pattern"],"bee_group":{"antennae":"B","wings":"X","pattern":"D","legs":"X"},"action":"harvest","summary":"good-harvest","bonus":0.2800000000000011},{"rt":502.1999999284744,"stimulus":"\n                    <p><b>Action: <em>harvest</em></b></p>\n                    <p>This is the bee that you just saw.</p>\n                    <img src=\"bees-with-color/bee-B1SF.svg\" width=\"200\">\n                    <p><span class=\"greenText\"><b>Successful harvest!</b></span><br>Your pay has increased by $0.02. Your bonus pay is now $0.42.</p>\n            ","response":0,"trial_type":"html-button-response","trial_index":88,"time_elapsed":133103,"internal_node_id":"0.0-4.0-1.38","subject_id":"6014e16b6515752ddfe51263","study_id":"60edd13110225f80f9f3709b","session_id":"6196c7038ed6ab1744f0d2d1","condition":"contingent","relevant_dimensions":["antennae","pattern"],"bee_group":{"antennae":"B","wings":"X","pattern":"D","legs":"X"},"bonus":0.2800000000000011},{"rt":737.8000000715256,"stimulus":"bees-with-color/bee-A2DF.svg","response":1,"trial_type":"image-button-response","trial_index":89,"time_elapsed":133842,"internal_node_id":"0.0-4.0-0.39","subject_id":"6014e16b6515752ddfe51263","study_id":"60edd13110225f80f9f3709b","session_id":"6196c7038ed6ab1744f0d2d1","condition":"contingent","relevant_dimensions":["antennae","pattern"],"bee_group":{"antennae":"B","wings":"X","pattern":"D","legs":"X"},"action":"avoid","summary":"bad-avoid","bonus":0.2800000000000011},{"rt":420.90000009536743,"stimulus":"\n                    <p><b>Action: <em>avoid</em></b></p>\n                    <p>This is the bee that you just saw.</p>\n                    <img src=\"bees-with-color/bee-A2DF.svg\" width=\"200\">\n                    <p><br>Your bonus pay is unchanged, and remains at $0.42.</p>\n            ","response":0,"trial_type":"html-button-response","trial_index":90,"time_elapsed":134264,"internal_node_id":"0.0-4.0-1.39","subject_id":"6014e16b6515752ddfe51263","study_id":"60edd13110225f80f9f3709b","session_id":"6196c7038ed6ab1744f0d2d1","condition":"contingent","relevant_dimensions":["antennae","pattern"],"bee_group":{"antennae":"B","wings":"X","pattern":"D","legs":"X"},"bonus":0.2800000000000011},{"rt":2725.9000000953674,"stimulus":"bees-with-color/bee-B2SM.svg","response":0,"trial_type":"image-button-response","trial_index":91,"time_elapsed":136991,"internal_node_id":"0.0-4.0-0.40","subject_id":"6014e16b6515752ddfe51263","study_id":"60edd13110225f80f9f3709b","session_id":"6196c7038ed6ab1744f0d2d1","condition":"contingent","relevant_dimensions":["antennae","pattern"],"bee_group":{"antennae":"B","wings":"X","pattern":"D","legs":"X"},"action":"harvest","summary":"good-harvest","bonus":0.2800000000000011},{"rt":697.5999999046326,"stimulus":"\n                    <p><b>Action: <em>harvest</em></b></p>\n                    <p>This is the bee that you just saw.</p>\n                    <img src=\"bees-with-color/bee-B2SM.svg\" width=\"200\">\n                    <p><span class=\"greenText\"><b>Successful harvest!</b></span><br>Your pay has increased by $0.02. Your bonus pay is now $0.44.</p>\n            ","response":0,"trial_type":"html-button-response","trial_index":92,"time_elapsed":137690,"internal_node_id":"0.0-4.0-1.40","subject_id":"6014e16b6515752ddfe51263","study_id":"60edd13110225f80f9f3709b","session_id":"6196c7038ed6ab1744f0d2d1","condition":"contingent","relevant_dimensions":["antennae","pattern"],"bee_group":{"antennae":"B","wings":"X","pattern":"D","legs":"X"},"bonus":0.2800000000000011},{"rt":636.7000000476837,"stimulus":"bees-with-color/bee-A1DM.svg","response":0,"trial_type":"image-button-response","trial_index":93,"time_elapsed":138328,"internal_node_id":"0.0-4.0-0.41","subject_id":"6014e16b6515752ddfe51263","study_id":"60edd13110225f80f9f3709b","session_id":"6196c7038ed6ab1744f0d2d1","condition":"contingent","relevant_dimensions":["antennae","pattern"],"bee_group":{"antennae":"B","wings":"X","pattern":"D","legs":"X"},"action":"harvest","summary":"good-harvest","bonus":0.2800000000000011},{"rt":523.8000000715256,"stimulus":"\n                    <p><b>Action: <em>harvest</em></b></p>\n                    <p>This is the bee that you just saw.</p>\n                    <img src=\"bees-with-color/bee-A1DM.svg\" width=\"200\">\n                    <p><span class=\"greenText\"><b>Successful harvest!</b></span><br>Your pay has increased by $0.02. Your bonus pay is now $0.46.</p>\n            ","response":0,"trial_type":"html-button-response","trial_index":94,"time_elapsed":138853,"internal_node_id":"0.0-4.0-1.41","subject_id":"6014e16b6515752ddfe51263","study_id":"60edd13110225f80f9f3709b","session_id":"6196c7038ed6ab1744f0d2d1","condition":"contingent","relevant_dimensions":["antennae","pattern"],"bee_group":{"antennae":"B","wings":"X","pattern":"D","legs":"X"},"bonus":0.2800000000000011},{"rt":742.0999999046326,"stimulus":"bees-with-color/bee-A1SF.svg","response":1,"trial_type":"image-button-response","trial_index":95,"time_elapsed":139596,"internal_node_id":"0.0-4.0-0.42","subject_id":"6014e16b6515752ddfe51263","study_id":"60edd13110225f80f9f3709b","session_id":"6196c7038ed6ab1744f0d2d1","condition":"contingent","relevant_dimensions":["antennae","pattern"],"bee_group":{"antennae":"B","wings":"X","pattern":"D","legs":"X"},"action":"avoid","summary":"bad-avoid","bonus":0.2800000000000011},{"rt":393.7999999523163,"stimulus":"\n                    <p><b>Action: <em>avoid</em></b></p>\n                    <p>This is the bee that you just saw.</p>\n                    <img src=\"bees-with-color/bee-A1SF.svg\" width=\"200\">\n                    <p><br>Your bonus pay is unchanged, and remains at $0.46.</p>\n            ","response":0,"trial_type":"html-button-response","trial_index":96,"time_elapsed":139991,"internal_node_id":"0.0-4.0-1.42","subject_id":"6014e16b6515752ddfe51263","study_id":"60edd13110225f80f9f3709b","session_id":"6196c7038ed6ab1744f0d2d1","condition":"contingent","relevant_dimensions":["antennae","pattern"],"bee_group":{"antennae":"B","wings":"X","pattern":"D","legs":"X"},"bonus":0.2800000000000011},{"rt":608.8000000715256,"stimulus":"bees-with-color/bee-A2SM.svg","response":0,"trial_type":"image-button-response","trial_index":97,"time_elapsed":140601,"internal_node_id":"0.0-4.0-0.43","subject_id":"6014e16b6515752ddfe51263","study_id":"60edd13110225f80f9f3709b","session_id":"6196c7038ed6ab1744f0d2d1","condition":"contingent","relevant_dimensions":["antennae","pattern"],"bee_group":{"antennae":"B","wings":"X","pattern":"D","legs":"X"},"action":"harvest","summary":"good-harvest","bonus":0.2800000000000011},{"rt":576.7000000476837,"stimulus":"\n                    <p><b>Action: <em>harvest</em></b></p>\n                    <p>This is the bee that you just saw.</p>\n                    <img src=\"bees-with-color/bee-A2SM.svg\" width=\"200\">\n                    <p><span class=\"greenText\"><b>Successful harvest!</b></span><br>Your pay has increased by $0.02. Your bonus pay is now $0.48.</p>\n            ","response":0,"trial_type":"html-button-response","trial_index":98,"time_elapsed":141179,"internal_node_id":"0.0-4.0-1.43","subject_id":"6014e16b6515752ddfe51263","study_id":"60edd13110225f80f9f3709b","session_id":"6196c7038ed6ab1744f0d2d1","condition":"contingent","relevant_dimensions":["antennae","pattern"],"bee_group":{"antennae":"B","wings":"X","pattern":"D","legs":"X"},"bonus":0.2800000000000011},{"rt":402,"stimulus":"bees-with-color/bee-B1DM.svg","response":1,"trial_type":"image-button-response","trial_index":99,"time_elapsed":141582,"internal_node_id":"0.0-4.0-0.44","subject_id":"6014e16b6515752ddfe51263","study_id":"60edd13110225f80f9f3709b","session_id":"6196c7038ed6ab1744f0d2d1","condition":"contingent","relevant_dimensions":["antennae","pattern"],"bee_group":{"antennae":"B","wings":"X","pattern":"D","legs":"X"},"action":"avoid","summary":"good-avoid","bonus":0.2800000000000011},{"rt":497.09999990463257,"stimulus":"\n                    <p><b>Action: <em>avoid</em></b></p>\n                    <p>This is the bee that you just saw.</p>\n                    <img src=\"bees-with-color/bee-B1DM.svg\" width=\"200\">\n                    <p><br>Your bonus pay is unchanged, and remains at $0.48.</p>\n            ","response":0,"trial_type":"html-button-response","trial_index":100,"time_elapsed":142080,"internal_node_id":"0.0-4.0-1.44","subject_id":"6014e16b6515752ddfe51263","study_id":"60edd13110225f80f9f3709b","session_id":"6196c7038ed6ab1744f0d2d1","condition":"contingent","relevant_dimensions":["antennae","pattern"],"bee_group":{"antennae":"B","wings":"X","pattern":"D","legs":"X"},"bonus":0.2800000000000011},{"rt":582.9000000953674,"stimulus":"bees-with-color/bee-B2SF.svg","response":0,"trial_type":"image-button-response","trial_index":101,"time_elapsed":142664,"internal_node_id":"0.0-4.0-0.45","subject_id":"6014e16b6515752ddfe51263","study_id":"60edd13110225f80f9f3709b","session_id":"6196c7038ed6ab1744f0d2d1","condition":"contingent","relevant_dimensions":["antennae","pattern"],"bee_group":{"antennae":"B","wings":"X","pattern":"D","legs":"X"},"action":"harvest","summary":"good-harvest","bonus":0.2800000000000011},{"rt":503,"stimulus":"\n                    <p><b>Action: <em>harvest</em></b></p>\n                    <p>This is the bee that you just saw.</p>\n                    <img src=\"bees-with-color/bee-B2SF.svg\" width=\"200\">\n                    <p><span class=\"greenText\"><b>Successful harvest!</b></span><br>Your pay has increased by $0.02. Your bonus pay is now $0.50.</p>\n            ","response":0,"trial_type":"html-button-response","trial_index":102,"time_elapsed":143168,"internal_node_id":"0.0-4.0-1.45","subject_id":"6014e16b6515752ddfe51263","study_id":"60edd13110225f80f9f3709b","session_id":"6196c7038ed6ab1744f0d2d1","condition":"contingent","relevant_dimensions":["antennae","pattern"],"bee_group":{"antennae":"B","wings":"X","pattern":"D","legs":"X"},"bonus":0.2800000000000011},{"rt":1526.9000000953674,"stimulus":"bees-with-color/bee-A1SM.svg","response":1,"trial_type":"image-button-response","trial_index":103,"time_elapsed":144696,"internal_node_id":"0.0-4.0-0.46","subject_id":"6014e16b6515752ddfe51263","study_id":"60edd13110225f80f9f3709b","session_id":"6196c7038ed6ab1744f0d2d1","condition":"contingent","relevant_dimensions":["antennae","pattern"],"bee_group":{"antennae":"B","wings":"X","pattern":"D","legs":"X"},"action":"avoid","summary":"bad-avoid","bonus":0.2800000000000011},{"rt":478.90000009536743,"stimulus":"\n                    <p><b>Action: <em>avoid</em></b></p>\n                    <p>This is the bee that you just saw.</p>\n                    <img src=\"bees-with-color/bee-A1SM.svg\" width=\"200\">\n                    <p><br>Your bonus pay is unchanged, and remains at $0.50.</p>\n            ","response":0,"trial_type":"html-button-response","trial_index":104,"time_elapsed":145176,"internal_node_id":"0.0-4.0-1.46","subject_id":"6014e16b6515752ddfe51263","study_id":"60edd13110225f80f9f3709b","session_id":"6196c7038ed6ab1744f0d2d1","condition":"contingent","relevant_dimensions":["antennae","pattern"],"bee_group":{"antennae":"B","wings":"X","pattern":"D","legs":"X"},"bonus":0.2800000000000011},{"rt":506.8000000715256,"stimulus":"bees-with-color/bee-B2DM.svg","response":0,"trial_type":"image-button-response","trial_index":105,"time_elapsed":145684,"internal_node_id":"0.0-4.0-0.47","subject_id":"6014e16b6515752ddfe51263","study_id":"60edd13110225f80f9f3709b","session_id":"6196c7038ed6ab1744f0d2d1","condition":"contingent","relevant_dimensions":["antennae","pattern"],"bee_group":{"antennae":"B","wings":"X","pattern":"D","legs":"X"},"action":"harvest","summary":"bad-harvest","bonus":0.2800000000000011},{"rt":923.1000000238419,"stimulus":"\n                    <p><b>Action: <em>harvest</em></b></p>\n                    <p>This is the bee that you just saw.</p>\n                    <img src=\"bees-with-color/bee-B2DM.svg\" width=\"200\">\n                    <p><span class=\"redText\">Bad choice, the bee was angry.</span><br><b>You have been stung!</b><br>Your pay has been decreased by $0.10. Your bonus pay is now $0.40.</p>\n            ","response":0,"trial_type":"html-button-response","trial_index":106,"time_elapsed":146608,"internal_node_id":"0.0-4.0-1.47","subject_id":"6014e16b6515752ddfe51263","study_id":"60edd13110225f80f9f3709b","session_id":"6196c7038ed6ab1744f0d2d1","condition":"contingent","relevant_dimensions":["antennae","pattern"],"bee_group":{"antennae":"B","wings":"X","pattern":"D","legs":"X"},"bonus":0.2800000000000011},{"rt":573.1000000238419,"stimulus":"bees-with-color/bee-A2DF.svg","response":0,"trial_type":"image-button-response","trial_index":107,"time_elapsed":147182,"internal_node_id":"0.0-4.0-0.48","subject_id":"6014e16b6515752ddfe51263","study_id":"60edd13110225f80f9f3709b","session_id":"6196c7038ed6ab1744f0d2d1","condition":"contingent","relevant_dimensions":["antennae","pattern"],"bee_group":{"antennae":"B","wings":"X","pattern":"D","legs":"X"},"action":"harvest","summary":"good-harvest","bonus":0.2800000000000011},{"rt":597.9000000953674,"stimulus":"\n                    <p><b>Action: <em>harvest</em></b></p>\n                    <p>This is the bee that you just saw.</p>\n                    <img src=\"bees-with-color/bee-A2DF.svg\" width=\"200\">\n                    <p><span class=\"greenText\"><b>Successful harvest!</b></span><br>Your pay has increased by $0.02. Your bonus pay is now $0.42.</p>\n            ","response":0,"trial_type":"html-button-response","trial_index":108,"time_elapsed":147781,"internal_node_id":"0.0-4.0-1.48","subject_id":"6014e16b6515752ddfe51263","study_id":"60edd13110225f80f9f3709b","session_id":"6196c7038ed6ab1744f0d2d1","condition":"contingent","relevant_dimensions":["antennae","pattern"],"bee_group":{"antennae":"B","wings":"X","pattern":"D","legs":"X"},"bonus":0.2800000000000011},{"rt":656,"stimulus":"bees-with-color/bee-B1SF.svg","response":1,"trial_type":"image-button-response","trial_index":109,"time_elapsed":148438,"internal_node_id":"0.0-4.0-0.49","subject_id":"6014e16b6515752ddfe51263","study_id":"60edd13110225f80f9f3709b","session_id":"6196c7038ed6ab1744f0d2d1","condition":"contingent","relevant_dimensions":["antennae","pattern"],"bee_group":{"antennae":"B","wings":"X","pattern":"D","legs":"X"},"action":"avoid","summary":"bad-avoid","bonus":0.2800000000000011},{"rt":740.7000000476837,"stimulus":"\n                    <p><b>Action: <em>avoid</em></b></p>\n                    <p>This is the bee that you just saw.</p>\n                    <img src=\"bees-with-color/bee-B1SF.svg\" width=\"200\">\n                    <p><br>Your bonus pay is unchanged, and remains at $0.42.</p>\n            ","response":0,"trial_type":"html-button-response","trial_index":110,"time_elapsed":149180,"internal_node_id":"0.0-4.0-1.49","subject_id":"6014e16b6515752ddfe51263","study_id":"60edd13110225f80f9f3709b","session_id":"6196c7038ed6ab1744f0d2d1","condition":"contingent","relevant_dimensions":["antennae","pattern"],"bee_group":{"antennae":"B","wings":"X","pattern":"D","legs":"X"},"bonus":0.2800000000000011},{"rt":527.1000000238419,"stimulus":"bees-with-color/bee-A2DM.svg","response":0,"trial_type":"image-button-response","trial_index":111,"time_elapsed":149708,"internal_node_id":"0.0-4.0-0.50","subject_id":"6014e16b6515752ddfe51263","study_id":"60edd13110225f80f9f3709b","session_id":"6196c7038ed6ab1744f0d2d1","condition":"contingent","relevant_dimensions":["antennae","pattern"],"bee_group":{"antennae":"B","wings":"X","pattern":"D","legs":"X"},"action":"harvest","summary":"good-harvest","bonus":0.2800000000000011},{"rt":646.9000000953674,"stimulus":"\n                    <p><b>Action: <em>harvest</em></b></p>\n                    <p>This is the bee that you just saw.</p>\n                    <img src=\"bees-with-color/bee-A2DM.svg\" width=\"200\">\n                    <p><span class=\"greenText\"><b>Successful harvest!</b></span><br>Your pay has increased by $0.02. Your bonus pay is now $0.44.</p>\n            ","response":0,"trial_type":"html-button-response","trial_index":112,"time_elapsed":150356,"internal_node_id":"0.0-4.0-1.50","subject_id":"6014e16b6515752ddfe51263","study_id":"60edd13110225f80f9f3709b","session_id":"6196c7038ed6ab1744f0d2d1","condition":"contingent","relevant_dimensions":["antennae","pattern"],"bee_group":{"antennae":"B","wings":"X","pattern":"D","legs":"X"},"bonus":0.2800000000000011},{"rt":599,"stimulus":"bees-with-color/bee-A1DF.svg","response":0,"trial_type":"image-button-response","trial_index":113,"time_elapsed":150956,"internal_node_id":"0.0-4.0-0.51","subject_id":"6014e16b6515752ddfe51263","study_id":"60edd13110225f80f9f3709b","session_id":"6196c7038ed6ab1744f0d2d1","condition":"contingent","relevant_dimensions":["antennae","pattern"],"bee_group":{"antennae":"B","wings":"X","pattern":"D","legs":"X"},"action":"harvest","summary":"good-harvest","bonus":0.2800000000000011},{"rt":517.6000000238419,"stimulus":"\n                    <p><b>Action: <em>harvest</em></b></p>\n                    <p>This is the bee that you just saw.</p>\n                    <img src=\"bees-with-color/bee-A1DF.svg\" width=\"200\">\n                    <p><span class=\"greenText\"><b>Successful harvest!</b></span><br>Your pay has increased by $0.02. Your bonus pay is now $0.46.</p>\n            ","response":0,"trial_type":"html-button-response","trial_index":114,"time_elapsed":151475,"internal_node_id":"0.0-4.0-1.51","subject_id":"6014e16b6515752ddfe51263","study_id":"60edd13110225f80f9f3709b","session_id":"6196c7038ed6ab1744f0d2d1","condition":"contingent","relevant_dimensions":["antennae","pattern"],"bee_group":{"antennae":"B","wings":"X","pattern":"D","legs":"X"},"bonus":0.2800000000000011},{"rt":555.8000000715256,"stimulus":"bees-with-color/bee-B2DM.svg","response":1,"trial_type":"image-button-response","trial_index":115,"time_elapsed":152032,"internal_node_id":"0.0-4.0-0.52","subject_id":"6014e16b6515752ddfe51263","study_id":"60edd13110225f80f9f3709b","session_id":"6196c7038ed6ab1744f0d2d1","condition":"contingent","relevant_dimensions":["antennae","pattern"],"bee_group":{"antennae":"B","wings":"X","pattern":"D","legs":"X"},"action":"avoid","summary":"good-avoid","bonus":0.2800000000000011},{"rt":448.60000002384186,"stimulus":"\n                    <p><b>Action: <em>avoid</em></b></p>\n                    <p>This is the bee that you just saw.</p>\n                    <img src=\"bees-with-color/bee-B2DM.svg\" width=\"200\">\n                    <p><br>Your bonus pay is unchanged, and remains at $0.46.</p>\n            ","response":0,"trial_type":"html-button-response","trial_index":116,"time_elapsed":152482,"internal_node_id":"0.0-4.0-1.52","subject_id":"6014e16b6515752ddfe51263","study_id":"60edd13110225f80f9f3709b","session_id":"6196c7038ed6ab1744f0d2d1","condition":"contingent","relevant_dimensions":["antennae","pattern"],"bee_group":{"antennae":"B","wings":"X","pattern":"D","legs":"X"},"bonus":0.2800000000000011},{"rt":520.7000000476837,"stimulus":"bees-with-color/bee-B2SF.svg","response":0,"trial_type":"image-button-response","trial_index":117,"time_elapsed":153004,"internal_node_id":"0.0-4.0-0.53","subject_id":"6014e16b6515752ddfe51263","study_id":"60edd13110225f80f9f3709b","session_id":"6196c7038ed6ab1744f0d2d1","condition":"contingent","relevant_dimensions":["antennae","pattern"],"bee_group":{"antennae":"B","wings":"X","pattern":"D","legs":"X"},"action":"harvest","summary":"good-harvest","bonus":0.2800000000000011},{"rt":579,"stimulus":"\n                    <p><b>Action: <em>harvest</em></b></p>\n                    <p>This is the bee that you just saw.</p>\n                    <img src=\"bees-with-color/bee-B2SF.svg\" width=\"200\">\n                    <p><span class=\"greenText\"><b>Successful harvest!</b></span><br>Your pay has increased by $0.02. Your bonus pay is now $0.48.</p>\n            ","response":0,"trial_type":"html-button-response","trial_index":118,"time_elapsed":153584,"internal_node_id":"0.0-4.0-1.53","subject_id":"6014e16b6515752ddfe51263","study_id":"60edd13110225f80f9f3709b","session_id":"6196c7038ed6ab1744f0d2d1","condition":"contingent","relevant_dimensions":["antennae","pattern"],"bee_group":{"antennae":"B","wings":"X","pattern":"D","legs":"X"},"bonus":0.2800000000000011},{"rt":603.1000000238419,"stimulus":"bees-with-color/bee-A2SM.svg","response":1,"trial_type":"image-button-response","trial_index":119,"time_elapsed":154188,"internal_node_id":"0.0-4.0-0.54","subject_id":"6014e16b6515752ddfe51263","study_id":"60edd13110225f80f9f3709b","session_id":"6196c7038ed6ab1744f0d2d1","condition":"contingent","relevant_dimensions":["antennae","pattern"],"bee_group":{"antennae":"B","wings":"X","pattern":"D","legs":"X"},"action":"avoid","summary":"bad-avoid","bonus":0.2800000000000011},{"rt":525,"stimulus":"\n                    <p><b>Action: <em>avoid</em></b></p>\n                    <p>This is the bee that you just saw.</p>\n                    <img src=\"bees-with-color/bee-A2SM.svg\" width=\"200\">\n                    <p><br>Your bonus pay is unchanged, and remains at $0.48.</p>\n            ","response":0,"trial_type":"html-button-response","trial_index":120,"time_elapsed":154714,"internal_node_id":"0.0-4.0-1.54","subject_id":"6014e16b6515752ddfe51263","study_id":"60edd13110225f80f9f3709b","session_id":"6196c7038ed6ab1744f0d2d1","condition":"contingent","relevant_dimensions":["antennae","pattern"],"bee_group":{"antennae":"B","wings":"X","pattern":"D","legs":"X"},"bonus":0.2800000000000011},{"rt":644.0999999046326,"stimulus":"bees-with-color/bee-B1DM.svg","response":0,"trial_type":"image-button-response","trial_index":121,"time_elapsed":155359,"internal_node_id":"0.0-4.0-0.55","subject_id":"6014e16b6515752ddfe51263","study_id":"60edd13110225f80f9f3709b","session_id":"6196c7038ed6ab1744f0d2d1","condition":"contingent","relevant_dimensions":["antennae","pattern"],"bee_group":{"antennae":"B","wings":"X","pattern":"D","legs":"X"},"action":"harvest","summary":"bad-harvest","bonus":0.2800000000000011},{"rt":563.8000000715256,"stimulus":"\n                    <p><b>Action: <em>harvest</em></b></p>\n                    <p>This is the bee that you just saw.</p>\n                    <img src=\"bees-with-color/bee-B1DM.svg\" width=\"200\">\n                    <p><span class=\"redText\">Bad choice, the bee was angry.</span><br><b>You have been stung!</b><br>Your pay has been decreased by $0.10. Your bonus pay is now $0.38.</p>\n            ","response":0,"trial_type":"html-button-response","trial_index":122,"time_elapsed":155924,"internal_node_id":"0.0-4.0-1.55","subject_id":"6014e16b6515752ddfe51263","study_id":"60edd13110225f80f9f3709b","session_id":"6196c7038ed6ab1744f0d2d1","condition":"contingent","relevant_dimensions":["antennae","pattern"],"bee_group":{"antennae":"B","wings":"X","pattern":"D","legs":"X"},"bonus":0.2800000000000011},{"rt":483.1999999284744,"stimulus":"bees-with-color/bee-B1DF.svg","response":1,"trial_type":"image-button-response","trial_index":123,"time_elapsed":156408,"internal_node_id":"0.0-4.0-0.56","subject_id":"6014e16b6515752ddfe51263","study_id":"60edd13110225f80f9f3709b","session_id":"6196c7038ed6ab1744f0d2d1","condition":"contingent","relevant_dimensions":["antennae","pattern"],"bee_group":{"antennae":"B","wings":"X","pattern":"D","legs":"X"},"action":"avoid","summary":"good-avoid","bonus":0.2800000000000011},{"rt":582.9000000953674,"stimulus":"\n                    <p><b>Action: <em>avoid</em></b></p>\n                    <p>This is the bee that you just saw.</p>\n                    <img src=\"bees-with-color/bee-B1DF.svg\" width=\"200\">\n                    <p><br>Your bonus pay is unchanged, and remains at $0.38.</p>\n            ","response":0,"trial_type":"html-button-response","trial_index":124,"time_elapsed":156992,"internal_node_id":"0.0-4.0-1.56","subject_id":"6014e16b6515752ddfe51263","study_id":"60edd13110225f80f9f3709b","session_id":"6196c7038ed6ab1744f0d2d1","condition":"contingent","relevant_dimensions":["antennae","pattern"],"bee_group":{"antennae":"B","wings":"X","pattern":"D","legs":"X"},"bonus":0.2800000000000011},{"rt":566.1999999284744,"stimulus":"bees-with-color/bee-B1SM.svg","response":0,"trial_type":"image-button-response","trial_index":125,"time_elapsed":157559,"internal_node_id":"0.0-4.0-0.57","subject_id":"6014e16b6515752ddfe51263","study_id":"60edd13110225f80f9f3709b","session_id":"6196c7038ed6ab1744f0d2d1","condition":"contingent","relevant_dimensions":["antennae","pattern"],"bee_group":{"antennae":"B","wings":"X","pattern":"D","legs":"X"},"action":"harvest","summary":"good-harvest","bonus":0.2800000000000011},{"rt":452.5,"stimulus":"\n                    <p><b>Action: <em>harvest</em></b></p>\n                    <p>This is the bee that you just saw.</p>\n                    <img src=\"bees-with-color/bee-B1SM.svg\" width=\"200\">\n                    <p><span class=\"greenText\"><b>Successful harvest!</b></span><br>Your pay has increased by $0.02. Your bonus pay is now $0.40.</p>\n            ","response":0,"trial_type":"html-button-response","trial_index":126,"time_elapsed":158013,"internal_node_id":"0.0-4.0-1.57","subject_id":"6014e16b6515752ddfe51263","study_id":"60edd13110225f80f9f3709b","session_id":"6196c7038ed6ab1744f0d2d1","condition":"contingent","relevant_dimensions":["antennae","pattern"],"bee_group":{"antennae":"B","wings":"X","pattern":"D","legs":"X"},"bonus":0.2800000000000011},{"rt":1016.1000000238419,"stimulus":"bees-with-color/bee-B2DF.svg","response":0,"trial_type":"image-button-response","trial_index":127,"time_elapsed":159030,"internal_node_id":"0.0-4.0-0.58","subject_id":"6014e16b6515752ddfe51263","study_id":"60edd13110225f80f9f3709b","session_id":"6196c7038ed6ab1744f0d2d1","condition":"contingent","relevant_dimensions":["antennae","pattern"],"bee_group":{"antennae":"B","wings":"X","pattern":"D","legs":"X"},"action":"harvest","summary":"bad-harvest","bonus":0.2800000000000011},{"rt":519.8999999761581,"stimulus":"\n                    <p><b>Action: <em>harvest</em></b></p>\n                    <p>This is the bee that you just saw.</p>\n                    <img src=\"bees-with-color/bee-B2DF.svg\" width=\"200\">\n                    <p><span class=\"redText\">Bad choice, the bee was angry.</span><br><b>You have been stung!</b><br>Your pay has been decreased by $0.10. Your bonus pay is now $0.30.</p>\n            ","response":0,"trial_type":"html-button-response","trial_index":128,"time_elapsed":159551,"internal_node_id":"0.0-4.0-1.58","subject_id":"6014e16b6515752ddfe51263","study_id":"60edd13110225f80f9f3709b","session_id":"6196c7038ed6ab1744f0d2d1","condition":"contingent","relevant_dimensions":["antennae","pattern"],"bee_group":{"antennae":"B","wings":"X","pattern":"D","legs":"X"},"bonus":0.2800000000000011},{"rt":1491.8999999761581,"stimulus":"bees-with-color/bee-A2SF.svg","response":0,"trial_type":"image-button-response","trial_index":129,"time_elapsed":161044,"internal_node_id":"0.0-4.0-0.59","subject_id":"6014e16b6515752ddfe51263","study_id":"60edd13110225f80f9f3709b","session_id":"6196c7038ed6ab1744f0d2d1","condition":"contingent","relevant_dimensions":["antennae","pattern"],"bee_group":{"antennae":"B","wings":"X","pattern":"D","legs":"X"},"action":"harvest","summary":"good-harvest","bonus":0.2800000000000011},{"rt":421.60000002384186,"stimulus":"\n                    <p><b>Action: <em>harvest</em></b></p>\n                    <p>This is the bee that you just saw.</p>\n                    <img src=\"bees-with-color/bee-A2SF.svg\" width=\"200\">\n                    <p><span class=\"greenText\"><b>Successful harvest!</b></span><br>Your pay has increased by $0.02. Your bonus pay is now $0.32.</p>\n            ","response":0,"trial_type":"html-button-response","trial_index":130,"time_elapsed":161467,"internal_node_id":"0.0-4.0-1.59","subject_id":"6014e16b6515752ddfe51263","study_id":"60edd13110225f80f9f3709b","session_id":"6196c7038ed6ab1744f0d2d1","condition":"contingent","relevant_dimensions":["antennae","pattern"],"bee_group":{"antennae":"B","wings":"X","pattern":"D","legs":"X"},"bonus":0.2800000000000011},{"rt":1162,"stimulus":"bees-with-color/bee-A1SF.svg","response":1,"trial_type":"image-button-response","trial_index":131,"time_elapsed":162630,"internal_node_id":"0.0-4.0-0.60","subject_id":"6014e16b6515752ddfe51263","study_id":"60edd13110225f80f9f3709b","session_id":"6196c7038ed6ab1744f0d2d1","condition":"contingent","relevant_dimensions":["antennae","pattern"],"bee_group":{"antennae":"B","wings":"X","pattern":"D","legs":"X"},"action":"avoid","summary":"bad-avoid","bonus":0.2800000000000011},{"rt":391.5,"stimulus":"\n                    <p><b>Action: <em>avoid</em></b></p>\n                    <p>This is the bee that you just saw.</p>\n                    <img src=\"bees-with-color/bee-A1SF.svg\" width=\"200\">\n                    <p><br>Your bonus pay is unchanged, and remains at $0.32.</p>\n            ","response":0,"trial_type":"html-button-response","trial_index":132,"time_elapsed":163023,"internal_node_id":"0.0-4.0-1.60","subject_id":"6014e16b6515752ddfe51263","study_id":"60edd13110225f80f9f3709b","session_id":"6196c7038ed6ab1744f0d2d1","condition":"contingent","relevant_dimensions":["antennae","pattern"],"bee_group":{"antennae":"B","wings":"X","pattern":"D","legs":"X"},"bonus":0.2800000000000011},{"rt":814.1999999284744,"stimulus":"bees-with-color/bee-A1DM.svg","response":0,"trial_type":"image-button-response","trial_index":133,"time_elapsed":163838,"internal_node_id":"0.0-4.0-0.61","subject_id":"6014e16b6515752ddfe51263","study_id":"60edd13110225f80f9f3709b","session_id":"6196c7038ed6ab1744f0d2d1","condition":"contingent","relevant_dimensions":["antennae","pattern"],"bee_group":{"antennae":"B","wings":"X","pattern":"D","legs":"X"},"action":"harvest","summary":"good-harvest","bonus":0.2800000000000011},{"rt":510.5,"stimulus":"\n                    <p><b>Action: <em>harvest</em></b></p>\n                    <p>This is the bee that you just saw.</p>\n                    <img src=\"bees-with-color/bee-A1DM.svg\" width=\"200\">\n                    <p><span class=\"greenText\"><b>Successful harvest!</b></span><br>Your pay has increased by $0.02. Your bonus pay is now $0.34.</p>\n            ","response":0,"trial_type":"html-button-response","trial_index":134,"time_elapsed":164350,"internal_node_id":"0.0-4.0-1.61","subject_id":"6014e16b6515752ddfe51263","study_id":"60edd13110225f80f9f3709b","session_id":"6196c7038ed6ab1744f0d2d1","condition":"contingent","relevant_dimensions":["antennae","pattern"],"bee_group":{"antennae":"B","wings":"X","pattern":"D","legs":"X"},"bonus":0.2800000000000011},{"rt":594.8999999761581,"stimulus":"bees-with-color/bee-B2SM.svg","response":0,"trial_type":"image-button-response","trial_index":135,"time_elapsed":164946,"internal_node_id":"0.0-4.0-0.62","subject_id":"6014e16b6515752ddfe51263","study_id":"60edd13110225f80f9f3709b","session_id":"6196c7038ed6ab1744f0d2d1","condition":"contingent","relevant_dimensions":["antennae","pattern"],"bee_group":{"antennae":"B","wings":"X","pattern":"D","legs":"X"},"action":"harvest","summary":"good-harvest","bonus":0.2800000000000011},{"rt":541.7999999523163,"stimulus":"\n                    <p><b>Action: <em>harvest</em></b></p>\n                    <p>This is the bee that you just saw.</p>\n                    <img src=\"bees-with-color/bee-B2SM.svg\" width=\"200\">\n                    <p><span class=\"greenText\"><b>Successful harvest!</b></span><br>Your pay has increased by $0.02. Your bonus pay is now $0.36.</p>\n            ","response":0,"trial_type":"html-button-response","trial_index":136,"time_elapsed":165489,"internal_node_id":"0.0-4.0-1.62","subject_id":"6014e16b6515752ddfe51263","study_id":"60edd13110225f80f9f3709b","session_id":"6196c7038ed6ab1744f0d2d1","condition":"contingent","relevant_dimensions":["antennae","pattern"],"bee_group":{"antennae":"B","wings":"X","pattern":"D","legs":"X"},"bonus":0.2800000000000011},{"rt":1020.1000000238419,"stimulus":"bees-with-color/bee-A1SM.svg","response":0,"trial_type":"image-button-response","trial_index":137,"time_elapsed":166510,"internal_node_id":"0.0-4.0-0.63","subject_id":"6014e16b6515752ddfe51263","study_id":"60edd13110225f80f9f3709b","session_id":"6196c7038ed6ab1744f0d2d1","condition":"contingent","relevant_dimensions":["antennae","pattern"],"bee_group":{"antennae":"B","wings":"X","pattern":"D","legs":"X"},"action":"harvest","summary":"good-harvest","bonus":0.2800000000000011},{"rt":505,"stimulus":"\n                    <p><b>Action: <em>harvest</em></b></p>\n                    <p>This is the bee that you just saw.</p>\n                    <img src=\"bees-with-color/bee-A1SM.svg\" width=\"200\">\n                    <p><span class=\"greenText\"><b>Successful harvest!</b></span><br>Your pay has increased by $0.02. Your bonus pay is now $0.38.</p>\n            ","response":0,"trial_type":"html-button-response","trial_index":138,"time_elapsed":167016,"internal_node_id":"0.0-4.0-1.63","subject_id":"6014e16b6515752ddfe51263","study_id":"60edd13110225f80f9f3709b","session_id":"6196c7038ed6ab1744f0d2d1","condition":"contingent","relevant_dimensions":["antennae","pattern"],"bee_group":{"antennae":"B","wings":"X","pattern":"D","legs":"X"},"bonus":0.2800000000000011},{"rt":2147.4000000953674,"stimulus":"You have completed the first part of this experiment.<br><br>You will now begin a shorter second part, in which you will receive no feedback.<br>The same rules regarding bonus pay apply.<br><br>Press any key to begin.","response":" ","trial_type":"html-keyboard-response","trial_index":139,"time_elapsed":169164,"internal_node_id":"0.0-5.0","subject_id":"6014e16b6515752ddfe51263","study_id":"60edd13110225f80f9f3709b","session_id":"6196c7038ed6ab1744f0d2d1","condition":"contingent","relevant_dimensions":["antennae","pattern"],"bee_group":{"antennae":"B","wings":"X","pattern":"D","legs":"X"},"bonus":0.2800000000000011},{"rt":3572.5999999046326,"stimulus":"bees-with-color/bee-B1SM.svg","response":0,"trial_type":"image-button-response","trial_index":140,"time_elapsed":172744,"internal_node_id":"0.0-6.0-0.0","subject_id":"6014e16b6515752ddfe51263","study_id":"60edd13110225f80f9f3709b","session_id":"6196c7038ed6ab1744f0d2d1","condition":"contingent","relevant_dimensions":["antennae","pattern"],"bee_group":{"antennae":"B","wings":"X","pattern":"D","legs":"X"},"bonus":0.2800000000000011},{"rt":1347.2999999523163,"stimulus":"bees-with-color/bee-A2DM.svg","response":0,"trial_type":"image-button-response","trial_index":141,"time_elapsed":174093,"internal_node_id":"0.0-6.0-0.1","subject_id":"6014e16b6515752ddfe51263","study_id":"60edd13110225f80f9f3709b","session_id":"6196c7038ed6ab1744f0d2d1","condition":"contingent","relevant_dimensions":["antennae","pattern"],"bee_group":{"antennae":"B","wings":"X","pattern":"D","legs":"X"},"bonus":0.2800000000000011},{"rt":862.3999999761581,"stimulus":"bees-with-color/bee-B1SF.svg","response":1,"trial_type":"image-button-response","trial_index":142,"time_elapsed":174957,"internal_node_id":"0.0-6.0-0.2","subject_id":"6014e16b6515752ddfe51263","study_id":"60edd13110225f80f9f3709b","session_id":"6196c7038ed6ab1744f0d2d1","condition":"contingent","relevant_dimensions":["antennae","pattern"],"bee_group":{"antennae":"B","wings":"X","pattern":"D","legs":"X"},"bonus":0.2800000000000011},{"rt":4335.5,"stimulus":"bees-with-color/bee-A2SM.svg","response":0,"trial_type":"image-button-response","trial_index":143,"time_elapsed":179294,"internal_node_id":"0.0-6.0-0.3","subject_id":"6014e16b6515752ddfe51263","study_id":"60edd13110225f80f9f3709b","session_id":"6196c7038ed6ab1744f0d2d1","condition":"contingent","relevant_dimensions":["antennae","pattern"],"bee_group":{"antennae":"B","wings":"X","pattern":"D","legs":"X"},"bonus":0.2800000000000011},{"rt":614.3999999761581,"stimulus":"bees-with-color/bee-B2DF.svg","response":1,"trial_type":"image-button-response","trial_index":144,"time_elapsed":179910,"internal_node_id":"0.0-6.0-0.4","subject_id":"6014e16b6515752ddfe51263","study_id":"60edd13110225f80f9f3709b","session_id":"6196c7038ed6ab1744f0d2d1","condition":"contingent","relevant_dimensions":["antennae","pattern"],"bee_group":{"antennae":"B","wings":"X","pattern":"D","legs":"X"},"bonus":0.2800000000000011},{"rt":395.6999999284744,"stimulus":"bees-with-color/bee-A2SF.svg","response":0,"trial_type":"image-button-response","trial_index":145,"time_elapsed":180307,"internal_node_id":"0.0-6.0-0.5","subject_id":"6014e16b6515752ddfe51263","study_id":"60edd13110225f80f9f3709b","session_id":"6196c7038ed6ab1744f0d2d1","condition":"contingent","relevant_dimensions":["antennae","pattern"],"bee_group":{"antennae":"B","wings":"X","pattern":"D","legs":"X"},"bonus":0.2800000000000011},{"rt":345.3000000715256,"stimulus":"bees-with-color/bee-A1DM.svg","response":0,"trial_type":"image-button-response","trial_index":146,"time_elapsed":180654,"internal_node_id":"0.0-6.0-0.6","subject_id":"6014e16b6515752ddfe51263","study_id":"60edd13110225f80f9f3709b","session_id":"6196c7038ed6ab1744f0d2d1","condition":"contingent","relevant_dimensions":["antennae","pattern"],"bee_group":{"antennae":"B","wings":"X","pattern":"D","legs":"X"},"bonus":0.2800000000000011},{"rt":431.59999990463257,"stimulus":"bees-with-color/bee-B2DM.svg","response":1,"trial_type":"image-button-response","trial_index":147,"time_elapsed":181087,"internal_node_id":"0.0-6.0-0.7","subject_id":"6014e16b6515752ddfe51263","study_id":"60edd13110225f80f9f3709b","session_id":"6196c7038ed6ab1744f0d2d1","condition":"contingent","relevant_dimensions":["antennae","pattern"],"bee_group":{"antennae":"B","wings":"X","pattern":"D","legs":"X"},"bonus":0.2800000000000011},{"rt":523.3999999761581,"stimulus":"bees-with-color/bee-A1SF.svg","response":0,"trial_type":"image-button-response","trial_index":148,"time_elapsed":181612,"internal_node_id":"0.0-6.0-0.8","subject_id":"6014e16b6515752ddfe51263","study_id":"60edd13110225f80f9f3709b","session_id":"6196c7038ed6ab1744f0d2d1","condition":"contingent","relevant_dimensions":["antennae","pattern"],"bee_group":{"antennae":"B","wings":"X","pattern":"D","legs":"X"},"bonus":0.2800000000000011},{"rt":658.1999999284744,"stimulus":"bees-with-color/bee-B2SF.svg","response":0,"trial_type":"image-button-response","trial_index":149,"time_elapsed":182271,"internal_node_id":"0.0-6.0-0.9","subject_id":"6014e16b6515752ddfe51263","study_id":"60edd13110225f80f9f3709b","session_id":"6196c7038ed6ab1744f0d2d1","condition":"contingent","relevant_dimensions":["antennae","pattern"],"bee_group":{"antennae":"B","wings":"X","pattern":"D","legs":"X"},"bonus":0.2800000000000011},{"rt":585.8999999761581,"stimulus":"bees-with-color/bee-B2SM.svg","response":1,"trial_type":"image-button-response","trial_index":150,"time_elapsed":182859,"internal_node_id":"0.0-6.0-0.10","subject_id":"6014e16b6515752ddfe51263","study_id":"60edd13110225f80f9f3709b","session_id":"6196c7038ed6ab1744f0d2d1","condition":"contingent","relevant_dimensions":["antennae","pattern"],"bee_group":{"antennae":"B","wings":"X","pattern":"D","legs":"X"},"bonus":0.2800000000000011},{"rt":959.6000000238419,"stimulus":"bees-with-color/bee-B1DM.svg","response":0,"trial_type":"image-button-response","trial_index":151,"time_elapsed":183820,"internal_node_id":"0.0-6.0-0.11","subject_id":"6014e16b6515752ddfe51263","study_id":"60edd13110225f80f9f3709b","session_id":"6196c7038ed6ab1744f0d2d1","condition":"contingent","relevant_dimensions":["antennae","pattern"],"bee_group":{"antennae":"B","wings":"X","pattern":"D","legs":"X"},"bonus":0.2800000000000011},{"rt":396.6999999284744,"stimulus":"bees-with-color/bee-B1DF.svg","response":1,"trial_type":"image-button-response","trial_index":152,"time_elapsed":184218,"internal_node_id":"0.0-6.0-0.12","subject_id":"6014e16b6515752ddfe51263","study_id":"60edd13110225f80f9f3709b","session_id":"6196c7038ed6ab1744f0d2d1","condition":"contingent","relevant_dimensions":["antennae","pattern"],"bee_group":{"antennae":"B","wings":"X","pattern":"D","legs":"X"},"bonus":0.2800000000000011},{"rt":427.60000002384186,"stimulus":"bees-with-color/bee-A1DF.svg","response":0,"trial_type":"image-button-response","trial_index":153,"time_elapsed":184647,"internal_node_id":"0.0-6.0-0.13","subject_id":"6014e16b6515752ddfe51263","study_id":"60edd13110225f80f9f3709b","session_id":"6196c7038ed6ab1744f0d2d1","condition":"contingent","relevant_dimensions":["antennae","pattern"],"bee_group":{"antennae":"B","wings":"X","pattern":"D","legs":"X"},"bonus":0.2800000000000011},{"rt":1785.3999999761581,"stimulus":"bees-with-color/bee-A1SM.svg","response":0,"trial_type":"image-button-response","trial_index":154,"time_elapsed":186434,"internal_node_id":"0.0-6.0-0.14","subject_id":"6014e16b6515752ddfe51263","study_id":"60edd13110225f80f9f3709b","session_id":"6196c7038ed6ab1744f0d2d1","condition":"contingent","relevant_dimensions":["antennae","pattern"],"bee_group":{"antennae":"B","wings":"X","pattern":"D","legs":"X"},"bonus":0.2800000000000011},{"rt":474.59999990463257,"stimulus":"bees-with-color/bee-A2DF.svg","response":1,"trial_type":"image-button-response","trial_index":155,"time_elapsed":186910,"internal_node_id":"0.0-6.0-0.15","subject_id":"6014e16b6515752ddfe51263","study_id":"60edd13110225f80f9f3709b","session_id":"6196c7038ed6ab1744f0d2d1","condition":"contingent","relevant_dimensions":["antennae","pattern"],"bee_group":{"antennae":"B","wings":"X","pattern":"D","legs":"X"},"bonus":0.2800000000000011},{"rt":337.7999999523163,"stimulus":"bees-with-color/bee-A1SF.svg","response":1,"trial_type":"image-button-response","trial_index":156,"time_elapsed":187249,"internal_node_id":"0.0-6.0-0.16","subject_id":"6014e16b6515752ddfe51263","study_id":"60edd13110225f80f9f3709b","session_id":"6196c7038ed6ab1744f0d2d1","condition":"contingent","relevant_dimensions":["antennae","pattern"],"bee_group":{"antennae":"B","wings":"X","pattern":"D","legs":"X"},"bonus":0.2800000000000011},{"rt":697.7999999523163,"stimulus":"bees-with-color/bee-B2SF.svg","response":0,"trial_type":"image-button-response","trial_index":157,"time_elapsed":187948,"internal_node_id":"0.0-6.0-0.17","subject_id":"6014e16b6515752ddfe51263","study_id":"60edd13110225f80f9f3709b","session_id":"6196c7038ed6ab1744f0d2d1","condition":"contingent","relevant_dimensions":["antennae","pattern"],"bee_group":{"antennae":"B","wings":"X","pattern":"D","legs":"X"},"bonus":0.2800000000000011},{"rt":358.7999999523163,"stimulus":"bees-with-color/bee-A2DF.svg","response":1,"trial_type":"image-button-response","trial_index":158,"time_elapsed":188308,"internal_node_id":"0.0-6.0-0.18","subject_id":"6014e16b6515752ddfe51263","study_id":"60edd13110225f80f9f3709b","session_id":"6196c7038ed6ab1744f0d2d1","condition":"contingent","relevant_dimensions":["antennae","pattern"],"bee_group":{"antennae":"B","wings":"X","pattern":"D","legs":"X"},"bonus":0.2800000000000011},{"rt":346,"stimulus":"bees-with-color/bee-B1DF.svg","response":0,"trial_type":"image-button-response","trial_index":159,"time_elapsed":188655,"internal_node_id":"0.0-6.0-0.19","subject_id":"6014e16b6515752ddfe51263","study_id":"60edd13110225f80f9f3709b","session_id":"6196c7038ed6ab1744f0d2d1","condition":"contingent","relevant_dimensions":["antennae","pattern"],"bee_group":{"antennae":"B","wings":"X","pattern":"D","legs":"X