[{"success":true,"trial_type":"fullscreen","trial_index":0,"time_elapsed":21732,"internal_node_id":"0.0-0.0","subject_id":"6118ce4e680f40a422206f5f","study_id":"60edd13110225f80f9f3709b","session_id":"6196c4a7aa0959644383d000","condition":"full-information","relevant_dimensions":["antennae","legs"],"bee_group":{"antennae":"B","wings":"X","pattern":"X","legs":"F"},"bonus":1.340000000000001},{"success":true,"timeout":false,"failed_images":[],"failed_audio":[],"failed_video":[],"trial_type":"preload","trial_index":1,"time_elapsed":27091,"internal_node_id":"0.0-1.0","subject_id":"6118ce4e680f40a422206f5f","study_id":"60edd13110225f80f9f3709b","session_id":"6196c4a7aa0959644383d000","condition":"full-information","relevant_dimensions":["antennae","legs"],"bee_group":{"antennae":"B","wings":"X","pattern":"X","legs":"F"},"bonus":1.340000000000001},{"rt":2366.699999988079,"stimulus":"Welcome! Press any key to begin.","response":" ","trial_type":"html-keyboard-response","trial_index":2,"time_elapsed":29460,"internal_node_id":"0.0-2.0","subject_id":"6118ce4e680f40a422206f5f","study_id":"60edd13110225f80f9f3709b","session_id":"6196c4a7aa0959644383d000","condition":"full-information","relevant_dimensions":["antennae","legs"],"bee_group":{"antennae":"B","wings":"X","pattern":"X","legs":"F"},"bonus":1.340000000000001},{"view_history":[{"page_index":0,"viewing_time":34723.10000002384},{"page_index":1,"viewing_time":35005.89999997616},{"page_index":2,"viewing_time":19831.80000001192},{"page_index":3,"viewing_time":22085.5},{"page_index":4,"viewing_time":10699.300000011921},{"page_index":5,"viewing_time":13896.199999988079},{"page_index":6,"viewing_time":22352},{"page_index":7,"viewing_time":10787.199999988079},{"page_index":8,"viewing_time":10123.700000047684},{"page_index":9,"viewing_time":6010.5},{"page_index":10,"viewing_time":4877.299999952316},{"page_index":11,"viewing_time":12568.900000035763},{"page_index":12,"viewing_time":22945.30000001192},{"page_index":13,"viewing_time":3005.5},{"page_index":14,"viewing_time":3769.699999988079}],"rt":232682.30000001192,"trial_type":"instructions","trial_index":3,"time_elapsed":262144,"internal_node_id":"0.0-3.0-0.0","subject_id":"6118ce4e680f40a422206f5f","study_id":"60edd13110225f80f9f3709b","session_id":"6196c4a7aa0959644383d000","condition":"full-information","relevant_dimensions":["antennae","legs"],"bee_group":{"antennae":"B","wings":"X","pattern":"X","legs":"F"},"bonus":1.340000000000001},{"rt":20763.399999976158,"response":{"Q0":["Two or six legs","Stripes or spots on body","Single or double wings","Antennae or no antennae"]},"question_order":[0],"trial_type":"survey-multi-select","trial_index":4,"time_elapsed":282914,"internal_node_id":"0.0-3.0-1.0","subject_id":"6118ce4e680f40a422206f5f","study_id":"60edd13110225f80f9f3709b","session_id":"6196c4a7aa0959644383d000","condition":"full-information","relevant_dimensions":["antennae","legs"],"bee_group":{"antennae":"B","wings":"X","pattern":"X","legs":"F"},"correct":true,"bonus":1.340000000000001},{"rt":44734.69999998808,"response":{"Q1":"No.","Q2":"Based on the four features of the bee.","Q3":"You learn if it was friendly or dangerous, but do not alter your bonus."},"question_order":[0,1,2],"trial_type":"survey-multi-choice","trial_index":5,"time_elapsed":327652,"internal_node_id":"0.0-3.0-2.0","subject_id":"6118ce4e680f40a422206f5f","study_id":"60edd13110225f80f9f3709b","session_id":"6196c4a7aa0959644383d000","condition":"full-information","relevant_dimensions":["antennae","legs"],"bee_group":{"antennae":"B","wings":"X","pattern":"X","legs":"F"},"correct":true,"bonus":1.340000000000001},{"rt":4834.699999988079,"stimulus":"<p>Congrats, you got everything right<br>When you're ready, click the button below to continue to the experiment.</p>","response":0,"trial_type":"html-button-response","trial_index":6,"time_elapsed":332489,"internal_node_id":"0.0-3.0-3.0","subject_id":"6118ce4e680f40a422206f5f","study_id":"60edd13110225f80f9f3709b","session_id":"6196c4a7aa0959644383d000","condition":"full-information","relevant_dimensions":["antennae","legs"],"bee_group":{"antennae":"B","wings":"X","pattern":"X","legs":"F"},"bonus":1.340000000000001},{"rt":15804.5,"stimulus":"bees-with-color/bee-B1SF.svg","response":1,"trial_type":"image-button-response","trial_index":7,"time_elapsed":348296,"internal_node_id":"0.0-4.0-0.0","subject_id":"6118ce4e680f40a422206f5f","study_id":"60edd13110225f80f9f3709b","session_id":"6196c4a7aa0959644383d000","condition":"full-information","relevant_dimensions":["antennae","legs"],"bee_group":{"antennae":"B","wings":"X","pattern":"X","legs":"F"},"action":"avoid","summary":"good-avoid","bonus":1.340000000000001},{"rt":19444.099999964237,"stimulus":"\n                    <p><b>Action: <em>avoid</em></b></p>\n                    <p>This is the bee that you just saw.</p>\n                    <img src=\"bees-with-color/bee-B1SF.svg\" width=\"200\">\n                    <p><span class=\"greenText\">Good choice!</span>  This bee would have stung you.<br>Your bonus pay is unchanged, and remains at $0.54.</p>\n            ","response":0,"trial_type":"html-button-response","trial_index":8,"time_elapsed":367743,"internal_node_id":"0.0-4.0-1.0","subject_id":"6118ce4e680f40a422206f5f","study_id":"60edd13110225f80f9f3709b","session_id":"6196c4a7aa0959644383d000","condition":"full-information","relevant_dimensions":["antennae","legs"],"bee_group":{"antennae":"B","wings":"X","pattern":"X","legs":"F"},"bonus":1.340000000000001},{"rt":12023.199999988079,"stimulus":"bees-with-color/bee-A2SF.svg","response":1,"trial_type":"image-button-response","trial_index":9,"time_elapsed":379768,"internal_node_id":"0.0-4.0-0.1","subject_id":"6118ce4e680f40a422206f5f","study_id":"60edd13110225f80f9f3709b","session_id":"6196c4a7aa0959644383d000","condition":"full-information","relevant_dimensions":["antennae","legs"],"bee_group":{"antennae":"B","wings":"X","pattern":"X","legs":"F"},"action":"avoid","summary":"bad-avoid","bonus":1.340000000000001},{"rt":25597.099999964237,"stimulus":"\n                    <p><b>Action: <em>avoid</em></b></p>\n                    <p>This is the bee that you just saw.</p>\n                    <img src=\"bees-with-color/bee-A2SF.svg\" width=\"200\">\n                    <p><span class=\"redText\">Bad choice,</span> the bee was friendly.<br>Your bonus pay is unchanged, and remains at $0.54.</p>\n            ","response":0,"trial_type":"html-button-response","trial_index":10,"time_elapsed":405367,"internal_node_id":"0.0-4.0-1.1","subject_id":"6118ce4e680f40a422206f5f","study_id":"60edd13110225f80f9f3709b","session_id":"6196c4a7aa0959644383d000","condition":"full-information","relevant_dimensions":["antennae","legs"],"bee_group":{"antennae":"B","wings":"X","pattern":"X","legs":"F"},"bonus":1.340000000000001},{"rt":2634.5,"stimulus":"bees-with-color/bee-B1SM.svg","response":0,"trial_type":"image-button-response","trial_index":11,"time_elapsed":408004,"internal_node_id":"0.0-4.0-0.2","subject_id":"6118ce4e680f40a422206f5f","study_id":"60edd13110225f80f9f3709b","session_id":"6196c4a7aa0959644383d000","condition":"full-information","relevant_dimensions":["antennae","legs"],"bee_group":{"antennae":"B","wings":"X","pattern":"X","legs":"F"},"action":"harvest","summary":"good-harvest","bonus":1.340000000000001},{"rt":9910.099999964237,"stimulus":"\n                    <p><b>Action: <em>harvest</em></b></p>\n                    <p>This is the bee that you just saw.</p>\n                    <img src=\"bees-with-color/bee-B1SM.svg\" width=\"200\">\n                    <p><span class=\"greenText\"><b>Successful harvest!</b></span><br>Your pay has increased by $0.02. Your bonus pay is now $0.56.</p>\n            ","response":0,"trial_type":"html-button-response","trial_index":12,"time_elapsed":417915,"internal_node_id":"0.0-4.0-1.2","subject_id":"6118ce4e680f40a422206f5f","study_id":"60edd13110225f80f9f3709b","session_id":"6196c4a7aa0959644383d000","condition":"full-information","relevant_dimensions":["antennae","legs"],"bee_group":{"antennae":"B","wings":"X","pattern":"X","legs":"F"},"bonus":1.340000000000001},{"rt":2251.300000011921,"stimulus":"bees-with-color/bee-A2DF.svg","response":1,"trial_type":"image-button-response","trial_index":13,"time_elapsed":420169,"internal_node_id":"0.0-4.0-0.3","subject_id":"6118ce4e680f40a422206f5f","study_id":"60edd13110225f80f9f3709b","session_id":"6196c4a7aa0959644383d000","condition":"full-information","relevant_dimensions":["antennae","legs"],"bee_group":{"antennae":"B","wings":"X","pattern":"X","legs":"F"},"action":"avoid","summary":"bad-avoid","bonus":1.340000000000001},{"rt":34693.40000003576,"stimulus":"\n                    <p><b>Action: <em>avoid</em></b></p>\n                    <p>This is the bee that you just saw.</p>\n                    <img src=\"bees-with-color/bee-A2DF.svg\" width=\"200\">\n                    <p><span class=\"redText\">Bad choice,</span> the bee was friendly.<br>Your bonus pay is unchanged, and remains at $0.56.</p>\n            ","response":0,"trial_type":"html-button-response","trial_index":14,"time_elapsed":454864,"internal_node_id":"0.0-4.0-1.3","subject_id":"6118ce4e680f40a422206f5f","study_id":"60edd13110225f80f9f3709b","session_id":"6196c4a7aa0959644383d000","condition":"full-information","relevant_dimensions":["antennae","legs"],"bee_group":{"antennae":"B","wings":"X","pattern":"X","legs":"F"},"bonus":1.340000000000001},{"rt":10275.599999964237,"stimulus":"bees-with-color/bee-A1SM.svg","response":0,"trial_type":"image-button-response","trial_index":15,"time_elapsed":465142,"internal_node_id":"0.0-4.0-0.4","subject_id":"6118ce4e680f40a422206f5f","study_id":"60edd13110225f80f9f3709b","session_id":"6196c4a7aa0959644383d000","condition":"full-information","relevant_dimensions":["antennae","legs"],"bee_group":{"antennae":"B","wings":"X","pattern":"X","legs":"F"},"action":"harvest","summary":"good-harvest","bonus":1.340000000000001},{"rt":6315,"stimulus":"\n                    <p><b>Action: <em>harvest</em></b></p>\n                    <p>This is the bee that you just saw.</p>\n                    <img src=\"bees-with-color/bee-A1SM.svg\" width=\"200\">\n                    <p><span class=\"greenText\"><b>Successful harvest!</b></span><br>Your pay has increased by $0.02. Your bonus pay is now $0.58.</p>\n            ","response":0,"trial_type":"html-button-response","trial_index":16,"time_elapsed":471459,"internal_node_id":"0.0-4.0-1.4","subject_id":"6118ce4e680f40a422206f5f","study_id":"60edd13110225f80f9f3709b","session_id":"6196c4a7aa0959644383d000","condition":"full-information","relevant_dimensions":["antennae","legs"],"bee_group":{"antennae":"B","wings":"X","pattern":"X","legs":"F"},"bonus":1.340000000000001},{"rt":1919.5,"stimulus":"bees-with-color/bee-A1SF.svg","response":1,"trial_type":"image-button-response","trial_index":17,"time_elapsed":473380,"internal_node_id":"0.0-4.0-0.5","subject_id":"6118ce4e680f40a422206f5f","study_id":"60edd13110225f80f9f3709b","session_id":"6196c4a7aa0959644383d000","condition":"full-information","relevant_dimensions":["antennae","legs"],"bee_group":{"antennae":"B","wings":"X","pattern":"X","legs":"F"},"action":"avoid","summary":"bad-avoid","bonus":1.340000000000001},{"rt":5346.300000011921,"stimulus":"\n                    <p><b>Action: <em>avoid</em></b></p>\n                    <p>This is the bee that you just saw.</p>\n                    <img src=\"bees-with-color/bee-A1SF.svg\" width=\"200\">\n                    <p><span class=\"redText\">Bad choice,</span> the bee was friendly.<br>Your bonus pay is unchanged, and remains at $0.58.</p>\n            ","response":0,"trial_type":"html-button-response","trial_index":18,"time_elapsed":478729,"internal_node_id":"0.0-4.0-1.5","subject_id":"6118ce4e680f40a422206f5f","study_id":"60edd13110225f80f9f3709b","session_id":"6196c4a7aa0959644383d000","condition":"full-information","relevant_dimensions":["antennae","legs"],"bee_group":{"antennae":"B","wings":"X","pattern":"X","legs":"F"},"bonus":1.340000000000001},{"rt":5167.699999988079,"stimulus":"bees-with-color/bee-B2SF.svg","response":1,"trial_type":"image-button-response","trial_index":19,"time_elapsed":483900,"internal_node_id":"0.0-4.0-0.6","subject_id":"6118ce4e680f40a422206f5f","study_id":"60edd13110225f80f9f3709b","session_id":"6196c4a7aa0959644383d000","condition":"full-information","relevant_dimensions":["antennae","legs"],"bee_group":{"antennae":"B","wings":"X","pattern":"X","legs":"F"},"action":"avoid","summary":"good-avoid","bonus":1.340000000000001},{"rt":3142.400000035763,"stimulus":"\n                    <p><b>Action: <em>avoid</em></b></p>\n                    <p>This is the bee that you just saw.</p>\n                    <img src=\"bees-with-color/bee-B2SF.svg\" width=\"200\">\n                    <p><span class=\"greenText\">Good choice!</span>  This bee would have stung you.<br>Your bonus pay is unchanged, and remains at $0.58.</p>\n            ","response":0,"trial_type":"html-button-response","trial_index":20,"time_elapsed":487043,"internal_node_id":"0.0-4.0-1.6","subject_id":"6118ce4e680f40a422206f5f","study_id":"60edd13110225f80f9f3709b","session_id":"6196c4a7aa0959644383d000","condition":"full-information","relevant_dimensions":["antennae","legs"],"bee_group":{"antennae":"B","wings":"X","pattern":"X","legs":"F"},"bonus":1.340000000000001},{"rt":1769.300000011921,"stimulus":"bees-with-color/bee-B1DM.svg","response":0,"trial_type":"image-button-response","trial_index":21,"time_elapsed":488815,"internal_node_id":"0.0-4.0-0.7","subject_id":"6118ce4e680f40a422206f5f","study_id":"60edd13110225f80f9f3709b","session_id":"6196c4a7aa0959644383d000","condition":"full-information","relevant_dimensions":["antennae","legs"],"bee_group":{"antennae":"B","wings":"X","pattern":"X","legs":"F"},"action":"harvest","summary":"good-harvest","bonus":1.340000000000001},{"rt":5232.100000023842,"stimulus":"\n                    <p><b>Action: <em>harvest</em></b></p>\n                    <p>This is the bee that you just saw.</p>\n                    <img src=\"bees-with-color/bee-B1DM.svg\" width=\"200\">\n                    <p><span class=\"greenText\"><b>Successful harvest!</b></span><br>Your pay has increased by $0.02. Your bonus pay is now $0.60.</p>\n            ","response":0,"trial_type":"html-button-response","trial_index":22,"time_elapsed":494048,"internal_node_id":"0.0-4.0-1.7","subject_id":"6118ce4e680f40a422206f5f","study_id":"60edd13110225f80f9f3709b","session_id":"6196c4a7aa0959644383d000","condition":"full-information","relevant_dimensions":["antennae","legs"],"bee_group":{"antennae":"B","wings":"X","pattern":"X","legs":"F"},"bonus":1.340000000000001},{"rt":15413.5,"stimulus":"bees-with-color/bee-A1DM.svg","response":1,"trial_type":"image-button-response","trial_index":23,"time_elapsed":509464,"internal_node_id":"0.0-4.0-0.8","subject_id":"6118ce4e680f40a422206f5f","study_id":"60edd13110225f80f9f3709b","session_id":"6196c4a7aa0959644383d000","condition":"full-information","relevant_dimensions":["antennae","legs"],"bee_group":{"antennae":"B","wings":"X","pattern":"X","legs":"F"},"action":"avoid","summary":"bad-avoid","bonus":1.340000000000001},{"rt":5475.400000035763,"stimulus":"\n                    <p><b>Action: <em>avoid</em></b></p>\n                    <p>This is the bee that you just saw.</p>\n                    <img src=\"bees-with-color/bee-A1DM.svg\" width=\"200\">\n                    <p><span class=\"redText\">Bad choice,</span> the bee was friendly.<br>Your bonus pay is unchanged, and remains at $0.60.</p>\n            ","response":0,"trial_type":"html-button-response","trial_index":24,"time_elapsed":514941,"internal_node_id":"0.0-4.0-1.8","subject_id":"6118ce4e680f40a422206f5f","study_id":"60edd13110225f80f9f3709b","session_id":"6196c4a7aa0959644383d000","condition":"full-information","relevant_dimensions":["antennae","legs"],"bee_group":{"antennae":"B","wings":"X","pattern":"X","legs":"F"},"bonus":1.340000000000001},{"rt":13335.800000011921,"stimulus":"bees-with-color/bee-B2DM.svg","response":1,"trial_type":"image-button-response","trial_index":25,"time_elapsed":528279,"internal_node_id":"0.0-4.0-0.9","subject_id":"6118ce4e680f40a422206f5f","study_id":"60edd13110225f80f9f3709b","session_id":"6196c4a7aa0959644383d000","condition":"full-information","relevant_dimensions":["antennae","legs"],"bee_group":{"antennae":"B","wings":"X","pattern":"X","legs":"F"},"action":"avoid","summary":"bad-avoid","bonus":1.340000000000001},{"rt":7270.599999964237,"stimulus":"\n                    <p><b>Action: <em>avoid</em></b></p>\n                    <p>This is the bee that you just saw.</p>\n                    <img src=\"bees-with-color/bee-B2DM.svg\" width=\"200\">\n                    <p><span class=\"redText\">Bad choice,</span> the bee was friendly.<br>Your bonus pay is unchanged, and remains at $0.60.</p>\n            ","response":0,"trial_type":"html-button-response","trial_index":26,"time_elapsed":535551,"internal_node_id":"0.0-4.0-1.9","subject_id":"6118ce4e680f40a422206f5f","study_id":"60edd13110225f80f9f3709b","session_id":"6196c4a7aa0959644383d000","condition":"full-information","relevant_dimensions":["antennae","legs"],"bee_group":{"antennae":"B","wings":"X","pattern":"X","legs":"F"},"bonus":1.340000000000001},{"rt":7524.800000011921,"stimulus":"bees-with-color/bee-B2DF.svg","response":0,"trial_type":"image-button-response","trial_index":27,"time_elapsed":543077,"internal_node_id":"0.0-4.0-0.10","subject_id":"6118ce4e680f40a422206f5f","study_id":"60edd13110225f80f9f3709b","session_id":"6196c4a7aa0959644383d000","condition":"full-information","relevant_dimensions":["antennae","legs"],"bee_group":{"antennae":"B","wings":"X","pattern":"X","legs":"F"},"action":"harvest","summary":"bad-harvest","bonus":1.340000000000001},{"rt":5295.5,"stimulus":"\n                    <p><b>Action: <em>harvest</em></b></p>\n                    <p>This is the bee that you just saw.</p>\n                    <img src=\"bees-with-color/bee-B2DF.svg\" width=\"200\">\n                    <p><span class=\"redText\">Bad choice, the bee was angry.</span><br><b>You have been stung!</b><br>Your pay has been decreased by $0.10. Your bonus pay is now $0.50.</p>\n            ","response":0,"trial_type":"html-button-response","trial_index":28,"time_elapsed":548374,"internal_node_id":"0.0-4.0-1.10","subject_id":"6118ce4e680f40a422206f5f","study_id":"60edd13110225f80f9f3709b","session_id":"6196c4a7aa0959644383d000","condition":"full-information","relevant_dimensions":["antennae","legs"],"bee_group":{"antennae":"B","wings":"X","pattern":"X","legs":"F"},"bonus":1.340000000000001},{"rt":21193,"stimulus":"bees-with-color/bee-B1DF.svg","response":0,"trial_type":"image-button-response","trial_index":29,"time_elapsed":569569,"internal_node_id":"0.0-4.0-0.11","subject_id":"6118ce4e680f40a422206f5f","study_id":"60edd13110225f80f9f3709b","session_id":"6196c4a7aa0959644383d000","condition":"full-information","relevant_dimensions":["antennae","legs"],"bee_group":{"antennae":"B","wings":"X","pattern":"X","legs":"F"},"action":"harvest","summary":"bad-harvest","bonus":1.340000000000001},{"rt":3718.800000011921,"stimulus":"\n                    <p><b>Action: <em>harvest</em></b></p>\n                    <p>This is the bee that you just saw.</p>\n                    <img src=\"bees-with-color/bee-B1DF.svg\" width=\"200\">\n                    <p><span class=\"redText\">Bad choice, the bee was angry.</span><br><b>You have been stung!</b><br>Your pay has been decreased by $0.10. Your bonus pay is now $0.40.</p>\n            ","response":0,"trial_type":"html-button-response","trial_index":30,"time_elapsed":573289,"internal_node_id":"0.0-4.0-1.11","subject_id":"6118ce4e680f40a422206f5f","study_id":"60edd13110225f80f9f3709b","session_id":"6196c4a7aa0959644383d000","condition":"full-information","relevant_dimensions":["antennae","legs"],"bee_group":{"antennae":"B","wings":"X","pattern":"X","legs":"F"},"bonus":1.340000000000001},{"rt":2837.300000011921,"stimulus":"bees-with-color/bee-A1DF.svg","response":0,"trial_type":"image-button-response","trial_index":31,"time_elapsed":576129,"internal_node_id":"0.0-4.0-0.12","subject_id":"6118ce4e680f40a422206f5f","study_id":"60edd13110225f80f9f3709b","session_id":"6196c4a7aa0959644383d000","condition":"full-information","relevant_dimensions":["antennae","legs"],"bee_group":{"antennae":"B","wings":"X","pattern":"X","legs":"F"},"action":"harvest","summary":"good-harvest","bonus":1.340000000000001},{"rt":2877.199999988079,"stimulus":"\n                    <p><b>Action: <em>harvest</em></b></p>\n                    <p>This is the bee that you just saw.</p>\n                    <img src=\"bees-with-color/bee-A1DF.svg\" width=\"200\">\n                    <p><span class=\"greenText\"><b>Successful harvest!</b></span><br>Your pay has increased by $0.02. Your bonus pay is now $0.42.</p>\n            ","response":0,"trial_type":"html-button-response","trial_index":32,"time_elapsed":579007,"internal_node_id":"0.0-4.0-1.12","subject_id":"6118ce4e680f40a422206f5f","study_id":"60edd13110225f80f9f3709b","session_id":"6196c4a7aa0959644383d000","condition":"full-information","relevant_dimensions":["antennae","legs"],"bee_group":{"antennae":"B","wings":"X","pattern":"X","legs":"F"},"bonus":1.340000000000001},{"rt":13807.200000047684,"stimulus":"bees-with-color/bee-B2SM.svg","response":0,"trial_type":"image-button-response","trial_index":33,"time_elapsed":592816,"internal_node_id":"0.0-4.0-0.13","subject_id":"6118ce4e680f40a422206f5f","study_id":"60edd13110225f80f9f3709b","session_id":"6196c4a7aa0959644383d000","condition":"full-information","relevant_dimensions":["antennae","legs"],"bee_group":{"antennae":"B","wings":"X","pattern":"X","legs":"F"},"action":"harvest","summary":"good-harvest","bonus":1.340000000000001},{"rt":2352.600000023842,"stimulus":"\n                    <p><b>Action: <em>harvest</em></b></p>\n                    <p>This is the bee that you just saw.</p>\n                    <img src=\"bees-with-color/bee-B2SM.svg\" width=\"200\">\n                    <p><span class=\"greenText\"><b>Successful harvest!</b></span><br>Your pay has increased by $0.02. Your bonus pay is now $0.44.</p>\n            ","response":0,"trial_type":"html-button-response","trial_index":34,"time_elapsed":595171,"internal_node_id":"0.0-4.0-1.13","subject_id":"6118ce4e680f40a422206f5f","study_id":"60edd13110225f80f9f3709b","session_id":"6196c4a7aa0959644383d000","condition":"full-information","relevant_dimensions":["antennae","legs"],"bee_group":{"antennae":"B","wings":"X","pattern":"X","legs":"F"},"bonus":1.340000000000001},{"rt":15987.600000023842,"stimulus":"bees-with-color/bee-A2SM.svg","response":1,"trial_type":"image-button-response","trial_index":35,"time_elapsed":611160,"internal_node_id":"0.0-4.0-0.14","subject_id":"6118ce4e680f40a422206f5f","study_id":"60edd13110225f80f9f3709b","session_id":"6196c4a7aa0959644383d000","condition":"full-information","relevant_dimensions":["antennae","legs"],"bee_group":{"antennae":"B","wings":"X","pattern":"X","legs":"F"},"action":"avoid","summary":"bad-avoid","bonus":1.340000000000001},{"rt":5500.599999964237,"stimulus":"\n                    <p><b>Action: <em>avoid</em></b></p>\n                    <p>This is the bee that you just saw.</p>\n                    <img src=\"bees-with-color/bee-A2SM.svg\" width=\"200\">\n                    <p><span class=\"redText\">Bad choice,</span> the bee was friendly.<br>Your bonus pay is unchanged, and remains at $0.44.</p>\n            ","response":0,"trial_type":"html-button-response","trial_index":36,"time_elapsed":616663,"internal_node_id":"0.0-4.0-1.14","subject_id":"6118ce4e680f40a422206f5f","study_id":"60edd13110225f80f9f3709b","session_id":"6196c4a7aa0959644383d000","condition":"full-information","relevant_dimensions":["antennae","legs"],"bee_group":{"antennae":"B","wings":"X","pattern":"X","legs":"F"},"bonus":1.340000000000001},{"rt":20037.80000001192,"stimulus":"bees-with-color/bee-A2DM.svg","response":1,"trial_type":"image-button-response","trial_index":37,"time_elapsed":636702,"internal_node_id":"0.0-4.0-0.15","subject_id":"6118ce4e680f40a422206f5f","study_id":"60edd13110225f80f9f3709b","session_id":"6196c4a7aa0959644383d000","condition":"full-information","relevant_dimensions":["antennae","legs"],"bee_group":{"antennae":"B","wings":"X","pattern":"X","legs":"F"},"action":"avoid","summary":"bad-avoid","bonus":1.340000000000001},{"rt":5052.699999988079,"stimulus":"\n                    <p><b>Action: <em>avoid</em></b></p>\n                    <p>This is the bee that you just saw.</p>\n                    <img src=\"bees-with-color/bee-A2DM.svg\" width=\"200\">\n                    <p><span class=\"redText\">Bad choice,</span> the bee was friendly.<br>Your bonus pay is unchanged, and remains at $0.44.</p>\n            ","response":0,"trial_type":"html-button-response","trial_index":38,"time_elapsed":641757,"internal_node_id":"0.0-4.0-1.15","subject_id":"6118ce4e680f40a422206f5f","study_id":"60edd13110225f80f9f3709b","session_id":"6196c4a7aa0959644383d000","condition":"full-information","relevant_dimensions":["antennae","legs"],"bee_group":{"antennae":"B","wings":"X","pattern":"X","legs":"F"},"bonus":1.340000000000001},{"rt":11488.699999988079,"stimulus":"bees-with-color/bee-B2DM.svg","response":0,"trial_type":"image-button-response","trial_index":39,"time_elapsed":653247,"internal_node_id":"0.0-4.0-0.16","subject_id":"6118ce4e680f40a422206f5f","study_id":"60edd13110225f80f9f3709b","session_id":"6196c4a7aa0959644383d000","condition":"full-information","relevant_dimensions":["antennae","legs"],"bee_group":{"antennae":"B","wings":"X","pattern":"X","legs":"F"},"action":"harvest","summary":"good-harvest","bonus":1.340000000000001},{"rt":2901.699999988079,"stimulus":"\n                    <p><b>Action: <em>harvest</em></b></p>\n                    <p>This is the bee that you just saw.</p>\n                    <img src=\"bees-with-color/bee-B2DM.svg\" width=\"200\">\n                    <p><span class=\"greenText\"><b>Successful harvest!</b></span><br>Your pay has increased by $0.02. Your bonus pay is now $0.46.</p>\n            ","response":0,"trial_type":"html-button-response","trial_index":40,"time_elapsed":656151,"internal_node_id":"0.0-4.0-1.16","subject_id":"6118ce4e680f40a422206f5f","study_id":"60edd13110225f80f9f3709b","session_id":"6196c4a7aa0959644383d000","condition":"full-information","relevant_dimensions":["antennae","legs"],"bee_group":{"antennae":"B","wings":"X","pattern":"X","legs":"F"},"bonus":1.340000000000001},{"rt":6312.800000011921,"stimulus":"bees-with-color/bee-A2SM.svg","response":0,"trial_type":"image-button-response","trial_index":41,"time_elapsed":662466,"internal_node_id":"0.0-4.0-0.17","subject_id":"6118ce4e680f40a422206f5f","study_id":"60edd13110225f80f9f3709b","session_id":"6196c4a7aa0959644383d000","condition":"full-information","relevant_dimensions":["antennae","legs"],"bee_group":{"antennae":"B","wings":"X","pattern":"X","legs":"F"},"action":"harvest","summary":"good-harvest","bonus":1.340000000000001},{"rt":1742.5,"stimulus":"\n                    <p><b>Action: <em>harvest</em></b></p>\n                    <p>This is the bee that you just saw.</p>\n                    <img src=\"bees-with-color/bee-A2SM.svg\" width=\"200\">\n                    <p><span class=\"greenText\"><b>Successful harvest!</b></span><br>Your pay has increased by $0.02. Your bonus pay is now $0.48.</p>\n            ","response":0,"trial_type":"html-button-response","trial_index":42,"time_elapsed":664210,"internal_node_id":"0.0-4.0-1.17","subject_id":"6118ce4e680f40a422206f5f","study_id":"60edd13110225f80f9f3709b","session_id":"6196c4a7aa0959644383d000","condition":"full-information","relevant_dimensions":["antennae","legs"],"bee_group":{"antennae":"B","wings":"X","pattern":"X","legs":"F"},"bonus":1.340000000000001},{"rt":11297.099999964237,"stimulus":"bees-with-color/bee-B1SM.svg","response":0,"trial_type":"image-button-response","trial_index":43,"time_elapsed":675509,"internal_node_id":"0.0-4.0-0.18","subject_id":"6118ce4e680f40a422206f5f","study_id":"60edd13110225f80f9f3709b","session_id":"6196c4a7aa0959644383d000","condition":"full-information","relevant_dimensions":["antennae","legs"],"bee_group":{"antennae":"B","wings":"X","pattern":"X","legs":"F"},"action":"harvest","summary":"good-harvest","bonus":1.340000000000001},{"rt":2544.800000011921,"stimulus":"\n                    <p><b>Action: <em>harvest</em></b></p>\n                    <p>This is the bee that you just saw.</p>\n                    <img src=\"bees-with-color/bee-B1SM.svg\" width=\"200\">\n                    <p><span class=\"greenText\"><b>Successful harvest!</b></span><br>Your pay has increased by $0.02. Your bonus pay is now $0.50.</p>\n            ","response":0,"trial_type":"html-button-response","trial_index":44,"time_elapsed":678056,"internal_node_id":"0.0-4.0-1.18","subject_id":"6118ce4e680f40a422206f5f","study_id":"60edd13110225f80f9f3709b","session_id":"6196c4a7aa0959644383d000","condition":"full-information","relevant_dimensions":["antennae","legs"],"bee_group":{"antennae":"B","wings":"X","pattern":"X","legs":"F"},"bonus":1.340000000000001},{"rt":18246.30000001192,"stimulus":"bees-with-color/bee-A1DF.svg","response":1,"trial_type":"image-button-response","trial_index":45,"time_elapsed":696304,"internal_node_id":"0.0-4.0-0.19","subject_id":"6118ce4e680f40a422206f5f","study_id":"60edd13110225f80f9f3709b","session_id":"6196c4a7aa0959644383d000","condition":"full-information","relevant_dimensions":["antennae","legs"],"bee_group":{"antennae":"B","wings":"X","pattern":"X","legs":"F"},"action":"avoid","summary":"bad-avoid","bonus":1.340000000000001},{"rt":6468.099999964237,"stimulus":"\n                    <p><b>Action: <em>avoid</em></b></p>\n                    <p>This is the bee that you just saw.</p>\n                    <img src=\"bees-with-color/bee-A1DF.svg\" width=\"200\">\n                    <p><span class=\"redText\">Bad choice,</span> the bee was friendly.<br>Your bonus pay is unchanged, and remains at $0.50.</p>\n            ","response":0,"trial_type":"html-button-response","trial_index":46,"time_elapsed":702774,"internal_node_id":"0.0-4.0-1.19","subject_id":"6118ce4e680f40a422206f5f","study_id":"60edd13110225f80f9f3709b","session_id":"6196c4a7aa0959644383d000","condition":"full-information","relevant_dimensions":["antennae","legs"],"bee_group":{"antennae":"B","wings":"X","pattern":"X","legs":"F"},"bonus":1.340000000000001},{"rt":15976.699999988079,"stimulus":"bees-with-color/bee-B1SF.svg","response":0,"trial_type":"image-button-response","trial_index":47,"time_elapsed":718753,"internal_node_id":"0.0-4.0-0.20","subject_id":"6118ce4e680f40a422206f5f","study_id":"60edd13110225f80f9f3709b","session_id":"6196c4a7aa0959644383d000","condition":"full-information","relevant_dimensions":["antennae","legs"],"bee_group":{"antennae":"B","wings":"X","pattern":"X","legs":"F"},"action":"harvest","summary":"bad-harvest","bonus":1.340000000000001},{"rt":9052,"stimulus":"\n                    <p><b>Action: <em>harvest</em></b></p>\n                    <p>This is the bee that you just saw.</p>\n                    <img src=\"bees-with-color/bee-B1SF.svg\" width=\"200\">\n                    <p><span class=\"redText\">Bad choice, the bee was angry.</span><br><b>You have been stung!</b><br>Your pay has been decreased by $0.10. Your bonus pay is now $0.40.</p>\n            ","response":0,"trial_type":"html-button-response","trial_index":48,"time_elapsed":727806,"internal_node_id":"0.0-4.0-1.20","subject_id":"6118ce4e680f40a422206f5f","study_id":"60edd13110225f80f9f3709b","session_id":"6196c4a7aa0959644383d000","condition":"full-information","relevant_dimensions":["antennae","legs"],"bee_group":{"antennae":"B","wings":"X","pattern":"X","legs":"F"},"bonus":1.340000000000001},{"rt":10303.100000023842,"stimulus":"bees-with-color/bee-A2DF.svg","response":0,"trial_type":"image-button-response","trial_index":49,"time_elapsed":738111,"internal_node_id":"0.0-4.0-0.21","subject_id":"6118ce4e680f40a422206f5f","study_id":"60edd13110225f80f9f3709b","session_id":"6196c4a7aa0959644383d000","condition":"full-information","relevant_dimensions":["antennae","legs"],"bee_group":{"antennae":"B","wings":"X","pattern":"X","legs":"F"},"action":"harvest","summary":"good-harvest","bonus":1.340000000000001},{"rt":2405.899999976158,"stimulus":"\n                    <p><b>Action: <em>harvest</em></b></p>\n                    <p>This is the bee that you just saw.</p>\n                    <img src=\"bees-with-color/bee-A2DF.svg\" width=\"200\">\n                    <p><span class=\"greenText\"><b>Successful harvest!</b></span><br>Your pay has increased by $0.02. Your bonus pay is now $0.42.</p>\n            ","response":0,"trial_type":"html-button-response","trial_index":50,"time_elapsed":740519,"internal_node_id":"0.0-4.0-1.21","subject_id":"6118ce4e680f40a422206f5f","study_id":"60edd13110225f80f9f3709b","session_id":"6196c4a7aa0959644383d000","condition":"full-information","relevant_dimensions":["antennae","legs"],"bee_group":{"antennae":"B","wings":"X","pattern":"X","legs":"F"},"bonus":1.340000000000001},{"rt":29886.19999998808,"stimulus":"bees-with-color/bee-B1DF.svg","response":1,"trial_type":"image-button-response","trial_index":51,"time_elapsed":770408,"internal_node_id":"0.0-4.0-0.22","subject_id":"6118ce4e680f40a422206f5f","study_id":"60edd13110225f80f9f3709b","session_id":"6196c4a7aa0959644383d000","condition":"full-information","relevant_dimensions":["antennae","legs"],"bee_group":{"antennae":"B","wings":"X","pattern":"X","legs":"F"},"action":"avoid","summary":"good-avoid","bonus":1.340000000000001},{"rt":5996.099999964237,"stimulus":"\n                    <p><b>Action: <em>avoid</em></b></p>\n                    <p>This is the bee that you just saw.</p>\n                    <img src=\"bees-with-color/bee-B1DF.svg\" width=\"200\">\n                    <p><span class=\"greenText\">Good choice!</span>  This bee would have stung you.<br>Your bonus pay is unchanged, and remains at $0.42.</p>\n            ","response":0,"trial_type":"html-button-response","trial_index":52,"time_elapsed":776406,"internal_node_id":"0.0-4.0-1.22","subject_id":"6118ce4e680f40a422206f5f","study_id":"60edd13110225f80f9f3709b","session_id":"6196c4a7aa0959644383d000","condition":"full-information","relevant_dimensions":["antennae","legs"],"bee_group":{"antennae":"B","wings":"X","pattern":"X","legs":"F"},"bonus":1.340000000000001},{"rt":18357.899999976158,"stimulus":"bees-with-color/bee-A1SF.svg","response":0,"trial_type":"image-button-response","trial_index":53,"time_elapsed":794766,"internal_node_id":"0.0-4.0-0.23","subject_id":"6118ce4e680f40a422206f5f","study_id":"60edd13110225f80f9f3709b","session_id":"6196c4a7aa0959644383d000","condition":"full-information","relevant_dimensions":["antennae","legs"],"bee_group":{"antennae":"B","wings":"X","pattern":"X","legs":"F"},"action":"harvest","summary":"good-harvest","bonus":1.340000000000001},{"rt":4990.400000035763,"stimulus":"\n                    <p><b>Action: <em>harvest</em></b></p>\n                    <p>This is the bee that you just saw.</p>\n                    <img src=\"bees-with-color/bee-A1SF.svg\" width=\"200\">\n                    <p><span class=\"greenText\"><b>Successful harvest!</b></span><br>Your pay has increased by $0.02. Your bonus pay is now $0.44.</p>\n            ","response":0,"trial_type":"html-button-response","trial_index":54,"time_elapsed":799757,"internal_node_id":"0.0-4.0-1.23","subject_id":"6118ce4e680f40a422206f5f","study_id":"60edd13110225f80f9f3709b","session_id":"6196c4a7aa0959644383d000","condition":"full-information","relevant_dimensions":["antennae","legs"],"bee_group":{"antennae":"B","wings":"X","pattern":"X","legs":"F"},"bonus":1.340000000000001},{"rt":13472.599999964237,"stimulus":"bees-with-color/bee-A1DM.svg","response":0,"trial_type":"image-button-response","trial_index":55,"time_elapsed":813232,"internal_node_id":"0.0-4.0-0.24","subject_id":"6118ce4e680f40a422206f5f","study_id":"60edd13110225f80f9f3709b","session_id":"6196c4a7aa0959644383d000","condition":"full-information","relevant_dimensions":["antennae","legs"],"bee_group":{"antennae":"B","wings":"X","pattern":"X","legs":"F"},"action":"harvest","summary":"good-harvest","bonus":1.340000000000001},{"rt":1373.1000000238419,"stimulus":"\n                    <p><b>Action: <em>harvest</em></b></p>\n                    <p>This is the bee that you just saw.</p>\n                    <img src=\"bees-with-color/bee-A1DM.svg\" width=\"200\">\n                    <p><span class=\"greenText\"><b>Successful harvest!</b></span><br>Your pay has increased by $0.02. Your bonus pay is now $0.46.</p>\n            ","response":0,"trial_type":"html-button-response","trial_index":56,"time_elapsed":814606,"internal_node_id":"0.0-4.0-1.24","subject_id":"6118ce4e680f40a422206f5f","study_id":"60edd13110225f80f9f3709b","session_id":"6196c4a7aa0959644383d000","condition":"full-information","relevant_dimensions":["antennae","legs"],"bee_group":{"antennae":"B","wings":"X","pattern":"X","legs":"F"},"bonus":1.340000000000001},{"rt":28837.799999952316,"stimulus":"bees-with-color/bee-B1DM.svg","response":1,"trial_type":"image-button-response","trial_index":57,"time_elapsed":843446,"internal_node_id":"0.0-4.0-0.25","subject_id":"6118ce4e680f40a422206f5f","study_id":"60edd13110225f80f9f3709b","session_id":"6196c4a7aa0959644383d000","condition":"full-information","relevant_dimensions":["antennae","legs"],"bee_group":{"antennae":"B","wings":"X","pattern":"X","legs":"F"},"action":"avoid","summary":"bad-avoid","bonus":1.340000000000001},{"rt":3308.199999988079,"stimulus":"\n                    <p><b>Action: <em>avoid</em></b></p>\n                    <p>This is the bee that you just saw.</p>\n                    <img src=\"bees-with-color/bee-B1DM.svg\" width=\"200\">\n                    <p><span class=\"redText\">Bad choice,</span> the bee was friendly.<br>Your bonus pay is unchanged, and remains at $0.46.</p>\n            ","response":0,"trial_type":"html-button-response","trial_index":58,"time_elapsed":846756,"internal_node_id":"0.0-4.0-1.25","subject_id":"6118ce4e680f40a422206f5f","study_id":"60edd13110225f80f9f3709b","session_id":"6196c4a7aa0959644383d000","condition":"full-information","relevant_dimensions":["antennae","legs"],"bee_group":{"antennae":"B","wings":"X","pattern":"X","legs":"F"},"bonus":1.340000000000001},{"rt":20309,"stimulus":"bees-with-color/bee-B2DF.svg","response":1,"trial_type":"image-button-response","trial_index":59,"time_elapsed":867067,"internal_node_id":"0.0-4.0-0.26","subject_id":"6118ce4e680f40a422206f5f","study_id":"60edd13110225f80f9f3709b","session_id":"6196c4a7aa0959644383d000","condition":"full-information","relevant_dimensions":["antennae","legs"],"bee_group":{"antennae":"B","wings":"X","pattern":"X","legs":"F"},"action":"avoid","summary":"good-avoid","bonus":1.340000000000001},{"rt":2482.599999964237,"stimulus":"\n                    <p><b>Action: <em>avoid</em></b></p>\n                    <p>This is the bee that you just saw.</p>\n                    <img src=\"bees-with-color/bee-B2DF.svg\" width=\"200\">\n                    <p><span class=\"greenText\">Good choice!</span>  This bee would have stung you.<br>Your bonus pay is unchanged, and remains at $0.46.</p>\n            ","response":0,"trial_type":"html-button-response","trial_index":60,"time_elapsed":869551,"internal_node_id":"0.0-4.0-1.26","subject_id":"6118ce4e680f40a422206f5f","study_id":"60edd13110225f80f9f3709b","session_id":"6196c4a7aa0959644383d000","condition":"full-information","relevant_dimensions":["antennae","legs"],"bee_group":{"antennae":"B","wings":"X","pattern":"X","legs":"F"},"bonus":1.340000000000001},{"rt":23209.899999976158,"stimulus":"bees-with-color/bee-B2SM.svg","response":0,"trial_type":"image-button-response","trial_index":61,"time_elapsed":892763,"internal_node_id":"0.0-4.0-0.27","subject_id":"6118ce4e680f40a422206f5f","study_id":"60edd13110225f80f9f3709b","session_id":"6196c4a7aa0959644383d000","condition":"full-information","relevant_dimensions":["antennae","legs"],"bee_group":{"antennae":"B","wings":"X","pattern":"X","legs":"F"},"action":"harvest","summary":"good-harvest","bonus":1.340000000000001},{"rt":6201.900000035763,"stimulus":"\n                    <p><b>Action: <em>harvest</em></b></p>\n                    <p>This is the bee that you just saw.</p>\n                    <img src=\"bees-with-color/bee-B2SM.svg\" width=\"200\">\n                    <p><span class=\"greenText\"><b>Successful harvest!</b></span><br>Your pay has increased by $0.02. Your bonus pay is now $0.48.</p>\n            ","response":0,"trial_type":"html-button-response","trial_index":62,"time_elapsed":898967,"internal_node_id":"0.0-4.0-1.27","subject_id":"6118ce4e680f40a422206f5f","study_id":"60edd13110225f80f9f3709b","session_id":"6196c4a7aa0959644383d000","condition":"full-information","relevant_dimensions":["antennae","legs"],"bee_group":{"antennae":"B","wings":"X","pattern":"X","legs":"F"},"bonus":1.340000000000001},{"rt":32961.90000003576,"stimulus":"bees-with-color/bee-B2SF.svg","response":1,"trial_type":"image-button-response","trial_index":63,"time_elapsed":931930,"internal_node_id":"0.0-4.0-0.28","subject_id":"6118ce4e680f40a422206f5f","study_id":"60edd13110225f80f9f3709b","session_id":"6196c4a7aa0959644383d000","condition":"full-information","relevant_dimensions":["antennae","legs"],"bee_group":{"antennae":"B","wings":"X","pattern":"X","legs":"F"},"action":"avoid","summary":"good-avoid","bonus":1.340000000000001},{"rt":5093,"stimulus":"\n                    <p><b>Action: <em>avoid</em></b></p>\n                    <p>This is the bee that you just saw.</p>\n                    <img src=\"bees-with-color/bee-B2SF.svg\" width=\"200\">\n                    <p><span class=\"greenText\">Good choice!</span>  This bee would have stung you.<br>Your bonus pay is unchanged, and remains at $0.48.</p>\n            ","response":0,"trial_type":"html-button-response","trial_index":64,"time_elapsed":937025,"internal_node_id":"0.0-4.0-1.28","subject_id":"6118ce4e680f40a422206f5f","study_id":"60edd13110225f80f9f3709b","session_id":"6196c4a7aa0959644383d000","condition":"full-information","relevant_dimensions":["antennae","legs"],"bee_group":{"antennae":"B","wings":"X","pattern":"X","legs":"F"},"bonus":1.340000000000001},{"rt":16671.600000023842,"stimulus":"bees-with-color/bee-A1SM.svg","response":0,"trial_type":"image-button-response","trial_index":65,"time_elapsed":953698,"internal_node_id":"0.0-4.0-0.29","subject_id":"6118ce4e680f40a422206f5f","study_id":"60edd13110225f80f9f3709b","session_id":"6196c4a7aa0959644383d000","condition":"full-information","relevant_dimensions":["antennae","legs"],"bee_group":{"antennae":"B","wings":"X","pattern":"X","legs":"F"},"action":"harvest","summary":"good-harvest","bonus":1.340000000000001},{"rt":1527.2999999523163,"stimulus":"\n                    <p><b>Action: <em>harvest</em></b></p>\n                    <p>This is the bee that you just saw.</p>\n                    <img src=\"bees-with-color/bee-A1SM.svg\" width=\"200\">\n                    <p><span class=\"greenText\"><b>Successful harvest!</b></span><br>Your pay has increased by $0.02. Your bonus pay is now $0.50.</p>\n            ","response":0,"trial_type":"html-button-response","trial_index":66,"time_elapsed":955227,"internal_node_id":"0.0-4.0-1.29","subject_id":"6118ce4e680f40a422206f5f","study_id":"60edd13110225f80f9f3709b","session_id":"6196c4a7aa0959644383d000","condition":"full-information","relevant_dimensions":["antennae","legs"],"bee_group":{"antennae":"B","wings":"X","pattern":"X","legs":"F"},"bonus":1.340000000000001},{"rt":14468.199999988079,"stimulus":"bees-with-color/bee-A2SF.svg","response":0,"trial_type":"image-button-response","trial_index":67,"time_elapsed":969698,"internal_node_id":"0.0-4.0-0.30","subject_id":"6118ce4e680f40a422206f5f","study_id":"60edd13110225f80f9f3709b","session_id":"6196c4a7aa0959644383d000","condition":"full-information","relevant_dimensions":["antennae","legs"],"bee_group":{"antennae":"B","wings":"X","pattern":"X","legs":"F"},"action":"harvest","summary":"good-harvest","bonus":1.340000000000001},{"rt":1539.1000000238419,"stimulus":"\n                    <p><b>Action: <em>harvest</em></b></p>\n                    <p>This is the bee that you just saw.</p>\n                    <img src=\"bees-with-color/bee-A2SF.svg\" width=\"200\">\n                    <p><span class=\"greenText\"><b>Successful harvest!</b></span><br>Your pay has increased by $0.02. Your bonus pay is now $0.52.</p>\n            ","response":0,"trial_type":"html-button-response","trial_index":68,"time_elapsed":971239,"internal_node_id":"0.0-4.0-1.30","subject_id":"6118ce4e680f40a422206f5f","study_id":"60edd13110225f80f9f3709b","session_id":"6196c4a7aa0959644383d000","condition":"full-information","relevant_dimensions":["antennae","legs"],"bee_group":{"antennae":"B","wings":"X","pattern":"X","legs":"F"},"bonus":1.340000000000001},{"rt":19577.80000001192,"stimulus":"bees-with-color/bee-A2DM.svg","response":0,"trial_type":"image-button-response","trial_index":69,"time_elapsed":990819,"internal_node_id":"0.0-4.0-0.31","subject_id":"6118ce4e680f40a422206f5f","study_id":"60edd13110225f80f9f3709b","session_id":"6196c4a7aa0959644383d000","condition":"full-information","relevant_dimensions":["antennae","legs"],"bee_group":{"antennae":"B","wings":"X","pattern":"X","legs":"F"},"action":"harvest","summary":"good-harvest","bonus":1.340000000000001},{"rt":1985.699999988079,"stimulus":"\n                    <p><b>Action: <em>harvest</em></b></p>\n                    <p>This is the bee that you just saw.</p>\n                    <img src=\"bees-with-color/bee-A2DM.svg\" width=\"200\">\n                    <p><span class=\"greenText\"><b>Successful harvest!</b></span><br>Your pay has increased by $0.02. Your bonus pay is now $0.54.</p>\n            ","response":0,"trial_type":"html-button-response","trial_index":70,"time_elapsed":992806,"internal_node_id":"0.0-4.0-1.31","subject_id":"6118ce4e680f40a422206f5f","study_id":"60edd13110225f80f9f3709b","session_id":"6196c4a7aa0959644383d000","condition":"full-information","relevant_dimensions":["antennae","legs"],"bee_group":{"antennae":"B","wings":"X","pattern":"X","legs":"F"},"bonus":1.340000000000001},{"rt":19736.099999964237,"stimulus":"bees-with-color/bee-B1SM.svg","response":0,"trial_type":"image-button-response","trial_index":71,"time_elapsed":1012544,"internal_node_id":"0.0-4.0-0.32","subject_id":"6118ce4e680f40a422206f5f","study_id":"60edd13110225f80f9f3709b","session_id":"6196c4a7aa0959644383d000","condition":"full-information","relevant_dimensions":["antennae","legs"],"bee_group":{"antennae":"B","wings":"X","pattern":"X","legs":"F"},"action":"harvest","summary":"good-harvest","bonus":1.340000000000001},{"rt":1807.4000000357628,"stimulus":"\n                    <p><b>Action: <em>harvest</em></b></p>\n                    <p>This is the bee that you just saw.</p>\n                    <img src=\"bees-with-color/bee-B1SM.svg\" width=\"200\">\n                    <p><span class=\"greenText\"><b>Successful harvest!</b></span><br>Your pay has increased by $0.02. Your bonus pay is now $0.56.</p>\n            ","response":0,"trial_type":"html-button-response","trial_index":72,"time_elapsed":1014353,"internal_node_id":"0.0-4.0-1.32","subject_id":"6118ce4e680f40a422206f5f","study_id":"60edd13110225f80f9f3709b","session_id":"6196c4a7aa0959644383d000","condition":"full-information","relevant_dimensions":["antennae","legs"],"bee_group":{"antennae":"B","wings":"X","pattern":"X","legs":"F"},"bonus":1.340000000000001},{"rt":30356.200000047684,"stimulus":"bees-with-color/bee-B2SF.svg","response":1,"trial_type":"image-button-response","trial_index":73,"time_elapsed":1044712,"internal_node_id":"0.0-4.0-0.33","subject_id":"6118ce4e680f40a422206f5f","study_id":"60edd13110225f80f9f3709b","session_id":"6196c4a7aa0959644383d000","condition":"full-information","relevant_dimensions":["antennae","legs"],"bee_group":{"antennae":"B","wings":"X","pattern":"X","legs":"F"},"action":"avoid","summary":"good-avoid","bonus":1.340000000000001},{"rt":1717.5,"stimulus":"\n                    <p><b>Action: <em>avoid</em></b></p>\n                    <p>This is the bee that you just saw.</p>\n                    <img src=\"bees-with-color/bee-B2SF.svg\" width=\"200\">\n                    <p><span class=\"greenText\">Good choice!</span>  This bee would have stung you.<br>Your bonus pay is unchanged, and remains at $0.56.</p>\n            ","response":0,"trial_type":"html-button-response","trial_index":74,"time_elapsed":1046431,"internal_node_id":"0.0-4.0-1.33","subject_id":"6118ce4e680f40a422206f5f","study_id":"60edd13110225f80f9f3709b","session_id":"6196c4a7aa0959644383d000","condition":"full-information","relevant_dimensions":["antennae","legs"],"bee_group":{"antennae":"B","wings":"X","pattern":"X","legs":"F"},"bonus":1.340000000000001},{"rt":15692.300000011921,"stimulus":"bees-with-color/bee-A1DF.svg","response":0,"trial_type":"image-button-response","trial_index":75,"time_elapsed":1062125,"internal_node_id":"0.0-4.0-0.34","subject_id":"6118ce4e680f40a422206f5f","study_id":"60edd13110225f80f9f3709b","session_id":"6196c4a7aa0959644383d000","condition":"full-information","relevant_dimensions":["antennae","legs"],"bee_group":{"antennae":"B","wings":"X","pattern":"X","legs":"F"},"action":"harvest","summary":"good-harvest","bonus":1.340000000000001},{"rt":1450.5,"stimulus":"\n                    <p><b>Action: <em>harvest</em></b></p>\n                    <p>This is the bee that you just saw.</p>\n                    <img src=\"bees-with-color/bee-A1DF.svg\" width=\"200\">\n                    <p><span class=\"greenText\"><b>Successful harvest!</b></span><br>Your pay has increased by $0.02. Your bonus pay is now $0.58.</p>\n            ","response":0,"trial_type":"html-button-response","trial_index":76,"time_elapsed":1063577,"internal_node_id":"0.0-4.0-1.34","subject_id":"6118ce4e680f40a422206f5f","study_id":"60edd13110225f80f9f3709b","session_id":"6196c4a7aa0959644383d000","condition":"full-information","relevant_dimensions":["antennae","legs"],"bee_group":{"antennae":"B","wings":"X","pattern":"X","legs":"F"},"bonus":1.340000000000001},{"rt":7268.800000011921,"stimulus":"bees-with-color/bee-A2SM.svg","response":0,"trial_type":"image-button-response","trial_index":77,"time_elapsed":1070848,"internal_node_id":"0.0-4.0-0.35","subject_id":"6118ce4e680f40a422206f5f","study_id":"60edd13110225f80f9f3709b","session_id":"6196c4a7aa0959644383d000","condition":"full-information","relevant_dimensions":["antennae","legs"],"bee_group":{"antennae":"B","wings":"X","pattern":"X","legs":"F"},"action":"harvest","summary":"good-harvest","bonus":1.340000000000001},{"rt":1233.3999999761581,"stimulus":"\n                    <p><b>Action: <em>harvest</em></b></p>\n                    <p>This is the bee that you just saw.</p>\n                    <img src=\"bees-with-color/bee-A2SM.svg\" width=\"200\">\n                    <p><span class=\"greenText\"><b>Successful harvest!</b></span><br>Your pay has increased by $0.02. Your bonus pay is now $0.60.</p>\n            ","response":0,"trial_type":"html-button-response","trial_index":78,"time_elapsed":1072083,"internal_node_id":"0.0-4.0-1.35","subject_id":"6118ce4e680f40a422206f5f","study_id":"60edd13110225f80f9f3709b","session_id":"6196c4a7aa0959644383d000","condition":"full-information","relevant_dimensions":["antennae","legs"],"bee_group":{"antennae":"B","wings":"X","pattern":"X","legs":"F"},"bonus":1.340000000000001},{"rt":12659.399999976158,"stimulus":"bees-with-color/bee-A2DF.svg","response":0,"trial_type":"image-button-response","trial_index":79,"time_elapsed":1084744,"internal_node_id":"0.0-4.0-0.36","subject_id":"6118ce4e680f40a422206f5f","study_id":"60edd13110225f80f9f3709b","session_id":"6196c4a7aa0959644383d000","condition":"full-information","relevant_dimensions":["antennae","legs"],"bee_group":{"antennae":"B","wings":"X","pattern":"X","legs":"F"},"action":"harvest","summary":"good-harvest","bonus":1.340000000000001},{"rt":1576.800000011921,"stimulus":"\n                    <p><b>Action: <em>harvest</em></b></p>\n                    <p>This is the bee that you just saw.</p>\n                    <img src=\"bees-with-color/bee-A2DF.svg\" width=\"200\">\n                    <p><span class=\"greenText\"><b>Successful harvest!</b></span><br>Your pay has increased by $0.02. Your bonus pay is now $0.62.</p>\n            ","response":0,"trial_type":"html-button-response","trial_index":80,"time_elapsed":1086323,"internal_node_id":"0.0-4.0-1.36","subject_id":"6118ce4e680f40a422206f5f","study_id":"60edd13110225f80f9f3709b","session_id":"6196c4a7aa0959644383d000","condition":"full-information","relevant_dimensions":["antennae","legs"],"bee_group":{"antennae":"B","wings":"X","pattern":"X","legs":"F"},"bonus":1.340000000000001},{"rt":16886.80000001192,"stimulus":"bees-with-color/bee-A1DM.svg","response":0,"trial_type":"image-button-response","trial_index":81,"time_elapsed":1103213,"internal_node_id":"0.0-4.0-0.37","subject_id":"6118ce4e680f40a422206f5f","study_id":"60edd13110225f80f9f3709b","session_id":"6196c4a7aa0959644383d000","condition":"full-information","relevant_dimensions":["antennae","legs"],"bee_group":{"antennae":"B","wings":"X","pattern":"X","legs":"F"},"action":"harvest","summary":"good-harvest","bonus":1.340000000000001},{"rt":1246.8999999761581,"stimulus":"\n                    <p><b>Action: <em>harvest</em></b></p>\n                    <p>This is the bee that you just saw.</p>\n                    <img src=\"bees-with-color/bee-A1DM.svg\" width=\"200\">\n                    <p><span class=\"greenText\"><b>Successful harvest!</b></span><br>Your pay has increased by $0.02. Your bonus pay is now $0.64.</p>\n            ","response":0,"trial_type":"html-button-response","trial_index":82,"time_elapsed":1104462,"internal_node_id":"0.0-4.0-1.37","subject_id":"6118ce4e680f40a422206f5f","study_id":"60edd13110225f80f9f3709b","session_id":"6196c4a7aa0959644383d000","condition":"full-information","relevant_dimensions":["antennae","legs"],"bee_group":{"antennae":"B","wings":"X","pattern":"X","legs":"F"},"bonus":1.340000000000001},{"rt":10024,"stimulus":"bees-with-color/bee-B1SF.svg","response":1,"trial_type":"image-button-response","trial_index":83,"time_elapsed":1114487,"internal_node_id":"0.0-4.0-0.38","subject_id":"6118ce4e680f40a422206f5f","study_id":"60edd13110225f80f9f3709b","session_id":"6196c4a7aa0959644383d000","condition":"full-information","relevant_dimensions":["antennae","legs"],"bee_group":{"antennae":"B","wings":"X","pattern":"X","legs":"F"},"action":"avoid","summary":"good-avoid","bonus":1.340000000000001},{"rt":1655,"stimulus":"\n                    <p><b>Action: <em>avoid</em></b></p>\n                    <p>This is the bee that you just saw.</p>\n                    <img src=\"bees-with-color/bee-B1SF.svg\" width=\"200\">\n                    <p><span class=\"greenText\">Good choice!</span>  This bee would have stung you.<br>Your bonus pay is unchanged, and remains at $0.64.</p>\n            ","response":0,"trial_type":"html-button-response","trial_index":84,"time_elapsed":1116143,"internal_node_id":"0.0-4.0-1.38","subject_id":"6118ce4e680f40a422206f5f","study_id":"60edd13110225f80f9f3709b","session_id":"6196c4a7aa0959644383d000","condition":"full-information","relevant_dimensions":["antennae","legs"],"bee_group":{"antennae":"B","wings":"X","pattern":"X","legs":"F"},"bonus":1.340000000000001},{"rt":8036.300000011921,"stimulus":"bees-with-color/bee-B2SM.svg","response":0,"trial_type":"image-button-response","trial_index":85,"time_elapsed":1124181,"internal_node_id":"0.0-4.0-0.39","subject_id":"6118ce4e680f40a422206f5f","study_id":"60edd13110225f80f9f3709b","session_id":"6196c4a7aa0959644383d000","condition":"full-information","relevant_dimensions":["antennae","legs"],"bee_group":{"antennae":"B","wings":"X","pattern":"X","legs":"F"},"action":"harvest","summary":"good-harvest","bonus":1.340000000000001},{"rt":1323.9000000357628,"stimulus":"\n                    <p><b>Action: <em>harvest</em></b></p>\n                    <p>This is the bee that you just saw.</p>\n                    <img src=\"bees-with-color/bee-B2SM.svg\" width=\"200\">\n                    <p><span class=\"greenText\"><b>Successful harvest!</b></span><br>Your pay has increased by $0.02. Your bonus pay is now $0.66.</p>\n            ","response":0,"trial_type":"html-button-response","trial_index":86,"time_elapsed":1125507,"internal_node_id":"0.0-4.0-1.39","subject_id":"6118ce4e680f40a422206f5f","study_id":"60edd13110225f80f9f3709b","session_id":"6196c4a7aa0959644383d000","condition":"full-information","relevant_dimensions":["antennae","legs"],"bee_group":{"antennae":"B","wings":"X","pattern":"X","legs":"F"},"bonus":1.340000000000001},{"rt":13370.800000011921,"stimulus":"bees-with-color/bee-B1DM.svg","response":0,"trial_type":"image-button-response","trial_index":87,"time_elapsed":1138879,"internal_node_id":"0.0-4.0-0.40","subject_id":"6118ce4e680f40a422206f5f","study_id":"60edd13110225f80f9f3709b","session_id":"6196c4a7aa0959644383d000","condition":"full-information","relevant_dimensions":["antennae","legs"],"bee_group":{"antennae":"B","wings":"X","pattern":"X","legs":"F"},"action":"harvest","summary":"good-harvest","bonus":1.340000000000001},{"rt":1477.300000011921,"stimulus":"\n                    <p><b>Action: <em>harvest</em></b></p>\n                    <p>This is the bee that you just saw.</p>\n                    <img src=\"bees-with-color/bee-B1DM.svg\" width=\"200\">\n                    <p><span class=\"greenText\"><b>Successful harvest!</b></span><br>Your pay has increased by $0.02. Your bonus pay is now $0.68.</p>\n            ","response":0,"trial_type":"html-button-response","trial_index":88,"time_elapsed":1140358,"internal_node_id":"0.0-4.0-1.40","subject_id":"6118ce4e680f40a422206f5f","study_id":"60edd13110225f80f9f3709b","session_id":"6196c4a7aa0959644383d000","condition":"full-information","relevant_dimensions":["antennae","legs"],"bee_group":{"antennae":"B","wings":"X","pattern":"X","legs":"F"},"bonus":1.340000000000001},{"rt":18525.399999976158,"stimulus":"bees-with-color/bee-B2DM.svg","response":0,"trial_type":"image-button-response","trial_index":89,"time_elapsed":1158885,"internal_node_id":"0.0-4.0-0.41","subject_id":"6118ce4e680f40a422206f5f","study_id":"60edd13110225f80f9f3709b","session_id":"6196c4a7aa0959644383d000","condition":"full-information","relevant_dimensions":["antennae","legs"],"bee_group":{"antennae":"B","wings":"X","pattern":"X","legs":"F"},"action":"harvest","summary":"good-harvest","bonus":1.340000000000001},{"rt":1807,"stimulus":"\n                    <p><b>Action: <em>harvest</em></b></p>\n                    <p>This is the bee that you just saw.</p>\n                    <img src=\"bees-with-color/bee-B2DM.svg\" width=\"200\">\n                    <p><span class=\"greenText\"><b>Successful harvest!</b></span><br>Your pay has increased by $0.02. Your bonus pay is now $0.70.</p>\n            ","response":0,"trial_type":"html-button-response","trial_index":90,"time_elapsed":1160693,"internal_node_id":"0.0-4.0-1.41","subject_id":"6118ce4e680f40a422206f5f","study_id":"60edd13110225f80f9f3709b","session_id":"6196c4a7aa0959644383d000","condition":"full-information","relevant_dimensions":["antennae","legs"],"bee_group":{"antennae":"B","wings":"X","pattern":"X","legs":"F"},"bonus":1.340000000000001},{"rt":11398.5,"stimulus":"bees-with-color/bee-A2DM.svg","response":0,"trial_type":"image-button-response","trial_index":91,"time_elapsed":1172093,"internal_node_id":"0.0-4.0-0.42","subject_id":"6118ce4e680f40a422206f5f","study_id":"60edd13110225f80f9f3709b","session_id":"6196c4a7aa0959644383d000","condition":"full-information","relevant_dimensions":["antennae","legs"],"bee_group":{"antennae":"B","wings":"X","pattern":"X","legs":"F"},"action":"harvest","summary":"good-harvest","bonus":1.340000000000001},{"rt":1298.5,"stimulus":"\n                    <p><b>Action: <em>harvest</em></b></p>\n                    <p>This is the bee that you just saw.</p>\n                    <img src=\"bees-with-color/bee-A2DM.svg\" width=\"200\">\n                    <p><span class=\"greenText\"><b>Successful harvest!</b></span><br>Your pay has increased by $0.02. Your bonus pay is now $0.72.</p>\n            ","response":0,"trial_type":"html-button-response","trial_index":92,"time_elapsed":1173393,"internal_node_id":"0.0-4.0-1.42","subject_id":"6118ce4e680f40a422206f5f","study_id":"60edd13110225f80f9f3709b","session_id":"6196c4a7aa0959644383d000","condition":"full-information","relevant_dimensions":["antennae","legs"],"bee_group":{"antennae":"B","wings":"X","pattern":"X","legs":"F"},"bonus":1.340000000000001},{"rt":7960.599999964237,"stimulus":"bees-with-color/bee-A1SF.svg","response":0,"trial_type":"image-button-response","trial_index":93,"time_elapsed":1181355,"internal_node_id":"0.0-4.0-0.43","subject_id":"6118ce4e680f40a422206f5f","study_id":"60edd13110225f80f9f3709b","session_id":"6196c4a7aa0959644383d000","condition":"full-information","relevant_dimensions":["antennae","legs"],"bee_group":{"antennae":"B","wings":"X","pattern":"X","legs":"F"},"action":"harvest","summary":"good-harvest","bonus":1.340000000000001},{"rt":1386.4000000357628,"stimulus":"\n                    <p><b>Action: <em>harvest</em></b></p>\n                    <p>This is the bee that you just saw.</p>\n                    <img src=\"bees-with-color/bee-A1SF.svg\" width=\"200\">\n                    <p><span class=\"greenText\"><b>Successful harvest!</b></span><br>Your pay has increased by $0.02. Your bonus pay is now $0.74.</p>\n            ","response":0,"trial_type":"html-button-response","trial_index":94,"time_elapsed":1182743,"internal_node_id":"0.0-4.0-1.43","subject_id":"6118ce4e680f40a422206f5f","study_id":"60edd13110225f80f9f3709b","session_id":"6196c4a7aa0959644383d000","condition":"full-information","relevant_dimensions":["antennae","legs"],"bee_group":{"antennae":"B","wings":"X","pattern":"X","legs":"F"},"bonus":1.340000000000001},{"rt":13893.100000023842,"stimulus":"bees-with-color/bee-B1DF.svg","response":1,"trial_type":"image-button-response","trial_index":95,"time_elapsed":1196638,"internal_node_id":"0.0-4.0-0.44","subject_id":"6118ce4e680f40a422206f5f","study_id":"60edd13110225f80f9f3709b","session_id":"6196c4a7aa0959644383d000","condition":"full-information","relevant_dimensions":["antennae","legs"],"bee_group":{"antennae":"B","wings":"X","pattern":"X","legs":"F"},"action":"avoid","summary":"good-avoid","bonus":1.340000000000001},{"rt":1628.699999988079,"stimulus":"\n                    <p><b>Action: <em>avoid</em></b></p>\n                    <p>This is the bee that you just saw.</p>\n                    <img src=\"bees-with-color/bee-B1DF.svg\" width=\"200\">\n                    <p><span class=\"greenText\">Good choice!</span>  This bee would have stung you.<br>Your bonus pay is unchanged, and remains at $0.74.</p>\n            ","response":0,"trial_type":"html-button-response","trial_index":96,"time_elapsed":1198268,"internal_node_id":"0.0-4.0-1.44","subject_id":"6118ce4e680f40a422206f5f","study_id":"60edd13110225f80f9f3709b","session_id":"6196c4a7aa0959644383d000","condition":"full-information","relevant_dimensions":["antennae","legs"],"bee_group":{"antennae":"B","wings":"X","pattern":"X","legs":"F"},"bonus":1.340000000000001},{"rt":6427,"stimulus":"bees-with-color/bee-A2SF.svg","response":0,"trial_type":"image-button-response","trial_index":97,"time_elapsed":1204697,"internal_node_id":"0.0-4.0-0.45","subject_id":"6118ce4e680f40a422206f5f","study_id":"60edd13110225f80f9f3709b","session_id":"6196c4a7aa0959644383d000","condition":"full-information","relevant_dimensions":["antennae","legs"],"bee_group":{"antennae":"B","wings":"X","pattern":"X","legs":"F"},"action":"harvest","summary":"good-harvest","bonus":1.340000000000001},{"rt":1284.699999988079,"stimulus":"\n                    <p><b>Action: <em>harvest</em></b></p>\n                    <p>This is the bee that you just saw.</p>\n                    <img src=\"bees-with-color/bee-A2SF.svg\" width=\"200\">\n                    <p><span class=\"greenText\"><b>Successful harvest!</b></span><br>Your pay has increased by $0.02. Your bonus pay is now $0.76.</p>\n            ","response":0,"trial_type":"html-button-response","trial_index":98,"time_elapsed":1205984,"internal_node_id":"0.0-4.0-1.45","subject_id":"6118ce4e680f40a422206f5f","study_id":"60edd13110225f80f9f3709b","session_id":"6196c4a7aa0959644383d000","condition":"full-information","relevant_dimensions":["antennae","legs"],"bee_group":{"antennae":"B","wings":"X","pattern":"X","legs":"F"},"bonus":1.340000000000001},{"rt":25137.19999998808,"stimulus":"bees-with-color/bee-B2DF.svg","response":1,"trial_type":"image-button-response","trial_index":99,"time_elapsed":1231123,"internal_node_id":"0.0-4.0-0.46","subject_id":"6118ce4e680f40a422206f5f","study_id":"60edd13110225f80f9f3709b","session_id":"6196c4a7aa0959644383d000","condition":"full-information","relevant_dimensions":["antennae","legs"],"bee_group":{"antennae":"B","wings":"X","pattern":"X","legs":"F"},"action":"avoid","summary":"good-avoid","bonus":1.340000000000001},{"rt":5308.600000023842,"stimulus":"\n                    <p><b>Action: <em>avoid</em></b></p>\n                    <p>This is the bee that you just saw.</p>\n                    <img src=\"bees-with-color/bee-B2DF.svg\" width=\"200\">\n                    <p><span class=\"greenText\">Good choice!</span>  This bee would have stung you.<br>Your bonus pay is unchanged, and remains at $0.76.</p>\n            ","response":0,"trial_type":"html-button-response","trial_index":100,"time_elapsed":1236433,"internal_node_id":"0.0-4.0-1.46","subject_id":"6118ce4e680f40a422206f5f","study_id":"60edd13110225f80f9f3709b","session_id":"6196c4a7aa0959644383d000","condition":"full-information","relevant_dimensions":["antennae","legs"],"bee_group":{"antennae":"B","wings":"X","pattern":"X","legs":"F"},"bonus":1.340000000000001},{"rt":21870.5,"stimulus":"bees-with-color/bee-A1SM.svg","response":1,"trial_type":"image-button-response","trial_index":101,"time_elapsed":1258305,"internal_node_id":"0.0-4.0-0.47","subject_id":"6118ce4e680f40a422206f5f","study_id":"60edd13110225f80f9f3709b","session_id":"6196c4a7aa0959644383d000","condition":"full-information","relevant_dimensions":["antennae","legs"],"bee_group":{"antennae":"B","wings":"X","pattern":"X","legs":"F"},"action":"avoid","summary":"bad-avoid","bonus":1.340000000000001},{"rt":4660.799999952316,"stimulus":"\n                    <p><b>Action: <em>avoid</em></b></p>\n                    <p>This is the bee that you just saw.</p>\n                    <img src=\"bees-with-color/bee-A1SM.svg\" width=\"200\">\n                    <p><span class=\"redText\">Bad choice,</span> the bee was friendly.<br>Your bonus pay is unchanged, and remains at $0.76.</p>\n            ","response":0,"trial_type":"html-button-response","trial_index":102,"time_elapsed":1262968,"internal_node_id":"0.0-4.0-1.47","subject_id":"6118ce4e680f40a422206f5f","study_id":"60edd13110225f80f9f3709b","session_id":"6196c4a7aa0959644383d000","condition":"full-information","relevant_dimensions":["antennae","legs"],"bee_group":{"antennae":"B","wings":"X","pattern":"X","legs":"F"},"bonus":1.340000000000001},{"rt":11767.599999964237,"stimulus":"bees-with-color/bee-B2SM.svg","response":0,"trial_type":"image-button-response","trial_index":103,"time_elapsed":1274737,"internal_node_id":"0.0-4.0-0.48","subject_id":"6118ce4e680f40a422206f5f","study_id":"60edd13110225f80f9f3709b","session_id":"6196c4a7aa0959644383d000","condition":"full-information","relevant_dimensions":["antennae","legs"],"bee_group":{"antennae":"B","wings":"X","pattern":"X","legs":"F"},"action":"harvest","summary":"good-harvest","bonus":1.340000000000001},{"rt":1221,"stimulus":"\n                    <p><b>Action: <em>harvest</em></b></p>\n                    <p>This is the bee that you just saw.</p>\n                    <img src=\"bees-with-color/bee-B2SM.svg\" width=\"200\">\n                    <p><span class=\"greenText\"><b>Successful harvest!</b></span><br>Your pay has increased by $0.02. Your bonus pay is now $0.78.</p>\n            ","response":0,"trial_type":"html-button-response","trial_index":104,"time_elapsed":1275959,"internal_node_id":"0.0-4.0-1.48","subject_id":"6118ce4e680f40a422206f5f","study_id":"60edd13110225f80f9f3709b","session_id":"6196c4a7aa0959644383d000","condition":"full-information","relevant_dimensions":["antennae","legs"],"bee_group":{"antennae":"B","wings":"X","pattern":"X","legs":"F"},"bonus":1.340000000000001},{"rt":14392.700000047684,"stimulus":"bees-with-color/bee-A1DF.svg","response":0,"trial_type":"image-button-response","trial_index":105,"time_elapsed":1290354,"internal_node_id":"0.0-4.0-0.49","subject_id":"6118ce4e680f40a422206f5f","study_id":"60edd13110225f80f9f3709b","session_id":"6196c4a7aa0959644383d000","condition":"full-information","relevant_dimensions":["antennae","legs"],"bee_group":{"antennae":"B","wings":"X","pattern":"X","legs":"F"},"action":"harvest","summary":"good-harvest","bonus":1.340000000000001},{"rt":1233.6000000238419,"stimulus":"\n                    <p><b>Action: <em>harvest</em></b></p>\n                    <p>This is the bee that you just saw.</p>\n                    <img src=\"bees-with-color/bee-A1DF.svg\" width=\"200\">\n                    <p><span class=\"greenText\"><b>Successful harvest!</b></span><br>Your pay has increased by $0.02. Your bonus pay is now $0.80.</p>\n            ","response":0,"trial_type":"html-button-response","trial_index":106,"time_elapsed":1291589,"internal_node_id":"0.0-4.0-1.49","subject_id":"6118ce4e680f40a422206f5f","study_id":"60edd13110225f80f9f3709b","session_id":"6196c4a7aa0959644383d000","condition":"full-information","relevant_dimensions":["antennae","legs"],"bee_group":{"antennae":"B","wings":"X","pattern":"X","legs":"F"},"bonus":1.340000000000001},{"rt":8553.800000011921,"stimulus":"bees-with-color/bee-A1SF.svg","response":0,"trial_type":"image-button-response","trial_index":107,"time_elapsed":1300144,"internal_node_id":"0.0-4.0-0.50","subject_id":"6118ce4e680f40a422206f5f","study_id":"60edd13110225f80f9f3709b","session_id":"6196c4a7aa0959644383d000","condition":"full-information","relevant_dimensions":["antennae","legs"],"bee_group":{"antennae":"B","wings":"X","pattern":"X","legs":"F"},"action":"harvest","summary":"good-harvest","bonus":1.340000000000001},{"rt":1449.699999988079,"stimulus":"\n                    <p><b>Action: <em>harvest</em></b></p>\n                    <p>This is the bee that you just saw.</p>\n                    <img src=\"bees-with-color/bee-A1SF.svg\" width=\"200\">\n                    <p><span class=\"greenText\"><b>Successful harvest!</b></span><br>Your pay has increased by $0.02. Your bonus pay is now $0.82.</p>\n            ","response":0,"trial_type":"html-button-response","trial_index":108,"time_elapsed":1301595,"internal_node_id":"0.0-4.0-1.50","subject_id":"6118ce4e680f40a422206f5f","study_id":"60edd13110225f80f9f3709b","session_id":"6196c4a7aa0959644383d000","condition":"full-information","relevant_dimensions":["antennae","legs"],"bee_group":{"antennae":"B","wings":"X","pattern":"X","legs":"F"},"bonus":1.340000000000001},{"rt":15940.400000035763,"stimulus":"bees-with-color/bee-B1SF.svg","response":1,"trial_type":"image-button-response","trial_index":109,"time_elapsed":1317538,"internal_node_id":"0.0-4.0-0.51","subject_id":"6118ce4e680f40a422206f5f","study_id":"60edd13110225f80f9f3709b","session_id":"6196c4a7aa0959644383d000","condition":"full-information","relevant_dimensions":["antennae","legs"],"bee_group":{"antennae":"B","wings":"X","pattern":"X","legs":"F"},"action":"avoid","summary":"good-avoid","bonus":1.340000000000001},{"rt":2685.100000023842,"stimulus":"\n                    <p><b>Action: <em>avoid</em></b></p>\n                    <p>This is the bee that you just saw.</p>\n                    <img src=\"bees-with-color/bee-B1SF.svg\" width=\"200\">\n                    <p><span class=\"greenText\">Good choice!</span>  This bee would have stung you.<br>Your bonus pay is unchanged, and remains at $0.82.</p>\n            ","response":0,"trial_type":"html-button-response","trial_index":110,"time_elapsed":1320225,"internal_node_id":"0.0-4.0-1.51","subject_id":"6118ce4e680f40a422206f5f","study_id":"60edd13110225f80f9f3709b","session_id":"6196c4a7aa0959644383d000","condition":"full-information","relevant_dimensions":["antennae","legs"],"bee_group":{"antennae":"B","wings":"X","pattern":"X","legs":"F"},"bonus":1.340000000000001},{"rt":29332.600000023842,"stimulus":"bees-with-color/bee-A2DF.svg","response":0,"trial_type":"image-button-response","trial_index":111,"time_elapsed":1349560,"internal_node_id":"0.0-4.0-0.52","subject_id":"6118ce4e680f40a422206f5f","study_id":"60edd13110225f80f9f3709b","session_id":"6196c4a7aa0959644383d000","condition":"full-information","relevant_dimensions":["antennae","legs"],"bee_group":{"antennae":"B","wings":"X","pattern":"X","legs":"F"},"action":"harvest","summary":"good-harvest","bonus":1.340000000000001},{"rt":1347.3999999761581,"stimulus":"\n                    <p><b>Action: <em>harvest</em></b></p>\n                    <p>This is the bee that you just saw.</p>\n                    <img src=\"bees-with-color/bee-A2DF.svg\" width=\"200\">\n                    <p><span class=\"greenText\"><b>Successful harvest!</b></span><br>Your pay has increased by $0.02. Your bonus pay is now $0.84.</p>\n            ","response":0,"trial_type":"html-button-response","trial_index":112,"time_elapsed":1350909,"internal_node_id":"0.0-4.0-1.52","subject_id":"6118ce4e680f40a422206f5f","study_id":"60edd13110225f80f9f3709b","session_id":"6196c4a7aa0959644383d000","condition":"full-information","relevant_dimensions":["antennae","legs"],"bee_group":{"antennae":"B","wings":"X","pattern":"X","legs":"F"},"bonus":1.340000000000001},{"rt":15236.600000023842,"stimulus":"bees-with-color/bee-A2DM.svg","response":0,"trial_type":"image-button-response","trial_index":113,"time_elapsed":1366148,"internal_node_id":"0.0-4.0-0.53","subject_id":"6118ce4e680f40a422206f5f","study_id":"60edd13110225f80f9f3709b","session_id":"6196c4a7aa0959644383d000","condition":"full-information","relevant_dimensions":["antennae","legs"],"bee_group":{"antennae":"B","wings":"X","pattern":"X","legs":"F"},"action":"harvest","summary":"good-harvest","bonus":1.340000000000001},{"rt":1793.0999999642372,"stimulus":"\n                    <p><b>Action: <em>harvest</em></b></p>\n                    <p>This is the bee that you just saw.</p>\n                    <img src=\"bees-with-color/bee-A2DM.svg\" width=\"200\">\n                    <p><span class=\"greenText\"><b>Successful harvest!</b></span><br>Your pay has increased by $0.02. Your bonus pay is now $0.86.</p>\n            ","response":0,"trial_type":"html-button-response","trial_index":114,"time_elapsed":1367942,"internal_node_id":"0.0-4.0-1.53","subject_id":"6118ce4e680f40a422206f5f","study_id":"60edd13110225f80f9f3709b","session_id":"6196c4a7aa0959644383d000","condition":"full-information","relevant_dimensions":["antennae","legs"],"bee_group":{"antennae":"B","wings":"X","pattern":"X","legs":"F"},"bonus":1.340000000000001},{"rt":8693.800000011921,"stimulus":"bees-with-color/bee-B2SF.svg","response":1,"trial_type":"image-button-response","trial_index":115,"time_elapsed":1376638,"internal_node_id":"0.0-4.0-0.54","subject_id":"6118ce4e680f40a422206f5f","study_id":"60edd13110225f80f9f3709b","session_id":"6196c4a7aa0959644383d000","condition":"full-information","relevant_dimensions":["antennae","legs"],"bee_group":{"antennae":"B","wings":"X","pattern":"X","legs":"F"},"action":"avoid","summary":"good-avoid","bonus":1.340000000000001},{"rt":1756,"stimulus":"\n                    <p><b>Action: <em>avoid</em></b></p>\n                    <p>This is the bee that you just saw.</p>\n                    <img src=\"bees-with-color/bee-B2SF.svg\" width=\"200\">\n                    <p><span class=\"greenText\">Good choice!</span>  This bee would have stung you.<br>Your bonus pay is unchanged, and remains at $0.86.</p>\n            ","response":0,"trial_type":"html-button-response","trial_index":116,"time_elapsed":1378396,"internal_node_id":"0.0-4.0-1.54","subject_id":"6118ce4e680f40a422206f5f","study_id":"60edd13110225f80f9f3709b","session_id":"6196c4a7aa0959644383d000","condition":"full-information","relevant_dimensions":["antennae","legs"],"bee_group":{"antennae":"B","wings":"X","pattern":"X","legs":"F"},"bonus":1.340000000000001},{"rt":32318.100000023842,"stimulus":"bees-with-color/bee-A2SF.svg","response":0,"trial_type":"image-button-response","trial_index":117,"time_elapsed":1410716,"internal_node_id":"0.0-4.0-0.55","subject_id":"6118ce4e680f40a422206f5f","study_id":"60edd13110225f80f9f3709b","session_id":"6196c4a7aa0959644383d000","condition":"full-information","relevant_dimensions":["antennae","legs"],"bee_group":{"antennae":"B","wings":"X","pattern":"X","legs":"F"},"action":"harvest","summary":"good-harvest","bonus":1.340000000000001},{"rt":1818.7999999523163,"stimulus":"\n                    <p><b>Action: <em>harvest</em></b></p>\n                    <p>This is the bee that you just saw.</p>\n                    <img src=\"bees-with-color/bee-A2SF.svg\" width=\"200\">\n                    <p><span class=\"greenText\"><b>Successful harvest!</b></span><br>Your pay has increased by $0.02. Your bonus pay is now $0.88.</p>\n            ","response":0,"trial_type":"html-button-response","trial_index":118,"time_elapsed":1412537,"internal_node_id":"0.0-4.0-1.55","subject_id":"6118ce4e680f40a422206f5f","study_id":"60edd13110225f80f9f3709b","session_id":"6196c4a7aa0959644383d000","condition":"full-information","relevant_dimensions":["antennae","legs"],"bee_group":{"antennae":"B","wings":"X","pattern":"X","legs":"F"},"bonus":1.340000000000001},{"rt":7854.300000011921,"stimulus":"bees-with-color/bee-B1DF.svg","response":1,"trial_type":"image-button-response","trial_index":119,"time_elapsed":1420393,"internal_node_id":"0.0-4.0-0.56","subject_id":"6118ce4e680f40a422206f5f","study_id":"60edd13110225f80f9f3709b","session_id":"6196c4a7aa0959644383d000","condition":"full-information","relevant_dimensions":["antennae","legs"],"bee_group":{"antennae":"B","wings":"X","pattern":"X","legs":"F"},"action":"avoid","summary":"good-avoid","bonus":1.340000000000001},{"rt":1691.699999988079,"stimulus":"\n                    <p><b>Action: <em>avoid</em></b></p>\n                    <p>This is the bee that you just saw.</p>\n                    <img src=\"bees-with-color/bee-B1DF.svg\" width=\"200\">\n                    <p><span class=\"greenText\">Good choice!</span>  This bee would have stung you.<br>Your bonus pay is unchanged, and remains at $0.88.</p>\n            ","response":0,"trial_type":"html-button-response","trial_index":120,"time_elapsed":1422087,"internal_node_id":"0.0-4.0-1.56","subject_id":"6118ce4e680f40a422206f5f","study_id":"60edd13110225f80f9f3709b","session_id":"6196c4a7aa0959644383d000","condition":"full-information","relevant_dimensions":["antennae","legs"],"bee_group":{"antennae":"B","wings":"X","pattern":"X","legs":"F"},"bonus":1.340000000000001},{"rt":2977,"stimulus":"bees-with-color/bee-B1SM.svg","response":1,"trial_type":"image-button-response","trial_index":121,"time_elapsed":1425066,"internal_node_id":"0.0-4.0-0.57","subject_id":"6118ce4e680f40a422206f5f","study_id":"60edd13110225f80f9f3709b","session_id":"6196c4a7aa0959644383d000","condition":"full-information","relevant_dimensions":["antennae","legs"],"bee_group":{"antennae":"B","wings":"X","pattern":"X","legs":"F"},"action":"avoid","summary":"bad-avoid","bonus":1.340000000000001},{"rt":1475.9000000357628,"stimulus":"\n                    <p><b>Action: <em>avoid</em></b></p>\n                    <p>This is the bee that you just saw.</p>\n                    <img src=\"bees-with-color/bee-B1SM.svg\" width=\"200\">\n                    <p><span class=\"redText\">Bad choice,</span> the bee was friendly.<br>Your bonus pay is unchanged, and remains at $0.88.</p>\n            ","response":0,"trial_type":"html-button-response","trial_index":122,"time_elapsed":1426543,"internal_node_id":"0.0-4.0-1.57","subject_id":"6118ce4e680f40a422206f5f","study_id":"60edd13110225f80f9f3709b","session_id":"6196c4a7aa0959644383d000","condition":"full-information","relevant_dimensions":["antennae","legs"],"bee_group":{"antennae":"B","wings":"X","pattern":"X","legs":"F"},"bonus":1.340000000000001},{"rt":35025.39999997616,"stimulus":"bees-with-color/bee-A1DM.svg","response":0,"trial_type":"image-button-response","trial_index":123,"time_elapsed":1461569,"internal_node_id":"0.0-4.0-0.58","subject_id":"6118ce4e680f40a422206f5f","study_id":"60edd13110225f80f9f3709b","session_id":"6196c4a7aa0959644383d000","condition":"full-information","relevant_dimensions":["antennae","legs"],"bee_group":{"antennae":"B","wings":"X","pattern":"X","legs":"F"},"action":"harvest","summary":"good-harvest","bonus":1.340000000000001},{"rt":1170,"stimulus":"\n                    <p><b>Action: <em>harvest</em></b></p>\n                    <p>This is the bee that you just saw.</p>\n                    <img src=\"bees-with-color/bee-A1DM.svg\" width=\"200\">\n                    <p><span class=\"greenText\"><b>Successful harvest!</b></span><br>Your pay has increased by $0.02. Your bonus pay is now $0.90.</p>\n            ","response":0,"trial_type":"html-button-response","trial_index":124,"time_elapsed":1462740,"internal_node_id":"0.0-4.0-1.58","subject_id":"6118ce4e680f40a422206f5f","study_id":"60edd13110225f80f9f3709b","session_id":"6196c4a7aa0959644383d000","condition":"full-information","relevant_dimensions":["antennae","legs"],"bee_group":{"antennae":"B","wings":"X","pattern":"X","legs":"F"},"bonus":1.340000000000001},{"rt":16745.5,"stimulus":"bees-with-color/bee-B2DF.svg","response":1,"trial_type":"image-button-response","trial_index":125,"time_elapsed":1479487,"internal_node_id":"0.0-4.0-0.59","subject_id":"6118ce4e680f40a422206f5f","study_id":"60edd13110225f80f9f3709b","session_id":"6196c4a7aa0959644383d000","condition":"full-information","relevant_dimensions":["antennae","legs"],"bee_group":{"antennae":"B","wings":"X","pattern":"X","legs":"F"},"action":"avoid","summary":"good-avoid","bonus":1.340000000000001},{"rt":1652.800000011921,"stimulus":"\n                    <p><b>Action: <em>avoid</em></b></p>\n                    <p>This is the bee that you just saw.</p>\n                    <img src=\"bees-with-color/bee-B2DF.svg\" width=\"200\">\n                    <p><span class=\"greenText\">Good choice!</span>  This bee would have stung you.<br>Your bonus pay is unchanged, and remains at $0.90.</p>\n            ","response":0,"trial_type":"html-button-response","trial_index":126,"time_elapsed":1481142,"internal_node_id":"0.0-4.0-1.59","subject_id":"6118ce4e680f40a422206f5f","study_id":"60edd13110225f80f9f3709b","session_id":"6196c4a7aa0959644383d000","condition":"full-information","relevant_dimensions":["antennae","legs"],"bee_group":{"antennae":"B","wings":"X","pattern":"X","legs":"F"},"bonus":1.340000000000001},{"rt":15265.799999952316,"stimulus":"bees-with-color/bee-B1DM.svg","response":0,"trial_type":"image-button-response","trial_index":127,"time_elapsed":1496409,"internal_node_id":"0.0-4.0-0.60","subject_id":"6118ce4e680f40a422206f5f","study_id":"60edd13110225f80f9f3709b","session_id":"6196c4a7aa0959644383d000","condition":"full-information","relevant_dimensions":["antennae","legs"],"bee_group":{"antennae":"B","wings":"X","pattern":"X","legs":"F"},"action":"harvest","summary":"good-harvest","bonus":1.340000000000001},{"rt":2163.399999976158,"stimulus":"\n                    <p><b>Action: <em>harvest</em></b></p>\n                    <p>This is the bee that you just saw.</p>\n                    <img src=\"bees-with-color/bee-B1DM.svg\" width=\"200\">\n                    <p><span class=\"greenText\"><b>Successful harvest!</b></span><br>Your pay has increased by $0.02. Your bonus pay is now $0.92.</p>\n            ","response":0,"trial_type":"html-button-response","trial_index":128,"time_elapsed":1498574,"internal_node_id":"0.0-4.0-1.60","subject_id":"6118ce4e680f40a422206f5f","study_id":"60edd13110225f80f9f3709b","session_id":"6196c4a7aa0959644383d000","condition":"full-information","relevant_dimensions":["antennae","legs"],"bee_group":{"antennae":"B","wings":"X","pattern":"X","legs":"F"},"bonus":1.340000000000001},{"rt":27042.899999976158,"stimulus":"bees-with-color/bee-A2SM.svg","response":0,"trial_type":"image-button-response","trial_index":129,"time_elapsed":1525618,"internal_node_id":"0.0-4.0-0.61","subject_id":"6118ce4e680f40a422206f5f","study_id":"60edd13110225f80f9f3709b","session_id":"6196c4a7aa0959644383d000","condition":"full-information","relevant_dimensions":["antennae","legs"],"bee_group":{"antennae":"B","wings":"X","pattern":"X","legs":"F"},"action":"harvest","summary":"good-harvest","bonus":1.340000000000001},{"rt":1449.199999988079,"stimulus":"\n                    <p><b>Action: <em>harvest</em></b></p>\n                    <p>This is the bee that you just saw.</p>\n                    <img src=\"bees-with-color/bee-A2SM.svg\" width=\"200\">\n                    <p><span class=\"greenText\"><b>Successful harvest!</b></span><br>Your pay has increased by $0.02. Your bonus pay is now $0.94.</p>\n            ","response":0,"trial_type":"html-button-response","trial_index":130,"time_elapsed":1527069,"internal_node_id":"0.0-4.0-1.61","subject_id":"6118ce4e680f40a422206f5f","study_id":"60edd13110225f80f9f3709b","session_id":"6196c4a7aa0959644383d000","condition":"full-information","relevant_dimensions":["antennae","legs"],"bee_group":{"antennae":"B","wings":"X","pattern":"X","legs":"F"},"bonus":1.340000000000001},{"rt":23809.69999998808,"stimulus":"bees-with-color/bee-B2DM.svg","response":1,"trial_type":"image-button-response","trial_index":131,"time_elapsed":1550880,"internal_node_id":"0.0-4.0-0.62","subject_id":"6118ce4e680f40a422206f5f","study_id":"60edd13110225f80f9f3709b","session_id":"6196c4a7aa0959644383d000","condition":"full-information","relevant_dimensions":["antennae","legs"],"bee_group":{"antennae":"B","wings":"X","pattern":"X","legs":"F"},"action":"avoid","summary":"bad-avoid","bonus":1.340000000000001},{"rt":1985.300000011921,"stimulus":"\n                    <p><b>Action: <em>avoid</em></b></p>\n                    <p>This is the bee that you just saw.</p>\n                    <img src=\"bees-with-color/bee-B2DM.svg\" width=\"200\">\n                    <p><span class=\"redText\">Bad choice,</span> the bee was friendly.<br>Your bonus pay is unchanged, and remains at $0.94.</p>\n            ","response":0,"trial_type":"html-button-response","trial_index":132,"time_elapsed":1552867,"internal_node_id":"0.0-4.0-1.62","subject_id":"6118ce4e680f40a422206f5f","study_id":"60edd13110225f80f9f3709b","session_id":"6196c4a7aa0959644383d000","condition":"full-information","relevant_dimensions":["antennae","legs"],"bee_group":{"antennae":"B","wings":"X","pattern":"X","legs":"F"},"bonus":1.340000000000001},{"rt":24324.19999998808,"stimulus":"bees-with-color/bee-A1SM.svg","response":0,"trial_type":"image-button-response","trial_index":133,"time_elapsed":1577193,"internal_node_id":"0.0-4.0-0.63","subject_id":"6118ce4e680f40a422206f5f","study_id":"60edd13110225f80f9f3709b","session_id":"6196c4a7aa0959644383d000","condition":"full-information","relevant_dimensions":["antennae","legs"],"bee_group":{"antennae":"B","wings":"X","pattern":"X","legs":"F"},"action":"harvest","summary":"good-harvest","bonus":1.340000000000001},{"rt":1550.8999999761581,"stimulus":"\n                    <p><b>Action: <em>harvest</em></b></p>\n                    <p>This is the bee that you just saw.</p>\n                    <img src=\"bees-with-color/bee-A1SM.svg\" width=\"200\">\n                    <p><span class=\"greenText\"><b>Successful harvest!</b></span><br>Your pay has increased by $0.02. Your bonus pay is now $0.96.</p>\n            ","response":0,"trial_type":"html-button-response","trial_index":134,"time_elapsed":1578747,"internal_node_id":"0.0-4.0-1.63","subject_id":"6118ce4e680f40a422206f5f","study_id":"60edd13110225f80f9f3709b","session_id":"6196c4a7aa0959644383d000","condition":"full-information","relevant_dimensions":["antennae","legs"],"bee_group":{"antennae":"B","wings":"X","pattern":"X","legs":"F"},"bonus":1.340000000000001},{"rt":12631.699999988079,"stimulus":"You have completed the first part of this experiment.<br><br>You will now begin a shorter second part, in which you will receive no feedback.<br>The same rules regarding bonus pay apply.<br><br>Press any key to begin.","response":"h","trial_type":"html-keyboard-response","trial_index":135,"time_elapsed":1591382,"internal_node_id":"0.0-5.0","subject_id":"6118ce4e680f40a422206f5f","study_id":"60edd13110225f80f9f3709b","session_id":"6196c4a7aa0959644383d000","condition":"full-information","relevant_dimensions":["antennae","legs"],"bee_group":{"antennae":"B","wings":"X","pattern":"X","legs":"F"},"bonus":1.340000000000001},{"rt":23057,"stimulus":"bees-with-color/bee-A2DM.svg","response":0,"trial_type":"image-button-response","trial_index":136,"time_elapsed":1614461,"internal_node_id":"0.0-6.0-0.0","subject_id":"6118ce4e680f40a422206f5f","study_id":"60edd13110225f80f9f3709b","session_id":"6196c4a7aa0959644383d000","condition":"full-information","relevant_dimensions":["antennae","legs"],"bee_group":{"antennae":"B","wings":"X","pattern":"X","legs":"F"},"bonus":1.340000000000001},{"rt":27151.69999998808,"stimulus":"bees-with-color/bee-A1SF.svg","response":1,"trial_type":"image-button-response","trial_index":137,"time_elapsed":1641615,"internal_node_id":"0.0-6.0-0.1","subject_id":"6118ce4e680f40a422206f5f","study_id":"60edd13110225f80f9f3709b","session_id":"6196c4a7aa0959644383d000","condition":"full-information","relevant_dimensions":["antennae","legs"],"bee_group":{"antennae":"B","wings":"X","pattern":"X","legs":"F"},"bonus":1.340000000000001},{"rt":17661,"stimulus":"bees-with-color/bee-B1SM.svg","response":0,"trial_type":"image-button-response","trial_index":138,"time_elapsed":1659279,"internal_node_id":"0.0-6.0-0.2","subject_id":"6118ce4e680f40a422206f5f","study_id":"60edd13110225f80f9f3709b","session_id":"6196c4a7aa0959644383d000","condition":"full-information","relevant_dimensions":["antennae","legs"],"bee_group":{"antennae":"B","wings":"X","pattern":"X","legs":"F"},"bonus":1.340000000000001},{"rt":36622.19999998808,"stimulus":"bees-with-color/bee-B1SF.svg","response":1,"trial_type":"image-button-response","trial_index":139,"time_elapsed":1695904,"internal_node_id":"0.0-6.0-0.3","subject_id":"6118ce4e680f40a422206f5f","study_id":"60edd13110225f80f9f3709b","session_id":"6196c4a7aa0959644383d000","condition":"full-information","relevant_dimensions":["antennae","legs"],"bee_group":{"antennae":"B","wings":"X","pattern":"X","legs":"F"},"bonus":1.340000000000001},{"rt":24514,"stimulus":"bees-with-color/bee-A1SM.svg","response":0,"trial_type":"image-button-response","trial_index":140,"time_elapsed":1720422,"internal_node_id":"0.0-6.0-0.4","subject_id":"6118ce4e680f40a422206f5f","study_id":"60edd13110225f80f9f3709b","session_id":"6196c4a7aa0959644383d000","condition":"full-information","relevant_dimensions":["antennae","legs"],"bee_group":{"antennae":"B","wings":"X","pattern":"X","legs":"F"},"bonus":1.340000000000001},{"rt":19469.799999952316,"stimulus":"bees-with-color/bee-A2SM.svg","response":0,"trial_type":"image-button-response","trial_index":141,"time_elapsed":1739895,"internal_node_id":"0.0-6.0-0.5","subject_id":"6118ce4e680f40a422206f5f","study_id":"60edd13110225f80f9f3709b","session_id":"6196c4a7aa0959644383d000","condition":"full-information","relevant_dimensions":["antennae","legs"],"bee_group":{"antennae":"B","wings":"X","pattern":"X","legs":"F"},"bonus":1.340000000000001},{"rt":30066.900000035763,"stimulus":"bees-with-color/bee-B1DF.svg","response":1,"trial_type":"image-button-response","trial_index":142,"time_elapsed":1769964,"internal_node_id":"0.0-6.0-0.6","subject_id":"6118ce4e680f40a422206f5f","study_id":"60edd13110225f80f9f3709b","session_id":"6196c4a7aa0959644383d000","condition":"full-information","relevant_dimensions":["antennae","legs"],"bee_group":{"antennae":"B","wings":"X","pattern":"X","legs":"F"},"bonus":1.340000000000001},{"rt":27975.80000001192,"stimulus":"bees-with-color/bee-B1DM.svg","response":0,"trial_type":"image-button-response","trial_index":143,"time_elapsed":1797943,"internal_node_id":"0.0-6.0-0.7","subject_id":"6118ce4e680f40a422206f5f","study_id":"60edd13110225f80f9f3709b","session_id":"6196c4a7aa0959644383d000","condition":"full-information","relevant_dimensions":["antennae","legs"],"bee_group":{"antennae":"B","wings":"X","pattern":"X","legs":"F"},"bonus":1.340000000000001},{"rt":22321.899999976158,"stimulus":"bees-with-color/bee-B2DM.svg","response":1,"trial_type":"image-button-response","trial_index":144,"time_elapsed":1820268,"internal_node_id":"0.0-6.0-0.8","subject_id":"6118ce4e680f40a422206f5f","study_id":"60edd13110225f80f9f3709b","session_id":"6196c4a7aa0959644383d000","condition":"full-information","relevant_dimensions":["antennae","legs"],"bee_group":{"antennae":"B","wings":"X","pattern":"X","legs":"F"},"bonus":1.340000000000001},{"rt":10075.5,"stimulus":"bees-with-color/bee-A1DF.svg","response":0,"trial_type":"image-button-response","trial_index":145,"time_elapsed":1830346,"internal_node_id":"0.0-6.0-0.9","subject_id":"6118ce4e680f40a422206f5f","study_id":"60edd13110225f80f9f3709b","session_id":"6196c4a7aa0959644383d000","condition":"full-information","relevant_dimensions":["antennae","legs"],"bee_group":{"antennae":"B","wings":"X","pattern":"X","legs":"F"},"bonus":1.340000000000001},{"rt":19163.099999964237,"stimulus":"bees-with-color/bee-B2DF.svg","response":1,"trial_type":"image-button-response","trial_index":146,"time_elapsed":1849512,"internal_node_id":"0.0-6.0-0.10","subject_id":"6118ce4e680f40a422206f5f","study_id":"60edd13110225f80f9f3709b","session_id":"6196c4a7aa0959644383d000","condition":"full-information","relevant_dimensions":["antennae","legs"],"bee_group":{"antennae":"B","wings":"X","pattern":"X","legs":"F"},"bonus":1.340000000000001},{"rt":13410.5,"stimulus":"bees-with-color/bee-A2SF.svg","response":0,"trial_type":"image-button-response","trial_index":147,"time_elapsed":1862925,"internal_node_id":"0.0-6.0-0.11","subject_id":"6118ce4e680f40a422206f5f","study_id":"60edd13110225f80f9f3709b","session_id":"6196c4a7aa0959644383d000","condition":"full-information","relevant_dimensions":["antennae","legs"],"bee_group":{"antennae":"B","wings":"X","pattern":"X","legs":"F"},"bonus":1.340000000000001},{"rt":10551.599999964237,"stimulus":"bees-with-color/bee-A1DM.svg","response":0,"trial_type":"image-button-response","trial_index":148,"time_elapsed":1873479,"internal_node_id":"0.0-6.0-0.12","subject_id":"6118ce4e680f40a422206f5f","study_id":"60edd13110225f80f9f3709b","session_id":"6196c4a7aa0959644383d000","condition":"full-information","relevant_dimensions":["antennae","legs"],"bee_group":{"antennae":"B","wings":"X","pattern":"X","legs":"F"},"bonus":1.340000000000001},{"rt":19342.30000001192,"stimulus":"bees-with-color/bee-B2SF.svg","response":1,"trial_type":"image-button-response","trial_index":149,"time_elapsed":1892823,"internal_node_id":"0.0-6.0-0.13","subject_id":"6118ce4e680f40a422206f5f","study_id":"60edd13110225f80f9f3709b","session_id":"6196c4a7aa0959644383d000","condition":"full-information","relevant_dimensions":["antennae","legs"],"bee_group":{"antennae":"B","wings":"X","pattern":"X","legs":"F"},"bonus":1.340000000000001},{"rt":15349.699999988079,"stimulus":"bees-with-color/bee-A2DF.svg","response":0,"trial_type":"image-button-response","trial_index":150,"time_elapsed":1908175,"internal_node_id":"0.0-6.0-0.14","subject_id":"6118ce4e680f40a422206f5f","study_id":"60edd13110225f80f9f3709b","session_id":"6196c4a7aa0959644383d000","condition":"full-information","relevant_dimensions":["antennae","legs"],"bee_group":{"antennae":"B","wings":"X","pattern":"X","legs":"F"},"bonus":1.340000000000001},{"rt":21666.19999998808,"stimulus":"bees-with-color/bee-B2SM.svg","response":0,"trial_type":"image-button-response","trial_index":151,"time_elapsed":1929844,"internal_node_id":"0.0-6.0-0.15","subject_id":"6118ce4e680f40a422206f5f","study_id":"60edd13110225f80f9f3709b","session_id":"6196c4a7aa0959644383d000","condition":"full-information","relevant_dimensions":["antennae","legs"],"bee_group":{"antennae":"B","wings":"X","pattern":"X","legs":"F"},"bonus":1.340000000000001},{"rt":21858.30000001192,"stimulus":"bees-with-color/bee-B1SF.svg","response":1,"trial_type":"image-button-response","trial_index":152,"time_elapsed":1951705,"internal_node_id":"0.0-6.0-0.16","subject_id":"6118ce4e680f40a422206f5f","study_id":"60edd13110225f80f9f3709b","session_id":"6196c4a7aa0959644383d000","condition":"full-information","relevant_dimensions":["antennae","legs"],"bee_group":{"antennae":"B","wings":"X","pattern":"X","legs":"F"},"bonus":1.340000000000001},{"rt":26171.5,"stimulus":"bees-with-color/bee-A2SF.svg","response":0,"trial_type":"image-button-response","trial_index":153,"time_elapsed":1977879,"internal_node_id":"0.0-6.0-0.17","subject_id":"6118ce4e680f40a422206f5f","study_id":"60edd13110225f80f9f3709b","session_id":"6196c4a7aa0959644383d000","condition":"full-information","relevant_dimensions":["antennae","legs"],"bee_group":{"antennae":"B","wings":"X","pattern":"X","legs":"F"},"bonus":1.340000000000001},{"rt":18241.80000001192,"stimulus":"bees-with-color/bee-B2SM.svg","response":0,"trial_type":"image-button-response","trial_index":154,"time_elapsed":1996123,"internal_node_id":"0.0-6.0-0.18","subject_id":"6118ce4e680f40a422206f5f","study_id":"60edd13110225f80f9f3709b","session_id":"6196c4a7aa0959644383d000","condition":"full-information","relevant_dimensions":["antennae","legs"],"bee_group":{"antennae":"B","wings":"X","pattern":"X","legs":"F"},"bonus":1.340000000000001},{"rt":24372.600000023842,"stimulus":"bees-with-color/bee-B1DM.svg","response":0,"trial_type":"image-button-response","trial_index":155,"time_elapsed":2020497,"internal_node_id":"0.0-6.0-0.19","subject_id":"6118ce4e680f40a422206f5f","study_id":"60edd13110225f80f9f3709b","session_id":"6196c4a7aa0959644383d000","condition":"full-information","relevant_dimensions":["antennae","legs"],"bee_group":{"antennae":"B","wings":"X","pattern":"X","legs":"F"},"bonus":1.340000000000001},{"rt":13372.100000023842,"stimulus":"bees-with-color/bee-A1SM.svg","response":0,"trial_type":"image-button-response","trial_index":156,"time_elapsed":2033872,"internal_node_id":"0.0-6.0-0.20","subject_id":"6118ce4e680f40a422206f5f","study_id":"60edd13110225f80f9f3709b","session_id":"6196c4a7aa0959644383d000","condition":"full-information","relevant_dimensions":["antennae","legs"],"bee_group":{"antennae":"B","wings":"X","pattern":"X","legs":"F"},"bonus":1.340000000000001},{"rt":9138.300000011921,"stimulus":"bees-with-color/bee-A1DF.svg","response":0,"trial_type":"image-button-response","trial_index":157,"time_elapsed":2043012,"internal_node_id":"0.0-6.0-0.21","subject_id":"6118ce4e680f40a422206f5f","study_id":"60edd13110225f80f9f3709b","session_id":"6196c4a7aa0959644383d000","condition":"full-information","relevant_dimensions":["antennae","legs"]