[{"success":true,"trial_type":"fullscreen","trial_index":0,"time_elapsed":3779,"internal_node_id":"0.0-0.0","subject_id":"613cca287897dd965ccb75fd","study_id":"6197b3f67c2b5cd3b6d9596a","session_id":"619be31978e1a0fd6d5d67aa","condition":"contingent","relevant_dimensions":["pattern","legs"],"bee_group":{"antennae":"X","wings":"X","pattern":"D","legs":"M"},"bonus":1.5800000000000014},{"success":true,"timeout":false,"failed_images":[],"failed_audio":[],"failed_video":[],"trial_type":"preload","trial_index":1,"time_elapsed":3844,"internal_node_id":"0.0-1.0","subject_id":"613cca287897dd965ccb75fd","study_id":"6197b3f67c2b5cd3b6d9596a","session_id":"619be31978e1a0fd6d5d67aa","condition":"contingent","relevant_dimensions":["pattern","legs"],"bee_group":{"antennae":"X","wings":"X","pattern":"D","legs":"M"},"bonus":1.5800000000000014},{"rt":2711.100000023842,"stimulus":"Welcome! Press any key to begin.","response":"enter","trial_type":"html-keyboard-response","trial_index":2,"time_elapsed":6556,"internal_node_id":"0.0-2.0","subject_id":"613cca287897dd965ccb75fd","study_id":"6197b3f67c2b5cd3b6d9596a","session_id":"619be31978e1a0fd6d5d67aa","condition":"contingent","relevant_dimensions":["pattern","legs"],"bee_group":{"antennae":"X","wings":"X","pattern":"D","legs":"M"},"bonus":1.5800000000000014},{"view_history":[{"page_index":0,"viewing_time":2057.5},{"page_index":1,"viewing_time":9288.100000023842},{"page_index":2,"viewing_time":8765.699999928474},{"page_index":3,"viewing_time":8770},{"page_index":4,"viewing_time":6567.800000071526},{"page_index":5,"viewing_time":2316.0999999046326},{"page_index":6,"viewing_time":15707.900000095367},{"page_index":7,"viewing_time":1526},{"page_index":8,"viewing_time":600.0999999046326},{"page_index":9,"viewing_time":488},{"page_index":10,"viewing_time":502},{"page_index":11,"viewing_time":8776},{"page_index":12,"viewing_time":3755.9000000953674},{"page_index":13,"viewing_time":1139.7999999523163},{"page_index":14,"viewing_time":966.1000000238419}],"rt":71227.39999997616,"trial_type":"instructions","trial_index":3,"time_elapsed":77785,"internal_node_id":"0.0-3.0-0.0","subject_id":"613cca287897dd965ccb75fd","study_id":"6197b3f67c2b5cd3b6d9596a","session_id":"619be31978e1a0fd6d5d67aa","condition":"contingent","relevant_dimensions":["pattern","legs"],"bee_group":{"antennae":"X","wings":"X","pattern":"D","legs":"M"},"bonus":1.5800000000000014},{"rt":9470.5,"response":{"Q0":["Two or six legs","Stripes or spots on body","Single or double wings","Antennae or no antennae"]},"question_order":[0],"trial_type":"survey-multi-select","trial_index":4,"time_elapsed":87259,"internal_node_id":"0.0-3.0-1.0","subject_id":"613cca287897dd965ccb75fd","study_id":"6197b3f67c2b5cd3b6d9596a","session_id":"619be31978e1a0fd6d5d67aa","condition":"contingent","relevant_dimensions":["pattern","legs"],"bee_group":{"antennae":"X","wings":"X","pattern":"D","legs":"M"},"correct":true,"bonus":1.5800000000000014},{"rt":16947.800000071526,"response":{"Q1":"No.","Q2":"Based on the four features of the bee.","Q3":"You do not learn if it was friendly or dangerous, and do not alter your bonus."},"question_order":[0,1,2],"trial_type":"survey-multi-choice","trial_index":5,"time_elapsed":104209,"internal_node_id":"0.0-3.0-2.0","subject_id":"613cca287897dd965ccb75fd","study_id":"6197b3f67c2b5cd3b6d9596a","session_id":"619be31978e1a0fd6d5d67aa","condition":"contingent","relevant_dimensions":["pattern","legs"],"bee_group":{"antennae":"X","wings":"X","pattern":"D","legs":"M"},"correct":true,"bonus":1.5800000000000014},{"rt":2861.899999976158,"stimulus":"<p>Congrats, you got everything right<br>When you're ready, click the button below to continue to the experiment.</p>","response":0,"trial_type":"html-button-response","trial_index":6,"time_elapsed":107073,"internal_node_id":"0.0-3.0-3.0","subject_id":"613cca287897dd965ccb75fd","study_id":"6197b3f67c2b5cd3b6d9596a","session_id":"619be31978e1a0fd6d5d67aa","condition":"contingent","relevant_dimensions":["pattern","legs"],"bee_group":{"antennae":"X","wings":"X","pattern":"D","legs":"M"},"bonus":1.5800000000000014},{"rt":32083.100000023842,"stimulus":"bees-with-color/bee-A1SM.svg","response":0,"trial_type":"image-button-response","trial_index":7,"time_elapsed":139159,"internal_node_id":"0.0-4.0-0.0","subject_id":"613cca287897dd965ccb75fd","study_id":"6197b3f67c2b5cd3b6d9596a","session_id":"619be31978e1a0fd6d5d67aa","condition":"contingent","relevant_dimensions":["pattern","legs"],"bee_group":{"antennae":"X","wings":"X","pattern":"D","legs":"M"},"action":"harvest","summary":"good-harvest","bonus":1.5800000000000014},{"rt":33098.799999952316,"stimulus":"\n                    <p><b>Action: <em>harvest</em></b></p>\n                    <p>This is the bee that you just saw.</p>\n                    <img src=\"bees-with-color/bee-A1SM.svg\" width=\"200\">\n                    <p><span class=\"greenText\"><b>Successful harvest!</b></span><br>Your pay has increased by $0.02. Your bonus pay is now $0.56.</p>\n            ","response":0,"trial_type":"html-button-response","trial_index":8,"time_elapsed":172260,"internal_node_id":"0.0-4.0-1.0","subject_id":"613cca287897dd965ccb75fd","study_id":"6197b3f67c2b5cd3b6d9596a","session_id":"619be31978e1a0fd6d5d67aa","condition":"contingent","relevant_dimensions":["pattern","legs"],"bee_group":{"antennae":"X","wings":"X","pattern":"D","legs":"M"},"bonus":1.5800000000000014},{"rt":3685.899999976158,"stimulus":"bees-with-color/bee-A1SF.svg","response":0,"trial_type":"image-button-response","trial_index":9,"time_elapsed":175948,"internal_node_id":"0.0-4.0-0.1","subject_id":"613cca287897dd965ccb75fd","study_id":"6197b3f67c2b5cd3b6d9596a","session_id":"619be31978e1a0fd6d5d67aa","condition":"contingent","relevant_dimensions":["pattern","legs"],"bee_group":{"antennae":"X","wings":"X","pattern":"D","legs":"M"},"action":"harvest","summary":"good-harvest","bonus":1.5800000000000014},{"rt":5811.899999976158,"stimulus":"\n                    <p><b>Action: <em>harvest</em></b></p>\n                    <p>This is the bee that you just saw.</p>\n                    <img src=\"bees-with-color/bee-A1SF.svg\" width=\"200\">\n                    <p><span class=\"greenText\"><b>Successful harvest!</b></span><br>Your pay has increased by $0.02. Your bonus pay is now $0.58.</p>\n            ","response":0,"trial_type":"html-button-response","trial_index":10,"time_elapsed":181762,"internal_node_id":"0.0-4.0-1.1","subject_id":"613cca287897dd965ccb75fd","study_id":"6197b3f67c2b5cd3b6d9596a","session_id":"619be31978e1a0fd6d5d67aa","condition":"contingent","relevant_dimensions":["pattern","legs"],"bee_group":{"antennae":"X","wings":"X","pattern":"D","legs":"M"},"bonus":1.5800000000000014},{"rt":1682,"stimulus":"bees-with-color/bee-B1DF.svg","response":0,"trial_type":"image-button-response","trial_index":11,"time_elapsed":183446,"internal_node_id":"0.0-4.0-0.2","subject_id":"613cca287897dd965ccb75fd","study_id":"6197b3f67c2b5cd3b6d9596a","session_id":"619be31978e1a0fd6d5d67aa","condition":"contingent","relevant_dimensions":["pattern","legs"],"bee_group":{"antennae":"X","wings":"X","pattern":"D","legs":"M"},"action":"harvest","summary":"good-harvest","bonus":1.5800000000000014},{"rt":4793,"stimulus":"\n                    <p><b>Action: <em>harvest</em></b></p>\n                    <p>This is the bee that you just saw.</p>\n                    <img src=\"bees-with-color/bee-B1DF.svg\" width=\"200\">\n                    <p><span class=\"greenText\"><b>Successful harvest!</b></span><br>Your pay has increased by $0.02. Your bonus pay is now $0.60.</p>\n            ","response":0,"trial_type":"html-button-response","trial_index":12,"time_elapsed":188241,"internal_node_id":"0.0-4.0-1.2","subject_id":"613cca287897dd965ccb75fd","study_id":"6197b3f67c2b5cd3b6d9596a","session_id":"619be31978e1a0fd6d5d67aa","condition":"contingent","relevant_dimensions":["pattern","legs"],"bee_group":{"antennae":"X","wings":"X","pattern":"D","legs":"M"},"bonus":1.5800000000000014},{"rt":1607.2000000476837,"stimulus":"bees-with-color/bee-B1SF.svg","response":0,"trial_type":"image-button-response","trial_index":13,"time_elapsed":189849,"internal_node_id":"0.0-4.0-0.3","subject_id":"613cca287897dd965ccb75fd","study_id":"6197b3f67c2b5cd3b6d9596a","session_id":"619be31978e1a0fd6d5d67aa","condition":"contingent","relevant_dimensions":["pattern","legs"],"bee_group":{"antennae":"X","wings":"X","pattern":"D","legs":"M"},"action":"harvest","summary":"good-harvest","bonus":1.5800000000000014},{"rt":4483.299999952316,"stimulus":"\n                    <p><b>Action: <em>harvest</em></b></p>\n                    <p>This is the bee that you just saw.</p>\n                    <img src=\"bees-with-color/bee-B1SF.svg\" width=\"200\">\n                    <p><span class=\"greenText\"><b>Successful harvest!</b></span><br>Your pay has increased by $0.02. Your bonus pay is now $0.62.</p>\n            ","response":0,"trial_type":"html-button-response","trial_index":14,"time_elapsed":194334,"internal_node_id":"0.0-4.0-1.3","subject_id":"613cca287897dd965ccb75fd","study_id":"6197b3f67c2b5cd3b6d9596a","session_id":"619be31978e1a0fd6d5d67aa","condition":"contingent","relevant_dimensions":["pattern","legs"],"bee_group":{"antennae":"X","wings":"X","pattern":"D","legs":"M"},"bonus":1.5800000000000014},{"rt":2398,"stimulus":"bees-with-color/bee-A1DM.svg","response":0,"trial_type":"image-button-response","trial_index":15,"time_elapsed":196734,"internal_node_id":"0.0-4.0-0.4","subject_id":"613cca287897dd965ccb75fd","study_id":"6197b3f67c2b5cd3b6d9596a","session_id":"619be31978e1a0fd6d5d67aa","condition":"contingent","relevant_dimensions":["pattern","legs"],"bee_group":{"antennae":"X","wings":"X","pattern":"D","legs":"M"},"action":"harvest","summary":"bad-harvest","bonus":1.5800000000000014},{"rt":5422.599999904633,"stimulus":"\n                    <p><b>Action: <em>harvest</em></b></p>\n                    <p>This is the bee that you just saw.</p>\n                    <img src=\"bees-with-color/bee-A1DM.svg\" width=\"200\">\n                    <p><span class=\"redText\">Bad choice, the bee was angry.</span><br><b>You have been stung!</b><br>Your pay has been decreased by $0.10. Your bonus pay is now $0.52.</p>\n            ","response":0,"trial_type":"html-button-response","trial_index":16,"time_elapsed":202158,"internal_node_id":"0.0-4.0-1.4","subject_id":"613cca287897dd965ccb75fd","study_id":"6197b3f67c2b5cd3b6d9596a","session_id":"619be31978e1a0fd6d5d67aa","condition":"contingent","relevant_dimensions":["pattern","legs"],"bee_group":{"antennae":"X","wings":"X","pattern":"D","legs":"M"},"bonus":1.5800000000000014},{"rt":9010.100000023842,"stimulus":"bees-with-color/bee-A1DF.svg","response":0,"trial_type":"image-button-response","trial_index":17,"time_elapsed":211170,"internal_node_id":"0.0-4.0-0.5","subject_id":"613cca287897dd965ccb75fd","study_id":"6197b3f67c2b5cd3b6d9596a","session_id":"619be31978e1a0fd6d5d67aa","condition":"contingent","relevant_dimensions":["pattern","legs"],"bee_group":{"antennae":"X","wings":"X","pattern":"D","legs":"M"},"action":"harvest","summary":"good-harvest","bonus":1.5800000000000014},{"rt":7348.399999976158,"stimulus":"\n                    <p><b>Action: <em>harvest</em></b></p>\n                    <p>This is the bee that you just saw.</p>\n                    <img src=\"bees-with-color/bee-A1DF.svg\" width=\"200\">\n                    <p><span class=\"greenText\"><b>Successful harvest!</b></span><br>Your pay has increased by $0.02. Your bonus pay is now $0.54.</p>\n            ","response":0,"trial_type":"html-button-response","trial_index":18,"time_elapsed":218520,"internal_node_id":"0.0-4.0-1.5","subject_id":"613cca287897dd965ccb75fd","study_id":"6197b3f67c2b5cd3b6d9596a","session_id":"619be31978e1a0fd6d5d67aa","condition":"contingent","relevant_dimensions":["pattern","legs"],"bee_group":{"antennae":"X","wings":"X","pattern":"D","legs":"M"},"bonus":1.5800000000000014},{"rt":3796.3000000715256,"stimulus":"bees-with-color/bee-B2DF.svg","response":0,"trial_type":"image-button-response","trial_index":19,"time_elapsed":222318,"internal_node_id":"0.0-4.0-0.6","subject_id":"613cca287897dd965ccb75fd","study_id":"6197b3f67c2b5cd3b6d9596a","session_id":"619be31978e1a0fd6d5d67aa","condition":"contingent","relevant_dimensions":["pattern","legs"],"bee_group":{"antennae":"X","wings":"X","pattern":"D","legs":"M"},"action":"harvest","summary":"good-harvest","bonus":1.5800000000000014},{"rt":4190.5,"stimulus":"\n                    <p><b>Action: <em>harvest</em></b></p>\n                    <p>This is the bee that you just saw.</p>\n                    <img src=\"bees-with-color/bee-B2DF.svg\" width=\"200\">\n                    <p><span class=\"greenText\"><b>Successful harvest!</b></span><br>Your pay has increased by $0.02. Your bonus pay is now $0.56.</p>\n            ","response":0,"trial_type":"html-button-response","trial_index":20,"time_elapsed":226510,"internal_node_id":"0.0-4.0-1.6","subject_id":"613cca287897dd965ccb75fd","study_id":"6197b3f67c2b5cd3b6d9596a","session_id":"619be31978e1a0fd6d5d67aa","condition":"contingent","relevant_dimensions":["pattern","legs"],"bee_group":{"antennae":"X","wings":"X","pattern":"D","legs":"M"},"bonus":1.5800000000000014},{"rt":11522.200000047684,"stimulus":"bees-with-color/bee-B1DM.svg","response":0,"trial_type":"image-button-response","trial_index":21,"time_elapsed":238034,"internal_node_id":"0.0-4.0-0.7","subject_id":"613cca287897dd965ccb75fd","study_id":"6197b3f67c2b5cd3b6d9596a","session_id":"619be31978e1a0fd6d5d67aa","condition":"contingent","relevant_dimensions":["pattern","legs"],"bee_group":{"antennae":"X","wings":"X","pattern":"D","legs":"M"},"action":"harvest","summary":"bad-harvest","bonus":1.5800000000000014},{"rt":8840.299999952316,"stimulus":"\n                    <p><b>Action: <em>harvest</em></b></p>\n                    <p>This is the bee that you just saw.</p>\n                    <img src=\"bees-with-color/bee-B1DM.svg\" width=\"200\">\n                    <p><span class=\"redText\">Bad choice, the bee was angry.</span><br><b>You have been stung!</b><br>Your pay has been decreased by $0.10. Your bonus pay is now $0.46.</p>\n            ","response":0,"trial_type":"html-button-response","trial_index":22,"time_elapsed":246876,"internal_node_id":"0.0-4.0-1.7","subject_id":"613cca287897dd965ccb75fd","study_id":"6197b3f67c2b5cd3b6d9596a","session_id":"619be31978e1a0fd6d5d67aa","condition":"contingent","relevant_dimensions":["pattern","legs"],"bee_group":{"antennae":"X","wings":"X","pattern":"D","legs":"M"},"bonus":1.5800000000000014},{"rt":18663.800000071526,"stimulus":"bees-with-color/bee-B2SM.svg","response":0,"trial_type":"image-button-response","trial_index":23,"time_elapsed":265542,"internal_node_id":"0.0-4.0-0.8","subject_id":"613cca287897dd965ccb75fd","study_id":"6197b3f67c2b5cd3b6d9596a","session_id":"619be31978e1a0fd6d5d67aa","condition":"contingent","relevant_dimensions":["pattern","legs"],"bee_group":{"antennae":"X","wings":"X","pattern":"D","legs":"M"},"action":"harvest","summary":"good-harvest","bonus":1.5800000000000014},{"rt":7516.900000095367,"stimulus":"\n                    <p><b>Action: <em>harvest</em></b></p>\n                    <p>This is the bee that you just saw.</p>\n                    <img src=\"bees-with-color/bee-B2SM.svg\" width=\"200\">\n                    <p><span class=\"greenText\"><b>Successful harvest!</b></span><br>Your pay has increased by $0.02. Your bonus pay is now $0.48.</p>\n            ","response":0,"trial_type":"html-button-response","trial_index":24,"time_elapsed":273061,"internal_node_id":"0.0-4.0-1.8","subject_id":"613cca287897dd965ccb75fd","study_id":"6197b3f67c2b5cd3b6d9596a","session_id":"619be31978e1a0fd6d5d67aa","condition":"contingent","relevant_dimensions":["pattern","legs"],"bee_group":{"antennae":"X","wings":"X","pattern":"D","legs":"M"},"bonus":1.5800000000000014},{"rt":22424.299999952316,"stimulus":"bees-with-color/bee-B1SM.svg","response":0,"trial_type":"image-button-response","trial_index":25,"time_elapsed":295487,"internal_node_id":"0.0-4.0-0.9","subject_id":"613cca287897dd965ccb75fd","study_id":"6197b3f67c2b5cd3b6d9596a","session_id":"619be31978e1a0fd6d5d67aa","condition":"contingent","relevant_dimensions":["pattern","legs"],"bee_group":{"antennae":"X","wings":"X","pattern":"D","legs":"M"},"action":"harvest","summary":"good-harvest","bonus":1.5800000000000014},{"rt":3816,"stimulus":"\n                    <p><b>Action: <em>harvest</em></b></p>\n                    <p>This is the bee that you just saw.</p>\n                    <img src=\"bees-with-color/bee-B1SM.svg\" width=\"200\">\n                    <p><span class=\"greenText\"><b>Successful harvest!</b></span><br>Your pay has increased by $0.02. Your bonus pay is now $0.50.</p>\n            ","response":0,"trial_type":"html-button-response","trial_index":26,"time_elapsed":299305,"internal_node_id":"0.0-4.0-1.9","subject_id":"613cca287897dd965ccb75fd","study_id":"6197b3f67c2b5cd3b6d9596a","session_id":"619be31978e1a0fd6d5d67aa","condition":"contingent","relevant_dimensions":["pattern","legs"],"bee_group":{"antennae":"X","wings":"X","pattern":"D","legs":"M"},"bonus":1.5800000000000014},{"rt":14285.700000047684,"stimulus":"bees-with-color/bee-B2SF.svg","response":0,"trial_type":"image-button-response","trial_index":27,"time_elapsed":313593,"internal_node_id":"0.0-4.0-0.10","subject_id":"613cca287897dd965ccb75fd","study_id":"6197b3f67c2b5cd3b6d9596a","session_id":"619be31978e1a0fd6d5d67aa","condition":"contingent","relevant_dimensions":["pattern","legs"],"bee_group":{"antennae":"X","wings":"X","pattern":"D","legs":"M"},"action":"harvest","summary":"good-harvest","bonus":1.5800000000000014},{"rt":4674.399999976158,"stimulus":"\n                    <p><b>Action: <em>harvest</em></b></p>\n                    <p>This is the bee that you just saw.</p>\n                    <img src=\"bees-with-color/bee-B2SF.svg\" width=\"200\">\n                    <p><span class=\"greenText\"><b>Successful harvest!</b></span><br>Your pay has increased by $0.02. Your bonus pay is now $0.52.</p>\n            ","response":0,"trial_type":"html-button-response","trial_index":28,"time_elapsed":318269,"internal_node_id":"0.0-4.0-1.10","subject_id":"613cca287897dd965ccb75fd","study_id":"6197b3f67c2b5cd3b6d9596a","session_id":"619be31978e1a0fd6d5d67aa","condition":"contingent","relevant_dimensions":["pattern","legs"],"bee_group":{"antennae":"X","wings":"X","pattern":"D","legs":"M"},"bonus":1.5800000000000014},{"rt":15082,"stimulus":"bees-with-color/bee-A2SF.svg","response":0,"trial_type":"image-button-response","trial_index":29,"time_elapsed":333353,"internal_node_id":"0.0-4.0-0.11","subject_id":"613cca287897dd965ccb75fd","study_id":"6197b3f67c2b5cd3b6d9596a","session_id":"619be31978e1a0fd6d5d67aa","condition":"contingent","relevant_dimensions":["pattern","legs"],"bee_group":{"antennae":"X","wings":"X","pattern":"D","legs":"M"},"action":"harvest","summary":"good-harvest","bonus":1.5800000000000014},{"rt":7952.399999976158,"stimulus":"\n                    <p><b>Action: <em>harvest</em></b></p>\n                    <p>This is the bee that you just saw.</p>\n                    <img src=\"bees-with-color/bee-A2SF.svg\" width=\"200\">\n                    <p><span class=\"greenText\"><b>Successful harvest!</b></span><br>Your pay has increased by $0.02. Your bonus pay is now $0.54.</p>\n            ","response":0,"trial_type":"html-button-response","trial_index":30,"time_elapsed":341307,"internal_node_id":"0.0-4.0-1.11","subject_id":"613cca287897dd965ccb75fd","study_id":"6197b3f67c2b5cd3b6d9596a","session_id":"619be31978e1a0fd6d5d67aa","condition":"contingent","relevant_dimensions":["pattern","legs"],"bee_group":{"antennae":"X","wings":"X","pattern":"D","legs":"M"},"bonus":1.5800000000000014},{"rt":15377.700000047684,"stimulus":"bees-with-color/bee-A2SM.svg","response":0,"trial_type":"image-button-response","trial_index":31,"time_elapsed":356687,"internal_node_id":"0.0-4.0-0.12","subject_id":"613cca287897dd965ccb75fd","study_id":"6197b3f67c2b5cd3b6d9596a","session_id":"619be31978e1a0fd6d5d67aa","condition":"contingent","relevant_dimensions":["pattern","legs"],"bee_group":{"antennae":"X","wings":"X","pattern":"D","legs":"M"},"action":"harvest","summary":"good-harvest","bonus":1.5800000000000014},{"rt":5714.300000071526,"stimulus":"\n                    <p><b>Action: <em>harvest</em></b></p>\n                    <p>This is the bee that you just saw.</p>\n                    <img src=\"bees-with-color/bee-A2SM.svg\" width=\"200\">\n                    <p><span class=\"greenText\"><b>Successful harvest!</b></span><br>Your pay has increased by $0.02. Your bonus pay is now $0.56.</p>\n            ","response":0,"trial_type":"html-button-response","trial_index":32,"time_elapsed":362402,"internal_node_id":"0.0-4.0-1.12","subject_id":"613cca287897dd965ccb75fd","study_id":"6197b3f67c2b5cd3b6d9596a","session_id":"619be31978e1a0fd6d5d67aa","condition":"contingent","relevant_dimensions":["pattern","legs"],"bee_group":{"antennae":"X","wings":"X","pattern":"D","legs":"M"},"bonus":1.5800000000000014},{"rt":19135.700000047684,"stimulus":"bees-with-color/bee-A2DF.svg","response":0,"trial_type":"image-button-response","trial_index":33,"time_elapsed":381540,"internal_node_id":"0.0-4.0-0.13","subject_id":"613cca287897dd965ccb75fd","study_id":"6197b3f67c2b5cd3b6d9596a","session_id":"619be31978e1a0fd6d5d67aa","condition":"contingent","relevant_dimensions":["pattern","legs"],"bee_group":{"antennae":"X","wings":"X","pattern":"D","legs":"M"},"action":"harvest","summary":"good-harvest","bonus":1.5800000000000014},{"rt":5088.099999904633,"stimulus":"\n                    <p><b>Action: <em>harvest</em></b></p>\n                    <p>This is the bee that you just saw.</p>\n                    <img src=\"bees-with-color/bee-A2DF.svg\" width=\"200\">\n                    <p><span class=\"greenText\"><b>Successful harvest!</b></span><br>Your pay has increased by $0.02. Your bonus pay is now $0.58.</p>\n            ","response":0,"trial_type":"html-button-response","trial_index":34,"time_elapsed":386630,"internal_node_id":"0.0-4.0-1.13","subject_id":"613cca287897dd965ccb75fd","study_id":"6197b3f67c2b5cd3b6d9596a","session_id":"619be31978e1a0fd6d5d67aa","condition":"contingent","relevant_dimensions":["pattern","legs"],"bee_group":{"antennae":"X","wings":"X","pattern":"D","legs":"M"},"bonus":1.5800000000000014},{"rt":18100.100000023842,"stimulus":"bees-with-color/bee-A2DM.svg","response":0,"trial_type":"image-button-response","trial_index":35,"time_elapsed":404732,"internal_node_id":"0.0-4.0-0.14","subject_id":"613cca287897dd965ccb75fd","study_id":"6197b3f67c2b5cd3b6d9596a","session_id":"619be31978e1a0fd6d5d67aa","condition":"contingent","relevant_dimensions":["pattern","legs"],"bee_group":{"antennae":"X","wings":"X","pattern":"D","legs":"M"},"action":"harvest","summary":"bad-harvest","bonus":1.5800000000000014},{"rt":6612.600000023842,"stimulus":"\n                    <p><b>Action: <em>harvest</em></b></p>\n                    <p>This is the bee that you just saw.</p>\n                    <img src=\"bees-with-color/bee-A2DM.svg\" width=\"200\">\n                    <p><span class=\"redText\">Bad choice, the bee was angry.</span><br><b>You have been stung!</b><br>Your pay has been decreased by $0.10. Your bonus pay is now $0.48.</p>\n            ","response":0,"trial_type":"html-button-response","trial_index":36,"time_elapsed":411346,"internal_node_id":"0.0-4.0-1.14","subject_id":"613cca287897dd965ccb75fd","study_id":"6197b3f67c2b5cd3b6d9596a","session_id":"619be31978e1a0fd6d5d67aa","condition":"contingent","relevant_dimensions":["pattern","legs"],"bee_group":{"antennae":"X","wings":"X","pattern":"D","legs":"M"},"bonus":1.5800000000000014},{"rt":18294.299999952316,"stimulus":"bees-with-color/bee-B2DM.svg","response":0,"trial_type":"image-button-response","trial_index":37,"time_elapsed":429642,"internal_node_id":"0.0-4.0-0.15","subject_id":"613cca287897dd965ccb75fd","study_id":"6197b3f67c2b5cd3b6d9596a","session_id":"619be31978e1a0fd6d5d67aa","condition":"contingent","relevant_dimensions":["pattern","legs"],"bee_group":{"antennae":"X","wings":"X","pattern":"D","legs":"M"},"action":"harvest","summary":"bad-harvest","bonus":1.5800000000000014},{"rt":6348.600000023842,"stimulus":"\n                    <p><b>Action: <em>harvest</em></b></p>\n                    <p>This is the bee that you just saw.</p>\n                    <img src=\"bees-with-color/bee-B2DM.svg\" width=\"200\">\n                    <p><span class=\"redText\">Bad choice, the bee was angry.</span><br><b>You have been stung!</b><br>Your pay has been decreased by $0.10. Your bonus pay is now $0.38.</p>\n            ","response":0,"trial_type":"html-button-response","trial_index":38,"time_elapsed":435992,"internal_node_id":"0.0-4.0-1.15","subject_id":"613cca287897dd965ccb75fd","study_id":"6197b3f67c2b5cd3b6d9596a","session_id":"619be31978e1a0fd6d5d67aa","condition":"contingent","relevant_dimensions":["pattern","legs"],"bee_group":{"antennae":"X","wings":"X","pattern":"D","legs":"M"},"bonus":1.5800000000000014},{"rt":15882.300000071526,"stimulus":"bees-with-color/bee-B1SF.svg","response":0,"trial_type":"image-button-response","trial_index":39,"time_elapsed":451876,"internal_node_id":"0.0-4.0-0.16","subject_id":"613cca287897dd965ccb75fd","study_id":"6197b3f67c2b5cd3b6d9596a","session_id":"619be31978e1a0fd6d5d67aa","condition":"contingent","relevant_dimensions":["pattern","legs"],"bee_group":{"antennae":"X","wings":"X","pattern":"D","legs":"M"},"action":"harvest","summary":"good-harvest","bonus":1.5800000000000014},{"rt":1318,"stimulus":"\n                    <p><b>Action: <em>harvest</em></b></p>\n                    <p>This is the bee that you just saw.</p>\n                    <img src=\"bees-with-color/bee-B1SF.svg\" width=\"200\">\n                    <p><span class=\"greenText\"><b>Successful harvest!</b></span><br>Your pay has increased by $0.02. Your bonus pay is now $0.40.</p>\n            ","response":0,"trial_type":"html-button-response","trial_index":40,"time_elapsed":453196,"internal_node_id":"0.0-4.0-1.16","subject_id":"613cca287897dd965ccb75fd","study_id":"6197b3f67c2b5cd3b6d9596a","session_id":"619be31978e1a0fd6d5d67aa","condition":"contingent","relevant_dimensions":["pattern","legs"],"bee_group":{"antennae":"X","wings":"X","pattern":"D","legs":"M"},"bonus":1.5800000000000014},{"rt":7576.200000047684,"stimulus":"bees-with-color/bee-A1SF.svg","response":0,"trial_type":"image-button-response","trial_index":41,"time_elapsed":460774,"internal_node_id":"0.0-4.0-0.17","subject_id":"613cca287897dd965ccb75fd","study_id":"6197b3f67c2b5cd3b6d9596a","session_id":"619be31978e1a0fd6d5d67aa","condition":"contingent","relevant_dimensions":["pattern","legs"],"bee_group":{"antennae":"X","wings":"X","pattern":"D","legs":"M"},"action":"harvest","summary":"good-harvest","bonus":1.5800000000000014},{"rt":1624.2999999523163,"stimulus":"\n                    <p><b>Action: <em>harvest</em></b></p>\n                    <p>This is the bee that you just saw.</p>\n                    <img src=\"bees-with-color/bee-A1SF.svg\" width=\"200\">\n                    <p><span class=\"greenText\"><b>Successful harvest!</b></span><br>Your pay has increased by $0.02. Your bonus pay is now $0.42.</p>\n            ","response":0,"trial_type":"html-button-response","trial_index":42,"time_elapsed":462400,"internal_node_id":"0.0-4.0-1.17","subject_id":"613cca287897dd965ccb75fd","study_id":"6197b3f67c2b5cd3b6d9596a","session_id":"619be31978e1a0fd6d5d67aa","condition":"contingent","relevant_dimensions":["pattern","legs"],"bee_group":{"antennae":"X","wings":"X","pattern":"D","legs":"M"},"bonus":1.5800000000000014},{"rt":11972.399999976158,"stimulus":"bees-with-color/bee-A1DM.svg","response":1,"trial_type":"image-button-response","trial_index":43,"time_elapsed":474374,"internal_node_id":"0.0-4.0-0.18","subject_id":"613cca287897dd965ccb75fd","study_id":"6197b3f67c2b5cd3b6d9596a","session_id":"619be31978e1a0fd6d5d67aa","condition":"contingent","relevant_dimensions":["pattern","legs"],"bee_group":{"antennae":"X","wings":"X","pattern":"D","legs":"M"},"action":"avoid","summary":"good-avoid","bonus":1.5800000000000014},{"rt":4980.200000047684,"stimulus":"\n                    <p><b>Action: <em>avoid</em></b></p>\n                    <p>This is the bee that you just saw.</p>\n                    <img src=\"bees-with-color/bee-A1DM.svg\" width=\"200\">\n                    <p><br>Your bonus pay is unchanged, and remains at $0.42.</p>\n            ","response":0,"trial_type":"html-button-response","trial_index":44,"time_elapsed":479356,"internal_node_id":"0.0-4.0-1.18","subject_id":"613cca287897dd965ccb75fd","study_id":"6197b3f67c2b5cd3b6d9596a","session_id":"619be31978e1a0fd6d5d67aa","condition":"contingent","relevant_dimensions":["pattern","legs"],"bee_group":{"antennae":"X","wings":"X","pattern":"D","legs":"M"},"bonus":1.5800000000000014},{"rt":18396.200000047684,"stimulus":"bees-with-color/bee-A2DM.svg","response":1,"trial_type":"image-button-response","trial_index":45,"time_elapsed":497754,"internal_node_id":"0.0-4.0-0.19","subject_id":"613cca287897dd965ccb75fd","study_id":"6197b3f67c2b5cd3b6d9596a","session_id":"619be31978e1a0fd6d5d67aa","condition":"contingent","relevant_dimensions":["pattern","legs"],"bee_group":{"antennae":"X","wings":"X","pattern":"D","legs":"M"},"action":"avoid","summary":"good-avoid","bonus":1.5800000000000014},{"rt":1556.2999999523163,"stimulus":"\n                    <p><b>Action: <em>avoid</em></b></p>\n                    <p>This is the bee that you just saw.</p>\n                    <img src=\"bees-with-color/bee-A2DM.svg\" width=\"200\">\n                    <p><br>Your bonus pay is unchanged, and remains at $0.42.</p>\n            ","response":0,"trial_type":"html-button-response","trial_index":46,"time_elapsed":499312,"internal_node_id":"0.0-4.0-1.19","subject_id":"613cca287897dd965ccb75fd","study_id":"6197b3f67c2b5cd3b6d9596a","session_id":"619be31978e1a0fd6d5d67aa","condition":"contingent","relevant_dimensions":["pattern","legs"],"bee_group":{"antennae":"X","wings":"X","pattern":"D","legs":"M"},"bonus":1.5800000000000014},{"rt":10360.199999928474,"stimulus":"bees-with-color/bee-B1SM.svg","response":0,"trial_type":"image-button-response","trial_index":47,"time_elapsed":509674,"internal_node_id":"0.0-4.0-0.20","subject_id":"613cca287897dd965ccb75fd","study_id":"6197b3f67c2b5cd3b6d9596a","session_id":"619be31978e1a0fd6d5d67aa","condition":"contingent","relevant_dimensions":["pattern","legs"],"bee_group":{"antennae":"X","wings":"X","pattern":"D","legs":"M"},"action":"harvest","summary":"good-harvest","bonus":1.5800000000000014},{"rt":1230.3999999761581,"stimulus":"\n                    <p><b>Action: <em>harvest</em></b></p>\n                    <p>This is the bee that you just saw.</p>\n                    <img src=\"bees-with-color/bee-B1SM.svg\" width=\"200\">\n                    <p><span class=\"greenText\"><b>Successful harvest!</b></span><br>Your pay has increased by $0.02. Your bonus pay is now $0.44.</p>\n            ","response":0,"trial_type":"html-button-response","trial_index":48,"time_elapsed":510906,"internal_node_id":"0.0-4.0-1.20","subject_id":"613cca287897dd965ccb75fd","study_id":"6197b3f67c2b5cd3b6d9596a","session_id":"619be31978e1a0fd6d5d67aa","condition":"contingent","relevant_dimensions":["pattern","legs"],"bee_group":{"antennae":"X","wings":"X","pattern":"D","legs":"M"},"bonus":1.5800000000000014},{"rt":21561.899999976158,"stimulus":"bees-with-color/bee-A2SF.svg","response":0,"trial_type":"image-button-response","trial_index":49,"time_elapsed":532469,"internal_node_id":"0.0-4.0-0.21","subject_id":"613cca287897dd965ccb75fd","study_id":"6197b3f67c2b5cd3b6d9596a","session_id":"619be31978e1a0fd6d5d67aa","condition":"contingent","relevant_dimensions":["pattern","legs"],"bee_group":{"antennae":"X","wings":"X","pattern":"D","legs":"M"},"action":"harvest","summary":"good-harvest","bonus":1.5800000000000014},{"rt":996.5,"stimulus":"\n                    <p><b>Action: <em>harvest</em></b></p>\n                    <p>This is the bee that you just saw.</p>\n                    <img src=\"bees-with-color/bee-A2SF.svg\" width=\"200\">\n                    <p><span class=\"greenText\"><b>Successful harvest!</b></span><br>Your pay has increased by $0.02. Your bonus pay is now $0.46.</p>\n            ","response":0,"trial_type":"html-button-response","trial_index":50,"time_elapsed":533467,"internal_node_id":"0.0-4.0-1.21","subject_id":"613cca287897dd965ccb75fd","study_id":"6197b3f67c2b5cd3b6d9596a","session_id":"619be31978e1a0fd6d5d67aa","condition":"contingent","relevant_dimensions":["pattern","legs"],"bee_group":{"antennae":"X","wings":"X","pattern":"D","legs":"M"},"bonus":1.5800000000000014},{"rt":21536,"stimulus":"bees-with-color/bee-B1DF.svg","response":0,"trial_type":"image-button-response","trial_index":51,"time_elapsed":555005,"internal_node_id":"0.0-4.0-0.22","subject_id":"613cca287897dd965ccb75fd","study_id":"6197b3f67c2b5cd3b6d9596a","session_id":"619be31978e1a0fd6d5d67aa","condition":"contingent","relevant_dimensions":["pattern","legs"],"bee_group":{"antennae":"X","wings":"X","pattern":"D","legs":"M"},"action":"harvest","summary":"good-harvest","bonus":1.5800000000000014},{"rt":1424.1999999284744,"stimulus":"\n                    <p><b>Action: <em>harvest</em></b></p>\n                    <p>This is the bee that you just saw.</p>\n                    <img src=\"bees-with-color/bee-B1DF.svg\" width=\"200\">\n                    <p><span class=\"greenText\"><b>Successful harvest!</b></span><br>Your pay has increased by $0.02. Your bonus pay is now $0.48.</p>\n            ","response":0,"trial_type":"html-button-response","trial_index":52,"time_elapsed":556432,"internal_node_id":"0.0-4.0-1.22","subject_id":"613cca287897dd965ccb75fd","study_id":"6197b3f67c2b5cd3b6d9596a","session_id":"619be31978e1a0fd6d5d67aa","condition":"contingent","relevant_dimensions":["pattern","legs"],"bee_group":{"antennae":"X","wings":"X","pattern":"D","legs":"M"},"bonus":1.5800000000000014},{"rt":6622.200000047684,"stimulus":"bees-with-color/bee-A1SM.svg","response":0,"trial_type":"image-button-response","trial_index":53,"time_elapsed":563056,"internal_node_id":"0.0-4.0-0.23","subject_id":"613cca287897dd965ccb75fd","study_id":"6197b3f67c2b5cd3b6d9596a","session_id":"619be31978e1a0fd6d5d67aa","condition":"contingent","relevant_dimensions":["pattern","legs"],"bee_group":{"antennae":"X","wings":"X","pattern":"D","legs":"M"},"action":"harvest","summary":"good-harvest","bonus":1.5800000000000014},{"rt":810.1999999284744,"stimulus":"\n                    <p><b>Action: <em>harvest</em></b></p>\n                    <p>This is the bee that you just saw.</p>\n                    <img src=\"bees-with-color/bee-A1SM.svg\" width=\"200\">\n                    <p><span class=\"greenText\"><b>Successful harvest!</b></span><br>Your pay has increased by $0.02. Your bonus pay is now $0.50.</p>\n            ","response":0,"trial_type":"html-button-response","trial_index":54,"time_elapsed":563868,"internal_node_id":"0.0-4.0-1.23","subject_id":"613cca287897dd965ccb75fd","study_id":"6197b3f67c2b5cd3b6d9596a","session_id":"619be31978e1a0fd6d5d67aa","condition":"contingent","relevant_dimensions":["pattern","legs"],"bee_group":{"antennae":"X","wings":"X","pattern":"D","legs":"M"},"bonus":1.5800000000000014},{"rt":20920,"stimulus":"bees-with-color/bee-A1DF.svg","response":0,"trial_type":"image-button-response","trial_index":55,"time_elapsed":584790,"internal_node_id":"0.0-4.0-0.24","subject_id":"613cca287897dd965ccb75fd","study_id":"6197b3f67c2b5cd3b6d9596a","session_id":"619be31978e1a0fd6d5d67aa","condition":"contingent","relevant_dimensions":["pattern","legs"],"bee_group":{"antennae":"X","wings":"X","pattern":"D","legs":"M"},"action":"harvest","summary":"good-harvest","bonus":1.5800000000000014},{"rt":1038.2999999523163,"stimulus":"\n                    <p><b>Action: <em>harvest</em></b></p>\n                    <p>This is the bee that you just saw.</p>\n                    <img src=\"bees-with-color/bee-A1DF.svg\" width=\"200\">\n                    <p><span class=\"greenText\"><b>Successful harvest!</b></span><br>Your pay has increased by $0.02. Your bonus pay is now $0.52.</p>\n            ","response":0,"trial_type":"html-button-response","trial_index":56,"time_elapsed":585830,"internal_node_id":"0.0-4.0-1.24","subject_id":"613cca287897dd965ccb75fd","study_id":"6197b3f67c2b5cd3b6d9596a","session_id":"619be31978e1a0fd6d5d67aa","condition":"contingent","relevant_dimensions":["pattern","legs"],"bee_group":{"antennae":"X","wings":"X","pattern":"D","legs":"M"},"bonus":1.5800000000000014},{"rt":5367.899999976158,"stimulus":"bees-with-color/bee-B2DF.svg","response":0,"trial_type":"image-button-response","trial_index":57,"time_elapsed":591200,"internal_node_id":"0.0-4.0-0.25","subject_id":"613cca287897dd965ccb75fd","study_id":"6197b3f67c2b5cd3b6d9596a","session_id":"619be31978e1a0fd6d5d67aa","condition":"contingent","relevant_dimensions":["pattern","legs"],"bee_group":{"antennae":"X","wings":"X","pattern":"D","legs":"M"},"action":"harvest","summary":"good-harvest","bonus":1.5800000000000014},{"rt":938.0999999046326,"stimulus":"\n                    <p><b>Action: <em>harvest</em></b></p>\n                    <p>This is the bee that you just saw.</p>\n                    <img src=\"bees-with-color/bee-B2DF.svg\" width=\"200\">\n                    <p><span class=\"greenText\"><b>Successful harvest!</b></span><br>Your pay has increased by $0.02. Your bonus pay is now $0.54.</p>\n            ","response":0,"trial_type":"html-button-response","trial_index":58,"time_elapsed":592140,"internal_node_id":"0.0-4.0-1.25","subject_id":"613cca287897dd965ccb75fd","study_id":"6197b3f67c2b5cd3b6d9596a","session_id":"619be31978e1a0fd6d5d67aa","condition":"contingent","relevant_dimensions":["pattern","legs"],"bee_group":{"antennae":"X","wings":"X","pattern":"D","legs":"M"},"bonus":1.5800000000000014},{"rt":10116,"stimulus":"bees-with-color/bee-B2SF.svg","response":0,"trial_type":"image-button-response","trial_index":59,"time_elapsed":602258,"internal_node_id":"0.0-4.0-0.26","subject_id":"613cca287897dd965ccb75fd","study_id":"6197b3f67c2b5cd3b6d9596a","session_id":"619be31978e1a0fd6d5d67aa","condition":"contingent","relevant_dimensions":["pattern","legs"],"bee_group":{"antennae":"X","wings":"X","pattern":"D","legs":"M"},"action":"harvest","summary":"good-harvest","bonus":1.5800000000000014},{"rt":1134.2000000476837,"stimulus":"\n                    <p><b>Action: <em>harvest</em></b></p>\n                    <p>This is the bee that you just saw.</p>\n                    <img src=\"bees-with-color/bee-B2SF.svg\" width=\"200\">\n                    <p><span class=\"greenText\"><b>Successful harvest!</b></span><br>Your pay has increased by $0.02. Your bonus pay is now $0.56.</p>\n            ","response":0,"trial_type":"html-button-response","trial_index":60,"time_elapsed":603393,"internal_node_id":"0.0-4.0-1.26","subject_id":"613cca287897dd965ccb75fd","study_id":"6197b3f67c2b5cd3b6d9596a","session_id":"619be31978e1a0fd6d5d67aa","condition":"contingent","relevant_dimensions":["pattern","legs"],"bee_group":{"antennae":"X","wings":"X","pattern":"D","legs":"M"},"bonus":1.5800000000000014},{"rt":14350.100000023842,"stimulus":"bees-with-color/bee-A2DF.svg","response":0,"trial_type":"image-button-response","trial_index":61,"time_elapsed":617745,"internal_node_id":"0.0-4.0-0.27","subject_id":"613cca287897dd965ccb75fd","study_id":"6197b3f67c2b5cd3b6d9596a","session_id":"619be31978e1a0fd6d5d67aa","condition":"contingent","relevant_dimensions":["pattern","legs"],"bee_group":{"antennae":"X","wings":"X","pattern":"D","legs":"M"},"action":"harvest","summary":"good-harvest","bonus":1.5800000000000014},{"rt":996.2999999523163,"stimulus":"\n                    <p><b>Action: <em>harvest</em></b></p>\n                    <p>This is the bee that you just saw.</p>\n                    <img src=\"bees-with-color/bee-A2DF.svg\" width=\"200\">\n                    <p><span class=\"greenText\"><b>Successful harvest!</b></span><br>Your pay has increased by $0.02. Your bonus pay is now $0.58.</p>\n            ","response":0,"trial_type":"html-button-response","trial_index":62,"time_elapsed":618743,"internal_node_id":"0.0-4.0-1.27","subject_id":"613cca287897dd965ccb75fd","study_id":"6197b3f67c2b5cd3b6d9596a","session_id":"619be31978e1a0fd6d5d67aa","condition":"contingent","relevant_dimensions":["pattern","legs"],"bee_group":{"antennae":"X","wings":"X","pattern":"D","legs":"M"},"bonus":1.5800000000000014},{"rt":15400.400000095367,"stimulus":"bees-with-color/bee-B2SM.svg","response":0,"trial_type":"image-button-response","trial_index":63,"time_elapsed":634146,"internal_node_id":"0.0-4.0-0.28","subject_id":"613cca287897dd965ccb75fd","study_id":"6197b3f67c2b5cd3b6d9596a","session_id":"619be31978e1a0fd6d5d67aa","condition":"contingent","relevant_dimensions":["pattern","legs"],"bee_group":{"antennae":"X","wings":"X","pattern":"D","legs":"M"},"action":"harvest","summary":"good-harvest","bonus":1.5800000000000014},{"rt":986,"stimulus":"\n                    <p><b>Action: <em>harvest</em></b></p>\n                    <p>This is the bee that you just saw.</p>\n                    <img src=\"bees-with-color/bee-B2SM.svg\" width=\"200\">\n                    <p><span class=\"greenText\"><b>Successful harvest!</b></span><br>Your pay has increased by $0.02. Your bonus pay is now $0.60.</p>\n            ","response":0,"trial_type":"html-button-response","trial_index":64,"time_elapsed":635133,"internal_node_id":"0.0-4.0-1.28","subject_id":"613cca287897dd965ccb75fd","study_id":"6197b3f67c2b5cd3b6d9596a","session_id":"619be31978e1a0fd6d5d67aa","condition":"contingent","relevant_dimensions":["pattern","legs"],"bee_group":{"antennae":"X","wings":"X","pattern":"D","legs":"M"},"bonus":1.5800000000000014},{"rt":22366.299999952316,"stimulus":"bees-with-color/bee-A2SM.svg","response":0,"trial_type":"image-button-response","trial_index":65,"time_elapsed":657501,"internal_node_id":"0.0-4.0-0.29","subject_id":"613cca287897dd965ccb75fd","study_id":"6197b3f67c2b5cd3b6d9596a","session_id":"619be31978e1a0fd6d5d67aa","condition":"contingent","relevant_dimensions":["pattern","legs"],"bee_group":{"antennae":"X","wings":"X","pattern":"D","legs":"M"},"action":"harvest","summary":"good-harvest","bonus":1.5800000000000014},{"rt":780.5,"stimulus":"\n                    <p><b>Action: <em>harvest</em></b></p>\n                    <p>This is the bee that you just saw.</p>\n                    <img src=\"bees-with-color/bee-A2SM.svg\" width=\"200\">\n                    <p><span class=\"greenText\"><b>Successful harvest!</b></span><br>Your pay has increased by $0.02. Your bonus pay is now $0.62.</p>\n            ","response":0,"trial_type":"html-button-response","trial_index":66,"time_elapsed":658283,"internal_node_id":"0.0-4.0-1.29","subject_id":"613cca287897dd965ccb75fd","study_id":"6197b3f67c2b5cd3b6d9596a","session_id":"619be31978e1a0fd6d5d67aa","condition":"contingent","relevant_dimensions":["pattern","legs"],"bee_group":{"antennae":"X","wings":"X","pattern":"D","legs":"M"},"bonus":1.5800000000000014},{"rt":9544.399999976158,"stimulus":"bees-with-color/bee-B1DM.svg","response":1,"trial_type":"image-button-response","trial_index":67,"time_elapsed":667829,"internal_node_id":"0.0-4.0-0.30","subject_id":"613cca287897dd965ccb75fd","study_id":"6197b3f67c2b5cd3b6d9596a","session_id":"619be31978e1a0fd6d5d67aa","condition":"contingent","relevant_dimensions":["pattern","legs"],"bee_group":{"antennae":"X","wings":"X","pattern":"D","legs":"M"},"action":"avoid","summary":"good-avoid","bonus":1.5800000000000014},{"rt":1850.4000000953674,"stimulus":"\n                    <p><b>Action: <em>avoid</em></b></p>\n                    <p>This is the bee that you just saw.</p>\n                    <img src=\"bees-with-color/bee-B1DM.svg\" width=\"200\">\n                    <p><br>Your bonus pay is unchanged, and remains at $0.62.</p>\n            ","response":0,"trial_type":"html-button-response","trial_index":68,"time_elapsed":669680,"internal_node_id":"0.0-4.0-1.30","subject_id":"613cca287897dd965ccb75fd","study_id":"6197b3f67c2b5cd3b6d9596a","session_id":"619be31978e1a0fd6d5d67aa","condition":"contingent","relevant_dimensions":["pattern","legs"],"bee_group":{"antennae":"X","wings":"X","pattern":"D","legs":"M"},"bonus":1.5800000000000014},{"rt":24712.300000071526,"stimulus":"bees-with-color/bee-B2DM.svg","response":1,"trial_type":"image-button-response","trial_index":69,"time_elapsed":694394,"internal_node_id":"0.0-4.0-0.31","subject_id":"613cca287897dd965ccb75fd","study_id":"6197b3f67c2b5cd3b6d9596a","session_id":"619be31978e1a0fd6d5d67aa","condition":"contingent","relevant_dimensions":["pattern","legs"],"bee_group":{"antennae":"X","wings":"X","pattern":"D","legs":"M"},"action":"avoid","summary":"good-avoid","bonus":1.5800000000000014},{"rt":1640.1000000238419,"stimulus":"\n                    <p><b>Action: <em>avoid</em></b></p>\n                    <p>This is the bee that you just saw.</p>\n                    <img src=\"bees-with-color/bee-B2DM.svg\" width=\"200\">\n                    <p><br>Your bonus pay is unchanged, and remains at $0.62.</p>\n            ","response":0,"trial_type":"html-button-response","trial_index":70,"time_elapsed":696036,"internal_node_id":"0.0-4.0-1.31","subject_id":"613cca287897dd965ccb75fd","study_id":"6197b3f67c2b5cd3b6d9596a","session_id":"619be31978e1a0fd6d5d67aa","condition":"contingent","relevant_dimensions":["pattern","legs"],"bee_group":{"antennae":"X","wings":"X","pattern":"D","legs":"M"},"bonus":1.5800000000000014},{"rt":14664.100000023842,"stimulus":"bees-with-color/bee-B2SM.svg","response":0,"trial_type":"image-button-response","trial_index":71,"time_elapsed":710702,"internal_node_id":"0.0-4.0-0.32","subject_id":"613cca287897dd965ccb75fd","study_id":"6197b3f67c2b5cd3b6d9596a","session_id":"619be31978e1a0fd6d5d67aa","condition":"contingent","relevant_dimensions":["pattern","legs"],"bee_group":{"antennae":"X","wings":"X","pattern":"D","legs":"M"},"action":"harvest","summary":"good-harvest","bonus":1.5800000000000014},{"rt":762.3999999761581,"stimulus":"\n                    <p><b>Action: <em>harvest</em></b></p>\n                    <p>This is the bee that you just saw.</p>\n                    <img src=\"bees-with-color/bee-B2SM.svg\" width=\"200\">\n                    <p><span class=\"greenText\"><b>Successful harvest!</b></span><br>Your pay has increased by $0.02. Your bonus pay is now $0.64.</p>\n            ","response":0,"trial_type":"html-button-response","trial_index":72,"time_elapsed":711466,"internal_node_id":"0.0-4.0-1.32","subject_id":"613cca287897dd965ccb75fd","study_id":"6197b3f67c2b5cd3b6d9596a","session_id":"619be31978e1a0fd6d5d67aa","condition":"contingent","relevant_dimensions":["pattern","legs"],"bee_group":{"antennae":"X","wings":"X","pattern":"D","legs":"M"},"bonus":1.5800000000000014},{"rt":7392.299999952316,"stimulus":"bees-with-color/bee-B1DM.svg","response":1,"trial_type":"image-button-response","trial_index":73,"time_elapsed":718860,"internal_node_id":"0.0-4.0-0.33","subject_id":"613cca287897dd965ccb75fd","study_id":"6197b3f67c2b5cd3b6d9596a","session_id":"619be31978e1a0fd6d5d67aa","condition":"contingent","relevant_dimensions":["pattern","legs"],"bee_group":{"antennae":"X","wings":"X","pattern":"D","legs":"M"},"action":"avoid","summary":"good-avoid","bonus":1.5800000000000014},{"rt":788.5,"stimulus":"\n                    <p><b>Action: <em>avoid</em></b></p>\n                    <p>This is the bee that you just saw.</p>\n                    <img src=\"bees-with-color/bee-B1DM.svg\" width=\"200\">\n                    <p><br>Your bonus pay is unchanged, and remains at $0.64.</p>\n            ","response":0,"trial_type":"html-button-response","trial_index":74,"time_elapsed":719650,"internal_node_id":"0.0-4.0-1.33","subject_id":"613cca287897dd965ccb75fd","study_id":"6197b3f67c2b5cd3b6d9596a","session_id":"619be31978e1a0fd6d5d67aa","condition":"contingent","relevant_dimensions":["pattern","legs"],"bee_group":{"antennae":"X","wings":"X","pattern":"D","legs":"M"},"bonus":1.5800000000000014},{"rt":21030,"stimulus":"bees-with-color/bee-B1SM.svg","response":0,"trial_type":"image-button-response","trial_index":75,"time_elapsed":740682,"internal_node_id":"0.0-4.0-0.34","subject_id":"613cca287897dd965ccb75fd","study_id":"6197b3f67c2b5cd3b6d9596a","session_id":"619be31978e1a0fd6d5d67aa","condition":"contingent","relevant_dimensions":["pattern","legs"],"bee_group":{"antennae":"X","wings":"X","pattern":"D","legs":"M"},"action":"harvest","summary":"good-harvest","bonus":1.5800000000000014},{"rt":804.3000000715256,"stimulus":"\n                    <p><b>Action: <em>harvest</em></b></p>\n                    <p>This is the bee that you just saw.</p>\n                    <img src=\"bees-with-color/bee-B1SM.svg\" width=\"200\">\n                    <p><span class=\"greenText\"><b>Successful harvest!</b></span><br>Your pay has increased by $0.02. Your bonus pay is now $0.66.</p>\n            ","response":0,"trial_type":"html-button-response","trial_index":76,"time_elapsed":741488,"internal_node_id":"0.0-4.0-1.34","subject_id":"613cca287897dd965ccb75fd","study_id":"6197b3f67c2b5cd3b6d9596a","session_id":"619be31978e1a0fd6d5d67aa","condition":"contingent","relevant_dimensions":["pattern","legs"],"bee_group":{"antennae":"X","wings":"X","pattern":"D","legs":"M"},"bonus":1.5800000000000014},{"rt":14348.100000023842,"stimulus":"bees-with-color/bee-B2DM.svg","response":1,"trial_type":"image-button-response","trial_index":77,"time_elapsed":755838,"internal_node_id":"0.0-4.0-0.35","subject_id":"613cca287897dd965ccb75fd","study_id":"6197b3f67c2b5cd3b6d9596a","session_id":"619be31978e1a0fd6d5d67aa","condition":"contingent","relevant_dimensions":["pattern","legs"],"bee_group":{"antennae":"X","wings":"X","pattern":"D","legs":"M"},"action":"avoid","summary":"good-avoid","bonus":1.5800000000000014},{"rt":956.1999999284744,"stimulus":"\n                    <p><b>Action: <em>avoid</em></b></p>\n                    <p>This is the bee that you just saw.</p>\n                    <img src=\"bees-with-color/bee-B2DM.svg\" width=\"200\">\n                    <p><br>Your bonus pay is unchanged, and remains at $0.66.</p>\n            ","response":0,"trial_type":"html-button-response","trial_index":78,"time_elapsed":756796,"internal_node_id":"0.0-4.0-1.35","subject_id":"613cca287897dd965ccb75fd","study_id":"6197b3f67c2b5cd3b6d9596a","session_id":"619be31978e1a0fd6d5d67aa","condition":"contingent","relevant_dimensions":["pattern","legs"],"bee_group":{"antennae":"X","wings":"X","pattern":"D","legs":"M"},"bonus":1.5800000000000014},{"rt":19977.700000047684,"stimulus":"bees-with-color/bee-A1SM.svg","response":0,"trial_type":"image-button-response","trial_index":79,"time_elapsed":776776,"internal_node_id":"0.0-4.0-0.36","subject_id":"613cca287897dd965ccb75fd","study_id":"6197b3f67c2b5cd3b6d9596a","session_id":"619be31978e1a0fd6d5d67aa","condition":"contingent","relevant_dimensions":["pattern","legs"],"bee_group":{"antennae":"X","wings":"X","pattern":"D","legs":"M"},"action":"harvest","summary":"good-harvest","bonus":1.5800000000000014},{"rt":706.2999999523163,"stimulus":"\n                    <p><b>Action: <em>harvest</em></b></p>\n                    <p>This is the bee that you just saw.</p>\n                    <img src=\"bees-with-color/bee-A1SM.svg\" width=\"200\">\n                    <p><span class=\"greenText\"><b>Successful harvest!</b></span><br>Your pay has increased by $0.02. Your bonus pay is now $0.68.</p>\n            ","response":0,"trial_type":"html-button-response","trial_index":80,"time_elapsed":777484,"internal_node_id":"0.0-4.0-1.36","subject_id":"613cca287897dd965ccb75fd","study_id":"6197b3f67c2b5cd3b6d9596a","session_id":"619be31978e1a0fd6d5d67aa","condition":"contingent","relevant_dimensions":["pattern","legs"],"bee_group":{"antennae":"X","wings":"X","pattern":"D","legs":"M"},"bonus":1.5800000000000014},{"rt":18930,"stimulus":"bees-with-color/bee-A2SF.svg","response":0,"trial_type":"image-button-response","trial_index":81,"time_elapsed":796416,"internal_node_id":"0.0-4.0-0.37","subject_id":"613cca287897dd965ccb75fd","study_id":"6197b3f67c2b5cd3b6d9596a","session_id":"619be31978e1a0fd6d5d67aa","condition":"contingent","relevant_dimensions":["pattern","legs"],"bee_group":{"antennae":"X","wings":"X","pattern":"D","legs":"M"},"action":"harvest","summary":"good-harvest","bonus":1.5800000000000014},{"rt":724.3999999761581,"stimulus":"\n                    <p><b>Action: <em>harvest</em></b></p>\n                    <p>This is the bee that you just saw.</p>\n                    <img src=\"bees-with-color/bee-A2SF.svg\" width=\"200\">\n                    <p><span class=\"greenText\"><b>Successful harvest!</b></span><br>Your pay has increased by $0.02. Your bonus pay is now $0.70.</p>\n            ","response":0,"trial_type":"html-button-response","trial_index":82,"time_elapsed":797142,"internal_node_id":"0.0-4.0-1.37","subject_id":"613cca287897dd965ccb75fd","study_id":"6197b3f67c2b5cd3b6d9596a","session_id":"619be31978e1a0fd6d5d67aa","condition":"contingent","relevant_dimensions":["pattern","legs"],"bee_group":{"antennae":"X","wings":"X","pattern":"D","legs":"M"},"bonus":1.5800000000000014},{"rt":14292,"stimulus":"bees-with-color/bee-A1DF.svg","response":0,"trial_type":"image-button-response","trial_index":83,"time_elapsed":811436,"internal_node_id":"0.0-4.0-0.38","subject_id":"613cca287897dd965ccb75fd","study_id":"6197b3f67c2b5cd3b6d9596a","session_id":"619be31978e1a0fd6d5d67aa","condition":"contingent","relevant_dimensions":["pattern","legs"],"bee_group":{"antennae":"X","wings":"X","pattern":"D","legs":"M"},"action":"harvest","summary":"good-harvest","bonus":1.5800000000000014},{"rt":982.2000000476837,"stimulus":"\n                    <p><b>Action: <em>harvest</em></b></p>\n                    <p>This is the bee that you just saw.</p>\n                    <img src=\"bees-with-color/bee-A1DF.svg\" width=\"200\">\n                    <p><span class=\"greenText\"><b>Successful harvest!</b></span><br>Your pay has increased by $0.02. Your bonus pay is now $0.72.</p>\n            ","response":0,"trial_type":"html-button-response","trial_index":84,"time_elapsed":812420,"internal_node_id":"0.0-4.0-1.38","subject_id":"613cca287897dd965ccb75fd","study_id":"6197b3f67c2b5cd3b6d9596a","session_id":"619be31978e1a0fd6d5d67aa","condition":"contingent","relevant_dimensions":["pattern","legs"],"bee_group":{"antennae":"X","wings":"X","pattern":"D","legs":"M"},"bonus":1.5800000000000014},{"rt":8702,"stimulus":"bees-with-color/bee-A1SF.svg","response":0,"trial_type":"image-button-response","trial_index":85,"time_elapsed":821123,"internal_node_id":"0.0-4.0-0.39","subject_id":"613cca287897dd965ccb75fd","study_id":"6197b3f67c2b5cd3b6d9596a","session_id":"619be31978e1a0fd6d5d67aa","condition":"contingent","relevant_dimensions":["pattern","legs"],"bee_group":{"antennae":"X","wings":"X","pattern":"D","legs":"M"},"action":"harvest","summary":"good-harvest","bonus":1.5800000000000014},{"rt":876.2999999523163,"stimulus":"\n                    <p><b>Action: <em>harvest</em></b></p>\n                    <p>This is the bee that you just saw.</p>\n                    <img src=\"bees-with-color/bee-A1SF.svg\" width=\"200\">\n                    <p><span class=\"greenText\"><b>Successful harvest!</b></span><br>Your pay has increased by $0.02. Your bonus pay is now $0.74.</p>\n            ","response":0,"trial_type":"html-button-response","trial_index":86,"time_elapsed":822001,"internal_node_id":"0.0-4.0-1.39","subject_id":"613cca287897dd965ccb75fd","study_id":"6197b3f67c2b5cd3b6d9596a","session_id":"619be31978e1a0fd6d5d67aa","condition":"contingent","relevant_dimensions":["pattern","legs"],"bee_group":{"antennae":"X","wings":"X","pattern":"D","legs":"M"},"bonus":1.5800000000000014},{"rt":10988.400000095367,"stimulus":"bees-with-color/bee-A1DM.svg","response":1,"trial_type":"image-button-response","trial_index":87,"time_elapsed":832991,"internal_node_id":"0.0-4.0-0.40","subject_id":"613cca287897dd965ccb75fd","study_id":"6197b3f67c2b5cd3b6d9596a","session_id":"619be31978e1a0fd6d5d67aa","condition":"contingent","relevant_dimensions":["pattern","legs"],"bee_group":{"antennae":"X","wings":"X","pattern":"D","legs":"M"},"action":"avoid","summary":"good-avoid","bonus":1.5800000000000014},{"rt":820.5,"stimulus":"\n                    <p><b>Action: <em>avoid</em></b></p>\n                    <p>This is the bee that you just saw.</p>\n                    <img src=\"bees-with-color/bee-A1DM.svg\" width=\"200\">\n                    <p><br>Your bonus pay is unchanged, and remains at $0.74.</p>\n            ","response":0,"trial_type":"html-button-response","trial_index":88,"time_elapsed":833814,"internal_node_id":"0.0-4.0-1.40","subject_id":"613cca287897dd965ccb75fd","study_id":"6197b3f67c2b5cd3b6d9596a","session_id":"619be31978e1a0fd6d5d67aa","condition":"contingent","relevant_dimensions":["pattern","legs"],"bee_group":{"antennae":"X","wings":"X","pattern":"D","legs":"M"},"bonus":1.5800000000000014},{"rt":10217.600000023842,"stimulus":"bees-with-color/bee-B2SF.svg","response":0,"trial_type":"image-button-response","trial_index":89,"time_elapsed":844033,"internal_node_id":"0.0-4.0-0.41","subject_id":"613cca287897dd965ccb75fd","study_id":"6197b3f67c2b5cd3b6d9596a","session_id":"619be31978e1a0fd6d5d67aa","condition":"contingent","relevant_dimensions":["pattern","legs"],"bee_group":{"antennae":"X","wings":"X","pattern":"D","legs":"M"},"action":"harvest","summary":"good-harvest","bonus":1.5800000000000014},{"rt":860.7000000476837,"stimulus":"\n                    <p><b>Action: <em>harvest</em></b></p>\n                    <p>This is the bee that you just saw.</p>\n                    <img src=\"bees-with-color/bee-B2SF.svg\" width=\"200\">\n                    <p><span class=\"greenText\"><b>Successful harvest!</b></span><br>Your pay has increased by $0.02. Your bonus pay is now $0.76.</p>\n            ","response":0,"trial_type":"html-button-response","trial_index":90,"time_elapsed":844895,"internal_node_id":"0.0-4.0-1.41","subject_id":"613cca287897dd965ccb75fd","study_id":"6197b3f67c2b5cd3b6d9596a","session_id":"619be31978e1a0fd6d5d67aa","condition":"contingent","relevant_dimensions":["pattern","legs"],"bee_group":{"antennae":"X","wings":"X","pattern":"D","legs":"M"},"bonus":1.5800000000000014},{"rt":12746.300000071526,"stimulus":"bees-with-color/bee-B1DF.svg","response":0,"trial_type":"image-button-response","trial_index":91,"time_elapsed":857643,"internal_node_id":"0.0-4.0-0.42","subject_id":"613cca287897dd965ccb75fd","study_id":"6197b3f67c2b5cd3b6d9596a","session_id":"619be31978e1a0fd6d5d67aa","condition":"contingent","relevant_dimensions":["pattern","legs"],"bee_group":{"antennae":"X","wings":"X","pattern":"D","legs":"M"},"action":"harvest","summary":"good-harvest","bonus":1.5800000000000014},{"rt":1278.9000000953674,"stimulus":"\n                    <p><b>Action: <em>harvest</em></b></p>\n                    <p>This is the bee that you just saw.</p>\n                    <img src=\"bees-with-color/bee-B1DF.svg\" width=\"200\">\n                    <p><span class=\"greenText\"><b>Successful harvest!</b></span><br>Your pay has increased by $0.02. Your bonus pay is now $0.78.</p>\n            ","response":0,"trial_type":"html-button-response","trial_index":92,"time_elapsed":858923,"internal_node_id":"0.0-4.0-1.42","subject_id":"613cca287897dd965ccb75fd","study_id":"6197b3f67c2b5cd3b6d9596a","session_id":"619be31978e1a0fd6d5d67aa","condition":"contingent","relevant_dimensions":["pattern","legs"],"bee_group":{"antennae":"X","wings":"X","pattern":"D","legs":"M"},"bonus":1.5800000000000014},{"rt":15975.899999976158,"stimulus":"bees-with-color/bee-A2DF.svg","response":0,"trial_type":"image-button-response","trial_index":93,"time_elapsed":874901,"internal_node_id":"0.0-4.0-0.43","subject_id":"613cca287897dd965ccb75fd","study_id":"6197b3f67c2b5cd3b6d9596a","session_id":"619be31978e1a0fd6d5d67aa","condition":"contingent","relevant_dimensions":["pattern","legs"],"bee_group":{"antennae":"X","wings":"X","pattern":"D","legs":"M"},"action":"harvest","summary":"good-harvest","bonus":1.5800000000000014},{"rt":714.6000000238419,"stimulus":"\n                    <p><b>Action: <em>harvest</em></b></p>\n                    <p>This is the bee that you just saw.</p>\n                    <img src=\"bees-with-color/bee-A2DF.svg\" width=\"200\">\n                    <p><span class=\"greenText\"><b>Successful harvest!</b></span><br>Your pay has increased by $0.02. Your bonus pay is now $0.80.</p>\n            ","response":0,"trial_type":"html-button-response","trial_index":94,"time_elapsed":875617,"internal_node_id":"0.0-4.0-1.43","subject_id":"613cca287897dd965ccb75fd","study_id":"6197b3f67c2b5cd3b6d9596a","session_id":"619be31978e1a0fd6d5d67aa","condition":"contingent","relevant_dimensions":["pattern","legs"],"bee_group":{"antennae":"X","wings":"X","pattern":"D","legs":"M"},"bonus":1.5800000000000014},{"rt":16200.099999904633,"stimulus":"bees-with-color/bee-B1SF.svg","response":0,"trial_type":"image-button-response","trial_index":95,"time_elapsed":891819,"internal_node_id":"0.0-4.0-0.44","subject_id":"613cca287897dd965ccb75fd","study_id":"6197b3f67c2b5cd3b6d9596a","session_id":"619be31978e1a0fd6d5d67aa","condition":"contingent","relevant_dimensions":["pattern","legs"],"bee_group":{"antennae":"X","wings":"X","pattern":"D","legs":"M"},"action":"harvest","summary":"good-harvest","bonus":1.5800000000000014},{"rt":860.3000000715256,"stimulus":"\n                    <p><b>Action: <em>harvest</em></b></p>\n                    <p>This is the bee that you just saw.</p>\n                    <img src=\"bees-with-color/bee-B1SF.svg\" width=\"200\">\n                    <p><span class=\"greenText\"><b>Successful harvest!</b></span><br>Your pay has increased by $0.02. Your bonus pay is now $0.82.</p>\n            ","response":0,"trial_type":"html-button-response","trial_index":96,"time_elapsed":892681,"internal_node_id":"0.0-4.0-1.44","subject_id":"613cca287897dd965ccb75fd","study_id":"6197b3f67c2b5cd3b6d9596a","session_id":"619be31978e1a0fd6d5d67aa","condition":"contingent","relevant_dimensions":["pattern","legs"],"bee_group":{"antennae":"X","wings":"X","pattern":"D","legs":"M"},"bonus":1.5800000000000014},{"rt":29613.5,"stimulus":"bees-with-color/bee-B2DF.svg","response":0,"trial_type":"image-button-response","trial_index":97,"time_elapsed":922297,"internal_node_id":"0.0-4.0-0.45","subject_id":"613cca287897dd965ccb75fd","study_id":"6197b3f67c2b5cd3b6d9596a","session_id":"619be31978e1a0fd6d5d67aa","condition":"contingent","relevant_dimensions":["pattern","legs"],"bee_group":{"antennae":"X","wings":"X","pattern":"D","legs":"M"},"action":"harvest","summary":"good-harvest","bonus":1.5800000000000014},{"rt":668.7000000476837,"stimulus":"\n                    <p><b>Action: <em>harvest</em></b></p>\n                    <p>This is the bee that you just saw.</p>\n                    <img src=\"bees-with-color/bee-B2DF.svg\" width=\"200\">\n                    <p><span class=\"greenText\"><b>Successful harvest!</b></span><br>Your pay has increased by $0.02. Your bonus pay is now $0.84.</p>\n            ","response":0,"trial_type":"html-button-response","trial_index":98,"time_elapsed":922967,"internal_node_id":"0.0-4.0-1.45","subject_id":"613cca287897dd965ccb75fd","study_id":"6197b3f67c2b5cd3b6d9596a","session_id":"619be31978e1a0fd6d5d67aa","condition":"contingent","relevant_dimensions":["pattern","legs"],"bee_group":{"antennae":"X","wings":"X","pattern":"D","legs":"M"},"bonus":1.5800000000000014},{"rt":13082.300000071526,"stimulus":"bees-with-color/bee-A2DM.svg","response":1,"trial_type":"image-button-response","trial_index":99,"time_elapsed":936051,"internal_node_id":"0.0-4.0-0.46","subject_id":"613cca287897dd965ccb75fd","study_id":"6197b3f67c2b5cd3b6d9596a","session_id":"619be31978e1a0fd6d5d67aa","condition":"contingent","relevant_dimensions":["pattern","legs"],"bee_group":{"antennae":"X","wings":"X","pattern":"D","legs":"M"},"action":"avoid","summary":"good-avoid","bonus":1.5800000000000014},{"rt":892.3999999761581,"stimulus":"\n                    <p><b>Action: <em>avoid</em></b></p>\n                    <p>This is the bee that you just saw.</p>\n                    <img src=\"bees-with-color/bee-A2DM.svg\" width=\"200\">\n                    <p><br>Your bonus pay is unchanged, and remains at $0.84.</p>\n            ","response":0,"trial_type":"html-button-response","trial_index":100,"time_elapsed":936945,"internal_node_id":"0.0-4.0-1.46","subject_id":"613cca287897dd965ccb75fd","study_id":"6197b3f67c2b5cd3b6d9596a","session_id":"619be31978e1a0fd6d5d67aa","condition":"contingent","relevant_dimensions":["pattern","legs"],"bee_group":{"antennae":"X","wings":"X","pattern":"D","legs":"M"},"bonus":1.5800000000000014},{"rt":10540.100000023842,"stimulus":"bees-with-color/bee-A2SM.svg","response":0,"trial_type":"image-button-response","trial_index":101,"time_elapsed":947487,"internal_node_id":"0.0-4.0-0.47","subject_id":"613cca287897dd965ccb75fd","study_id":"6197b3f67c2b5cd3b6d9596a","session_id":"619be31978e1a0fd6d5d67aa","condition":"contingent","relevant_dimensions":["pattern","legs"],"bee_group":{"antennae":"X","wings":"X","pattern":"D","legs":"M"},"action":"harvest","summary":"good-harvest","bonus":1.5800000000000014},{"rt":1014.5,"stimulus":"\n                    <p><b>Action: <em>harvest</em></b></p>\n                    <p>This is the bee that you just saw.</p>\n                    <img src=\"bees-with-color/bee-A2SM.svg\" width=\"200\">\n                    <p><span class=\"greenText\"><b>Successful harvest!</b></span><br>Your pay has increased by $0.02. Your bonus pay is now $0.86.</p>\n            ","response":0,"trial_type":"html-button-response","trial_index":102,"time_elapsed":948503,"internal_node_id":"0.0-4.0-1.47","subject_id":"613cca287897dd965ccb75fd","study_id":"6197b3f67c2b5cd3b6d9596a","session_id":"619be31978e1a0fd6d5d67aa","condition":"contingent","relevant_dimensions":["pattern","legs"],"bee_group":{"antennae":"X","wings":"X","pattern":"D","legs":"M"},"bonus":1.5800000000000014},{"rt":9263.899999976158,"stimulus":"bees-with-color/bee-A2DM.svg","response":1,"trial_type":"image-button-response","trial_index":103,"time_elapsed":957769,"internal_node_id":"0.0-4.0-0.48","subject_id":"613cca287897dd965ccb75fd","study_id":"6197b3f67c2b5cd3b6d9596a","session_id":"619be31978e1a0fd6d5d67aa","condition":"contingent","relevant_dimensions":["pattern","legs"],"bee_group":{"antennae":"X","wings":"X","pattern":"D","legs":"M"},"action":"avoid","summary":"good-avoid","bonus":1.5800000000000014},{"rt":2012.6000000238419,"stimulus":"\n                    <p><b>Action: <em>avoid</em></b></p>\n                    <p>This is the bee that you just saw.</p>\n                    <img src=\"bees-with-color/bee-A2DM.svg\" width=\"200\">\n                    <p><br>Your bonus pay is unchanged, and remains at $0.86.</p>\n            ","response":0,"trial_type":"html-button-response","trial_index":104,"time_elapsed":959783,"internal_node_id":"0.0-4.0-1.48","subject_id":"613cca287897dd965ccb75fd","study_id":"6197b3f67c2b5cd3b6d9596a","session_id":"619be31978e1a0fd6d5d67aa","condition":"contingent","relevant_dimensions":["pattern","legs"],"bee_group":{"antennae":"X","wings":"X","pattern":"D","legs":"M"},"bonus":1.5800000000000014},{"rt":14617.800000071526,"stimulus":"bees-with-color/bee-B1SF.svg","response":0,"trial_type":"image-button-response","trial_index":105,"time_elapsed":974403,"internal_node_id":"0.0-4.0-0.49","subject_id":"613cca287897dd965ccb75fd","study_id":"6197b3f67c2b5cd3b6d9596a","session_id":"619be31978e1a0fd6d5d67aa","condition":"contingent","relevant_dimensions":["pattern","legs"],"bee_group":{"antennae":"X","wings":"X","pattern":"D","legs":"M"},"action":"harvest","summary":"good-harvest","bonus":1.5800000000000014},{"rt":788.5,"stimulus":"\n                    <p><b>Action: <em>harvest</em></b></p>\n                    <p>This is the bee that you just saw.</p>\n                    <img src=\"bees-with-color/bee-B1SF.svg\" width=\"200\">\n                    <p><span class=\"greenText\"><b>Successful harvest!</b></span><br>Your pay has increased by $0.02. Your bonus pay is now $0.88.</p>\n            ","response":0,"trial_type":"html-button-response","trial_index":106,"time_elapsed":975193,"internal_node_id":"0.0-4.0-1.49","subject_id":"613cca287897dd965ccb75fd","study_id":"6197b3f67c2b5cd3b6d9596a","session_id":"619be31978e1a0fd6d5d67aa","condition":"contingent","relevant_dimensions":["pattern","legs"],"bee_group":{"antennae":"X","wings":"X","pattern":"D","legs":"M"},"bonus":1.5800000000000014},{"rt":31915.600000023842,"stimulus":"bees-with-color/bee-B1SM.svg","response":0,"trial_type":"image-button-response","trial_index":107,"time_elapsed":1007111,"internal_node_id":"0.0-4.0-0.50","subject_id":"613cca287897dd965ccb75fd","study_id":"6197b3f67c2b5cd3b6d9596a","session_id":"619be31978e1a0fd6d5d67aa","condition":"contingent","relevant_dimensions":["pattern","legs"],"bee_group":{"antennae":"X","wings":"X","pattern":"D","legs":"M"},"action":"harvest","summary":"good-harvest","bonus":1.5800000000000014},{"rt":652.2000000476837,"stimulus":"\n                    <p><b>Action: <em>harvest</em></b></p>\n                    <p>This is the bee that you just saw.</p>\n                    <img src=\"bees-with-color/bee-B1SM.svg\" width=\"200\">\n                    <p><span class=\"greenText\"><b>Successful harvest!</b></span><br>Your pay has increased by $0.02. Your bonus pay is now $0.90.</p>\n            ","response":0,"trial_type":"html-button-response","trial_index":108,"time_elapsed":1007765,"internal_node_id":"0.0-4.0-1.50","subject_id":"613cca287897dd965ccb75fd","study_id":"6197b3f67c2b5cd3b6d9596a","session_id":"619be31978e1a0fd6d5d67aa","condition":"contingent","relevant_dimensions":["pattern","legs"],"bee_group":{"antennae":"X","wings":"X","pattern":"D","legs":"M"},"bonus":1.5800000000000014},{"rt":14231.600000023842,"stimulus":"bees-with-color/bee-B1DF.svg","response":0,"trial_type":"image-button-response","trial_index":109,"time_elapsed":1021999,"internal_node_id":"0.0-4.0-0.51","subject_id":"613cca287897dd965ccb75fd","study_id":"6197b3f67c2b5cd3b6d9596a","session_id":"619be31978e1a0fd6d5d67aa","condition":"contingent","relevant_dimensions":["pattern","legs"],"bee_group":{"antennae":"X","wings":"X","pattern":"D","legs":"M"},"action":"harvest","summary":"good-harvest","bonus":1.5800000000000014},{"rt":802,"stimulus":"\n                    <p><b>Action: <em>harvest</em></b></p>\n                    <p>This is the bee that you just saw.</p>\n                    <img src=\"bees-with-color/bee-B1DF.svg\" width=\"200\">\n                    <p><span class=\"greenText\"><b>Successful harvest!</b></span><br>Your pay has increased by $0.02. Your bonus pay is now $0.92.</p>\n            ","response":0,"trial_type":"html-button-response","trial_index":110,"time_elapsed":1022802,"internal_node_id":"0.0-4.0-1.51","subject_id":"613cca287897dd965ccb75fd","study_id":"6197b3f67c2b5cd3b6d9596a","session_id":"619be31978e1a0fd6d5d67aa","condition":"contingent","relevant_dimensions":["pattern","legs"],"bee_group":{"antennae":"X","wings":"X","pattern":"D","legs":"M"},"bonus":1.5800000000000014},{"rt":8654,"stimulus":"bees-with-color/bee-A1SM.svg","response":0,"trial_type":"image-button-response","trial_index":111,"time_elapsed":1031458,"internal_node_id":"0.0-4.0-0.52","subject_id":"613cca287897dd965ccb75fd","study_id":"6197b3f67c2b5cd3b6d9596a","session_id":"619be31978e1a0fd6d5d67aa","condition":"contingent","relevant_dimensions":["pattern","legs"],"bee_group":{"antennae":"X","wings":"X","pattern":"D","legs":"M"},"action":"harvest","summary":"good-harvest","bonus":1.5800000000000014},{"rt":2736.399999976158,"stimulus":"\n                    <p><b>Action: <em>harvest</em></b></p>\n                    <p>This is the bee that you just saw.</p>\n                    <img src=\"bees-with-color/bee-A1SM.svg\" width=\"200\">\n                    <p><span class=\"greenText\"><b>Successful harvest!</b></span><br>Your pay has increased by $0.02. Your bonus pay is now $0.94.</p>\n            ","response":0,"trial_type":"html-button-response","trial_index":112,"time_elapsed":1034196,"internal_node_id":"0.0-4.0-1.52","subject_id":"613cca287897dd965ccb75fd","study_id":"6197b3f67c2b5cd3b6d9596a","session_id":"619be31978e1a0fd6d5d67aa","condition":"contingent","relevant_dimensions":["pattern","legs"],"bee_group":{"antennae":"X","wings":"X","pattern":"D","legs":"M"},"bonus":1.5800000000000014},{"rt":16652.5,"stimulus":"bees-with-color/bee-A2DF.svg","response":0,"trial_type":"image-button-response","trial_index":113,"time_elapsed":1050851,"internal_node_id":"0.0-4.0-0.53","subject_id":"613cca287897dd965ccb75fd","study_id":"6197b3f67c2b5cd3b6d9596a","session_id":"619be31978e1a0fd6d5d67aa","condition":"contingent","relevant_dimensions":["pattern","legs"],"bee_group":{"antennae":"X","wings":"X","pattern":"D","legs":"M"},"action":"harvest","summary":"good-harvest","bonus":1.5800000000000014},{"rt":907.8999999761581,"stimulus":"\n                    <p><b>Action: <em>harvest</em></b></p>\n                    <p>This is the bee that you just saw.</p>\n                    <img src=\"bees-with-color/bee-A2DF.svg\" width=\"200\">\n                    <p><span class=\"greenText\"><b>Successful harvest!</b></span><br>Your pay has increased by $0.02. Your bonus pay is now $0.96.</p>\n            ","response":0,"trial_type":"html-button-response","trial_index":114,"time_elapsed":1051760,"internal_node_id":"0.0-4.0-1.53","subject_id":"613cca287897dd965ccb75fd","study_id":"6197b3f67c2b5cd3b6d9596a","session_id":"619be31978e1a0fd6d5d67aa","condition":"contingent","relevant_dimensions":["pattern","legs"],"bee_group":{"antennae":"X","wings":"X","pattern":"D","legs":"M"},"bonus":1.5800000000000014},{"rt":17570.200000047684,"stimulus":"bees-with-color/bee-B2DF.svg","response":0,"trial_type":"image-button-response","trial_index":115,"time_elapsed":1069332,"internal_node_id":"0.0-4.0-0.54","subject_id":"613cca287897dd965ccb75fd","study_id":"6197b3f67c2b5cd3b6d9596a","session_id":"619be31978e1a0fd6d5d67aa","condition":"contingent","relevant_dimensions":["pattern","legs"],"bee_group":{"antennae":"X","wings":"X","pattern":"D","legs":"M"},"action":"harvest","summary":"good-harvest","bonus":1.5800000000000014},{"rt":820.8000000715256,"stimulus":"\n                    <p><b>Action: <em>harvest</em></b></p>\n                    <p>This is the bee that you just saw.</p>\n                    <img src=\"bees-with-color/bee-B2DF.svg\" width=\"200\">\n                    <p><span class=\"greenText\"><b>Successful harvest!</b></span><br>Your pay has increased by $0.02. Your bonus pay is now $0.98.</p>\n            ","response":0,"trial_type":"html-button-response","trial_index":116,"time_elapsed":1070154,"internal_node_id":"0.0-4.0-1.54","subject_id":"613cca287897dd965ccb75fd","study_id":"6197b3f67c2b5cd3b6d9596a","session_id":"619be31978e1a0fd6d5d67aa","condition":"contingent","relevant_dimensions":["pattern","legs"],"bee_group":{"antennae":"X","wings":"X","pattern":"D","legs":"M"},"bonus":1.5800000000000014},{"rt":8200.300000071526,"stimulus":"bees-with-color/bee-A1DM.svg","response":1,"trial_type":"image-button-response","trial_index":117,"time_elapsed":1078356,"internal_node_id":"0.0-4.0-0.55","subject_id":"613cca287897dd965ccb75fd","study_id":"6197b3f67c2b5cd3b6d9596a","session_id":"619be31978e1a0fd6d5d67aa","condition":"contingent","relevant_dimensions":["pattern","legs"],"bee_group":{"antennae":"X","wings":"X","pattern":"D","legs":"M"},"action":"avoid","summary":"good-avoid","bonus":1.5800000000000014},{"rt":698.7000000476837,"stimulus":"\n                    <p><b>Action: <em>avoid</em></b></p>\n                    <p>This is the bee that you just saw.</p>\n                    <img src=\"bees-with-color/bee-A1DM.svg\" width=\"200\">\n                    <p><br>Your bonus pay is unchanged, and remains at $0.98.</p>\n            ","response":0,"trial_type":"html-button-response","trial_index":118,"time_elapsed":1079056,"internal_node_id":"0.0-4.0-1.55","subject_id":"613cca287897dd965ccb75fd","study_id":"6197b3f67c2b5cd3b6d9596a","session_id":"619be31978e1a0fd6d5d67aa","condition":"contingent","relevant_dimensions":["pattern","legs"],"bee_group":{"antennae":"X","wings":"X","pattern":"D","legs":"M"},"bonus":1.5800000000000014},{"rt":15444.300000071526,"stimulus":"bees-with-color/bee-A1DF.svg","response":0,"trial_type":"image-button-response","trial_index":119,"time_elapsed":1094502,"internal_node_id":"0.0-4.0-0.56","subject_id":"613cca287897dd965ccb75fd","study_id":"6197b3f67c2b5cd3b6d9596a","session_id":"619be31978e1a0fd6d5d67aa","condition":"contingent","relevant_dimensions":["pattern","legs"],"bee_group":{"antennae":"X","wings":"X","pattern":"D","legs":"M"},"action":"harvest","summary":"good-harvest","bonus":1.5800000000000014},{"rt":2110.399999976158,"stimulus":"\n                    <p><b>Action: <em>harvest</em></b></p>\n                    <p>This is the bee that you just saw.</p>\n                    <img src=\"bees-with-color/bee-A1DF.svg\" width=\"200\">\n                    <p><span class=\"greenText\"><b>Successful harvest!</b></span><br>Your pay has increased by $0.02. Your bonus pay is now $1.00.</p>\n            ","response":0,"trial_type":"html-button-response","trial_index":120,"time_elapsed":1096614,"internal_node_id":"0.0-4.0-1.56","subject_id":"613cca287897dd965ccb75fd","study_id":"6197b3f67c2b5cd3b6d9596a","session_id":"619be31978e1a0fd6d5d67aa","condition":"contingent","relevant_dimensions":["pattern","legs"],"bee_group":{"antennae":"X","wings":"X","pattern":"D","legs":"M"},"bonus":1.5800000000000014},{"rt":12856.299999952316,"stimulus":"bees-with-color/bee-A2SM.svg","response":0,"trial_type":"image-button-response","trial_index":121,"time_elapsed":1109472,"internal_node_id":"0.0-4.0-0.57","subject_id":"613cca287897dd965ccb75fd","study_id":"6197b3f67c2b5cd3b6d9596a","session_id":"619be31978e1a0fd6d5d67aa","condition":"contingent","relevant_dimensions":["pattern","legs"],"bee_group":{"antennae":"X","wings":"X","pattern":"D","legs":"M"},"action":"harvest","summary":"good-harvest","bonus":1.5800000000000014},{"rt":752.5,"stimulus":"\n                    <p><b>Action: <em>harvest</em></b></p>\n                    <p>This is the bee that you just saw.</p>\n                    <img src=\"bees-with-color/bee-A2SM.svg\" width=\"200\">\n                    <p><span class=\"greenText\"><b>Successful harvest!</b></span><br>Your pay has increased by $0.02. Your bonus pay is now $1.02.</p>\n            ","response":0,"trial_type":"html-button-response","trial_index":122,"time_elapsed":1110226,"internal_node_id":"0.0-4.0-1.57","subject_id":"613cca287897dd965ccb75fd","study_id":"6197b3f67c2b5cd3b6d9596a","session_id":"619be31978e1a0fd6d5d67aa","condition":"contingent","relevant_dimensions":["pattern","legs"],"bee_group":{"antennae":"X","wings":"X","pattern":"D","legs":"M"},"bonus":1.5800000000000014},{"rt":10208.200000047684,"stimulus":"bees-with-color/bee-B2DM.svg","response":1,"trial_type":"image-button-response","trial_index":123,"time_elapsed":1120436,"internal_node_id":"0.0-4.0-0.58","subject_id":"613cca287897dd965ccb75fd","study_id":"6197b3f67c2b5cd3b6d9596a","session_id":"619be31978e1a0fd6d5d67aa","condition":"contingent","relevant_dimensions":["pattern","legs"],"bee_group":{"antennae":"X","wings":"X","pattern":"D","legs":"M"},"action":"avoid","summary":"good-avoid","bonus":1.5800000000000014},{"rt":2044.6000000238419,"stimulus":"\n                    <p><b>Action: <em>avoid</em></b></p>\n                    <p>This is the bee that you just saw.</p>\n                    <img src=\"bees-with-color/bee-B2DM.svg\" width=\"200\">\n                    <p><br>Your bonus pay is unchanged, and remains at $1.02.</p>\n            ","response":0,"trial_type":"html-button-response","trial_index":124,"time_elapsed":1122482,"internal_node_id":"0.0-4.0-1.58","subject_id":"613cca287897dd965ccb75fd","study_id":"6197b3f67c2b5cd3b6d9596a","session_id":"619be31978e1a0fd6d5d67aa","condition":"contingent","relevant_dimensions":["pattern","legs"],"bee_group":{"antennae":"X","wings":"X","pattern":"D","legs":"M"},"bonus":1.5800000000000014},{"rt":17170.300000071526,"stimulus":"bees-with-color/bee-B2SM.svg","response":0,"trial_type":"image-button-response","trial_index":125,"time_elapsed":1139654,"internal_node_id":"0.0-4.0-0.59","subject_id":"613cca287897dd965ccb75fd","study_id":"6197b3f67c2b5cd3b6d9596a","session_id":"619be31978e1a0fd6d5d67aa","condition":"contingent","relevant_dimensions":["pattern","legs"],"bee_group":{"antennae":"X","wings":"X","pattern":"D","legs":"M"},"action":"harvest","summary":"good-harvest","bonus":1.5800000000000014},{"rt":1034.5,"stimulus":"\n                    <p><b>Action: <em>harvest</em></b></p>\n                    <p>This is the bee that you just saw.</p>\n                    <img src=\"bees-with-color/bee-B2SM.svg\" width=\"200\">\n                    <p><span class=\"greenText\"><b>Successful harvest!</b></span><br>Your pay has increased by $0.02. Your bonus pay is now $1.04.</p>\n            ","response":0,"trial_type":"html-button-response","trial_index":126,"time_elapsed":1140690,"internal_node_id":"0.0-4.0-1.59","subject_id":"613cca287897dd965ccb75fd","study_id":"6197b3f67c2b5cd3b6d9596a","session_id":"619be31978e1a0fd6d5d67aa","condition":"contingent","relevant_dimensions":["pattern","legs"],"bee_group":{"antennae":"X","wings":"X","pattern":"D","legs":"M"},"bonus":1.5800000000000014},{"rt":11908.200000047684,"stimulus":"bees-with-color/bee-A1SF.svg","response":0,"trial_type":"image-button-response","trial_index":127,"time_elapsed":1152600,"internal_node_id":"0.0-4.0-0.60","subject_id":"613cca287897dd965ccb75fd","study_id":"6197b3f67c2b5cd3b6d9596a","session_id":"619be31978e1a0fd6d5d67aa","condition":"contingent","relevant_dimensions":["pattern","legs"],"bee_group":{"antennae":"X","wings":"X","pattern":"D","legs":"M"},"action":"harvest","summary":"good-harvest","bonus":1.5800000000000014},{"rt":940.5,"stimulus":"\n                    <p><b>Action: <em>harvest</em></b></p>\n                    <p>This is the bee that you just saw.</p>\n                    <img src=\"bees-with-color/bee-A1SF.svg\" width=\"200\">\n                    <p><span class=\"greenText\"><b>Successful harvest!</b></span><br>Your pay has increased by $0.02. Your bonus pay is now $1.06.</p>\n            ","response":0,"trial_type":"html-button-response","trial_index":128,"time_elapsed":1153542,"internal_node_id":"0.0-4.0-1.60","subject_id":"613cca287897dd965ccb75fd","study_id":"6197b3f67c2b5cd3b6d9596a","session_id":"619be31978e1a0fd6d5d67aa","condition":"contingent","relevant_dimensions":["pattern","legs"],"bee_group":{"antennae":"X","wings":"X","pattern":"D","legs":"M"},"bonus":1.5800000000000014},{"rt":15246.200000047684,"stimulus":"bees-with-color/bee-B2SF.svg","response":0,"trial_type":"image-button-response","trial_index":129,"time_elapsed":1168790,"internal_node_id":"0.0-4.0-0.61","subject_id":"613cca287897dd965ccb75fd","study_id":"6197b3f67c2b5cd3b6d9596a","session_id":"619be31978e1a0fd6d5d67aa","condition":"contingent","relevant_dimensions":["pattern","legs"],"bee_group":{"antennae":"X","wings":"X","pattern":"D","legs":"M"},"action":"harvest","summary":"good-harvest","bonus":1.5800000000000014},{"rt":650.6999999284744,"stimulus":"\n                    <p><b>Action: <em>harvest</em></b></p>\n                    <p>This is the bee that you just saw.</p>\n                    <img src=\"bees-with-color/bee-B2SF.svg\" width=\"200\">\n                    <p><span class=\"greenText\"><b>Successful harvest!</b></span><br>Your pay has increased by $0.02. Your bonus pay is now $1.08.</p>\n            ","response":0,"trial_type":"html-button-response","trial_index":130,"time_elapsed":1169442,"internal_node_id":"0.0-4.0-1.61","subject_id":"613cca287897dd965ccb75fd","study_id":"6197b3f67c2b5cd3b6d9596a","session_id":"619be31978e1a0fd6d5d67aa","condition":"contingent","relevant_dimensions":["pattern","legs"],"bee_group":{"antennae":"X","wings":"X","pattern":"D","legs":"M"},"bonus":1.5800000000000014},{"rt":8595.699999928474,"stimulus":"bees-with-color/bee-B1DM.svg","response":1,"trial_type":"image-button-response","trial_index":131,"time_elapsed":1178040,"internal_node_id":"0.0-4.0-0.62","subject_id":"613cca287897dd965ccb75fd","study_id":"6197b3f67c2b5cd3b6d9596a","session_id":"619be31978e1a0fd6d5d67aa","condition":"contingent","relevant_dimensions":["pattern","legs"],"bee_group":{"antennae":"X","wings":"X","pattern":"D","legs":"M"},"action":"avoid","summary":"good-avoid","bonus":1.5800000000000014},{"rt":1018.2999999523163,"stimulus":"\n                    <p><b>Action: <em>avoid</em></b></p>\n                    <p>This is the bee that you just saw.</p>\n                    <img src=\"bees-with-color/bee-B1DM.svg\" width=\"200\">\n                    <p><br>Your bonus pay is unchanged, and remains at $1.08.</p>\n            ","response":0,"trial_type":"html-button-response","trial_index":132,"time_elapsed":1179060,"internal_node_id":"0.0-4.0-1.62","subject_id":"613cca287897dd965ccb75fd","study_id":"6197b3f67c2b5cd3b6d9596a","session_id":"619be31978e1a0fd6d5d67aa","condition":"contingent","relevant_dimensions":["pattern","legs"],"bee_group":{"antennae":"X","wings":"X","pattern":"D","legs":"M"},"bonus":1.5800000000000014},{"rt":10484.100000023842,"stimulus":"bees-with-color/bee-A2SF.svg","response":0,"trial_type":"image-button-response","trial_index":133,"time_elapsed":1189546,"internal_node_id":"0.0-4.0-0.63","subject_id":"613cca287897dd965ccb75fd","study_id":"6197b3f67c2b5cd3b6d9596a","session_id":"619be31978e1a0fd6d5d67aa","condition":"contingent","relevant_dimensions":["pattern","legs"],"bee_group":{"antennae":"X","wings":"X","pattern":"D","legs":"M"},"action":"harvest","summary":"good-harvest","bonus":1.5800000000000014},{"rt":670.2999999523163,"stimulus":"\n                    <p><b>Action: <em>harvest</em></b></p>\n                    <p>This is the bee that you just saw.</p>\n                    <img src=\"bees-with-color/bee-A2SF.svg\" width=\"200\">\n                    <p><span class=\"greenText\"><b>Successful harvest!</b></span><br>Your pay has increased by $0.02. Your bonus pay is now $1.10.</p>\n            ","response":0,"trial_type":"html-button-response","trial_index":134,"time_elapsed":1190218,"internal_node_id":"0.0-4.0-1.63","subject_id":"613cca287897dd965ccb75fd","study_id":"6197b3f67c2b5cd3b6d9596a","session_id":"619be31978e1a0fd6d5d67aa","condition":"contingent","relevant_dimensions":["pattern","legs"],"bee_group":{"antennae":"X","wings":"X","pattern":"D","legs":"M"},"bonus":1.5800000000000014},{"rt":10258.200000047684,"stimulus":"You have completed the first part of this experiment.<br><br>You will now begin a shorter second part, in which you will receive no feedback.<br>The same rules regarding bonus pay apply.<br><br>Press any key to begin.","response":"enter","trial_type":"html-keyboard-response","trial_index":135,"time_elapsed":1200479,"internal_node_id":"0.0-5.0","subject_id":"613cca287897dd965ccb75fd","study_id":"6197b3f67c2b5cd3b6d9596a","session_id":"619be31978e1a0fd6d5d67aa","condition":"contingent","relevant_dimensions":["pattern","legs"],"bee_group":{"antennae":"X","wings":"X","pattern":"D","legs":"M"},"bonus":1.5800000000000014},{"rt":21090,"stimulus":"bees-with-color/bee-A1DM.svg","response":1,"trial_type":"image-button-response","trial_index":136,"time_elapsed":1221577,"internal_node_id":"0.0-6.0-0.0","subject_id":"613cca287897dd965ccb75fd","study_id":"6197b3f67c2b5cd3b6d9596a","session_id":"619be31978e1a0fd6d5d67aa","condition":"contingent","relevant_dimensions":["pattern","legs"],"bee_group":{"antennae":"X","wings":"X","pattern":"D","legs":"M"},"bonus":1.5800000000000014},{"rt":8661.399999976158,"stimulus":"bees-with-color/bee-A1SF.svg","response":0,"trial_type":"image-button-response","trial_index":137,"time_elapsed":1230241,"internal_node_id":"0.0-6.0-0.1","subject_id":"613cca287897dd965ccb75fd","study_id":"6197b3f67c2b5cd3b6d9596a","session_id":"619be31978e1a0fd6d5d67aa","condition":"contingent","relevant_dimensions":["pattern","legs"],"bee_group":{"antennae":"X","wings":"X","pattern":"D","legs":"M"},"bonus":1.5800000000000014},{"rt":16541.700000047684,"stimulus":"bees-with-color/bee-A1DF.svg","response":0,"trial_type":"image-button-response","trial_index":138,"time_elapsed":1246785,"internal_node_id":"0.0-6.0-0.2","subject_id":"613cca287897dd965ccb75fd","study_id":"6197b3f67c2b5cd3b6d9596a","session_id":"619be31978e1a0fd6d5d67aa","condition":"contingent","relevant_dimensions":["pattern","legs"],"bee_group":{"antennae":"X","wings":"X","pattern":"D","legs":"M"},"bonus":1.5800000000000014},{"rt":13659.299999952316,"stimulus":"bees-with-color/bee-A2DF.svg","response":0,"trial_type":"image-button-response","trial_index":139,"time_elapsed":1260447,"internal_node_id":"0.0-6.0-0.3","subject_id":"613cca287897dd965ccb75fd","study_id":"6197b3f67c2b5cd3b6d9596a","session_id":"619be31978e1a0fd6d5d67aa","condition":"contingent","relevant_dimensions":["pattern","legs"],"bee_group":{"antennae":"X","wings":"X","pattern":"D","legs":"M"},"bonus":1.5800000000000014},{"rt":12609.699999928474,"stimulus":"bees-with-color/bee-B1SF.svg","response":0,"trial_type":"image-button-response","trial_index":140,"time_elapsed":1273059,"internal_node_id":"0.0-6.0-0.4","subject_id":"613cca287897dd965ccb75fd","study_id":"6197b3f67c2b5cd3b6d9596a","session_id":"619be31978e1a0fd6d5d67aa","condition":"contingent","relevant_dimensions":["pattern","legs"],"bee_group":{"antennae":"X","wings":"X","pattern":"D","legs":"M"},"bonus":1.5800000000000014},{"rt":8437.600000023842,"stimulus":"bees-with-color/bee-A1SM.svg","response":0,"trial_type":"image-button-response","trial_index":141,"time_elapsed":1281499,"internal_node_id":"0.0-6.0-0.5","subject_id":"613cca287897dd965ccb75fd","study_id":"6197b3f67c2b5cd3b6d9596a","session_id":"619be31978e1a0fd6d5d67aa","condition":"contingent","relevant_dimensions":["pattern","legs"],"bee_group":{"antennae":"X","wings":"X","pattern":"D","legs":"M"},"bonus":1.5800000000000014},{"rt":12687.5,"stimulus":"bees-with-color/bee-B2SF.svg","response":0,"trial_type":"image-button-response","trial_index":142,"time_elapsed":1294188,"internal_node_id":"0.0-6.0-0.6","subject_id":"613cca287897dd965ccb75fd","study_id":"6197b3f67c2b5cd3b6d9596a","session_id":"619be31978e1a0fd6d5d67aa","condition":"contingent","relevant_dimensions":["pattern","legs"],"bee_group":{"antennae":"X","wings":"X","pattern":"D","legs":"M"},"bonus":1.5800000000000014},{"rt":11969.200000047684,"stimulus":"bees-with-color/bee-B2DM.svg","response":1,"trial_type":"image-button-response","trial_index":143,"time_elapsed":1306160,"internal_node_id":"0.0-6.0-0.7","subject_id":"613cca287897dd965ccb75fd","study_id":"6197b3f67c2b5cd3b6d9596a","session_id":"619be31978e1a0fd6d5d67aa","condition":"contingent","relevant_dimensions":["pattern","legs"],"bee_group":{"antennae":"X","wings":"X","pattern":"D","legs":"M"},"bonus":1.5800000000000014},{"rt":18241.699999928474,"stimulus":"bees-with-color/bee-B1DF.svg","response":0,"trial_type":"image-button-response","trial_index":144,"time_elapsed":1324405,"internal_node_id":"0.0-6.0-0.8","subject_id":"613cca287897dd965ccb75fd","study_id":"6197b3f67c2b5cd3b6d9596a","session_id":"619be31978e1a0fd6d5d67aa","condition":"contingent","relevant_dimensions":["pattern","legs"],"bee_group":{"antennae":"X","wings":"X","pattern":"D","legs":"M"},"bonus":1.5800000000000014},{"rt":9713.099999904633,"stimulus":"bees-with-color/bee-B2DF.svg","response":0,"trial_type":"image-button-response","trial_index":145,"time_elapsed":1334120,"internal_node_id":"0.0-6.0-0.9","subject_id":"613cca287897dd965ccb75fd","study_id":"6197b3f67c2b5cd3b6d9596a","session_id":"619be31978e1a0fd6d5d67aa","condition":"contingent","relevant_dimensions":["pattern","legs"],"bee_group":{"antennae":"X","wings":"X","pattern":"D","legs":"M"},"bonus":1.5800000000000014},{"rt":17581.299999952316,"stimulus":"bees-with-color/bee-B1DM.svg","response":1,"trial_type":"image-button-response","trial_index":146,"time_elapsed":1351704,"internal_node_id":"0.0-6.0-0.10","subject_id":"613cca287897dd965ccb75fd","study_id":"6197b3f67c2b5cd3b6d9596a","session_id":"619be31978e1a0fd6d5d67aa","condition":"contingent","relevant_dimensions":["pattern","legs"],"bee_group":{"antennae":"X","wings":"X","pattern":"D","legs":"M"},"bonus":1.5800000000000014},{"rt":7719.100000023842,"stimulus":"bees-with-color/bee-B2SM.svg","response":0,"trial_type":"image-button-response","trial_index":147,"time_elapsed":1359426,"internal_node_id":"0.0-6.0-0.11","subject_id":"613cca287897dd965ccb75fd","study_id":"6197b3f67c2b5cd3b6d9596a","session_id":"619be31978e1a0fd6d5d67aa","condition":"contingent","relevant_dimensions":["pattern","legs"],"bee_group":{"antennae":"X","wings":"X","pattern":"D","legs":"M"},"bonus":1.5800000000000014},{"rt":11251.200000047684,"stimulus":"bees-with-color/bee-A2DM.svg","response":1,"trial_type":"image-button-response","trial_index":148,"time_elapsed":1370680,"internal_node_id":"0.0-6.0-0.12","subject_id":"613cca287897dd965ccb75fd","study_id":"6197b3f67c2b5cd3b6d9596a","session_id":"619be31978e1a0fd6d5d67aa","condition":"contingent","relevant_dimensions":["pattern","legs"],"bee_group":{"antennae":"X","wings":"X","pattern":"D","legs":"M"},"bonus":1.5800000000000014},{"rt":8109.600000023842,"stimulus":"bees-with-color/bee-A2SF.svg","response":0,"trial_type":"image-button-response","trial_index":149,"time_elapsed":1378792,"internal_node_id":"0.0-6.0-0.13","subject_id":"613cca287897dd965ccb75fd","study_id":"6197b3f67c2b5cd3b6d9596a","session_id":"619be31978e1a0fd6d5d67aa","condition":"contingent","relevant_dimensions":["pattern","legs"],"bee_group":{"antennae":"X","wings":"X","pattern":"D","legs":"M"},"bonus":1.5800000000000014},{"rt":6399.600000023842,"stimulus":"bees-with-color/bee-B1SM.svg","response":0,"trial_type":"image-button-response","trial_index":150,"time_elapsed":1385194,"internal_node_id":"0.0-6.0-0.14","subject_id":"613cca287897dd965ccb75fd","study_id":"6197b3f67c2b5cd3b6d9596a","session_id":"619be31978e1a0fd6d5d67aa","condition":"contingent","relevant_dimensions":["pattern","legs"],"bee_group":{"antennae":"X","wings":"X","pattern":"D","legs":"M"},"bonus":1.5800000000000014},{"rt":7757.800000071526,"stimulus":"bees-with-color/bee-A2SM.svg","response":0,"trial_type":"image-button-response","trial_index":151,"time_elapsed":1392954,"internal_node_id":"0.0-6.0-0.15","subject_id":"613cca287897dd965ccb75fd","study_id":"6197b3f67c2b5cd3b6d9596a","session_id":"619be31978e1a0fd6d5d67aa","condition":"contingent","relevant_dimensions":["pattern","legs"],"bee_group":{"antennae":"X","wings":"X","pattern":"D","legs":"M"},"bonus":1.5800000000000014},{"rt":11815.600000023842,"stimulus":"bees-with-color/bee-B1SF.svg","response":0,"trial_type":"image-button-response","trial_index":152,"time_elapsed":1404772,"internal_node_id":"0.0-6.0-0.16","subject_id":"613cca287897dd965ccb75fd","study_id":"6197b3f67c2b5cd3b6d9596a","session_id":"619be31978e1a0fd6d5d67aa","condition":"contingent","relevant_dimensions":["pattern","legs"],"bee_group":{"antennae":"X","wings":"X","pattern":"D","legs":"M"},"bonus":1.5800000000000014},{"rt":15721.600000023842,"stimulus":"bees-with-color/bee-A2DF.svg","response":0,"trial_type":"image-button-response","trial_index":153,"time_elapsed":1420496,"internal_node_id":"0.0-6.0-0.17","subject_id":"613cca287897dd965ccb75fd","study_id":"6197b3f67c2b5cd3b6d9596a","session_id":"619be31978e1a0fd6d5d67aa","condition":"contingent","relevant_dimensions":["pattern","legs"],"bee_group":{"antennae":"X","wings":"X","pattern":"D","legs":"M"},"bonus":1.5800000000000014},{"rt":12261.700000047684,"stimulus":"bees-with-color/bee-A1DM.svg","response":1,"trial_type":"image-button-response","trial_index":154,"time_elapsed":1432760,"internal_node_id":"0.0-6.0-0.18","subject_id":"613cca287897dd965ccb75fd","study_id":"6197b3f67c2b5cd3b6d9596a","session_id":"619be31978e1a0fd6d5d67aa","condition":"contingent","relevant_dimensions":["pattern","legs"],"bee_group":{"antennae":"X","wings":"X","pattern":"D","legs":"M"},"bonus":1.5800000000000014},{"rt":9947.800000071526,"stimulus":"bees-with-color/bee-B2SF.svg","response":0,"trial_type":"image-button-response","trial_index":155,"time_elapsed":1442709,"internal_node_id":"0.0-6.0-0.19","subject_id":"613cca287897dd965ccb75fd","study_id":"6197b3f67c2b5cd3b6d9596a","session_id":"619be31978e1a0fd6d5d67aa","condition":"contingent","relevant_dimensions":["pattern","legs"],"bee_group":{"antennae":"X","wings":"X","pattern":"D","legs":"M"},"bonus":1.5800000000000014},{"rt":8171.899999976158,"stimulus":"bees-with-color/bee-B1DM.svg","response":1,"trial_type":"image-button-response","trial_index":156,"time_elapsed":1450883,"internal_node_id":"0.0-6.0-0.20","subject_id":"613cca287897dd965ccb75fd","study_id":"6197b3f67c2b5cd3b6d9596a","session_id":"619be31978e1a0fd6d5d67aa","condition":"contingent","relevant_dimensions":["pattern","legs"],"bee_group":{"antennae":"X","wings":"X","pattern":"D","legs":"M"},"bonus":1.5800000000000014},{"rt":7659.700000047684,"stimulus":"bees-with-color/bee-A1DF.svg","response":0,"trial_type":"image-button-response","trial_index":157,"time_elapsed":1458546,"internal_node_id":"0.0-6.0-0.21","subject_id":"613cca287897dd965ccb75fd","study_id":"6197b3f67c2b5cd3b6d9596a","session_id":"619be31978e1a0fd6d5d67aa","condition":"contingent","relevant_dimensions":["pattern","legs"],"bee_group":{"antennae":"X","wings":"X","pattern":"D","legs":"M"},"bonus":1.5800000000000014},{"rt":8805.600000023842,"stimulus":"bees-with-color/bee-A1SF.svg","response":0,"trial_type":"image-button-response","trial_index":158,"time_elapsed":1467353,"internal_node_id":"0.0-6.0-0.22","subject_id":"613cca287897dd965ccb75fd","study_id":"6197b3f67c2b5cd3b6d9596a","session_id":"619be31978e1a0fd6d5d67aa","condition":"contingent","relevant_dimensions":["pattern","legs"],"bee_group":{"antennae":"X","wings":"X","pattern":"D","legs":"M"},"bonus":1.5800000000000014},{"rt":14735.799999952316,"stimulus":"bees-with-color/bee-A2SM.svg","response":0,"trial_type":"image-button-response","trial_index":159,"time_elapsed":1482092,"internal_node_id":"0.0-6.0-0.23","subject_id":"613cca287897dd965ccb75fd","study_id":"6197b3f67c2b5cd3b6d9596a","session_id":"619be31978e1a0fd6d5d67aa","condition":"contingent","relevant_dimensions":["pattern","legs"],"bee_group":{"antennae":"X","wings":"X","pattern":"D","legs":"M"},"bonus":1.5800000000000014},{"rt":16957.299999952316,"stimulus":"bees-with-color/bee-B1DF.svg","response":0,"trial_type":"image-button-response","trial_index":160,"time_elapsed":1499052,"internal_node_id":"0.0-6.0-0.24","subject_id":"613cca287897dd965ccb75fd","study_id":"6197b3f67c2b5cd3b6d9596a","session_id":"619be31978e1a0fd6d5d67aa","condition":"contingent","relevant_dimensions":["pattern","legs"],"bee_group":{"antennae":"X","wings":"X","pattern":"D","legs":"M"},"bonus":1.5800000000000014},{"rt":13947.699999928474,"stimulus":"bees-with-color/bee-A2SF.svg","response":0,"trial_type":"image-button-response","trial_index":161,"time_elapsed":1513002,"internal_node_id":"0.0-6.0-0.25","subject_id":"613cca287897dd965ccb75fd","study_id":