[{"success":true,"trial_type":"fullscreen","trial_index":0,"time_elapsed":4811,"internal_node_id":"0.0-0.0","subject_id":"60567a5e7a6b1eb82eaf3fa5","study_id":"6197b3f67c2b5cd3b6d9596a","session_id":"6197b9eeb968f774b3c7c4cd","condition":"full-information","relevant_dimensions":["wings","legs"],"bee_group":{"antennae":"X","wings":"1","pattern":"X","legs":"M"},"bonus":0.5800000000000007},{"success":true,"timeout":false,"failed_images":[],"failed_audio":[],"failed_video":[],"trial_type":"preload","trial_index":1,"time_elapsed":6680,"internal_node_id":"0.0-1.0","subject_id":"60567a5e7a6b1eb82eaf3fa5","study_id":"6197b3f67c2b5cd3b6d9596a","session_id":"6197b9eeb968f774b3c7c4cd","condition":"full-information","relevant_dimensions":["wings","legs"],"bee_group":{"antennae":"X","wings":"1","pattern":"X","legs":"M"},"bonus":0.5800000000000007},{"rt":3589,"stimulus":"Welcome! Press any key to begin.","response":" ","trial_type":"html-keyboard-response","trial_index":2,"time_elapsed":10271,"internal_node_id":"0.0-2.0","subject_id":"60567a5e7a6b1eb82eaf3fa5","study_id":"6197b3f67c2b5cd3b6d9596a","session_id":"6197b9eeb968f774b3c7c4cd","condition":"full-information","relevant_dimensions":["wings","legs"],"bee_group":{"antennae":"X","wings":"1","pattern":"X","legs":"M"},"bonus":0.5800000000000007},{"view_history":[{"page_index":0,"viewing_time":3069},{"page_index":1,"viewing_time":8841},{"page_index":2,"viewing_time":8550},{"page_index":3,"viewing_time":15377},{"page_index":4,"viewing_time":6888},{"page_index":5,"viewing_time":9867},{"page_index":6,"viewing_time":6663},{"page_index":7,"viewing_time":4293},{"page_index":8,"viewing_time":2789},{"page_index":9,"viewing_time":2566},{"page_index":10,"viewing_time":2615},{"page_index":11,"viewing_time":7989},{"page_index":12,"viewing_time":9752},{"page_index":13,"viewing_time":1007},{"page_index":14,"viewing_time":2911}],"rt":93178,"trial_type":"instructions","trial_index":3,"time_elapsed":103448,"internal_node_id":"0.0-3.0-0.0","subject_id":"60567a5e7a6b1eb82eaf3fa5","study_id":"6197b3f67c2b5cd3b6d9596a","session_id":"6197b9eeb968f774b3c7c4cd","condition":"full-information","relevant_dimensions":["wings","legs"],"bee_group":{"antennae":"X","wings":"1","pattern":"X","legs":"M"},"bonus":0.5800000000000007},{"rt":9090,"response":{"Q0":["Two or six legs","Stripes or spots on body","Single or double wings","Antennae or no antennae"]},"question_order":[0],"trial_type":"survey-multi-select","trial_index":4,"time_elapsed":112541,"internal_node_id":"0.0-3.0-1.0","subject_id":"60567a5e7a6b1eb82eaf3fa5","study_id":"6197b3f67c2b5cd3b6d9596a","session_id":"6197b9eeb968f774b3c7c4cd","condition":"full-information","relevant_dimensions":["wings","legs"],"bee_group":{"antennae":"X","wings":"1","pattern":"X","legs":"M"},"correct":true,"bonus":0.5800000000000007},{"rt":14954,"response":{"Q1":"No.","Q2":"Based on the four features of the bee.","Q3":"You learn if it was friendly or dangerous, but do not alter your bonus."},"question_order":[0,1,2],"trial_type":"survey-multi-choice","trial_index":5,"time_elapsed":127496,"internal_node_id":"0.0-3.0-2.0","subject_id":"60567a5e7a6b1eb82eaf3fa5","study_id":"6197b3f67c2b5cd3b6d9596a","session_id":"6197b9eeb968f774b3c7c4cd","condition":"full-information","relevant_dimensions":["wings","legs"],"bee_group":{"antennae":"X","wings":"1","pattern":"X","legs":"M"},"correct":true,"bonus":0.5800000000000007},{"rt":1543,"stimulus":"<p>Congrats, you got everything right<br>When you're ready, click the button below to continue to the experiment.</p>","response":0,"trial_type":"html-button-response","trial_index":6,"time_elapsed":129039,"internal_node_id":"0.0-3.0-3.0","subject_id":"60567a5e7a6b1eb82eaf3fa5","study_id":"6197b3f67c2b5cd3b6d9596a","session_id":"6197b9eeb968f774b3c7c4cd","condition":"full-information","relevant_dimensions":["wings","legs"],"bee_group":{"antennae":"X","wings":"1","pattern":"X","legs":"M"},"bonus":0.5800000000000007},{"rt":4565,"stimulus":"bees-with-color/bee-A2SF.svg","response":1,"trial_type":"image-button-response","trial_index":7,"time_elapsed":133605,"internal_node_id":"0.0-4.0-0.0","subject_id":"60567a5e7a6b1eb82eaf3fa5","study_id":"6197b3f67c2b5cd3b6d9596a","session_id":"6197b9eeb968f774b3c7c4cd","condition":"full-information","relevant_dimensions":["wings","legs"],"bee_group":{"antennae":"X","wings":"1","pattern":"X","legs":"M"},"action":"avoid","summary":"bad-avoid","bonus":0.5800000000000007},{"rt":31129,"stimulus":"\n                    <p><b>Action: <em>avoid</em></b></p>\n                    <p>This is the bee that you just saw.</p>\n                    <img src=\"bees-with-color/bee-A2SF.svg\" width=\"200\">\n                    <p><span class=\"redText\">Bad choice,</span> the bee was friendly.<br>Your bonus pay is unchanged, and remains at $0.54.</p>\n            ","response":0,"trial_type":"html-button-response","trial_index":8,"time_elapsed":164745,"internal_node_id":"0.0-4.0-1.0","subject_id":"60567a5e7a6b1eb82eaf3fa5","study_id":"6197b3f67c2b5cd3b6d9596a","session_id":"6197b9eeb968f774b3c7c4cd","condition":"full-information","relevant_dimensions":["wings","legs"],"bee_group":{"antennae":"X","wings":"1","pattern":"X","legs":"M"},"bonus":0.5800000000000007},{"rt":4905,"stimulus":"bees-with-color/bee-A1DF.svg","response":1,"trial_type":"image-button-response","trial_index":9,"time_elapsed":169650,"internal_node_id":"0.0-4.0-0.1","subject_id":"60567a5e7a6b1eb82eaf3fa5","study_id":"6197b3f67c2b5cd3b6d9596a","session_id":"6197b9eeb968f774b3c7c4cd","condition":"full-information","relevant_dimensions":["wings","legs"],"bee_group":{"antennae":"X","wings":"1","pattern":"X","legs":"M"},"action":"avoid","summary":"bad-avoid","bonus":0.5800000000000007},{"rt":13424,"stimulus":"\n                    <p><b>Action: <em>avoid</em></b></p>\n                    <p>This is the bee that you just saw.</p>\n                    <img src=\"bees-with-color/bee-A1DF.svg\" width=\"200\">\n                    <p><span class=\"redText\">Bad choice,</span> the bee was friendly.<br>Your bonus pay is unchanged, and remains at $0.54.</p>\n            ","response":0,"trial_type":"html-button-response","trial_index":10,"time_elapsed":183074,"internal_node_id":"0.0-4.0-1.1","subject_id":"60567a5e7a6b1eb82eaf3fa5","study_id":"6197b3f67c2b5cd3b6d9596a","session_id":"6197b9eeb968f774b3c7c4cd","condition":"full-information","relevant_dimensions":["wings","legs"],"bee_group":{"antennae":"X","wings":"1","pattern":"X","legs":"M"},"bonus":0.5800000000000007},{"rt":2015,"stimulus":"bees-with-color/bee-A1DM.svg","response":1,"trial_type":"image-button-response","trial_index":11,"time_elapsed":185090,"internal_node_id":"0.0-4.0-0.2","subject_id":"60567a5e7a6b1eb82eaf3fa5","study_id":"6197b3f67c2b5cd3b6d9596a","session_id":"6197b9eeb968f774b3c7c4cd","condition":"full-information","relevant_dimensions":["wings","legs"],"bee_group":{"antennae":"X","wings":"1","pattern":"X","legs":"M"},"action":"avoid","summary":"good-avoid","bonus":0.5800000000000007},{"rt":12640,"stimulus":"\n                    <p><b>Action: <em>avoid</em></b></p>\n                    <p>This is the bee that you just saw.</p>\n                    <img src=\"bees-with-color/bee-A1DM.svg\" width=\"200\">\n                    <p><span class=\"greenText\">Good choice!</span>  This bee would have stung you.<br>Your bonus pay is unchanged, and remains at $0.54.</p>\n            ","response":0,"trial_type":"html-button-response","trial_index":12,"time_elapsed":197731,"internal_node_id":"0.0-4.0-1.2","subject_id":"60567a5e7a6b1eb82eaf3fa5","study_id":"6197b3f67c2b5cd3b6d9596a","session_id":"6197b9eeb968f774b3c7c4cd","condition":"full-information","relevant_dimensions":["wings","legs"],"bee_group":{"antennae":"X","wings":"1","pattern":"X","legs":"M"},"bonus":0.5800000000000007},{"rt":2052,"stimulus":"bees-with-color/bee-B1SM.svg","response":1,"trial_type":"image-button-response","trial_index":13,"time_elapsed":199784,"internal_node_id":"0.0-4.0-0.3","subject_id":"60567a5e7a6b1eb82eaf3fa5","study_id":"6197b3f67c2b5cd3b6d9596a","session_id":"6197b9eeb968f774b3c7c4cd","condition":"full-information","relevant_dimensions":["wings","legs"],"bee_group":{"antennae":"X","wings":"1","pattern":"X","legs":"M"},"action":"avoid","summary":"good-avoid","bonus":0.5800000000000007},{"rt":2283,"stimulus":"\n                    <p><b>Action: <em>avoid</em></b></p>\n                    <p>This is the bee that you just saw.</p>\n                    <img src=\"bees-with-color/bee-B1SM.svg\" width=\"200\">\n                    <p><span class=\"greenText\">Good choice!</span>  This bee would have stung you.<br>Your bonus pay is unchanged, and remains at $0.54.</p>\n            ","response":0,"trial_type":"html-button-response","trial_index":14,"time_elapsed":202068,"internal_node_id":"0.0-4.0-1.3","subject_id":"60567a5e7a6b1eb82eaf3fa5","study_id":"6197b3f67c2b5cd3b6d9596a","session_id":"6197b9eeb968f774b3c7c4cd","condition":"full-information","relevant_dimensions":["wings","legs"],"bee_group":{"antennae":"X","wings":"1","pattern":"X","legs":"M"},"bonus":0.5800000000000007},{"rt":1918,"stimulus":"bees-with-color/bee-B1DF.svg","response":1,"trial_type":"image-button-response","trial_index":15,"time_elapsed":203986,"internal_node_id":"0.0-4.0-0.4","subject_id":"60567a5e7a6b1eb82eaf3fa5","study_id":"6197b3f67c2b5cd3b6d9596a","session_id":"6197b9eeb968f774b3c7c4cd","condition":"full-information","relevant_dimensions":["wings","legs"],"bee_group":{"antennae":"X","wings":"1","pattern":"X","legs":"M"},"action":"avoid","summary":"bad-avoid","bonus":0.5800000000000007},{"rt":7195,"stimulus":"\n                    <p><b>Action: <em>avoid</em></b></p>\n                    <p>This is the bee that you just saw.</p>\n                    <img src=\"bees-with-color/bee-B1DF.svg\" width=\"200\">\n                    <p><span class=\"redText\">Bad choice,</span> the bee was friendly.<br>Your bonus pay is unchanged, and remains at $0.54.</p>\n            ","response":0,"trial_type":"html-button-response","trial_index":16,"time_elapsed":211183,"internal_node_id":"0.0-4.0-1.4","subject_id":"60567a5e7a6b1eb82eaf3fa5","study_id":"6197b3f67c2b5cd3b6d9596a","session_id":"6197b9eeb968f774b3c7c4cd","condition":"full-information","relevant_dimensions":["wings","legs"],"bee_group":{"antennae":"X","wings":"1","pattern":"X","legs":"M"},"bonus":0.5800000000000007},{"rt":3207,"stimulus":"bees-with-color/bee-A1SF.svg","response":0,"trial_type":"image-button-response","trial_index":17,"time_elapsed":214390,"internal_node_id":"0.0-4.0-0.5","subject_id":"60567a5e7a6b1eb82eaf3fa5","study_id":"6197b3f67c2b5cd3b6d9596a","session_id":"6197b9eeb968f774b3c7c4cd","condition":"full-information","relevant_dimensions":["wings","legs"],"bee_group":{"antennae":"X","wings":"1","pattern":"X","legs":"M"},"action":"harvest","summary":"good-harvest","bonus":0.5800000000000007},{"rt":1789,"stimulus":"\n                    <p><b>Action: <em>harvest</em></b></p>\n                    <p>This is the bee that you just saw.</p>\n                    <img src=\"bees-with-color/bee-A1SF.svg\" width=\"200\">\n                    <p><span class=\"greenText\"><b>Successful harvest!</b></span><br>Your pay has increased by $0.02. Your bonus pay is now $0.56.</p>\n            ","response":0,"trial_type":"html-button-response","trial_index":18,"time_elapsed":216180,"internal_node_id":"0.0-4.0-1.5","subject_id":"60567a5e7a6b1eb82eaf3fa5","study_id":"6197b3f67c2b5cd3b6d9596a","session_id":"6197b9eeb968f774b3c7c4cd","condition":"full-information","relevant_dimensions":["wings","legs"],"bee_group":{"antennae":"X","wings":"1","pattern":"X","legs":"M"},"bonus":0.5800000000000007},{"rt":4180,"stimulus":"bees-with-color/bee-B2DM.svg","response":1,"trial_type":"image-button-response","trial_index":19,"time_elapsed":220360,"internal_node_id":"0.0-4.0-0.6","subject_id":"60567a5e7a6b1eb82eaf3fa5","study_id":"6197b3f67c2b5cd3b6d9596a","session_id":"6197b9eeb968f774b3c7c4cd","condition":"full-information","relevant_dimensions":["wings","legs"],"bee_group":{"antennae":"X","wings":"1","pattern":"X","legs":"M"},"action":"avoid","summary":"bad-avoid","bonus":0.5800000000000007},{"rt":3708,"stimulus":"\n                    <p><b>Action: <em>avoid</em></b></p>\n                    <p>This is the bee that you just saw.</p>\n                    <img src=\"bees-with-color/bee-B2DM.svg\" width=\"200\">\n                    <p><span class=\"redText\">Bad choice,</span> the bee was friendly.<br>Your bonus pay is unchanged, and remains at $0.56.</p>\n            ","response":0,"trial_type":"html-button-response","trial_index":20,"time_elapsed":224069,"internal_node_id":"0.0-4.0-1.6","subject_id":"60567a5e7a6b1eb82eaf3fa5","study_id":"6197b3f67c2b5cd3b6d9596a","session_id":"6197b9eeb968f774b3c7c4cd","condition":"full-information","relevant_dimensions":["wings","legs"],"bee_group":{"antennae":"X","wings":"1","pattern":"X","legs":"M"},"bonus":0.5800000000000007},{"rt":4468,"stimulus":"bees-with-color/bee-B2DF.svg","response":1,"trial_type":"image-button-response","trial_index":21,"time_elapsed":228537,"internal_node_id":"0.0-4.0-0.7","subject_id":"60567a5e7a6b1eb82eaf3fa5","study_id":"6197b3f67c2b5cd3b6d9596a","session_id":"6197b9eeb968f774b3c7c4cd","condition":"full-information","relevant_dimensions":["wings","legs"],"bee_group":{"antennae":"X","wings":"1","pattern":"X","legs":"M"},"action":"avoid","summary":"bad-avoid","bonus":0.5800000000000007},{"rt":5363,"stimulus":"\n                    <p><b>Action: <em>avoid</em></b></p>\n                    <p>This is the bee that you just saw.</p>\n                    <img src=\"bees-with-color/bee-B2DF.svg\" width=\"200\">\n                    <p><span class=\"redText\">Bad choice,</span> the bee was friendly.<br>Your bonus pay is unchanged, and remains at $0.56.</p>\n            ","response":0,"trial_type":"html-button-response","trial_index":22,"time_elapsed":233902,"internal_node_id":"0.0-4.0-1.7","subject_id":"60567a5e7a6b1eb82eaf3fa5","study_id":"6197b3f67c2b5cd3b6d9596a","session_id":"6197b9eeb968f774b3c7c4cd","condition":"full-information","relevant_dimensions":["wings","legs"],"bee_group":{"antennae":"X","wings":"1","pattern":"X","legs":"M"},"bonus":0.5800000000000007},{"rt":1844,"stimulus":"bees-with-color/bee-B1DM.svg","response":1,"trial_type":"image-button-response","trial_index":23,"time_elapsed":235746,"internal_node_id":"0.0-4.0-0.8","subject_id":"60567a5e7a6b1eb82eaf3fa5","study_id":"6197b3f67c2b5cd3b6d9596a","session_id":"6197b9eeb968f774b3c7c4cd","condition":"full-information","relevant_dimensions":["wings","legs"],"bee_group":{"antennae":"X","wings":"1","pattern":"X","legs":"M"},"action":"avoid","summary":"good-avoid","bonus":0.5800000000000007},{"rt":1598,"stimulus":"\n                    <p><b>Action: <em>avoid</em></b></p>\n                    <p>This is the bee that you just saw.</p>\n                    <img src=\"bees-with-color/bee-B1DM.svg\" width=\"200\">\n                    <p><span class=\"greenText\">Good choice!</span>  This bee would have stung you.<br>Your bonus pay is unchanged, and remains at $0.56.</p>\n            ","response":0,"trial_type":"html-button-response","trial_index":24,"time_elapsed":237344,"internal_node_id":"0.0-4.0-1.8","subject_id":"60567a5e7a6b1eb82eaf3fa5","study_id":"6197b3f67c2b5cd3b6d9596a","session_id":"6197b9eeb968f774b3c7c4cd","condition":"full-information","relevant_dimensions":["wings","legs"],"bee_group":{"antennae":"X","wings":"1","pattern":"X","legs":"M"},"bonus":0.5800000000000007},{"rt":1897,"stimulus":"bees-with-color/bee-A1SM.svg","response":0,"trial_type":"image-button-response","trial_index":25,"time_elapsed":239242,"internal_node_id":"0.0-4.0-0.9","subject_id":"60567a5e7a6b1eb82eaf3fa5","study_id":"6197b3f67c2b5cd3b6d9596a","session_id":"6197b9eeb968f774b3c7c4cd","condition":"full-information","relevant_dimensions":["wings","legs"],"bee_group":{"antennae":"X","wings":"1","pattern":"X","legs":"M"},"action":"harvest","summary":"bad-harvest","bonus":0.5800000000000007},{"rt":4540,"stimulus":"\n                    <p><b>Action: <em>harvest</em></b></p>\n                    <p>This is the bee that you just saw.</p>\n                    <img src=\"bees-with-color/bee-A1SM.svg\" width=\"200\">\n                    <p><span class=\"redText\">Bad choice, the bee was angry.</span><br><b>You have been stung!</b><br>Your pay has been decreased by $0.10. Your bonus pay is now $0.46.</p>\n            ","response":0,"trial_type":"html-button-response","trial_index":26,"time_elapsed":243782,"internal_node_id":"0.0-4.0-1.9","subject_id":"60567a5e7a6b1eb82eaf3fa5","study_id":"6197b3f67c2b5cd3b6d9596a","session_id":"6197b9eeb968f774b3c7c4cd","condition":"full-information","relevant_dimensions":["wings","legs"],"bee_group":{"antennae":"X","wings":"1","pattern":"X","legs":"M"},"bonus":0.5800000000000007},{"rt":3167,"stimulus":"bees-with-color/bee-A2SM.svg","response":0,"trial_type":"image-button-response","trial_index":27,"time_elapsed":246949,"internal_node_id":"0.0-4.0-0.10","subject_id":"60567a5e7a6b1eb82eaf3fa5","study_id":"6197b3f67c2b5cd3b6d9596a","session_id":"6197b9eeb968f774b3c7c4cd","condition":"full-information","relevant_dimensions":["wings","legs"],"bee_group":{"antennae":"X","wings":"1","pattern":"X","legs":"M"},"action":"harvest","summary":"good-harvest","bonus":0.5800000000000007},{"rt":1234,"stimulus":"\n                    <p><b>Action: <em>harvest</em></b></p>\n                    <p>This is the bee that you just saw.</p>\n                    <img src=\"bees-with-color/bee-A2SM.svg\" width=\"200\">\n                    <p><span class=\"greenText\"><b>Successful harvest!</b></span><br>Your pay has increased by $0.02. Your bonus pay is now $0.48.</p>\n            ","response":0,"trial_type":"html-button-response","trial_index":28,"time_elapsed":248186,"internal_node_id":"0.0-4.0-1.10","subject_id":"60567a5e7a6b1eb82eaf3fa5","study_id":"6197b3f67c2b5cd3b6d9596a","session_id":"6197b9eeb968f774b3c7c4cd","condition":"full-information","relevant_dimensions":["wings","legs"],"bee_group":{"antennae":"X","wings":"1","pattern":"X","legs":"M"},"bonus":0.5800000000000007},{"rt":4035,"stimulus":"bees-with-color/bee-A2DM.svg","response":0,"trial_type":"image-button-response","trial_index":29,"time_elapsed":252221,"internal_node_id":"0.0-4.0-0.11","subject_id":"60567a5e7a6b1eb82eaf3fa5","study_id":"6197b3f67c2b5cd3b6d9596a","session_id":"6197b9eeb968f774b3c7c4cd","condition":"full-information","relevant_dimensions":["wings","legs"],"bee_group":{"antennae":"X","wings":"1","pattern":"X","legs":"M"},"action":"harvest","summary":"good-harvest","bonus":0.5800000000000007},{"rt":1108,"stimulus":"\n                    <p><b>Action: <em>harvest</em></b></p>\n                    <p>This is the bee that you just saw.</p>\n                    <img src=\"bees-with-color/bee-A2DM.svg\" width=\"200\">\n                    <p><span class=\"greenText\"><b>Successful harvest!</b></span><br>Your pay has increased by $0.02. Your bonus pay is now $0.50.</p>\n            ","response":0,"trial_type":"html-button-response","trial_index":30,"time_elapsed":253330,"internal_node_id":"0.0-4.0-1.11","subject_id":"60567a5e7a6b1eb82eaf3fa5","study_id":"6197b3f67c2b5cd3b6d9596a","session_id":"6197b9eeb968f774b3c7c4cd","condition":"full-information","relevant_dimensions":["wings","legs"],"bee_group":{"antennae":"X","wings":"1","pattern":"X","legs":"M"},"bonus":0.5800000000000007},{"rt":3410,"stimulus":"bees-with-color/bee-B2SF.svg","response":1,"trial_type":"image-button-response","trial_index":31,"time_elapsed":256740,"internal_node_id":"0.0-4.0-0.12","subject_id":"60567a5e7a6b1eb82eaf3fa5","study_id":"6197b3f67c2b5cd3b6d9596a","session_id":"6197b9eeb968f774b3c7c4cd","condition":"full-information","relevant_dimensions":["wings","legs"],"bee_group":{"antennae":"X","wings":"1","pattern":"X","legs":"M"},"action":"avoid","summary":"bad-avoid","bonus":0.5800000000000007},{"rt":1155,"stimulus":"\n                    <p><b>Action: <em>avoid</em></b></p>\n                    <p>This is the bee that you just saw.</p>\n                    <img src=\"bees-with-color/bee-B2SF.svg\" width=\"200\">\n                    <p><span class=\"redText\">Bad choice,</span> the bee was friendly.<br>Your bonus pay is unchanged, and remains at $0.50.</p>\n            ","response":0,"trial_type":"html-button-response","trial_index":32,"time_elapsed":257895,"internal_node_id":"0.0-4.0-1.12","subject_id":"60567a5e7a6b1eb82eaf3fa5","study_id":"6197b3f67c2b5cd3b6d9596a","session_id":"6197b9eeb968f774b3c7c4cd","condition":"full-information","relevant_dimensions":["wings","legs"],"bee_group":{"antennae":"X","wings":"1","pattern":"X","legs":"M"},"bonus":0.5800000000000007},{"rt":4351,"stimulus":"bees-with-color/bee-B2SM.svg","response":1,"trial_type":"image-button-response","trial_index":33,"time_elapsed":262245,"internal_node_id":"0.0-4.0-0.13","subject_id":"60567a5e7a6b1eb82eaf3fa5","study_id":"6197b3f67c2b5cd3b6d9596a","session_id":"6197b9eeb968f774b3c7c4cd","condition":"full-information","relevant_dimensions":["wings","legs"],"bee_group":{"antennae":"X","wings":"1","pattern":"X","legs":"M"},"action":"avoid","summary":"bad-avoid","bonus":0.5800000000000007},{"rt":1253,"stimulus":"\n                    <p><b>Action: <em>avoid</em></b></p>\n                    <p>This is the bee that you just saw.</p>\n                    <img src=\"bees-with-color/bee-B2SM.svg\" width=\"200\">\n                    <p><span class=\"redText\">Bad choice,</span> the bee was friendly.<br>Your bonus pay is unchanged, and remains at $0.50.</p>\n            ","response":0,"trial_type":"html-button-response","trial_index":34,"time_elapsed":263500,"internal_node_id":"0.0-4.0-1.13","subject_id":"60567a5e7a6b1eb82eaf3fa5","study_id":"6197b3f67c2b5cd3b6d9596a","session_id":"6197b9eeb968f774b3c7c4cd","condition":"full-information","relevant_dimensions":["wings","legs"],"bee_group":{"antennae":"X","wings":"1","pattern":"X","legs":"M"},"bonus":0.5800000000000007},{"rt":2839,"stimulus":"bees-with-color/bee-B1SF.svg","response":0,"trial_type":"image-button-response","trial_index":35,"time_elapsed":266339,"internal_node_id":"0.0-4.0-0.14","subject_id":"60567a5e7a6b1eb82eaf3fa5","study_id":"6197b3f67c2b5cd3b6d9596a","session_id":"6197b9eeb968f774b3c7c4cd","condition":"full-information","relevant_dimensions":["wings","legs"],"bee_group":{"antennae":"X","wings":"1","pattern":"X","legs":"M"},"action":"harvest","summary":"good-harvest","bonus":0.5800000000000007},{"rt":1117,"stimulus":"\n                    <p><b>Action: <em>harvest</em></b></p>\n                    <p>This is the bee that you just saw.</p>\n                    <img src=\"bees-with-color/bee-B1SF.svg\" width=\"200\">\n                    <p><span class=\"greenText\"><b>Successful harvest!</b></span><br>Your pay has increased by $0.02. Your bonus pay is now $0.52.</p>\n            ","response":0,"trial_type":"html-button-response","trial_index":36,"time_elapsed":267455,"internal_node_id":"0.0-4.0-1.14","subject_id":"60567a5e7a6b1eb82eaf3fa5","study_id":"6197b3f67c2b5cd3b6d9596a","session_id":"6197b9eeb968f774b3c7c4cd","condition":"full-information","relevant_dimensions":["wings","legs"],"bee_group":{"antennae":"X","wings":"1","pattern":"X","legs":"M"},"bonus":0.5800000000000007},{"rt":4184,"stimulus":"bees-with-color/bee-A2DF.svg","response":1,"trial_type":"image-button-response","trial_index":37,"time_elapsed":271640,"internal_node_id":"0.0-4.0-0.15","subject_id":"60567a5e7a6b1eb82eaf3fa5","study_id":"6197b3f67c2b5cd3b6d9596a","session_id":"6197b9eeb968f774b3c7c4cd","condition":"full-information","relevant_dimensions":["wings","legs"],"bee_group":{"antennae":"X","wings":"1","pattern":"X","legs":"M"},"action":"avoid","summary":"bad-avoid","bonus":0.5800000000000007},{"rt":1555,"stimulus":"\n                    <p><b>Action: <em>avoid</em></b></p>\n                    <p>This is the bee that you just saw.</p>\n                    <img src=\"bees-with-color/bee-A2DF.svg\" width=\"200\">\n                    <p><span class=\"redText\">Bad choice,</span> the bee was friendly.<br>Your bonus pay is unchanged, and remains at $0.52.</p>\n            ","response":0,"trial_type":"html-button-response","trial_index":38,"time_elapsed":273194,"internal_node_id":"0.0-4.0-1.15","subject_id":"60567a5e7a6b1eb82eaf3fa5","study_id":"6197b3f67c2b5cd3b6d9596a","session_id":"6197b9eeb968f774b3c7c4cd","condition":"full-information","relevant_dimensions":["wings","legs"],"bee_group":{"antennae":"X","wings":"1","pattern":"X","legs":"M"},"bonus":0.5800000000000007},{"rt":2616,"stimulus":"bees-with-color/bee-A2SF.svg","response":1,"trial_type":"image-button-response","trial_index":39,"time_elapsed":275811,"internal_node_id":"0.0-4.0-0.16","subject_id":"60567a5e7a6b1eb82eaf3fa5","study_id":"6197b3f67c2b5cd3b6d9596a","session_id":"6197b9eeb968f774b3c7c4cd","condition":"full-information","relevant_dimensions":["wings","legs"],"bee_group":{"antennae":"X","wings":"1","pattern":"X","legs":"M"},"action":"avoid","summary":"bad-avoid","bonus":0.5800000000000007},{"rt":1120,"stimulus":"\n                    <p><b>Action: <em>avoid</em></b></p>\n                    <p>This is the bee that you just saw.</p>\n                    <img src=\"bees-with-color/bee-A2SF.svg\" width=\"200\">\n                    <p><span class=\"redText\">Bad choice,</span> the bee was friendly.<br>Your bonus pay is unchanged, and remains at $0.52.</p>\n            ","response":0,"trial_type":"html-button-response","trial_index":40,"time_elapsed":276931,"internal_node_id":"0.0-4.0-1.16","subject_id":"60567a5e7a6b1eb82eaf3fa5","study_id":"6197b3f67c2b5cd3b6d9596a","session_id":"6197b9eeb968f774b3c7c4cd","condition":"full-information","relevant_dimensions":["wings","legs"],"bee_group":{"antennae":"X","wings":"1","pattern":"X","legs":"M"},"bonus":0.5800000000000007},{"rt":3185,"stimulus":"bees-with-color/bee-B2SM.svg","response":0,"trial_type":"image-button-response","trial_index":41,"time_elapsed":280116,"internal_node_id":"0.0-4.0-0.17","subject_id":"60567a5e7a6b1eb82eaf3fa5","study_id":"6197b3f67c2b5cd3b6d9596a","session_id":"6197b9eeb968f774b3c7c4cd","condition":"full-information","relevant_dimensions":["wings","legs"],"bee_group":{"antennae":"X","wings":"1","pattern":"X","legs":"M"},"action":"harvest","summary":"good-harvest","bonus":0.5800000000000007},{"rt":850,"stimulus":"\n                    <p><b>Action: <em>harvest</em></b></p>\n                    <p>This is the bee that you just saw.</p>\n                    <img src=\"bees-with-color/bee-B2SM.svg\" width=\"200\">\n                    <p><span class=\"greenText\"><b>Successful harvest!</b></span><br>Your pay has increased by $0.02. Your bonus pay is now $0.54.</p>\n            ","response":0,"trial_type":"html-button-response","trial_index":42,"time_elapsed":280968,"internal_node_id":"0.0-4.0-1.17","subject_id":"60567a5e7a6b1eb82eaf3fa5","study_id":"6197b3f67c2b5cd3b6d9596a","session_id":"6197b9eeb968f774b3c7c4cd","condition":"full-information","relevant_dimensions":["wings","legs"],"bee_group":{"antennae":"X","wings":"1","pattern":"X","legs":"M"},"bonus":0.5800000000000007},{"rt":3380,"stimulus":"bees-with-color/bee-A1SM.svg","response":1,"trial_type":"image-button-response","trial_index":43,"time_elapsed":284349,"internal_node_id":"0.0-4.0-0.18","subject_id":"60567a5e7a6b1eb82eaf3fa5","study_id":"6197b3f67c2b5cd3b6d9596a","session_id":"6197b9eeb968f774b3c7c4cd","condition":"full-information","relevant_dimensions":["wings","legs"],"bee_group":{"antennae":"X","wings":"1","pattern":"X","legs":"M"},"action":"avoid","summary":"good-avoid","bonus":0.5800000000000007},{"rt":1621,"stimulus":"\n                    <p><b>Action: <em>avoid</em></b></p>\n                    <p>This is the bee that you just saw.</p>\n                    <img src=\"bees-with-color/bee-A1SM.svg\" width=\"200\">\n                    <p><span class=\"greenText\">Good choice!</span>  This bee would have stung you.<br>Your bonus pay is unchanged, and remains at $0.54.</p>\n            ","response":0,"trial_type":"html-button-response","trial_index":44,"time_elapsed":285971,"internal_node_id":"0.0-4.0-1.18","subject_id":"60567a5e7a6b1eb82eaf3fa5","study_id":"6197b3f67c2b5cd3b6d9596a","session_id":"6197b9eeb968f774b3c7c4cd","condition":"full-information","relevant_dimensions":["wings","legs"],"bee_group":{"antennae":"X","wings":"1","pattern":"X","legs":"M"},"bonus":0.5800000000000007},{"rt":1533,"stimulus":"bees-with-color/bee-A1SF.svg","response":1,"trial_type":"image-button-response","trial_index":45,"time_elapsed":287506,"internal_node_id":"0.0-4.0-0.19","subject_id":"60567a5e7a6b1eb82eaf3fa5","study_id":"6197b3f67c2b5cd3b6d9596a","session_id":"6197b9eeb968f774b3c7c4cd","condition":"full-information","relevant_dimensions":["wings","legs"],"bee_group":{"antennae":"X","wings":"1","pattern":"X","legs":"M"},"action":"avoid","summary":"bad-avoid","bonus":0.5800000000000007},{"rt":952,"stimulus":"\n                    <p><b>Action: <em>avoid</em></b></p>\n                    <p>This is the bee that you just saw.</p>\n                    <img src=\"bees-with-color/bee-A1SF.svg\" width=\"200\">\n                    <p><span class=\"redText\">Bad choice,</span> the bee was friendly.<br>Your bonus pay is unchanged, and remains at $0.54.</p>\n            ","response":0,"trial_type":"html-button-response","trial_index":46,"time_elapsed":288458,"internal_node_id":"0.0-4.0-1.19","subject_id":"60567a5e7a6b1eb82eaf3fa5","study_id":"6197b3f67c2b5cd3b6d9596a","session_id":"6197b9eeb968f774b3c7c4cd","condition":"full-information","relevant_dimensions":["wings","legs"],"bee_group":{"antennae":"X","wings":"1","pattern":"X","legs":"M"},"bonus":0.5800000000000007},{"rt":1825,"stimulus":"bees-with-color/bee-B1DF.svg","response":1,"trial_type":"image-button-response","trial_index":47,"time_elapsed":290282,"internal_node_id":"0.0-4.0-0.20","subject_id":"60567a5e7a6b1eb82eaf3fa5","study_id":"6197b3f67c2b5cd3b6d9596a","session_id":"6197b9eeb968f774b3c7c4cd","condition":"full-information","relevant_dimensions":["wings","legs"],"bee_group":{"antennae":"X","wings":"1","pattern":"X","legs":"M"},"action":"avoid","summary":"bad-avoid","bonus":0.5800000000000007},{"rt":903,"stimulus":"\n                    <p><b>Action: <em>avoid</em></b></p>\n                    <p>This is the bee that you just saw.</p>\n                    <img src=\"bees-with-color/bee-B1DF.svg\" width=\"200\">\n                    <p><span class=\"redText\">Bad choice,</span> the bee was friendly.<br>Your bonus pay is unchanged, and remains at $0.54.</p>\n            ","response":0,"trial_type":"html-button-response","trial_index":48,"time_elapsed":291186,"internal_node_id":"0.0-4.0-1.20","subject_id":"60567a5e7a6b1eb82eaf3fa5","study_id":"6197b3f67c2b5cd3b6d9596a","session_id":"6197b9eeb968f774b3c7c4cd","condition":"full-information","relevant_dimensions":["wings","legs"],"bee_group":{"antennae":"X","wings":"1","pattern":"X","legs":"M"},"bonus":0.5800000000000007},{"rt":6070,"stimulus":"bees-with-color/bee-B2DF.svg","response":1,"trial_type":"image-button-response","trial_index":49,"time_elapsed":297258,"internal_node_id":"0.0-4.0-0.21","subject_id":"60567a5e7a6b1eb82eaf3fa5","study_id":"6197b3f67c2b5cd3b6d9596a","session_id":"6197b9eeb968f774b3c7c4cd","condition":"full-information","relevant_dimensions":["wings","legs"],"bee_group":{"antennae":"X","wings":"1","pattern":"X","legs":"M"},"action":"avoid","summary":"bad-avoid","bonus":0.5800000000000007},{"rt":1220,"stimulus":"\n                    <p><b>Action: <em>avoid</em></b></p>\n                    <p>This is the bee that you just saw.</p>\n                    <img src=\"bees-with-color/bee-B2DF.svg\" width=\"200\">\n                    <p><span class=\"redText\">Bad choice,</span> the bee was friendly.<br>Your bonus pay is unchanged, and remains at $0.54.</p>\n            ","response":0,"trial_type":"html-button-response","trial_index":50,"time_elapsed":298478,"internal_node_id":"0.0-4.0-1.21","subject_id":"60567a5e7a6b1eb82eaf3fa5","study_id":"6197b3f67c2b5cd3b6d9596a","session_id":"6197b9eeb968f774b3c7c4cd","condition":"full-information","relevant_dimensions":["wings","legs"],"bee_group":{"antennae":"X","wings":"1","pattern":"X","legs":"M"},"bonus":0.5800000000000007},{"rt":2758,"stimulus":"bees-with-color/bee-A2SM.svg","response":1,"trial_type":"image-button-response","trial_index":51,"time_elapsed":301237,"internal_node_id":"0.0-4.0-0.22","subject_id":"60567a5e7a6b1eb82eaf3fa5","study_id":"6197b3f67c2b5cd3b6d9596a","session_id":"6197b9eeb968f774b3c7c4cd","condition":"full-information","relevant_dimensions":["wings","legs"],"bee_group":{"antennae":"X","wings":"1","pattern":"X","legs":"M"},"action":"avoid","summary":"bad-avoid","bonus":0.5800000000000007},{"rt":1293,"stimulus":"\n                    <p><b>Action: <em>avoid</em></b></p>\n                    <p>This is the bee that you just saw.</p>\n                    <img src=\"bees-with-color/bee-A2SM.svg\" width=\"200\">\n                    <p><span class=\"redText\">Bad choice,</span> the bee was friendly.<br>Your bonus pay is unchanged, and remains at $0.54.</p>\n            ","response":0,"trial_type":"html-button-response","trial_index":52,"time_elapsed":302531,"internal_node_id":"0.0-4.0-1.22","subject_id":"60567a5e7a6b1eb82eaf3fa5","study_id":"6197b3f67c2b5cd3b6d9596a","session_id":"6197b9eeb968f774b3c7c4cd","condition":"full-information","relevant_dimensions":["wings","legs"],"bee_group":{"antennae":"X","wings":"1","pattern":"X","legs":"M"},"bonus":0.5800000000000007},{"rt":2649,"stimulus":"bees-with-color/bee-A1DM.svg","response":1,"trial_type":"image-button-response","trial_index":53,"time_elapsed":305179,"internal_node_id":"0.0-4.0-0.23","subject_id":"60567a5e7a6b1eb82eaf3fa5","study_id":"6197b3f67c2b5cd3b6d9596a","session_id":"6197b9eeb968f774b3c7c4cd","condition":"full-information","relevant_dimensions":["wings","legs"],"bee_group":{"antennae":"X","wings":"1","pattern":"X","legs":"M"},"action":"avoid","summary":"good-avoid","bonus":0.5800000000000007},{"rt":847,"stimulus":"\n                    <p><b>Action: <em>avoid</em></b></p>\n                    <p>This is the bee that you just saw.</p>\n                    <img src=\"bees-with-color/bee-A1DM.svg\" width=\"200\">\n                    <p><span class=\"greenText\">Good choice!</span>  This bee would have stung you.<br>Your bonus pay is unchanged, and remains at $0.54.</p>\n            ","response":0,"trial_type":"html-button-response","trial_index":54,"time_elapsed":306027,"internal_node_id":"0.0-4.0-1.23","subject_id":"60567a5e7a6b1eb82eaf3fa5","study_id":"6197b3f67c2b5cd3b6d9596a","session_id":"6197b9eeb968f774b3c7c4cd","condition":"full-information","relevant_dimensions":["wings","legs"],"bee_group":{"antennae":"X","wings":"1","pattern":"X","legs":"M"},"bonus":0.5800000000000007},{"rt":7914,"stimulus":"bees-with-color/bee-A2DF.svg","response":1,"trial_type":"image-button-response","trial_index":55,"time_elapsed":313942,"internal_node_id":"0.0-4.0-0.24","subject_id":"60567a5e7a6b1eb82eaf3fa5","study_id":"6197b3f67c2b5cd3b6d9596a","session_id":"6197b9eeb968f774b3c7c4cd","condition":"full-information","relevant_dimensions":["wings","legs"],"bee_group":{"antennae":"X","wings":"1","pattern":"X","legs":"M"},"action":"avoid","summary":"bad-avoid","bonus":0.5800000000000007},{"rt":828,"stimulus":"\n                    <p><b>Action: <em>avoid</em></b></p>\n                    <p>This is the bee that you just saw.</p>\n                    <img src=\"bees-with-color/bee-A2DF.svg\" width=\"200\">\n                    <p><span class=\"redText\">Bad choice,</span> the bee was friendly.<br>Your bonus pay is unchanged, and remains at $0.54.</p>\n            ","response":0,"trial_type":"html-button-response","trial_index":56,"time_elapsed":314769,"internal_node_id":"0.0-4.0-1.24","subject_id":"60567a5e7a6b1eb82eaf3fa5","study_id":"6197b3f67c2b5cd3b6d9596a","session_id":"6197b9eeb968f774b3c7c4cd","condition":"full-information","relevant_dimensions":["wings","legs"],"bee_group":{"antennae":"X","wings":"1","pattern":"X","legs":"M"},"bonus":0.5800000000000007},{"rt":2276,"stimulus":"bees-with-color/bee-B2SF.svg","response":0,"trial_type":"image-button-response","trial_index":57,"time_elapsed":317047,"internal_node_id":"0.0-4.0-0.25","subject_id":"60567a5e7a6b1eb82eaf3fa5","study_id":"6197b3f67c2b5cd3b6d9596a","session_id":"6197b9eeb968f774b3c7c4cd","condition":"full-information","relevant_dimensions":["wings","legs"],"bee_group":{"antennae":"X","wings":"1","pattern":"X","legs":"M"},"action":"harvest","summary":"good-harvest","bonus":0.5800000000000007},{"rt":951,"stimulus":"\n                    <p><b>Action: <em>harvest</em></b></p>\n                    <p>This is the bee that you just saw.</p>\n                    <img src=\"bees-with-color/bee-B2SF.svg\" width=\"200\">\n                    <p><span class=\"greenText\"><b>Successful harvest!</b></span><br>Your pay has increased by $0.02. Your bonus pay is now $0.56.</p>\n            ","response":0,"trial_type":"html-button-response","trial_index":58,"time_elapsed":317997,"internal_node_id":"0.0-4.0-1.25","subject_id":"60567a5e7a6b1eb82eaf3fa5","study_id":"6197b3f67c2b5cd3b6d9596a","session_id":"6197b9eeb968f774b3c7c4cd","condition":"full-information","relevant_dimensions":["wings","legs"],"bee_group":{"antennae":"X","wings":"1","pattern":"X","legs":"M"},"bonus":0.5800000000000007},{"rt":3496,"stimulus":"bees-with-color/bee-A2DM.svg","response":0,"trial_type":"image-button-response","trial_index":59,"time_elapsed":321494,"internal_node_id":"0.0-4.0-0.26","subject_id":"60567a5e7a6b1eb82eaf3fa5","study_id":"6197b3f67c2b5cd3b6d9596a","session_id":"6197b9eeb968f774b3c7c4cd","condition":"full-information","relevant_dimensions":["wings","legs"],"bee_group":{"antennae":"X","wings":"1","pattern":"X","legs":"M"},"action":"harvest","summary":"good-harvest","bonus":0.5800000000000007},{"rt":887,"stimulus":"\n                    <p><b>Action: <em>harvest</em></b></p>\n                    <p>This is the bee that you just saw.</p>\n                    <img src=\"bees-with-color/bee-A2DM.svg\" width=\"200\">\n                    <p><span class=\"greenText\"><b>Successful harvest!</b></span><br>Your pay has increased by $0.02. Your bonus pay is now $0.58.</p>\n            ","response":0,"trial_type":"html-button-response","trial_index":60,"time_elapsed":322381,"internal_node_id":"0.0-4.0-1.26","subject_id":"60567a5e7a6b1eb82eaf3fa5","study_id":"6197b3f67c2b5cd3b6d9596a","session_id":"6197b9eeb968f774b3c7c4cd","condition":"full-information","relevant_dimensions":["wings","legs"],"bee_group":{"antennae":"X","wings":"1","pattern":"X","legs":"M"},"bonus":0.5800000000000007},{"rt":1879,"stimulus":"bees-with-color/bee-A1DF.svg","response":0,"trial_type":"image-button-response","trial_index":61,"time_elapsed":324260,"internal_node_id":"0.0-4.0-0.27","subject_id":"60567a5e7a6b1eb82eaf3fa5","study_id":"6197b3f67c2b5cd3b6d9596a","session_id":"6197b9eeb968f774b3c7c4cd","condition":"full-information","relevant_dimensions":["wings","legs"],"bee_group":{"antennae":"X","wings":"1","pattern":"X","legs":"M"},"action":"harvest","summary":"good-harvest","bonus":0.5800000000000007},{"rt":818,"stimulus":"\n                    <p><b>Action: <em>harvest</em></b></p>\n                    <p>This is the bee that you just saw.</p>\n                    <img src=\"bees-with-color/bee-A1DF.svg\" width=\"200\">\n                    <p><span class=\"greenText\"><b>Successful harvest!</b></span><br>Your pay has increased by $0.02. Your bonus pay is now $0.60.</p>\n            ","response":0,"trial_type":"html-button-response","trial_index":62,"time_elapsed":325079,"internal_node_id":"0.0-4.0-1.27","subject_id":"60567a5e7a6b1eb82eaf3fa5","study_id":"6197b3f67c2b5cd3b6d9596a","session_id":"6197b9eeb968f774b3c7c4cd","condition":"full-information","relevant_dimensions":["wings","legs"],"bee_group":{"antennae":"X","wings":"1","pattern":"X","legs":"M"},"bonus":0.5800000000000007},{"rt":1500,"stimulus":"bees-with-color/bee-B1DM.svg","response":1,"trial_type":"image-button-response","trial_index":63,"time_elapsed":326580,"internal_node_id":"0.0-4.0-0.28","subject_id":"60567a5e7a6b1eb82eaf3fa5","study_id":"6197b3f67c2b5cd3b6d9596a","session_id":"6197b9eeb968f774b3c7c4cd","condition":"full-information","relevant_dimensions":["wings","legs"],"bee_group":{"antennae":"X","wings":"1","pattern":"X","legs":"M"},"action":"avoid","summary":"good-avoid","bonus":0.5800000000000007},{"rt":786,"stimulus":"\n                    <p><b>Action: <em>avoid</em></b></p>\n                    <p>This is the bee that you just saw.</p>\n                    <img src=\"bees-with-color/bee-B1DM.svg\" width=\"200\">\n                    <p><span class=\"greenText\">Good choice!</span>  This bee would have stung you.<br>Your bonus pay is unchanged, and remains at $0.60.</p>\n            ","response":0,"trial_type":"html-button-response","trial_index":64,"time_elapsed":327366,"internal_node_id":"0.0-4.0-1.28","subject_id":"60567a5e7a6b1eb82eaf3fa5","study_id":"6197b3f67c2b5cd3b6d9596a","session_id":"6197b9eeb968f774b3c7c4cd","condition":"full-information","relevant_dimensions":["wings","legs"],"bee_group":{"antennae":"X","wings":"1","pattern":"X","legs":"M"},"bonus":0.5800000000000007},{"rt":1411,"stimulus":"bees-with-color/bee-B2DM.svg","response":1,"trial_type":"image-button-response","trial_index":65,"time_elapsed":328777,"internal_node_id":"0.0-4.0-0.29","subject_id":"60567a5e7a6b1eb82eaf3fa5","study_id":"6197b3f67c2b5cd3b6d9596a","session_id":"6197b9eeb968f774b3c7c4cd","condition":"full-information","relevant_dimensions":["wings","legs"],"bee_group":{"antennae":"X","wings":"1","pattern":"X","legs":"M"},"action":"avoid","summary":"bad-avoid","bonus":0.5800000000000007},{"rt":782,"stimulus":"\n                    <p><b>Action: <em>avoid</em></b></p>\n                    <p>This is the bee that you just saw.</p>\n                    <img src=\"bees-with-color/bee-B2DM.svg\" width=\"200\">\n                    <p><span class=\"redText\">Bad choice,</span> the bee was friendly.<br>Your bonus pay is unchanged, and remains at $0.60.</p>\n            ","response":0,"trial_type":"html-button-response","trial_index":66,"time_elapsed":329560,"internal_node_id":"0.0-4.0-1.29","subject_id":"60567a5e7a6b1eb82eaf3fa5","study_id":"6197b3f67c2b5cd3b6d9596a","session_id":"6197b9eeb968f774b3c7c4cd","condition":"full-information","relevant_dimensions":["wings","legs"],"bee_group":{"antennae":"X","wings":"1","pattern":"X","legs":"M"},"bonus":0.5800000000000007},{"rt":1290,"stimulus":"bees-with-color/bee-B1SM.svg","response":1,"trial_type":"image-button-response","trial_index":67,"time_elapsed":330851,"internal_node_id":"0.0-4.0-0.30","subject_id":"60567a5e7a6b1eb82eaf3fa5","study_id":"6197b3f67c2b5cd3b6d9596a","session_id":"6197b9eeb968f774b3c7c4cd","condition":"full-information","relevant_dimensions":["wings","legs"],"bee_group":{"antennae":"X","wings":"1","pattern":"X","legs":"M"},"action":"avoid","summary":"good-avoid","bonus":0.5800000000000007},{"rt":704,"stimulus":"\n                    <p><b>Action: <em>avoid</em></b></p>\n                    <p>This is the bee that you just saw.</p>\n                    <img src=\"bees-with-color/bee-B1SM.svg\" width=\"200\">\n                    <p><span class=\"greenText\">Good choice!</span>  This bee would have stung you.<br>Your bonus pay is unchanged, and remains at $0.60.</p>\n            ","response":0,"trial_type":"html-button-response","trial_index":68,"time_elapsed":331556,"internal_node_id":"0.0-4.0-1.30","subject_id":"60567a5e7a6b1eb82eaf3fa5","study_id":"6197b3f67c2b5cd3b6d9596a","session_id":"6197b9eeb968f774b3c7c4cd","condition":"full-information","relevant_dimensions":["wings","legs"],"bee_group":{"antennae":"X","wings":"1","pattern":"X","legs":"M"},"bonus":0.5800000000000007},{"rt":1463,"stimulus":"bees-with-color/bee-B1SF.svg","response":1,"trial_type":"image-button-response","trial_index":69,"time_elapsed":333020,"internal_node_id":"0.0-4.0-0.31","subject_id":"60567a5e7a6b1eb82eaf3fa5","study_id":"6197b3f67c2b5cd3b6d9596a","session_id":"6197b9eeb968f774b3c7c4cd","condition":"full-information","relevant_dimensions":["wings","legs"],"bee_group":{"antennae":"X","wings":"1","pattern":"X","legs":"M"},"action":"avoid","summary":"bad-avoid","bonus":0.5800000000000007},{"rt":665,"stimulus":"\n                    <p><b>Action: <em>avoid</em></b></p>\n                    <p>This is the bee that you just saw.</p>\n                    <img src=\"bees-with-color/bee-B1SF.svg\" width=\"200\">\n                    <p><span class=\"redText\">Bad choice,</span> the bee was friendly.<br>Your bonus pay is unchanged, and remains at $0.60.</p>\n            ","response":0,"trial_type":"html-button-response","trial_index":70,"time_elapsed":333687,"internal_node_id":"0.0-4.0-1.31","subject_id":"60567a5e7a6b1eb82eaf3fa5","study_id":"6197b3f67c2b5cd3b6d9596a","session_id":"6197b9eeb968f774b3c7c4cd","condition":"full-information","relevant_dimensions":["wings","legs"],"bee_group":{"antennae":"X","wings":"1","pattern":"X","legs":"M"},"bonus":0.5800000000000007},{"rt":1492,"stimulus":"bees-with-color/bee-B1DF.svg","response":1,"trial_type":"image-button-response","trial_index":71,"time_elapsed":335179,"internal_node_id":"0.0-4.0-0.32","subject_id":"60567a5e7a6b1eb82eaf3fa5","study_id":"6197b3f67c2b5cd3b6d9596a","session_id":"6197b9eeb968f774b3c7c4cd","condition":"full-information","relevant_dimensions":["wings","legs"],"bee_group":{"antennae":"X","wings":"1","pattern":"X","legs":"M"},"action":"avoid","summary":"bad-avoid","bonus":0.5800000000000007},{"rt":664,"stimulus":"\n                    <p><b>Action: <em>avoid</em></b></p>\n                    <p>This is the bee that you just saw.</p>\n                    <img src=\"bees-with-color/bee-B1DF.svg\" width=\"200\">\n                    <p><span class=\"redText\">Bad choice,</span> the bee was friendly.<br>Your bonus pay is unchanged, and remains at $0.60.</p>\n            ","response":0,"trial_type":"html-button-response","trial_index":72,"time_elapsed":335844,"internal_node_id":"0.0-4.0-1.32","subject_id":"60567a5e7a6b1eb82eaf3fa5","study_id":"6197b3f67c2b5cd3b6d9596a","session_id":"6197b9eeb968f774b3c7c4cd","condition":"full-information","relevant_dimensions":["wings","legs"],"bee_group":{"antennae":"X","wings":"1","pattern":"X","legs":"M"},"bonus":0.5800000000000007},{"rt":1416,"stimulus":"bees-with-color/bee-A2SM.svg","response":0,"trial_type":"image-button-response","trial_index":73,"time_elapsed":337261,"internal_node_id":"0.0-4.0-0.33","subject_id":"60567a5e7a6b1eb82eaf3fa5","study_id":"6197b3f67c2b5cd3b6d9596a","session_id":"6197b9eeb968f774b3c7c4cd","condition":"full-information","relevant_dimensions":["wings","legs"],"bee_group":{"antennae":"X","wings":"1","pattern":"X","legs":"M"},"action":"harvest","summary":"good-harvest","bonus":0.5800000000000007},{"rt":803,"stimulus":"\n                    <p><b>Action: <em>harvest</em></b></p>\n                    <p>This is the bee that you just saw.</p>\n                    <img src=\"bees-with-color/bee-A2SM.svg\" width=\"200\">\n                    <p><span class=\"greenText\"><b>Successful harvest!</b></span><br>Your pay has increased by $0.02. Your bonus pay is now $0.62.</p>\n            ","response":0,"trial_type":"html-button-response","trial_index":74,"time_elapsed":338065,"internal_node_id":"0.0-4.0-1.33","subject_id":"60567a5e7a6b1eb82eaf3fa5","study_id":"6197b3f67c2b5cd3b6d9596a","session_id":"6197b9eeb968f774b3c7c4cd","condition":"full-information","relevant_dimensions":["wings","legs"],"bee_group":{"antennae":"X","wings":"1","pattern":"X","legs":"M"},"bonus":0.5800000000000007},{"rt":1522,"stimulus":"bees-with-color/bee-A1DM.svg","response":1,"trial_type":"image-button-response","trial_index":75,"time_elapsed":339588,"internal_node_id":"0.0-4.0-0.34","subject_id":"60567a5e7a6b1eb82eaf3fa5","study_id":"6197b3f67c2b5cd3b6d9596a","session_id":"6197b9eeb968f774b3c7c4cd","condition":"full-information","relevant_dimensions":["wings","legs"],"bee_group":{"antennae":"X","wings":"1","pattern":"X","legs":"M"},"action":"avoid","summary":"good-avoid","bonus":0.5800000000000007},{"rt":933,"stimulus":"\n                    <p><b>Action: <em>avoid</em></b></p>\n                    <p>This is the bee that you just saw.</p>\n                    <img src=\"bees-with-color/bee-A1DM.svg\" width=\"200\">\n                    <p><span class=\"greenText\">Good choice!</span>  This bee would have stung you.<br>Your bonus pay is unchanged, and remains at $0.62.</p>\n            ","response":0,"trial_type":"html-button-response","trial_index":76,"time_elapsed":340522,"internal_node_id":"0.0-4.0-1.34","subject_id":"60567a5e7a6b1eb82eaf3fa5","study_id":"6197b3f67c2b5cd3b6d9596a","session_id":"6197b9eeb968f774b3c7c4cd","condition":"full-information","relevant_dimensions":["wings","legs"],"bee_group":{"antennae":"X","wings":"1","pattern":"X","legs":"M"},"bonus":0.5800000000000007},{"rt":2534,"stimulus":"bees-with-color/bee-B2SM.svg","response":0,"trial_type":"image-button-response","trial_index":77,"time_elapsed":343058,"internal_node_id":"0.0-4.0-0.35","subject_id":"60567a5e7a6b1eb82eaf3fa5","study_id":"6197b3f67c2b5cd3b6d9596a","session_id":"6197b9eeb968f774b3c7c4cd","condition":"full-information","relevant_dimensions":["wings","legs"],"bee_group":{"antennae":"X","wings":"1","pattern":"X","legs":"M"},"action":"harvest","summary":"good-harvest","bonus":0.5800000000000007},{"rt":865,"stimulus":"\n                    <p><b>Action: <em>harvest</em></b></p>\n                    <p>This is the bee that you just saw.</p>\n                    <img src=\"bees-with-color/bee-B2SM.svg\" width=\"200\">\n                    <p><span class=\"greenText\"><b>Successful harvest!</b></span><br>Your pay has increased by $0.02. Your bonus pay is now $0.64.</p>\n            ","response":0,"trial_type":"html-button-response","trial_index":78,"time_elapsed":343922,"internal_node_id":"0.0-4.0-1.35","subject_id":"60567a5e7a6b1eb82eaf3fa5","study_id":"6197b3f67c2b5cd3b6d9596a","session_id":"6197b9eeb968f774b3c7c4cd","condition":"full-information","relevant_dimensions":["wings","legs"],"bee_group":{"antennae":"X","wings":"1","pattern":"X","legs":"M"},"bonus":0.5800000000000007},{"rt":4820,"stimulus":"bees-with-color/bee-A2SF.svg","response":1,"trial_type":"image-button-response","trial_index":79,"time_elapsed":348743,"internal_node_id":"0.0-4.0-0.36","subject_id":"60567a5e7a6b1eb82eaf3fa5","study_id":"6197b3f67c2b5cd3b6d9596a","session_id":"6197b9eeb968f774b3c7c4cd","condition":"full-information","relevant_dimensions":["wings","legs"],"bee_group":{"antennae":"X","wings":"1","pattern":"X","legs":"M"},"action":"avoid","summary":"bad-avoid","bonus":0.5800000000000007},{"rt":1067,"stimulus":"\n                    <p><b>Action: <em>avoid</em></b></p>\n                    <p>This is the bee that you just saw.</p>\n                    <img src=\"bees-with-color/bee-A2SF.svg\" width=\"200\">\n                    <p><span class=\"redText\">Bad choice,</span> the bee was friendly.<br>Your bonus pay is unchanged, and remains at $0.64.</p>\n            ","response":0,"trial_type":"html-button-response","trial_index":80,"time_elapsed":349811,"internal_node_id":"0.0-4.0-1.36","subject_id":"60567a5e7a6b1eb82eaf3fa5","study_id":"6197b3f67c2b5cd3b6d9596a","session_id":"6197b9eeb968f774b3c7c4cd","condition":"full-information","relevant_dimensions":["wings","legs"],"bee_group":{"antennae":"X","wings":"1","pattern":"X","legs":"M"},"bonus":0.5800000000000007},{"rt":1289,"stimulus":"bees-with-color/bee-B2SF.svg","response":1,"trial_type":"image-button-response","trial_index":81,"time_elapsed":351102,"internal_node_id":"0.0-4.0-0.37","subject_id":"60567a5e7a6b1eb82eaf3fa5","study_id":"6197b3f67c2b5cd3b6d9596a","session_id":"6197b9eeb968f774b3c7c4cd","condition":"full-information","relevant_dimensions":["wings","legs"],"bee_group":{"antennae":"X","wings":"1","pattern":"X","legs":"M"},"action":"avoid","summary":"bad-avoid","bonus":0.5800000000000007},{"rt":686,"stimulus":"\n                    <p><b>Action: <em>avoid</em></b></p>\n                    <p>This is the bee that you just saw.</p>\n                    <img src=\"bees-with-color/bee-B2SF.svg\" width=\"200\">\n                    <p><span class=\"redText\">Bad choice,</span> the bee was friendly.<br>Your bonus pay is unchanged, and remains at $0.64.</p>\n            ","response":0,"trial_type":"html-button-response","trial_index":82,"time_elapsed":351788,"internal_node_id":"0.0-4.0-1.37","subject_id":"60567a5e7a6b1eb82eaf3fa5","study_id":"6197b3f67c2b5cd3b6d9596a","session_id":"6197b9eeb968f774b3c7c4cd","condition":"full-information","relevant_dimensions":["wings","legs"],"bee_group":{"antennae":"X","wings":"1","pattern":"X","legs":"M"},"bonus":0.5800000000000007},{"rt":1724,"stimulus":"bees-with-color/bee-A2DM.svg","response":0,"trial_type":"image-button-response","trial_index":83,"time_elapsed":353514,"internal_node_id":"0.0-4.0-0.38","subject_id":"60567a5e7a6b1eb82eaf3fa5","study_id":"6197b3f67c2b5cd3b6d9596a","session_id":"6197b9eeb968f774b3c7c4cd","condition":"full-information","relevant_dimensions":["wings","legs"],"bee_group":{"antennae":"X","wings":"1","pattern":"X","legs":"M"},"action":"harvest","summary":"good-harvest","bonus":0.5800000000000007},{"rt":785,"stimulus":"\n                    <p><b>Action: <em>harvest</em></b></p>\n                    <p>This is the bee that you just saw.</p>\n                    <img src=\"bees-with-color/bee-A2DM.svg\" width=\"200\">\n                    <p><span class=\"greenText\"><b>Successful harvest!</b></span><br>Your pay has increased by $0.02. Your bonus pay is now $0.66.</p>\n            ","response":0,"trial_type":"html-button-response","trial_index":84,"time_elapsed":354298,"internal_node_id":"0.0-4.0-1.38","subject_id":"60567a5e7a6b1eb82eaf3fa5","study_id":"6197b3f67c2b5cd3b6d9596a","session_id":"6197b9eeb968f774b3c7c4cd","condition":"full-information","relevant_dimensions":["wings","legs"],"bee_group":{"antennae":"X","wings":"1","pattern":"X","legs":"M"},"bonus":0.5800000000000007},{"rt":2755,"stimulus":"bees-with-color/bee-B1DM.svg","response":1,"trial_type":"image-button-response","trial_index":85,"time_elapsed":357055,"internal_node_id":"0.0-4.0-0.39","subject_id":"60567a5e7a6b1eb82eaf3fa5","study_id":"6197b3f67c2b5cd3b6d9596a","session_id":"6197b9eeb968f774b3c7c4cd","condition":"full-information","relevant_dimensions":["wings","legs"],"bee_group":{"antennae":"X","wings":"1","pattern":"X","legs":"M"},"action":"avoid","summary":"good-avoid","bonus":0.5800000000000007},{"rt":891,"stimulus":"\n                    <p><b>Action: <em>avoid</em></b></p>\n                    <p>This is the bee that you just saw.</p>\n                    <img src=\"bees-with-color/bee-B1DM.svg\" width=\"200\">\n                    <p><span class=\"greenText\">Good choice!</span>  This bee would have stung you.<br>Your bonus pay is unchanged, and remains at $0.66.</p>\n            ","response":0,"trial_type":"html-button-response","trial_index":86,"time_elapsed":357946,"internal_node_id":"0.0-4.0-1.39","subject_id":"60567a5e7a6b1eb82eaf3fa5","study_id":"6197b3f67c2b5cd3b6d9596a","session_id":"6197b9eeb968f774b3c7c4cd","condition":"full-information","relevant_dimensions":["wings","legs"],"bee_group":{"antennae":"X","wings":"1","pattern":"X","legs":"M"},"bonus":0.5800000000000007},{"rt":1209,"stimulus":"bees-with-color/bee-B1SF.svg","response":1,"trial_type":"image-button-response","trial_index":87,"time_elapsed":359155,"internal_node_id":"0.0-4.0-0.40","subject_id":"60567a5e7a6b1eb82eaf3fa5","study_id":"6197b3f67c2b5cd3b6d9596a","session_id":"6197b9eeb968f774b3c7c4cd","condition":"full-information","relevant_dimensions":["wings","legs"],"bee_group":{"antennae":"X","wings":"1","pattern":"X","legs":"M"},"action":"avoid","summary":"bad-avoid","bonus":0.5800000000000007},{"rt":803,"stimulus":"\n                    <p><b>Action: <em>avoid</em></b></p>\n                    <p>This is the bee that you just saw.</p>\n                    <img src=\"bees-with-color/bee-B1SF.svg\" width=\"200\">\n                    <p><span class=\"redText\">Bad choice,</span> the bee was friendly.<br>Your bonus pay is unchanged, and remains at $0.66.</p>\n            ","response":0,"trial_type":"html-button-response","trial_index":88,"time_elapsed":359959,"internal_node_id":"0.0-4.0-1.40","subject_id":"60567a5e7a6b1eb82eaf3fa5","study_id":"6197b3f67c2b5cd3b6d9596a","session_id":"6197b9eeb968f774b3c7c4cd","condition":"full-information","relevant_dimensions":["wings","legs"],"bee_group":{"antennae":"X","wings":"1","pattern":"X","legs":"M"},"bonus":0.5800000000000007},{"rt":1437,"stimulus":"bees-with-color/bee-A2DF.svg","response":0,"trial_type":"image-button-response","trial_index":89,"time_elapsed":361396,"internal_node_id":"0.0-4.0-0.41","subject_id":"60567a5e7a6b1eb82eaf3fa5","study_id":"6197b3f67c2b5cd3b6d9596a","session_id":"6197b9eeb968f774b3c7c4cd","condition":"full-information","relevant_dimensions":["wings","legs"],"bee_group":{"antennae":"X","wings":"1","pattern":"X","legs":"M"},"action":"harvest","summary":"good-harvest","bonus":0.5800000000000007},{"rt":676,"stimulus":"\n                    <p><b>Action: <em>harvest</em></b></p>\n                    <p>This is the bee that you just saw.</p>\n                    <img src=\"bees-with-color/bee-A2DF.svg\" width=\"200\">\n                    <p><span class=\"greenText\"><b>Successful harvest!</b></span><br>Your pay has increased by $0.02. Your bonus pay is now $0.68.</p>\n            ","response":0,"trial_type":"html-button-response","trial_index":90,"time_elapsed":362074,"internal_node_id":"0.0-4.0-1.41","subject_id":"60567a5e7a6b1eb82eaf3fa5","study_id":"6197b3f67c2b5cd3b6d9596a","session_id":"6197b9eeb968f774b3c7c4cd","condition":"full-information","relevant_dimensions":["wings","legs"],"bee_group":{"antennae":"X","wings":"1","pattern":"X","legs":"M"},"bonus":0.5800000000000007},{"rt":2154,"stimulus":"bees-with-color/bee-B1SM.svg","response":1,"trial_type":"image-button-response","trial_index":91,"time_elapsed":364229,"internal_node_id":"0.0-4.0-0.42","subject_id":"60567a5e7a6b1eb82eaf3fa5","study_id":"6197b3f67c2b5cd3b6d9596a","session_id":"6197b9eeb968f774b3c7c4cd","condition":"full-information","relevant_dimensions":["wings","legs"],"bee_group":{"antennae":"X","wings":"1","pattern":"X","legs":"M"},"action":"avoid","summary":"good-avoid","bonus":0.5800000000000007},{"rt":1213,"stimulus":"\n                    <p><b>Action: <em>avoid</em></b></p>\n                    <p>This is the bee that you just saw.</p>\n                    <img src=\"bees-with-color/bee-B1SM.svg\" width=\"200\">\n                    <p><span class=\"greenText\">Good choice!</span>  This bee would have stung you.<br>Your bonus pay is unchanged, and remains at $0.68.</p>\n            ","response":0,"trial_type":"html-button-response","trial_index":92,"time_elapsed":365443,"internal_node_id":"0.0-4.0-1.42","subject_id":"60567a5e7a6b1eb82eaf3fa5","study_id":"6197b3f67c2b5cd3b6d9596a","session_id":"6197b9eeb968f774b3c7c4cd","condition":"full-information","relevant_dimensions":["wings","legs"],"bee_group":{"antennae":"X","wings":"1","pattern":"X","legs":"M"},"bonus":0.5800000000000007},{"rt":2108,"stimulus":"bees-with-color/bee-B2DM.svg","response":0,"trial_type":"image-button-response","trial_index":93,"time_elapsed":367551,"internal_node_id":"0.0-4.0-0.43","subject_id":"60567a5e7a6b1eb82eaf3fa5","study_id":"6197b3f67c2b5cd3b6d9596a","session_id":"6197b9eeb968f774b3c7c4cd","condition":"full-information","relevant_dimensions":["wings","legs"],"bee_group":{"antennae":"X","wings":"1","pattern":"X","legs":"M"},"action":"harvest","summary":"good-harvest","bonus":0.5800000000000007},{"rt":733,"stimulus":"\n                    <p><b>Action: <em>harvest</em></b></p>\n                    <p>This is the bee that you just saw.</p>\n                    <img src=\"bees-with-color/bee-B2DM.svg\" width=\"200\">\n                    <p><span class=\"greenText\"><b>Successful harvest!</b></span><br>Your pay has increased by $0.02. Your bonus pay is now $0.70.</p>\n            ","response":0,"trial_type":"html-button-response","trial_index":94,"time_elapsed":368283,"internal_node_id":"0.0-4.0-1.43","subject_id":"60567a5e7a6b1eb82eaf3fa5","study_id":"6197b3f67c2b5cd3b6d9596a","session_id":"6197b9eeb968f774b3c7c4cd","condition":"full-information","relevant_dimensions":["wings","legs"],"bee_group":{"antennae":"X","wings":"1","pattern":"X","legs":"M"},"bonus":0.5800000000000007},{"rt":1461,"stimulus":"bees-with-color/bee-B2DF.svg","response":1,"trial_type":"image-button-response","trial_index":95,"time_elapsed":369745,"internal_node_id":"0.0-4.0-0.44","subject_id":"60567a5e7a6b1eb82eaf3fa5","study_id":"6197b3f67c2b5cd3b6d9596a","session_id":"6197b9eeb968f774b3c7c4cd","condition":"full-information","relevant_dimensions":["wings","legs"],"bee_group":{"antennae":"X","wings":"1","pattern":"X","legs":"M"},"action":"avoid","summary":"bad-avoid","bonus":0.5800000000000007},{"rt":1982,"stimulus":"\n                    <p><b>Action: <em>avoid</em></b></p>\n                    <p>This is the bee that you just saw.</p>\n                    <img src=\"bees-with-color/bee-B2DF.svg\" width=\"200\">\n                    <p><span class=\"redText\">Bad choice,</span> the bee was friendly.<br>Your bonus pay is unchanged, and remains at $0.70.</p>\n            ","response":0,"trial_type":"html-button-response","trial_index":96,"time_elapsed":371728,"internal_node_id":"0.0-4.0-1.44","subject_id":"60567a5e7a6b1eb82eaf3fa5","study_id":"6197b3f67c2b5cd3b6d9596a","session_id":"6197b9eeb968f774b3c7c4cd","condition":"full-information","relevant_dimensions":["wings","legs"],"bee_group":{"antennae":"X","wings":"1","pattern":"X","legs":"M"},"bonus":0.5800000000000007},{"rt":1173,"stimulus":"bees-with-color/bee-A1DF.svg","response":1,"trial_type":"image-button-response","trial_index":97,"time_elapsed":372902,"internal_node_id":"0.0-4.0-0.45","subject_id":"60567a5e7a6b1eb82eaf3fa5","study_id":"6197b3f67c2b5cd3b6d9596a","session_id":"6197b9eeb968f774b3c7c4cd","condition":"full-information","relevant_dimensions":["wings","legs"],"bee_group":{"antennae":"X","wings":"1","pattern":"X","legs":"M"},"action":"avoid","summary":"bad-avoid","bonus":0.5800000000000007},{"rt":633,"stimulus":"\n                    <p><b>Action: <em>avoid</em></b></p>\n                    <p>This is the bee that you just saw.</p>\n                    <img src=\"bees-with-color/bee-A1DF.svg\" width=\"200\">\n                    <p><span class=\"redText\">Bad choice,</span> the bee was friendly.<br>Your bonus pay is unchanged, and remains at $0.70.</p>\n            ","response":0,"trial_type":"html-button-response","trial_index":98,"time_elapsed":373535,"internal_node_id":"0.0-4.0-1.45","subject_id":"60567a5e7a6b1eb82eaf3fa5","study_id":"6197b3f67c2b5cd3b6d9596a","session_id":"6197b9eeb968f774b3c7c4cd","condition":"full-information","relevant_dimensions":["wings","legs"],"bee_group":{"antennae":"X","wings":"1","pattern":"X","legs":"M"},"bonus":0.5800000000000007},{"rt":943,"stimulus":"bees-with-color/bee-A1SM.svg","response":1,"trial_type":"image-button-response","trial_index":99,"time_elapsed":374479,"internal_node_id":"0.0-4.0-0.46","subject_id":"60567a5e7a6b1eb82eaf3fa5","study_id":"6197b3f67c2b5cd3b6d9596a","session_id":"6197b9eeb968f774b3c7c4cd","condition":"full-information","relevant_dimensions":["wings","legs"],"bee_group":{"antennae":"X","wings":"1","pattern":"X","legs":"M"},"action":"avoid","summary":"good-avoid","bonus":0.5800000000000007},{"rt":649,"stimulus":"\n                    <p><b>Action: <em>avoid</em></b></p>\n                    <p>This is the bee that you just saw.</p>\n                    <img src=\"bees-with-color/bee-A1SM.svg\" width=\"200\">\n                    <p><span class=\"greenText\">Good choice!</span>  This bee would have stung you.<br>Your bonus pay is unchanged, and remains at $0.70.</p>\n            ","response":0,"trial_type":"html-button-response","trial_index":100,"time_elapsed":375128,"internal_node_id":"0.0-4.0-1.46","subject_id":"60567a5e7a6b1eb82eaf3fa5","study_id":"6197b3f67c2b5cd3b6d9596a","session_id":"6197b9eeb968f774b3c7c4cd","condition":"full-information","relevant_dimensions":["wings","legs"],"bee_group":{"antennae":"X","wings":"1","pattern":"X","legs":"M"},"bonus":0.5800000000000007},{"rt":1472,"stimulus":"bees-with-color/bee-A1SF.svg","response":0,"trial_type":"image-button-response","trial_index":101,"time_elapsed":376600,"internal_node_id":"0.0-4.0-0.47","subject_id":"60567a5e7a6b1eb82eaf3fa5","study_id":"6197b3f67c2b5cd3b6d9596a","session_id":"6197b9eeb968f774b3c7c4cd","condition":"full-information","relevant_dimensions":["wings","legs"],"bee_group":{"antennae":"X","wings":"1","pattern":"X","legs":"M"},"action":"harvest","summary":"good-harvest","bonus":0.5800000000000007},{"rt":641,"stimulus":"\n                    <p><b>Action: <em>harvest</em></b></p>\n                    <p>This is the bee that you just saw.</p>\n                    <img src=\"bees-with-color/bee-A1SF.svg\" width=\"200\">\n                    <p><span class=\"greenText\"><b>Successful harvest!</b></span><br>Your pay has increased by $0.02. Your bonus pay is now $0.72.</p>\n            ","response":0,"trial_type":"html-button-response","trial_index":102,"time_elapsed":377243,"internal_node_id":"0.0-4.0-1.47","subject_id":"60567a5e7a6b1eb82eaf3fa5","study_id":"6197b3f67c2b5cd3b6d9596a","session_id":"6197b9eeb968f774b3c7c4cd","condition":"full-information","relevant_dimensions":["wings","legs"],"bee_group":{"antennae":"X","wings":"1","pattern":"X","legs":"M"},"bonus":0.5800000000000007},{"rt":1221,"stimulus":"bees-with-color/bee-B2SF.svg","response":1,"trial_type":"image-button-response","trial_index":103,"time_elapsed":378464,"internal_node_id":"0.0-4.0-0.48","subject_id":"60567a5e7a6b1eb82eaf3fa5","study_id":"6197b3f67c2b5cd3b6d9596a","session_id":"6197b9eeb968f774b3c7c4cd","condition":"full-information","relevant_dimensions":["wings","legs"],"bee_group":{"antennae":"X","wings":"1","pattern":"X","legs":"M"},"action":"avoid","summary":"bad-avoid","bonus":0.5800000000000007},{"rt":622,"stimulus":"\n                    <p><b>Action: <em>avoid</em></b></p>\n                    <p>This is the bee that you just saw.</p>\n                    <img src=\"bees-with-color/bee-B2SF.svg\" width=\"200\">\n                    <p><span class=\"redText\">Bad choice,</span> the bee was friendly.<br>Your bonus pay is unchanged, and remains at $0.72.</p>\n            ","response":0,"trial_type":"html-button-response","trial_index":104,"time_elapsed":379086,"internal_node_id":"0.0-4.0-1.48","subject_id":"60567a5e7a6b1eb82eaf3fa5","study_id":"6197b3f67c2b5cd3b6d9596a","session_id":"6197b9eeb968f774b3c7c4cd","condition":"full-information","relevant_dimensions":["wings","legs"],"bee_group":{"antennae":"X","wings":"1","pattern":"X","legs":"M"},"bonus":0.5800000000000007},{"rt":1405,"stimulus":"bees-with-color/bee-B2DM.svg","response":1,"trial_type":"image-button-response","trial_index":105,"time_elapsed":380492,"internal_node_id":"0.0-4.0-0.49","subject_id":"60567a5e7a6b1eb82eaf3fa5","study_id":"6197b3f67c2b5cd3b6d9596a","session_id":"6197b9eeb968f774b3c7c4cd","condition":"full-information","relevant_dimensions":["wings","legs"],"bee_group":{"antennae":"X","wings":"1","pattern":"X","legs":"M"},"action":"avoid","summary":"bad-avoid","bonus":0.5800000000000007},{"rt":612,"stimulus":"\n                    <p><b>Action: <em>avoid</em></b></p>\n                    <p>This is the bee that you just saw.</p>\n                    <img src=\"bees-with-color/bee-B2DM.svg\" width=\"200\">\n                    <p><span class=\"redText\">Bad choice,</span> the bee was friendly.<br>Your bonus pay is unchanged, and remains at $0.72.</p>\n            ","response":0,"trial_type":"html-button-response","trial_index":106,"time_elapsed":381104,"internal_node_id":"0.0-4.0-1.49","subject_id":"60567a5e7a6b1eb82eaf3fa5","study_id":"6197b3f67c2b5cd3b6d9596a","session_id":"6197b9eeb968f774b3c7c4cd","condition":"full-information","relevant_dimensions":["wings","legs"],"bee_group":{"antennae":"X","wings":"1","pattern":"X","legs":"M"},"bonus":0.5800000000000007},{"rt":1397,"stimulus":"bees-with-color/bee-B1SM.svg","response":1,"trial_type":"image-button-response","trial_index":107,"time_elapsed":382503,"internal_node_id":"0.0-4.0-0.50","subject_id":"60567a5e7a6b1eb82eaf3fa5","study_id":"6197b3f67c2b5cd3b6d9596a","session_id":"6197b9eeb968f774b3c7c4cd","condition":"full-information","relevant_dimensions":["wings","legs"],"bee_group":{"antennae":"X","wings":"1","pattern":"X","legs":"M"},"action":"avoid","summary":"good-avoid","bonus":0.5800000000000007},{"rt":595,"stimulus":"\n                    <p><b>Action: <em>avoid</em></b></p>\n                    <p>This is the bee that you just saw.</p>\n                    <img src=\"bees-with-color/bee-B1SM.svg\" width=\"200\">\n                    <p><span class=\"greenText\">Good choice!</span>  This bee would have stung you.<br>Your bonus pay is unchanged, and remains at $0.72.</p>\n            ","response":0,"trial_type":"html-button-response","trial_index":108,"time_elapsed":383098,"internal_node_id":"0.0-4.0-1.50","subject_id":"60567a5e7a6b1eb82eaf3fa5","study_id":"6197b3f67c2b5cd3b6d9596a","session_id":"6197b9eeb968f774b3c7c4cd","condition":"full-information","relevant_dimensions":["wings","legs"],"bee_group":{"antennae":"X","wings":"1","pattern":"X","legs":"M"},"bonus":0.5800000000000007},{"rt":1573,"stimulus":"bees-with-color/bee-B2SM.svg","response":0,"trial_type":"image-button-response","trial_index":109,"time_elapsed":384671,"internal_node_id":"0.0-4.0-0.51","subject_id":"60567a5e7a6b1eb82eaf3fa5","study_id":"6197b3f67c2b5cd3b6d9596a","session_id":"6197b9eeb968f774b3c7c4cd","condition":"full-information","relevant_dimensions":["wings","legs"],"bee_group":{"antennae":"X","wings":"1","pattern":"X","legs":"M"},"action":"harvest","summary":"good-harvest","bonus":0.5800000000000007},{"rt":567,"stimulus":"\n                    <p><b>Action: <em>harvest</em></b></p>\n                    <p>This is the bee that you just saw.</p>\n                    <img src=\"bees-with-color/bee-B2SM.svg\" width=\"200\">\n                    <p><span class=\"greenText\"><b>Successful harvest!</b></span><br>Your pay has increased by $0.02. Your bonus pay is now $0.74.</p>\n            ","response":0,"trial_type":"html-button-response","trial_index":110,"time_elapsed":385239,"internal_node_id":"0.0-4.0-1.51","subject_id":"60567a5e7a6b1eb82eaf3fa5","study_id":"6197b3f67c2b5cd3b6d9596a","session_id":"6197b9eeb968f774b3c7c4cd","condition":"full-information","relevant_dimensions":["wings","legs"],"bee_group":{"antennae":"X","wings":"1","pattern":"X","legs":"M"},"bonus":0.5800000000000007},{"rt":2270,"stimulus":"bees-with-color/bee-B2DF.svg","response":1,"trial_type":"image-button-response","trial_index":111,"time_elapsed":387509,"internal_node_id":"0.0-4.0-0.52","subject_id":"60567a5e7a6b1eb82eaf3fa5","study_id":"6197b3f67c2b5cd3b6d9596a","session_id":"6197b9eeb968f774b3c7c4cd","condition":"full-information","relevant_dimensions":["wings","legs"],"bee_group":{"antennae":"X","wings":"1","pattern":"X","legs":"M"},"action":"avoid","summary":"bad-avoid","bonus":0.5800000000000007},{"rt":574,"stimulus":"\n                    <p><b>Action: <em>avoid</em></b></p>\n                    <p>This is the bee that you just saw.</p>\n                    <img src=\"bees-with-color/bee-B2DF.svg\" width=\"200\">\n                    <p><span class=\"redText\">Bad choice,</span> the bee was friendly.<br>Your bonus pay is unchanged, and remains at $0.74.</p>\n            ","response":0,"trial_type":"html-button-response","trial_index":112,"time_elapsed":388083,"internal_node_id":"0.0-4.0-1.52","subject_id":"60567a5e7a6b1eb82eaf3fa5","study_id":"6197b3f67c2b5cd3b6d9596a","session_id":"6197b9eeb968f774b3c7c4cd","condition":"full-information","relevant_dimensions":["wings","legs"],"bee_group":{"antennae":"X","wings":"1","pattern":"X","legs":"M"},"bonus":0.5800000000000007},{"rt":1564,"stimulus":"bees-with-color/bee-A1DM.svg","response":1,"trial_type":"image-button-response","trial_index":113,"time_elapsed":389646,"internal_node_id":"0.0-4.0-0.53","subject_id":"60567a5e7a6b1eb82eaf3fa5","study_id":"6197b3f67c2b5cd3b6d9596a","session_id":"6197b9eeb968f774b3c7c4cd","condition":"full-information","relevant_dimensions":["wings","legs"],"bee_group":{"antennae":"X","wings":"1","pattern":"X","legs":"M"},"action":"avoid","summary":"good-avoid","bonus":0.5800000000000007},{"rt":568,"stimulus":"\n                    <p><b>Action: <em>avoid</em></b></p>\n                    <p>This is the bee that you just saw.</p>\n                    <img src=\"bees-with-color/bee-A1DM.svg\" width=\"200\">\n                    <p><span class=\"greenText\">Good choice!</span>  This bee would have stung you.<br>Your bonus pay is unchanged, and remains at $0.74.</p>\n            ","response":0,"trial_type":"html-button-response","trial_index":114,"time_elapsed":390215,"internal_node_id":"0.0-4.0-1.53","subject_id":"60567a5e7a6b1eb82eaf3fa5","study_id":"6197b3f67c2b5cd3b6d9596a","session_id":"6197b9eeb968f774b3c7c4cd","condition":"full-information","relevant_dimensions":["wings","legs"],"bee_group":{"antennae":"X","wings":"1","pattern":"X","legs":"M"},"bonus":0.5800000000000007},{"rt":2884,"stimulus":"bees-with-color/bee-A1SF.svg","response":1,"trial_type":"image-button-response","trial_index":115,"time_elapsed":393100,"internal_node_id":"0.0-4.0-0.54","subject_id":"60567a5e7a6b1eb82eaf3fa5","study_id":"6197b3f67c2b5cd3b6d9596a","session_id":"6197b9eeb968f774b3c7c4cd","condition":"full-information","relevant_dimensions":["wings","legs"],"bee_group":{"antennae":"X","wings":"1","pattern":"X","legs":"M"},"action":"avoid","summary":"bad-avoid","bonus":0.5800000000000007},{"rt":605,"stimulus":"\n                    <p><b>Action: <em>avoid</em></b></p>\n                    <p>This is the bee that you just saw.</p>\n                    <img src=\"bees-with-color/bee-A1SF.svg\" width=\"200\">\n                    <p><span class=\"redText\">Bad choice,</span> the bee was friendly.<br>Your bonus pay is unchanged, and remains at $0.74.</p>\n            ","response":0,"trial_type":"html-button-response","trial_index":116,"time_elapsed":393704,"internal_node_id":"0.0-4.0-1.54","subject_id":"60567a5e7a6b1eb82eaf3fa5","study_id":"6197b3f67c2b5cd3b6d9596a","session_id":"6197b9eeb968f774b3c7c4cd","condition":"full-information","relevant_dimensions":["wings","legs"],"bee_group":{"antennae":"X","wings":"1","pattern":"X","legs":"M"},"bonus":0.5800000000000007},{"rt":2250,"stimulus":"bees-with-color/bee-B1SF.svg","response":0,"trial_type":"image-button-response","trial_index":117,"time_elapsed":395955,"internal_node_id":"0.0-4.0-0.55","subject_id":"60567a5e7a6b1eb82eaf3fa5","study_id":"6197b3f67c2b5cd3b6d9596a","session_id":"6197b9eeb968f774b3c7c4cd","condition":"full-information","relevant_dimensions":["wings","legs"],"bee_group":{"antennae":"X","wings":"1","pattern":"X","legs":"M"},"action":"harvest","summary":"good-harvest","bonus":0.5800000000000007},{"rt":652,"stimulus":"\n                    <p><b>Action: <em>harvest</em></b></p>\n                    <p>This is the bee that you just saw.</p>\n                    <img src=\"bees-with-color/bee-B1SF.svg\" width=\"200\">\n                    <p><span class=\"greenText\"><b>Successful harvest!</b></span><br>Your pay has increased by $0.02. Your bonus pay is now $0.76.</p>\n            ","response":0,"trial_type":"html-button-response","trial_index":118,"time_elapsed":396607,"internal_node_id":"0.0-4.0-1.55","subject_id":"60567a5e7a6b1eb82eaf3fa5","study_id":"6197b3f67c2b5cd3b6d9596a","session_id":"6197b9eeb968f774b3c7c4cd","condition":"full-information","relevant_dimensions":["wings","legs"],"bee_group":{"antennae":"X","wings":"1","pattern":"X","legs":"M"},"bonus":0.5800000000000007},{"rt":1155,"stimulus":"bees-with-color/bee-A2DF.svg","response":1,"trial_type":"image-button-response","trial_index":119,"time_elapsed":397762,"internal_node_id":"0.0-4.0-0.56","subject_id":"60567a5e7a6b1eb82eaf3fa5","study_id":"6197b3f67c2b5cd3b6d9596a","session_id":"6197b9eeb968f774b3c7c4cd","condition":"full-information","relevant_dimensions":["wings","legs"],"bee_group":{"antennae":"X","wings":"1","pattern":"X","legs":"M"},"action":"avoid","summary":"bad-avoid","bonus":0.5800000000000007},{"rt":713,"stimulus":"\n                    <p><b>Action: <em>avoid</em></b></p>\n                    <p>This is the bee that you just saw.</p>\n                    <img src=\"bees-with-color/bee-A2DF.svg\" width=\"200\">\n                    <p><span class=\"redText\">Bad choice,</span> the bee was friendly.<br>Your bonus pay is unchanged, and remains at $0.76.</p>\n            ","response":0,"trial_type":"html-button-response","trial_index":120,"time_elapsed":398476,"internal_node_id":"0.0-4.0-1.56","subject_id":"60567a5e7a6b1eb82eaf3fa5","study_id":"6197b3f67c2b5cd3b6d9596a","session_id":"6197b9eeb968f774b3c7c4cd","condition":"full-information","relevant_dimensions":["wings","legs"],"bee_group":{"antennae":"X","wings":"1","pattern":"X","legs":"M"},"bonus":0.5800000000000007},{"rt":1091,"stimulus":"bees-with-color/bee-B1DM.svg","response":1,"trial_type":"image-button-response","trial_index":121,"time_elapsed":399567,"internal_node_id":"0.0-4.0-0.57","subject_id":"60567a5e7a6b1eb82eaf3fa5","study_id":"6197b3f67c2b5cd3b6d9596a","session_id":"6197b9eeb968f774b3c7c4cd","condition":"full-information","relevant_dimensions":["wings","legs"],"bee_group":{"antennae":"X","wings":"1","pattern":"X","legs":"M"},"action":"avoid","summary":"good-avoid","bonus":0.5800000000000007},{"rt":503,"stimulus":"\n                    <p><b>Action: <em>avoid</em></b></p>\n                    <p>This is the bee that you just saw.</p>\n                    <img src=\"bees-with-color/bee-B1DM.svg\" width=\"200\">\n                    <p><span class=\"greenText\">Good choice!</span>  This bee would have stung you.<br>Your bonus pay is unchanged, and remains at $0.76.</p>\n            ","response":0,"trial_type":"html-button-response","trial_index":122,"time_elapsed":400072,"internal_node_id":"0.0-4.0-1.57","subject_id":"60567a5e7a6b1eb82eaf3fa5","study_id":"6197b3f67c2b5cd3b6d9596a","session_id":"6197b9eeb968f774b3c7c4cd","condition":"full-information","relevant_dimensions":["wings","legs"],"bee_group":{"antennae":"X","wings":"1","pattern":"X","legs":"M"},"bonus":0.5800000000000007},{"rt":1160,"stimulus":"bees-with-color/bee-A1DF.svg","response":0,"trial_type":"image-button-response","trial_index":123,"time_elapsed":401232,"internal_node_id":"0.0-4.0-0.58","subject_id":"60567a5e7a6b1eb82eaf3fa5","study_id":"6197b3f67c2b5cd3b6d9596a","session_id":"6197b9eeb968f774b3c7c4cd","condition":"full-information","relevant_dimensions":["wings","legs"],"bee_group":{"antennae":"X","wings":"1","pattern":"X","legs":"M"},"action":"harvest","summary":"good-harvest","bonus":0.5800000000000007},{"rt":1585,"stimulus":"\n                    <p><b>Action: <em>harvest</em></b></p>\n                    <p>This is the bee that you just saw.</p>\n                    <img src=\"bees-with-color/bee-A1DF.svg\" width=\"200\">\n                    <p><span class=\"greenText\"><b>Successful harvest!</b></span><br>Your pay has increased by $0.02. Your bonus pay is now $0.78.</p>\n            ","response":0,"trial_type":"html-button-response","trial_index":124,"time_elapsed":402819,"internal_node_id":"0.0-4.0-1.58","subject_id":"60567a5e7a6b1eb82eaf3fa5","study_id":"6197b3f67c2b5cd3b6d9596a","session_id":"6197b9eeb968f774b3c7c4cd","condition":"full-information","relevant_dimensions":["wings","legs"],"bee_group":{"antennae":"X","wings":"1","pattern":"X","legs":"M"},"bonus":0.5800000000000007},{"rt":2739,"stimulus":"bees-with-color/bee-A1SM.svg","response":1,"trial_type":"image-button-response","trial_index":125,"time_elapsed":405559,"internal_node_id":"0.0-4.0-0.59","subject_id":"60567a5e7a6b1eb82eaf3fa5","study_id":"6197b3f67c2b5cd3b6d9596a","session_id":"6197b9eeb968f774b3c7c4cd","condition":"full-information","relevant_dimensions":["wings","legs"],"bee_group":{"antennae":"X","wings":"1","pattern":"X","legs":"M"},"action":"avoid","summary":"good-avoid","bonus":0.5800000000000007},{"rt":1066,"stimulus":"\n                    <p><b>Action: <em>avoid</em></b></p>\n                    <p>This is the bee that you just saw.</p>\n                    <img src=\"bees-with-color/bee-A1SM.svg\" width=\"200\">\n                    <p><span class=\"greenText\">Good choice!</span>  This bee would have stung you.<br>Your bonus pay is unchanged, and remains at $0.78.</p>\n            ","response":0,"trial_type":"html-button-response","trial_index":126,"time_elapsed":406625,"internal_node_id":"0.0-4.0-1.59","subject_id":"60567a5e7a6b1eb82eaf3fa5","study_id":"6197b3f67c2b5cd3b6d9596a","session_id":"6197b9eeb968f774b3c7c4cd","condition":"full-information","relevant_dimensions":["wings","legs"],"bee_group":{"antennae":"X","wings":"1","pattern":"X","legs":"M"},"bonus":0.5800000000000007},{"rt":2230,"stimulus":"bees-with-color/bee-B1DF.svg","response":0,"trial_type":"image-button-response","trial_index":127,"time_elapsed":408855,"internal_node_id":"0.0-4.0-0.60","subject_id":"60567a5e7a6b1eb82eaf3fa5","study_id":"6197b3f67c2b5cd3b6d9596a","session_id":"6197b9eeb968f774b3c7c4cd","condition":"full-information","relevant_dimensions":["wings","legs"],"bee_group":{"antennae":"X","wings":"1","pattern":"X","legs":"M"},"action":"harvest","summary":"good-harvest","bonus":0.5800000000000007},{"rt":670,"stimulus":"\n                    <p><b>Action: <em>harvest</em></b></p>\n                    <p>This is the bee that you just saw.</p>\n                    <img src=\"bees-with-color/bee-B1DF.svg\" width=\"200\">\n                    <p><span class=\"greenText\"><b>Successful harvest!</b></span><br>Your pay has increased by $0.02. Your bonus pay is now $0.80.</p>\n            ","response":0,"trial_type":"html-button-response","trial_index":128,"time_elapsed":409526,"internal_node_id":"0.0-4.0-1.60","subject_id":"60567a5e7a6b1eb82eaf3fa5","study_id":"6197b3f67c2b5cd3b6d9596a","session_id":"6197b9eeb968f774b3c7c4cd","condition":"full-information","relevant_dimensions":["wings","legs"],"bee_group":{"antennae":"X","wings":"1","pattern":"X","legs":"M"},"bonus":0.5800000000000007},{"rt":2306,"stimulus":"bees-with-color/bee-A2DM.svg","response":1,"trial_type":"image-button-response","trial_index":129,"time_elapsed":411833,"internal_node_id":"0.0-4.0-0.61","subject_id":"60567a5e7a6b1eb82eaf3fa5","study_id":"6197b3f67c2b5cd3b6d9596a","session_id":"6197b9eeb968f774b3c7c4cd","condition":"full-information","relevant_dimensions":["wings","legs"],"bee_group":{"antennae":"X","wings":"1","pattern":"X","legs":"M"},"action":"avoid","summary":"bad-avoid","bonus":0.5800000000000007},{"rt":1152,"stimulus":"\n                    <p><b>Action: <em>avoid</em></b></p>\n                    <p>This is the bee that you just saw.</p>\n                    <img src=\"bees-with-color/bee-A2DM.svg\" width=\"200\">\n                    <p><span class=\"redText\">Bad choice,</span> the bee was friendly.<br>Your bonus pay is unchanged, and remains at $0.80.</p>\n            ","response":0,"trial_type":"html-button-response","trial_index":130,"time_elapsed":412985,"internal_node_id":"0.0-4.0-1.61","subject_id":"60567a5e7a6b1eb82eaf3fa5","study_id":"6197b3f67c2b5cd3b6d9596a","session_id":"6197b9eeb968f774b3c7c4cd","condition":"full-information","relevant_dimensions":["wings","legs"],"bee_group":{"antennae":"X","wings":"1","pattern":"X","legs":"M"},"bonus":0.5800000000000007},{"rt":1048,"stimulus":"bees-with-color/bee-A2SF.svg","response":1,"trial_type":"image-button-response","trial_index":131,"time_elapsed":414034,"internal_node_id":"0.0-4.0-0.62","subject_id":"60567a5e7a6b1eb82eaf3fa5","study_id":"6197b3f67c2b5cd3b6d9596a","session_id":"6197b9eeb968f774b3c7c4cd","condition":"full-information","relevant_dimensions":["wings","legs"],"bee_group":{"antennae":"X","wings":"1","pattern":"X","legs":"M"},"action":"avoid","summary":"bad-avoid","bonus":0.5800000000000007},{"rt":842,"stimulus":"\n                    <p><b>Action: <em>avoid</em></b></p>\n                    <p>This is the bee that you just saw.</p>\n                    <img src=\"bees-with-color/bee-A2SF.svg\" width=\"200\">\n                    <p><span class=\"redText\">Bad choice,</span> the bee was friendly.<br>Your bonus pay is unchanged, and remains at $0.80.</p>\n            ","response":0,"trial_type":"html-button-response","trial_index":132,"time_elapsed":414877,"internal_node_id":"0.0-4.0-1.62","subject_id":"60567a5e7a6b1eb82eaf3fa5","study_id":"6197b3f67c2b5cd3b6d9596a","session_id":"6197b9eeb968f774b3c7c4cd","condition":"full-information","relevant_dimensions":["wings","legs"],"bee_group":{"antennae":"X","wings":"1","pattern":"X","legs":"M"},"bonus":0.5800000000000007},{"rt":3158,"stimulus":"bees-with-color/bee-A2SM.svg","response":0,"trial_type":"image-button-response","trial_index":133,"time_elapsed":418034,"internal_node_id":"0.0-4.0-0.63","subject_id":"60567a5e7a6b1eb82eaf3fa5","study_id":"6197b3f67c2b5cd3b6d9596a","session_id":"6197b9eeb968f774b3c7c4cd","condition":"full-information","relevant_dimensions":["wings","legs"],"bee_group":{"antennae":"X","wings":"1","pattern":"X","legs":"M"},"action":"harvest","summary":"good-harvest","bonus":0.5800000000000007},{"rt":670,"stimulus":"\n                    <p><b>Action: <em>harvest</em></b></p>\n                    <p>This is the bee that you just saw.</p>\n                    <img src=\"bees-with-color/bee-A2SM.svg\" width=\"200\">\n                    <p><span class=\"greenText\"><b>Successful harvest!</b></span><br>Your pay has increased by $0.02. Your bonus pay is now $0.82.</p>\n            ","response":0,"trial_type":"html-button-response","trial_index":134,"time_elapsed":418706,"internal_node_id":"0.0-4.0-1.63","subject_id":"60567a5e7a6b1eb82eaf3fa5","study_id":"6197b3f67c2b5cd3b6d9596a","session_id":"6197b9eeb968f774b3c7c4cd","condition":"full-information","relevant_dimensions":["wings","legs"],"bee_group":{"antennae":"X","wings":"1","pattern":"X","legs":"M"},"bonus":0.5800000000000007},{"rt":2620,"stimulus":"You have completed the first part of this experiment.<br><br>You will now begin a shorter second part, in which you will receive no feedback.<br>The same rules regarding bonus pay apply.<br><br>Press any key to begin.","response":" ","trial_type":"html-keyboard-response","trial_index":135,"time_elapsed":421326,"internal_node_id":"0.0-5.0","subject_id":"60567a5e7a6b1eb82eaf3fa5","study_id":"6197b3f67c2b5cd3b6d9596a","session_id":"6197b9eeb968f774b3c7c4cd","condition":"full-information","relevant_dimensions":["wings","legs"],"bee_group":{"antennae":"X","wings":"1","pattern":"X","legs":"M"},"bonus":0.5800000000000007},{"rt":3372,"stimulus":"bees-with-color/bee-B1DF.svg","response":1,"trial_type":"image-button-response","trial_index":136,"time_elapsed":424699,"internal_node_id":"0.0-6.0-0.0","subject_id":"60567a5e7a6b1eb82eaf3fa5","study_id":"6197b3f67c2b5cd3b6d9596a","session_id":"6197b9eeb968f774b3c7c4cd","condition":"full-information","relevant_dimensions":["wings","legs"],"bee_group":{"antennae":"X","wings":"1","pattern":"X","legs":"M"},"bonus":0.5800000000000007},{"rt":1268,"stimulus":"bees-with-color/bee-A2DM.svg","response":1,"trial_type":"image-button-response","trial_index":137,"time_elapsed":425967,"internal_node_id":"0.0-6.0-0.1","subject_id":"60567a5e7a6b1eb82eaf3fa5","study_id":"6197b3f67c2b5cd3b6d9596a","session_id":"6197b9eeb968f774b3c7c4cd","condition":"full-information","relevant_dimensions":["wings","legs"],"bee_group":{"antennae":"X","wings":"1","pattern":"X","legs":"M"},"bonus":0.5800000000000007},{"rt":611,"stimulus":"bees-with-color/bee-A1SM.svg","response":0,"trial_type":"image-button-response","trial_index":138,"time_elapsed":426578,"internal_node_id":"0.0-6.0-0.2","subject_id":"60567a5e7a6b1eb82eaf3fa5","study_id":"6197b3f67c2b5cd3b6d9596a","session_id":"6197b9eeb968f774b3c7c4cd","condition":"full-information","relevant_dimensions":["wings","legs"],"bee_group":{"antennae":"X","wings":"1","pattern":"X","legs":"M"},"bonus":0.5800000000000007},{"rt":4145,"stimulus":"bees-with-color/bee-A2SM.svg","response":0,"trial_type":"image-button-response","trial_index":139,"time_elapsed":430724,"internal_node_id":"0.0-6.0-0.3","subject_id":"60567a5e7a6b1eb82eaf3fa5","study_id":"6197b3f67c2b5cd3b6d9596a","session_id":"6197b9eeb968f774b3c7c4cd","condition":"full-information","relevant_dimensions":["wings","legs"],"bee_group":{"antennae":"X","wings":"1","pattern":"X","legs":"M"},"bonus":0.5800000000000007},{"rt":1052,"stimulus":"bees-with-color/bee-A1DF.svg","response":1,"trial_type":"image-button-response","trial_index":140,"time_elapsed":431777,"internal_node_id":"0.0-6.0-0.4","subject_id":"60567a5e7a6b1eb82eaf3fa5","study_id":"6197b3f67c2b5cd3b6d9596a","session_id":"6197b9eeb968f774b3c7c4cd","condition":"full-information","relevant_dimensions":["wings","legs"],"bee_group":{"antennae":"X","wings":"1","pattern":"X","legs":"M"},"bonus":0.5800000000000007},{"rt":1600,"stimulus":"bees-with-color/bee-B2DF.svg","response":0,"trial_type":"image-button-response","trial_index":141,"time_elapsed":433378,"internal_node_id":"0.0-6.0-0.5","subject_id":"60567a5e7a6b1eb82eaf3fa5","study_id":"6197b3f67c2b5cd3b6d9596a","session_id":"6197b9eeb968f774b3c7c4cd","condition":"full-information","relevant_dimensions":["wings","legs"],"bee_group":{"antennae":"X","wings":"1","pattern":"X","legs":"M"},"bonus":0.5800000000000007},{"rt":548,"stimulus":"bees-with-color/bee-B1SM.svg","response":0,"trial_type":"image-button-response","trial_index":142,"time_elapsed":433927,"internal_node_id":"0.0-6.0-0.6","subject_id":"60567a5e7a6b1eb82eaf3fa5","study_id":"6197b3f67c2b5cd3b6d9596a","session_id":"6197b9eeb968f774b3c7c4cd","condition":"full-information","relevant_dimensions":["wings","legs"],"bee_group":{"antennae":"X","wings":"1","pattern":"X","legs":"M"},"bonus":0.5800000000000007},{"rt":598,"stimulus":"bees-with-color/bee-B2DM.svg","response":1,"trial_type":"image-button-response","trial_index":143,"time_elapsed":434525,"internal_node_id":"0.0-6.0-0.7","subject_id":"60567a5e7a6b1eb82eaf3fa5","study_id":"6197b3f67c2b5cd3b6d9596a","session_id":"6197b9eeb968f774b3c7c4cd","condition":"full-information","relevant_dimensions":["wings","legs"],"bee_group":{"antennae":"X","wings":"1","pattern":"X","legs":"M"},"bonus":0.5800000000000007},{"rt":1071,"stimulus":"bees-with-color/bee-A1SF.svg","response":0,"trial_type":"image-button-response","trial_index":144,"time_elapsed":435598,"internal_node_id":"0.0-6.0-0.8","subject_id":"60567a5e7a6b1eb82eaf3fa5","study_id":"6197b3f67c2b5cd3b6d9596a","session_id":"6197b9eeb968f774b3c7c4cd","condition":"full-information","relevant_dimensions":["wings","legs"],"bee_group":{"antennae":"X","wings":"1","pattern":"X","legs":"M"},"bonus":0.5800000000000007},{"rt":358,"stimulus":"bees-with-color/bee-B1DM.svg","response":1,"trial_type":"image-button-response","trial_index":145,"time_elapsed":435955,"internal_node_id":"0.0-6.0-0.9","subject_id":"60567a5e7a6b1eb82eaf3fa5","study_id":"6197b3f67c2b5cd3b6d9596a","session_id":"6197b9eeb968f774b3c7c4cd","condition":"full-information","relevant_dimensions":["wings","legs"],"bee_group":{"antennae":"X","wings":"1","pattern":"X","legs":"M"},"bonus":0.5800000000000007},{"rt":686,"stimulus":"bees-with-color/bee-A2SF.svg","response":0,"trial_type":"image-button-response","trial_index":146,"time_elapsed":436642,"internal_node_id":"0.0-6.0-0.10","subject_id":"60567a5e7a6b1eb82eaf3fa5","study_id":"6197b3f67c2b5cd3b6d9596a","session_id":"6197b9eeb968f774b3c7c4cd","condition":"full-information","relevant_dimensions":["wings","legs"],"bee_group":{"antennae":"X","wings":"1","pattern":"X","legs":"M"},"bonus":0.5800000000000007},{"rt":751,"stimulus":"bees-with-color/bee-B2SF.svg","response":1,"trial_type":"image-button-response","trial_index":147,"time_elapsed":437393,"internal_node_id":"0.0-6.0-0.11","subject_id":"60567a5e7a6b1eb82eaf3fa5","study_id":"6197b3f67c2b5cd3b6d9596a","session_id":"6197b9eeb968f774b3c7c4cd","condition":"full-information","relevant_dimensions":["wings","legs"],"bee_group":{"antennae":"X","wings":"1","pattern":"X","legs":"M"},"bonus":0.5800000000000007},{"rt":554,"stimulus":"bees-with-color/bee-B2SM.svg","response":0,"trial_type":"image-button-response","trial_index":148,"time_elapsed":437948,"internal_node_id":"0.0-6.0-0.12","subject_id":"60567a5e7a6b1eb82eaf3fa5","study_id":"6197b3f67c2b5cd3b6d9596a","session_id":"6197b9eeb968f774b3c7c4cd","condition":"full-information","relevant_dimensions":["wings","legs"],"bee_group":{"antennae":"X","wings":"1","pattern":"X","legs":"M"},"bonus":0.5800000000000007},{"rt":330,"stimulus":"bees-with-color/bee-B1SF.svg","response":1,"trial_type":"image-button-response","trial_index":149,"time_elapsed":438279,"internal_node_id":"0.0-6.0-0.13","subject_id":"60567a5e7a6b1eb82eaf3fa5","study_id":"6197b3f67c2b5cd3b6d9596a","session_id":"6197b9eeb968f774b3c7c4cd","condition":"full-information","relevant_dimensions":["wings","legs"],"bee_group":{"antennae":"X","wings":"1","pattern":"X","legs":"M"},"bonus":0.5800000000000007},{"rt":559,"stimulus":"bees-with-color/bee-A2DF.svg","response":1,"trial_type":"image-button-response","trial_index":150,"time_elapsed":438839,"internal_node_id":"0.0-6.0-0.14","subject_id":"60567a5e7a6b1eb82eaf3fa5","study_id":"6197b3f67c2b5cd3b6d9596a","session_id":"6197b9eeb968f774b3c7c4cd","condition":"full-information","relevant_dimensions":["wings","legs"],"bee_group":{"antennae":"X","wings":"1","pattern":"X","legs":"M"},"bonus":0.5800000000000007},{"rt":1087,"stimulus":"bees-with-color/bee-A1DM.svg","response":0,"trial_type":"image-button-response","trial_index":151,"time_elapsed":439924,"internal_node_id":"0.0-6.0-0.15","subject_id":"60567a5e7a6b1eb82eaf3fa5","study_id":"6197b3f67c2b5cd3b6d9596a","session_id":"6197b9eeb968f774b3c7c4cd","condition":"full-information","relevant_dimensions":["wings","legs"],"bee_group":{"antennae":"X","wings":"1","pattern":"X","legs":"M"},"bonus":0.5800000000000007},{"rt":277,"stimulus":"bees-with-color/bee-A1SM.svg","response":1,"trial_type":"image-button-response","trial_index":152,"time_elapsed":440202,"internal_node_id":"0.0-6.0-0.16","subject_id":"60567a5e7a6b1eb82eaf3fa5","study_id":"6197b3f67c2b5cd3b6d9596a","session_id":"6197b9eeb968f774b3c7c4cd","condition":"full-information","relevant_dimensions":["wings","legs"],"bee_group":{"antennae":"X","wings":"1","pattern":"X","legs":"M"},"bonus":0.5800000000000007},{"rt":300,"stimulus":"bees-with-color/bee-A1DF.svg","response":0,"trial_type":"image-button-response","trial_index":153,"time_elapsed":440503,"internal_node_id":"0.0-6.0-0.17","subject_id":"60567a5e7a6b1eb82eaf3fa5","study_id":"6197b3f67c2b5cd3b6d9596a","session_id":"6197b9eeb968f774b3c7c4cd","condition":"full-information","relevant_dimensions":["wings","legs"],"bee_group":{"antennae":"X","wings":"1","pattern":"X","legs":"M"},"bonus":0.5800000000000007},{"rt":316,"stimulus":"bees-with-color/bee-B2DF.svg","response":1,"trial_type":"image-button-response","trial_index":154,"time_elapsed":440819,"internal_node_id":"0.0-6.0-0.18","subject_id":"60567a5e7a6b1eb82eaf3fa5","study_id":"6197b3f67c2b5cd3b6d9596a","session_id":"6197b9eeb968f774b3c7c4cd","condition":"full-information","relevant_dimensions":["wings","legs"],"bee_group":{"antennae":"X","wings":"1","pattern":"X","legs":"M"},"bonus":0.5800000000000007},{"rt":259,"stimulus":"bees-with-color/bee-A2DF.svg","response":0,"trial_type":"image-button-response","trial_index":155,"time_elapsed":441079,"internal_node_id":"0.0-6.0-0.19","subject_id":"60567a5e7a6b1eb82eaf3fa5","study_id":"6197b3f67c2b5cd3b6d9596a","session_id":"6197b9eeb968f774b3c7c4cd","condition":"full-information","relevant_dimensions":["wings","legs"],"bee_group":{"antennae":"X","wings":"1","pattern":"X","legs":"M"},"bonus":0.5800000000000007},{"rt":579,"stimulus":"bees-with-color/bee-A2SF.svg","response":1,"trial_type":"image-button-response","trial_index":156,"time_elapsed":441659,"internal_node_id":"0.0-6.0-0.20","subject_id":"60567a5e7a6b1eb82eaf3fa5","study_id":"6197b3f67c2b5cd3b6d9596a","session_id":"6197b9eeb968f774b3c7c4cd","condition":"full-information","relevant_dimensions":["wings","legs"],"bee_group":{"antennae":"X","wings":"1","pattern":"X","legs":"M"},"bonus":0.5800000000000007},{"rt":251,"stimulus":"bees-with-color/bee-B1SM.svg","response":1,"trial_type":"image-button-response","trial_index":157,"time_elapsed":441910,"internal_node_id":"0.0-6.0-0.21","subject_id":"60567a5e7a6b1eb82eaf3fa5","study_id":"6197b3f67c2b5cd3b6d9596a","session_id":"6197b9eeb968f774b3c7c4cd","condition":"full-information","relevant_dimensions":["wings","legs"],"bee_group":{"antennae":"X","wings":"1","pattern":"X","legs":"M"},"bonus":0.5800000000000007},{"rt":478,"stimulus":"bees-with-color/bee-B2SF.svg","response":0,"trial_type":"image-button-response","trial_index":158,"time_elapsed":442389,"internal_node_id":"0.0-6.0-0.22","subject_id":"60567a5e7a6b1eb82eaf3fa5","study_id":"6197b3f67c2b5cd3b6d9596a","session_id":"6197b9eeb968f774b3c7c4cd","condition":"full-information","relevant_dimensions":["wings","legs"],"bee_group":{"antennae":"X","wings":"1","pattern":"X","legs":"M"},"bonus":0.5800000000000007},{"rt":162,"stimulus":"bees-with-color/bee-B2DM.svg","response":0,"trial_type":"image-button-response","trial_index":159,"time_elapsed":442552,"internal_node_id":"0.0-6.0-0.23","subject_id":"60567a5e7a6b1eb82eaf3fa5","study_id":"6197b3f67c2b5cd3b6d9596a","session_id":"6197b9eeb968f774b3c7c4cd","condition":"full-information","relevant_dimensions":["wings","legs"],"bee_group":{"antennae":"X","wings":"1","pattern":"X","legs":"M"},"bonus":0.5800000000000007},{"rt":560,"stimulus":"bees-with-color/bee-A2DM.svg","response":1,"trial_type":"image-button-response","trial_index":160,"time_elapsed":443114,"internal_node_id":"0.0-6.0-0.24","subject_id":"60567a5e7a6b1eb82eaf3fa5","study_id":"6197b3f67c2b5cd3b6d9596a","session_id":"6197b9eeb968f774b3c7c4cd","condition":"full-information","relevant_dimensions":["wings","legs"],"bee_group":{"antennae":"X","wings":"1","pattern":"X","legs":"M"},"bonus":0.5800000000000007},{"rt":151,"stimulus":"bees-with-color/bee-B1DF.svg","response":1,"trial_type":"image-button-response","trial_index":161,"time_elapsed":443265,"internal_node_id":"0.0-6.0-0.25","subject_id":"60567a5e7a6b1eb82eaf3fa5","study_id":"6197b3f67c2b5cd3b6d9596a","session_id":"6197b9eeb968f774b3c7c4cd","condition":"full-information","relevant_dimensions":["wings","legs"],"bee_group":{"antennae":"X","wings":"1","pattern":"X","legs":"M"},"bonus":0.5800000000000007},{"rt":370,"stimulus":"bees-with-color/bee-A2SM.svg","response":0,"trial_type":"image-button-response","trial_index":162,"time_elapsed":443636,"internal_node_id":"0.0-6.0-0.26","subject_id":"60567a5e7a6b1eb82eaf3fa5","study_id":"6197b3f67c2b5cd3b6d9596a","session_id":"6197b9eeb968f774b3c7c4cd","condition":"full-information","relevant_dimensions":["wings","legs"],"bee_group":{"antennae":"X","wings":"1","pattern":"X","legs":"M"},"bonus":0.5800000000000007},{"rt":156,"stimulus":"bees-with-color/bee-A1SF.svg","response":0,"trial_type":"image-button-response","trial_index":163,"time_elapsed":443794,"internal_node_id":"0.0-6.0-0.27","subject_id":"60567a5e7a6b1eb82eaf3fa5","study_id":"6197b3f67c2b5cd3