[{"success":true,"trial_type":"fullscreen","trial_index":0,"time_elapsed":11020,"internal_node_id":"0.0-0.0","subject_id":"5d67476c0ca617001699fe7a","study_id":"6197b3f67c2b5cd3b6d9596a","session_id":"619be31d4e3e3beef4c3195a","condition":"contingent","relevant_dimensions":["antennae","pattern"],"bee_group":{"antennae":"A","wings":"X","pattern":"D","legs":"X"},"bonus":1.140000000000001},{"success":true,"timeout":false,"failed_images":[],"failed_audio":[],"failed_video":[],"trial_type":"preload","trial_index":1,"time_elapsed":11501,"internal_node_id":"0.0-1.0","subject_id":"5d67476c0ca617001699fe7a","study_id":"6197b3f67c2b5cd3b6d9596a","session_id":"619be31d4e3e3beef4c3195a","condition":"contingent","relevant_dimensions":["antennae","pattern"],"bee_group":{"antennae":"A","wings":"X","pattern":"D","legs":"X"},"bonus":1.140000000000001},{"rt":1413.2999999970198,"stimulus":"Welcome! Press any key to begin.","response":" ","trial_type":"html-keyboard-response","trial_index":2,"time_elapsed":12915,"internal_node_id":"0.0-2.0","subject_id":"5d67476c0ca617001699fe7a","study_id":"6197b3f67c2b5cd3b6d9596a","session_id":"619be31d4e3e3beef4c3195a","condition":"contingent","relevant_dimensions":["antennae","pattern"],"bee_group":{"antennae":"A","wings":"X","pattern":"D","legs":"X"},"bonus":1.140000000000001},{"view_history":[{"page_index":0,"viewing_time":4658.70000000298},{"page_index":1,"viewing_time":11335.39999999851},{"page_index":2,"viewing_time":8295.39999999851},{"page_index":3,"viewing_time":12473},{"page_index":4,"viewing_time":7115},{"page_index":5,"viewing_time":5826.60000000149},{"page_index":6,"viewing_time":11491.800000000745},{"page_index":7,"viewing_time":5142.39999999851},{"page_index":8,"viewing_time":6279.10000000149},{"page_index":9,"viewing_time":3687.5},{"page_index":10,"viewing_time":4341.199999999255},{"page_index":11,"viewing_time":14435.800000000745},{"page_index":12,"viewing_time":9091.300000000745},{"page_index":13,"viewing_time":3951.89999999851},{"page_index":14,"viewing_time":1559.5}],"rt":109684.90000000224,"trial_type":"instructions","trial_index":3,"time_elapsed":122600,"internal_node_id":"0.0-3.0-0.0","subject_id":"5d67476c0ca617001699fe7a","study_id":"6197b3f67c2b5cd3b6d9596a","session_id":"619be31d4e3e3beef4c3195a","condition":"contingent","relevant_dimensions":["antennae","pattern"],"bee_group":{"antennae":"A","wings":"X","pattern":"D","legs":"X"},"bonus":1.140000000000001},{"rt":11351.5,"response":{"Q0":["Two or six legs","Stripes or spots on body","Single or double wings","Antennae or no antennae"]},"question_order":[0],"trial_type":"survey-multi-select","trial_index":4,"time_elapsed":133954,"internal_node_id":"0.0-3.0-1.0","subject_id":"5d67476c0ca617001699fe7a","study_id":"6197b3f67c2b5cd3b6d9596a","session_id":"619be31d4e3e3beef4c3195a","condition":"contingent","relevant_dimensions":["antennae","pattern"],"bee_group":{"antennae":"A","wings":"X","pattern":"D","legs":"X"},"correct":true,"bonus":1.140000000000001},{"rt":13669.099999997765,"response":{"Q1":"No.","Q2":"Based on the four features of the bee.","Q3":"You do not learn if it was friendly or dangerous, and do not alter your bonus."},"question_order":[0,1,2],"trial_type":"survey-multi-choice","trial_index":5,"time_elapsed":147625,"internal_node_id":"0.0-3.0-2.0","subject_id":"5d67476c0ca617001699fe7a","study_id":"6197b3f67c2b5cd3b6d9596a","session_id":"619be31d4e3e3beef4c3195a","condition":"contingent","relevant_dimensions":["antennae","pattern"],"bee_group":{"antennae":"A","wings":"X","pattern":"D","legs":"X"},"correct":true,"bonus":1.140000000000001},{"rt":1931.8999999985099,"stimulus":"<p>Congrats, you got everything right<br>When you're ready, click the button below to continue to the experiment.</p>","response":0,"trial_type":"html-button-response","trial_index":6,"time_elapsed":149558,"internal_node_id":"0.0-3.0-3.0","subject_id":"5d67476c0ca617001699fe7a","study_id":"6197b3f67c2b5cd3b6d9596a","session_id":"619be31d4e3e3beef4c3195a","condition":"contingent","relevant_dimensions":["antennae","pattern"],"bee_group":{"antennae":"A","wings":"X","pattern":"D","legs":"X"},"bonus":1.140000000000001},{"rt":6334.699999999255,"stimulus":"bees-with-color/bee-A2SM.svg","response":0,"trial_type":"image-button-response","trial_index":7,"time_elapsed":155894,"internal_node_id":"0.0-4.0-0.0","subject_id":"5d67476c0ca617001699fe7a","study_id":"6197b3f67c2b5cd3b6d9596a","session_id":"619be31d4e3e3beef4c3195a","condition":"contingent","relevant_dimensions":["antennae","pattern"],"bee_group":{"antennae":"A","wings":"X","pattern":"D","legs":"X"},"action":"harvest","summary":"good-harvest","bonus":1.140000000000001},{"rt":6981.400000002235,"stimulus":"\n                    <p><b>Action: <em>harvest</em></b></p>\n                    <p>This is the bee that you just saw.</p>\n                    <img src=\"bees-with-color/bee-A2SM.svg\" width=\"200\">\n                    <p><span class=\"greenText\"><b>Successful harvest!</b></span><br>Your pay has increased by $0.02. Your bonus pay is now $0.56.</p>\n            ","response":0,"trial_type":"html-button-response","trial_index":8,"time_elapsed":162878,"internal_node_id":"0.0-4.0-1.0","subject_id":"5d67476c0ca617001699fe7a","study_id":"6197b3f67c2b5cd3b6d9596a","session_id":"619be31d4e3e3beef4c3195a","condition":"contingent","relevant_dimensions":["antennae","pattern"],"bee_group":{"antennae":"A","wings":"X","pattern":"D","legs":"X"},"bonus":1.140000000000001},{"rt":3002,"stimulus":"bees-with-color/bee-A1SF.svg","response":0,"trial_type":"image-button-response","trial_index":9,"time_elapsed":165882,"internal_node_id":"0.0-4.0-0.1","subject_id":"5d67476c0ca617001699fe7a","study_id":"6197b3f67c2b5cd3b6d9596a","session_id":"619be31d4e3e3beef4c3195a","condition":"contingent","relevant_dimensions":["antennae","pattern"],"bee_group":{"antennae":"A","wings":"X","pattern":"D","legs":"X"},"action":"harvest","summary":"good-harvest","bonus":1.140000000000001},{"rt":2265.60000000149,"stimulus":"\n                    <p><b>Action: <em>harvest</em></b></p>\n                    <p>This is the bee that you just saw.</p>\n                    <img src=\"bees-with-color/bee-A1SF.svg\" width=\"200\">\n                    <p><span class=\"greenText\"><b>Successful harvest!</b></span><br>Your pay has increased by $0.02. Your bonus pay is now $0.58.</p>\n            ","response":0,"trial_type":"html-button-response","trial_index":10,"time_elapsed":168149,"internal_node_id":"0.0-4.0-1.1","subject_id":"5d67476c0ca617001699fe7a","study_id":"6197b3f67c2b5cd3b6d9596a","session_id":"619be31d4e3e3beef4c3195a","condition":"contingent","relevant_dimensions":["antennae","pattern"],"bee_group":{"antennae":"A","wings":"X","pattern":"D","legs":"X"},"bonus":1.140000000000001},{"rt":2931.699999999255,"stimulus":"bees-with-color/bee-A2DM.svg","response":0,"trial_type":"image-button-response","trial_index":11,"time_elapsed":171083,"internal_node_id":"0.0-4.0-0.2","subject_id":"5d67476c0ca617001699fe7a","study_id":"6197b3f67c2b5cd3b6d9596a","session_id":"619be31d4e3e3beef4c3195a","condition":"contingent","relevant_dimensions":["antennae","pattern"],"bee_group":{"antennae":"A","wings":"X","pattern":"D","legs":"X"},"action":"harvest","summary":"bad-harvest","bonus":1.140000000000001},{"rt":7462.300000000745,"stimulus":"\n                    <p><b>Action: <em>harvest</em></b></p>\n                    <p>This is the bee that you just saw.</p>\n                    <img src=\"bees-with-color/bee-A2DM.svg\" width=\"200\">\n                    <p><span class=\"redText\">Bad choice, the bee was angry.</span><br><b>You have been stung!</b><br>Your pay has been decreased by $0.10. Your bonus pay is now $0.48.</p>\n            ","response":0,"trial_type":"html-button-response","trial_index":12,"time_elapsed":178546,"internal_node_id":"0.0-4.0-1.2","subject_id":"5d67476c0ca617001699fe7a","study_id":"6197b3f67c2b5cd3b6d9596a","session_id":"619be31d4e3e3beef4c3195a","condition":"contingent","relevant_dimensions":["antennae","pattern"],"bee_group":{"antennae":"A","wings":"X","pattern":"D","legs":"X"},"bonus":1.140000000000001},{"rt":1507,"stimulus":"bees-with-color/bee-B1DF.svg","response":0,"trial_type":"image-button-response","trial_index":13,"time_elapsed":180054,"internal_node_id":"0.0-4.0-0.3","subject_id":"5d67476c0ca617001699fe7a","study_id":"6197b3f67c2b5cd3b6d9596a","session_id":"619be31d4e3e3beef4c3195a","condition":"contingent","relevant_dimensions":["antennae","pattern"],"bee_group":{"antennae":"A","wings":"X","pattern":"D","legs":"X"},"action":"harvest","summary":"good-harvest","bonus":1.140000000000001},{"rt":8826.300000000745,"stimulus":"\n                    <p><b>Action: <em>harvest</em></b></p>\n                    <p>This is the bee that you just saw.</p>\n                    <img src=\"bees-with-color/bee-B1DF.svg\" width=\"200\">\n                    <p><span class=\"greenText\"><b>Successful harvest!</b></span><br>Your pay has increased by $0.02. Your bonus pay is now $0.50.</p>\n            ","response":0,"trial_type":"html-button-response","trial_index":14,"time_elapsed":188882,"internal_node_id":"0.0-4.0-1.3","subject_id":"5d67476c0ca617001699fe7a","study_id":"6197b3f67c2b5cd3b6d9596a","session_id":"619be31d4e3e3beef4c3195a","condition":"contingent","relevant_dimensions":["antennae","pattern"],"bee_group":{"antennae":"A","wings":"X","pattern":"D","legs":"X"},"bonus":1.140000000000001},{"rt":2424.400000002235,"stimulus":"bees-with-color/bee-A1SM.svg","response":0,"trial_type":"image-button-response","trial_index":15,"time_elapsed":191308,"internal_node_id":"0.0-4.0-0.4","subject_id":"5d67476c0ca617001699fe7a","study_id":"6197b3f67c2b5cd3b6d9596a","session_id":"619be31d4e3e3beef4c3195a","condition":"contingent","relevant_dimensions":["antennae","pattern"],"bee_group":{"antennae":"A","wings":"X","pattern":"D","legs":"X"},"action":"harvest","summary":"good-harvest","bonus":1.140000000000001},{"rt":1005.6000000014901,"stimulus":"\n                    <p><b>Action: <em>harvest</em></b></p>\n                    <p>This is the bee that you just saw.</p>\n                    <img src=\"bees-with-color/bee-A1SM.svg\" width=\"200\">\n                    <p><span class=\"greenText\"><b>Successful harvest!</b></span><br>Your pay has increased by $0.02. Your bonus pay is now $0.52.</p>\n            ","response":0,"trial_type":"html-button-response","trial_index":16,"time_elapsed":192315,"internal_node_id":"0.0-4.0-1.4","subject_id":"5d67476c0ca617001699fe7a","study_id":"6197b3f67c2b5cd3b6d9596a","session_id":"619be31d4e3e3beef4c3195a","condition":"contingent","relevant_dimensions":["antennae","pattern"],"bee_group":{"antennae":"A","wings":"X","pattern":"D","legs":"X"},"bonus":1.140000000000001},{"rt":3179.599999997765,"stimulus":"bees-with-color/bee-A2DF.svg","response":1,"trial_type":"image-button-response","trial_index":17,"time_elapsed":195495,"internal_node_id":"0.0-4.0-0.5","subject_id":"5d67476c0ca617001699fe7a","study_id":"6197b3f67c2b5cd3b6d9596a","session_id":"619be31d4e3e3beef4c3195a","condition":"contingent","relevant_dimensions":["antennae","pattern"],"bee_group":{"antennae":"A","wings":"X","pattern":"D","legs":"X"},"action":"avoid","summary":"good-avoid","bonus":1.140000000000001},{"rt":1760.800000000745,"stimulus":"\n                    <p><b>Action: <em>avoid</em></b></p>\n                    <p>This is the bee that you just saw.</p>\n                    <img src=\"bees-with-color/bee-A2DF.svg\" width=\"200\">\n                    <p><br>Your bonus pay is unchanged, and remains at $0.52.</p>\n            ","response":0,"trial_type":"html-button-response","trial_index":18,"time_elapsed":197257,"internal_node_id":"0.0-4.0-1.5","subject_id":"5d67476c0ca617001699fe7a","study_id":"6197b3f67c2b5cd3b6d9596a","session_id":"619be31d4e3e3beef4c3195a","condition":"contingent","relevant_dimensions":["antennae","pattern"],"bee_group":{"antennae":"A","wings":"X","pattern":"D","legs":"X"},"bonus":1.140000000000001},{"rt":1841.9000000022352,"stimulus":"bees-with-color/bee-B2SF.svg","response":0,"trial_type":"image-button-response","trial_index":19,"time_elapsed":199101,"internal_node_id":"0.0-4.0-0.6","subject_id":"5d67476c0ca617001699fe7a","study_id":"6197b3f67c2b5cd3b6d9596a","session_id":"619be31d4e3e3beef4c3195a","condition":"contingent","relevant_dimensions":["antennae","pattern"],"bee_group":{"antennae":"A","wings":"X","pattern":"D","legs":"X"},"action":"harvest","summary":"good-harvest","bonus":1.140000000000001},{"rt":1277.300000000745,"stimulus":"\n                    <p><b>Action: <em>harvest</em></b></p>\n                    <p>This is the bee that you just saw.</p>\n                    <img src=\"bees-with-color/bee-B2SF.svg\" width=\"200\">\n                    <p><span class=\"greenText\"><b>Successful harvest!</b></span><br>Your pay has increased by $0.02. Your bonus pay is now $0.54.</p>\n            ","response":0,"trial_type":"html-button-response","trial_index":20,"time_elapsed":200380,"internal_node_id":"0.0-4.0-1.6","subject_id":"5d67476c0ca617001699fe7a","study_id":"6197b3f67c2b5cd3b6d9596a","session_id":"619be31d4e3e3beef4c3195a","condition":"contingent","relevant_dimensions":["antennae","pattern"],"bee_group":{"antennae":"A","wings":"X","pattern":"D","legs":"X"},"bonus":1.140000000000001},{"rt":1535.800000000745,"stimulus":"bees-with-color/bee-B2SM.svg","response":0,"trial_type":"image-button-response","trial_index":21,"time_elapsed":201916,"internal_node_id":"0.0-4.0-0.7","subject_id":"5d67476c0ca617001699fe7a","study_id":"6197b3f67c2b5cd3b6d9596a","session_id":"619be31d4e3e3beef4c3195a","condition":"contingent","relevant_dimensions":["antennae","pattern"],"bee_group":{"antennae":"A","wings":"X","pattern":"D","legs":"X"},"action":"harvest","summary":"good-harvest","bonus":1.140000000000001},{"rt":1222,"stimulus":"\n                    <p><b>Action: <em>harvest</em></b></p>\n                    <p>This is the bee that you just saw.</p>\n                    <img src=\"bees-with-color/bee-B2SM.svg\" width=\"200\">\n                    <p><span class=\"greenText\"><b>Successful harvest!</b></span><br>Your pay has increased by $0.02. Your bonus pay is now $0.56.</p>\n            ","response":0,"trial_type":"html-button-response","trial_index":22,"time_elapsed":203140,"internal_node_id":"0.0-4.0-1.7","subject_id":"5d67476c0ca617001699fe7a","study_id":"6197b3f67c2b5cd3b6d9596a","session_id":"619be31d4e3e3beef4c3195a","condition":"contingent","relevant_dimensions":["antennae","pattern"],"bee_group":{"antennae":"A","wings":"X","pattern":"D","legs":"X"},"bonus":1.140000000000001},{"rt":1496.0999999977648,"stimulus":"bees-with-color/bee-A1DM.svg","response":0,"trial_type":"image-button-response","trial_index":23,"time_elapsed":204637,"internal_node_id":"0.0-4.0-0.8","subject_id":"5d67476c0ca617001699fe7a","study_id":"6197b3f67c2b5cd3b6d9596a","session_id":"619be31d4e3e3beef4c3195a","condition":"contingent","relevant_dimensions":["antennae","pattern"],"bee_group":{"antennae":"A","wings":"X","pattern":"D","legs":"X"},"action":"harvest","summary":"bad-harvest","bonus":1.140000000000001},{"rt":8251,"stimulus":"\n                    <p><b>Action: <em>harvest</em></b></p>\n                    <p>This is the bee that you just saw.</p>\n                    <img src=\"bees-with-color/bee-A1DM.svg\" width=\"200\">\n                    <p><span class=\"redText\">Bad choice, the bee was angry.</span><br><b>You have been stung!</b><br>Your pay has been decreased by $0.10. Your bonus pay is now $0.46.</p>\n            ","response":0,"trial_type":"html-button-response","trial_index":24,"time_elapsed":212889,"internal_node_id":"0.0-4.0-1.8","subject_id":"5d67476c0ca617001699fe7a","study_id":"6197b3f67c2b5cd3b6d9596a","session_id":"619be31d4e3e3beef4c3195a","condition":"contingent","relevant_dimensions":["antennae","pattern"],"bee_group":{"antennae":"A","wings":"X","pattern":"D","legs":"X"},"bonus":1.140000000000001},{"rt":1300.3999999985099,"stimulus":"bees-with-color/bee-B1SM.svg","response":0,"trial_type":"image-button-response","trial_index":25,"time_elapsed":214191,"internal_node_id":"0.0-4.0-0.9","subject_id":"5d67476c0ca617001699fe7a","study_id":"6197b3f67c2b5cd3b6d9596a","session_id":"619be31d4e3e3beef4c3195a","condition":"contingent","relevant_dimensions":["antennae","pattern"],"bee_group":{"antennae":"A","wings":"X","pattern":"D","legs":"X"},"action":"harvest","summary":"good-harvest","bonus":1.140000000000001},{"rt":766.8999999985099,"stimulus":"\n                    <p><b>Action: <em>harvest</em></b></p>\n                    <p>This is the bee that you just saw.</p>\n                    <img src=\"bees-with-color/bee-B1SM.svg\" width=\"200\">\n                    <p><span class=\"greenText\"><b>Successful harvest!</b></span><br>Your pay has increased by $0.02. Your bonus pay is now $0.48.</p>\n            ","response":0,"trial_type":"html-button-response","trial_index":26,"time_elapsed":214959,"internal_node_id":"0.0-4.0-1.9","subject_id":"5d67476c0ca617001699fe7a","study_id":"6197b3f67c2b5cd3b6d9596a","session_id":"619be31d4e3e3beef4c3195a","condition":"contingent","relevant_dimensions":["antennae","pattern"],"bee_group":{"antennae":"A","wings":"X","pattern":"D","legs":"X"},"bonus":1.140000000000001},{"rt":2761.39999999851,"stimulus":"bees-with-color/bee-B2DM.svg","response":1,"trial_type":"image-button-response","trial_index":27,"time_elapsed":217722,"internal_node_id":"0.0-4.0-0.10","subject_id":"5d67476c0ca617001699fe7a","study_id":"6197b3f67c2b5cd3b6d9596a","session_id":"619be31d4e3e3beef4c3195a","condition":"contingent","relevant_dimensions":["antennae","pattern"],"bee_group":{"antennae":"A","wings":"X","pattern":"D","legs":"X"},"action":"avoid","summary":"bad-avoid","bonus":1.140000000000001},{"rt":1234.3999999985099,"stimulus":"\n                    <p><b>Action: <em>avoid</em></b></p>\n                    <p>This is the bee that you just saw.</p>\n                    <img src=\"bees-with-color/bee-B2DM.svg\" width=\"200\">\n                    <p><br>Your bonus pay is unchanged, and remains at $0.48.</p>\n            ","response":0,"trial_type":"html-button-response","trial_index":28,"time_elapsed":218957,"internal_node_id":"0.0-4.0-1.10","subject_id":"5d67476c0ca617001699fe7a","study_id":"6197b3f67c2b5cd3b6d9596a","session_id":"619be31d4e3e3beef4c3195a","condition":"contingent","relevant_dimensions":["antennae","pattern"],"bee_group":{"antennae":"A","wings":"X","pattern":"D","legs":"X"},"bonus":1.140000000000001},{"rt":4473.5,"stimulus":"bees-with-color/bee-B1DM.svg","response":1,"trial_type":"image-button-response","trial_index":29,"time_elapsed":223432,"internal_node_id":"0.0-4.0-0.11","subject_id":"5d67476c0ca617001699fe7a","study_id":"6197b3f67c2b5cd3b6d9596a","session_id":"619be31d4e3e3beef4c3195a","condition":"contingent","relevant_dimensions":["antennae","pattern"],"bee_group":{"antennae":"A","wings":"X","pattern":"D","legs":"X"},"action":"avoid","summary":"bad-avoid","bonus":1.140000000000001},{"rt":1063.4000000022352,"stimulus":"\n                    <p><b>Action: <em>avoid</em></b></p>\n                    <p>This is the bee that you just saw.</p>\n                    <img src=\"bees-with-color/bee-B1DM.svg\" width=\"200\">\n                    <p><br>Your bonus pay is unchanged, and remains at $0.48.</p>\n            ","response":0,"trial_type":"html-button-response","trial_index":30,"time_elapsed":224497,"internal_node_id":"0.0-4.0-1.11","subject_id":"5d67476c0ca617001699fe7a","study_id":"6197b3f67c2b5cd3b6d9596a","session_id":"619be31d4e3e3beef4c3195a","condition":"contingent","relevant_dimensions":["antennae","pattern"],"bee_group":{"antennae":"A","wings":"X","pattern":"D","legs":"X"},"bonus":1.140000000000001},{"rt":2912.60000000149,"stimulus":"bees-with-color/bee-A1DF.svg","response":0,"trial_type":"image-button-response","trial_index":31,"time_elapsed":227411,"internal_node_id":"0.0-4.0-0.12","subject_id":"5d67476c0ca617001699fe7a","study_id":"6197b3f67c2b5cd3b6d9596a","session_id":"619be31d4e3e3beef4c3195a","condition":"contingent","relevant_dimensions":["antennae","pattern"],"bee_group":{"antennae":"A","wings":"X","pattern":"D","legs":"X"},"action":"harvest","summary":"bad-harvest","bonus":1.140000000000001},{"rt":1320.800000000745,"stimulus":"\n                    <p><b>Action: <em>harvest</em></b></p>\n                    <p>This is the bee that you just saw.</p>\n                    <img src=\"bees-with-color/bee-A1DF.svg\" width=\"200\">\n                    <p><span class=\"redText\">Bad choice, the bee was angry.</span><br><b>You have been stung!</b><br>Your pay has been decreased by $0.10. Your bonus pay is now $0.38.</p>\n            ","response":0,"trial_type":"html-button-response","trial_index":32,"time_elapsed":228733,"internal_node_id":"0.0-4.0-1.12","subject_id":"5d67476c0ca617001699fe7a","study_id":"6197b3f67c2b5cd3b6d9596a","session_id":"619be31d4e3e3beef4c3195a","condition":"contingent","relevant_dimensions":["antennae","pattern"],"bee_group":{"antennae":"A","wings":"X","pattern":"D","legs":"X"},"bonus":1.140000000000001},{"rt":1635.699999999255,"stimulus":"bees-with-color/bee-B1SF.svg","response":0,"trial_type":"image-button-response","trial_index":33,"time_elapsed":230370,"internal_node_id":"0.0-4.0-0.13","subject_id":"5d67476c0ca617001699fe7a","study_id":"6197b3f67c2b5cd3b6d9596a","session_id":"619be31d4e3e3beef4c3195a","condition":"contingent","relevant_dimensions":["antennae","pattern"],"bee_group":{"antennae":"A","wings":"X","pattern":"D","legs":"X"},"action":"harvest","summary":"good-harvest","bonus":1.140000000000001},{"rt":887.1999999992549,"stimulus":"\n                    <p><b>Action: <em>harvest</em></b></p>\n                    <p>This is the bee that you just saw.</p>\n                    <img src=\"bees-with-color/bee-B1SF.svg\" width=\"200\">\n                    <p><span class=\"greenText\"><b>Successful harvest!</b></span><br>Your pay has increased by $0.02. Your bonus pay is now $0.40.</p>\n            ","response":0,"trial_type":"html-button-response","trial_index":34,"time_elapsed":231258,"internal_node_id":"0.0-4.0-1.13","subject_id":"5d67476c0ca617001699fe7a","study_id":"6197b3f67c2b5cd3b6d9596a","session_id":"619be31d4e3e3beef4c3195a","condition":"contingent","relevant_dimensions":["antennae","pattern"],"bee_group":{"antennae":"A","wings":"X","pattern":"D","legs":"X"},"bonus":1.140000000000001},{"rt":2580.89999999851,"stimulus":"bees-with-color/bee-B2DF.svg","response":1,"trial_type":"image-button-response","trial_index":35,"time_elapsed":233840,"internal_node_id":"0.0-4.0-0.14","subject_id":"5d67476c0ca617001699fe7a","study_id":"6197b3f67c2b5cd3b6d9596a","session_id":"619be31d4e3e3beef4c3195a","condition":"contingent","relevant_dimensions":["antennae","pattern"],"bee_group":{"antennae":"A","wings":"X","pattern":"D","legs":"X"},"action":"avoid","summary":"bad-avoid","bonus":1.140000000000001},{"rt":861.9000000022352,"stimulus":"\n                    <p><b>Action: <em>avoid</em></b></p>\n                    <p>This is the bee that you just saw.</p>\n                    <img src=\"bees-with-color/bee-B2DF.svg\" width=\"200\">\n                    <p><br>Your bonus pay is unchanged, and remains at $0.40.</p>\n            ","response":0,"trial_type":"html-button-response","trial_index":36,"time_elapsed":234703,"internal_node_id":"0.0-4.0-1.14","subject_id":"5d67476c0ca617001699fe7a","study_id":"6197b3f67c2b5cd3b6d9596a","session_id":"619be31d4e3e3beef4c3195a","condition":"contingent","relevant_dimensions":["antennae","pattern"],"bee_group":{"antennae":"A","wings":"X","pattern":"D","legs":"X"},"bonus":1.140000000000001},{"rt":1118.6000000014901,"stimulus":"bees-with-color/bee-A2SF.svg","response":0,"trial_type":"image-button-response","trial_index":37,"time_elapsed":235823,"internal_node_id":"0.0-4.0-0.15","subject_id":"5d67476c0ca617001699fe7a","study_id":"6197b3f67c2b5cd3b6d9596a","session_id":"619be31d4e3e3beef4c3195a","condition":"contingent","relevant_dimensions":["antennae","pattern"],"bee_group":{"antennae":"A","wings":"X","pattern":"D","legs":"X"},"action":"harvest","summary":"good-harvest","bonus":1.140000000000001},{"rt":763.2999999970198,"stimulus":"\n                    <p><b>Action: <em>harvest</em></b></p>\n                    <p>This is the bee that you just saw.</p>\n                    <img src=\"bees-with-color/bee-A2SF.svg\" width=\"200\">\n                    <p><span class=\"greenText\"><b>Successful harvest!</b></span><br>Your pay has increased by $0.02. Your bonus pay is now $0.42.</p>\n            ","response":0,"trial_type":"html-button-response","trial_index":38,"time_elapsed":236587,"internal_node_id":"0.0-4.0-1.15","subject_id":"5d67476c0ca617001699fe7a","study_id":"6197b3f67c2b5cd3b6d9596a","session_id":"619be31d4e3e3beef4c3195a","condition":"contingent","relevant_dimensions":["antennae","pattern"],"bee_group":{"antennae":"A","wings":"X","pattern":"D","legs":"X"},"bonus":1.140000000000001},{"rt":2098.300000000745,"stimulus":"bees-with-color/bee-B1DF.svg","response":1,"trial_type":"image-button-response","trial_index":39,"time_elapsed":238686,"internal_node_id":"0.0-4.0-0.16","subject_id":"5d67476c0ca617001699fe7a","study_id":"6197b3f67c2b5cd3b6d9596a","session_id":"619be31d4e3e3beef4c3195a","condition":"contingent","relevant_dimensions":["antennae","pattern"],"bee_group":{"antennae":"A","wings":"X","pattern":"D","legs":"X"},"action":"avoid","summary":"bad-avoid","bonus":1.140000000000001},{"rt":817.3000000007451,"stimulus":"\n                    <p><b>Action: <em>avoid</em></b></p>\n                    <p>This is the bee that you just saw.</p>\n                    <img src=\"bees-with-color/bee-B1DF.svg\" width=\"200\">\n                    <p><br>Your bonus pay is unchanged, and remains at $0.42.</p>\n            ","response":0,"trial_type":"html-button-response","trial_index":40,"time_elapsed":239505,"internal_node_id":"0.0-4.0-1.16","subject_id":"5d67476c0ca617001699fe7a","study_id":"6197b3f67c2b5cd3b6d9596a","session_id":"619be31d4e3e3beef4c3195a","condition":"contingent","relevant_dimensions":["antennae","pattern"],"bee_group":{"antennae":"A","wings":"X","pattern":"D","legs":"X"},"bonus":1.140000000000001},{"rt":1425.800000000745,"stimulus":"bees-with-color/bee-A1DF.svg","response":1,"trial_type":"image-button-response","trial_index":41,"time_elapsed":240932,"internal_node_id":"0.0-4.0-0.17","subject_id":"5d67476c0ca617001699fe7a","study_id":"6197b3f67c2b5cd3b6d9596a","session_id":"619be31d4e3e3beef4c3195a","condition":"contingent","relevant_dimensions":["antennae","pattern"],"bee_group":{"antennae":"A","wings":"X","pattern":"D","legs":"X"},"action":"avoid","summary":"good-avoid","bonus":1.140000000000001},{"rt":703.5999999977648,"stimulus":"\n                    <p><b>Action: <em>avoid</em></b></p>\n                    <p>This is the bee that you just saw.</p>\n                    <img src=\"bees-with-color/bee-A1DF.svg\" width=\"200\">\n                    <p><br>Your bonus pay is unchanged, and remains at $0.42.</p>\n            ","response":0,"trial_type":"html-button-response","trial_index":42,"time_elapsed":241637,"internal_node_id":"0.0-4.0-1.17","subject_id":"5d67476c0ca617001699fe7a","study_id":"6197b3f67c2b5cd3b6d9596a","session_id":"619be31d4e3e3beef4c3195a","condition":"contingent","relevant_dimensions":["antennae","pattern"],"bee_group":{"antennae":"A","wings":"X","pattern":"D","legs":"X"},"bonus":1.140000000000001},{"rt":1451.300000000745,"stimulus":"bees-with-color/bee-A2DF.svg","response":1,"trial_type":"image-button-response","trial_index":43,"time_elapsed":243089,"internal_node_id":"0.0-4.0-0.18","subject_id":"5d67476c0ca617001699fe7a","study_id":"6197b3f67c2b5cd3b6d9596a","session_id":"619be31d4e3e3beef4c3195a","condition":"contingent","relevant_dimensions":["antennae","pattern"],"bee_group":{"antennae":"A","wings":"X","pattern":"D","legs":"X"},"action":"avoid","summary":"good-avoid","bonus":1.140000000000001},{"rt":471.8999999985099,"stimulus":"\n                    <p><b>Action: <em>avoid</em></b></p>\n                    <p>This is the bee that you just saw.</p>\n                    <img src=\"bees-with-color/bee-A2DF.svg\" width=\"200\">\n                    <p><br>Your bonus pay is unchanged, and remains at $0.42.</p>\n            ","response":0,"trial_type":"html-button-response","trial_index":44,"time_elapsed":243562,"internal_node_id":"0.0-4.0-1.18","subject_id":"5d67476c0ca617001699fe7a","study_id":"6197b3f67c2b5cd3b6d9596a","session_id":"619be31d4e3e3beef4c3195a","condition":"contingent","relevant_dimensions":["antennae","pattern"],"bee_group":{"antennae":"A","wings":"X","pattern":"D","legs":"X"},"bonus":1.140000000000001},{"rt":846.6999999992549,"stimulus":"bees-with-color/bee-A1SF.svg","response":0,"trial_type":"image-button-response","trial_index":45,"time_elapsed":244410,"internal_node_id":"0.0-4.0-0.19","subject_id":"5d67476c0ca617001699fe7a","study_id":"6197b3f67c2b5cd3b6d9596a","session_id":"619be31d4e3e3beef4c3195a","condition":"contingent","relevant_dimensions":["antennae","pattern"],"bee_group":{"antennae":"A","wings":"X","pattern":"D","legs":"X"},"action":"harvest","summary":"good-harvest","bonus":1.140000000000001},{"rt":539.3999999985099,"stimulus":"\n                    <p><b>Action: <em>harvest</em></b></p>\n                    <p>This is the bee that you just saw.</p>\n                    <img src=\"bees-with-color/bee-A1SF.svg\" width=\"200\">\n                    <p><span class=\"greenText\"><b>Successful harvest!</b></span><br>Your pay has increased by $0.02. Your bonus pay is now $0.44.</p>\n            ","response":0,"trial_type":"html-button-response","trial_index":46,"time_elapsed":244951,"internal_node_id":"0.0-4.0-1.19","subject_id":"5d67476c0ca617001699fe7a","study_id":"6197b3f67c2b5cd3b6d9596a","session_id":"619be31d4e3e3beef4c3195a","condition":"contingent","relevant_dimensions":["antennae","pattern"],"bee_group":{"antennae":"A","wings":"X","pattern":"D","legs":"X"},"bonus":1.140000000000001},{"rt":1722.2000000029802,"stimulus":"bees-with-color/bee-B2SM.svg","response":0,"trial_type":"image-button-response","trial_index":47,"time_elapsed":246674,"internal_node_id":"0.0-4.0-0.20","subject_id":"5d67476c0ca617001699fe7a","study_id":"6197b3f67c2b5cd3b6d9596a","session_id":"619be31d4e3e3beef4c3195a","condition":"contingent","relevant_dimensions":["antennae","pattern"],"bee_group":{"antennae":"A","wings":"X","pattern":"D","legs":"X"},"action":"harvest","summary":"good-harvest","bonus":1.140000000000001},{"rt":599.3000000007451,"stimulus":"\n                    <p><b>Action: <em>harvest</em></b></p>\n                    <p>This is the bee that you just saw.</p>\n                    <img src=\"bees-with-color/bee-B2SM.svg\" width=\"200\">\n                    <p><span class=\"greenText\"><b>Successful harvest!</b></span><br>Your pay has increased by $0.02. Your bonus pay is now $0.46.</p>\n            ","response":0,"trial_type":"html-button-response","trial_index":48,"time_elapsed":247274,"internal_node_id":"0.0-4.0-1.20","subject_id":"5d67476c0ca617001699fe7a","study_id":"6197b3f67c2b5cd3b6d9596a","session_id":"619be31d4e3e3beef4c3195a","condition":"contingent","relevant_dimensions":["antennae","pattern"],"bee_group":{"antennae":"A","wings":"X","pattern":"D","legs":"X"},"bonus":1.140000000000001},{"rt":3442.800000000745,"stimulus":"bees-with-color/bee-B2DF.svg","response":0,"trial_type":"image-button-response","trial_index":49,"time_elapsed":250718,"internal_node_id":"0.0-4.0-0.21","subject_id":"5d67476c0ca617001699fe7a","study_id":"6197b3f67c2b5cd3b6d9596a","session_id":"619be31d4e3e3beef4c3195a","condition":"contingent","relevant_dimensions":["antennae","pattern"],"bee_group":{"antennae":"A","wings":"X","pattern":"D","legs":"X"},"action":"harvest","summary":"good-harvest","bonus":1.140000000000001},{"rt":4234.10000000149,"stimulus":"\n                    <p><b>Action: <em>harvest</em></b></p>\n                    <p>This is the bee that you just saw.</p>\n                    <img src=\"bees-with-color/bee-B2DF.svg\" width=\"200\">\n                    <p><span class=\"greenText\"><b>Successful harvest!</b></span><br>Your pay has increased by $0.02. Your bonus pay is now $0.48.</p>\n            ","response":0,"trial_type":"html-button-response","trial_index":50,"time_elapsed":254953,"internal_node_id":"0.0-4.0-1.21","subject_id":"5d67476c0ca617001699fe7a","study_id":"6197b3f67c2b5cd3b6d9596a","session_id":"619be31d4e3e3beef4c3195a","condition":"contingent","relevant_dimensions":["antennae","pattern"],"bee_group":{"antennae":"A","wings":"X","pattern":"D","legs":"X"},"bonus":1.140000000000001},{"rt":1240.199999999255,"stimulus":"bees-with-color/bee-B1SF.svg","response":0,"trial_type":"image-button-response","trial_index":51,"time_elapsed":256195,"internal_node_id":"0.0-4.0-0.22","subject_id":"5d67476c0ca617001699fe7a","study_id":"6197b3f67c2b5cd3b6d9596a","session_id":"619be31d4e3e3beef4c3195a","condition":"contingent","relevant_dimensions":["antennae","pattern"],"bee_group":{"antennae":"A","wings":"X","pattern":"D","legs":"X"},"action":"harvest","summary":"good-harvest","bonus":1.140000000000001},{"rt":626.3999999985099,"stimulus":"\n                    <p><b>Action: <em>harvest</em></b></p>\n                    <p>This is the bee that you just saw.</p>\n                    <img src=\"bees-with-color/bee-B1SF.svg\" width=\"200\">\n                    <p><span class=\"greenText\"><b>Successful harvest!</b></span><br>Your pay has increased by $0.02. Your bonus pay is now $0.50.</p>\n            ","response":0,"trial_type":"html-button-response","trial_index":52,"time_elapsed":256822,"internal_node_id":"0.0-4.0-1.22","subject_id":"5d67476c0ca617001699fe7a","study_id":"6197b3f67c2b5cd3b6d9596a","session_id":"619be31d4e3e3beef4c3195a","condition":"contingent","relevant_dimensions":["antennae","pattern"],"bee_group":{"antennae":"A","wings":"X","pattern":"D","legs":"X"},"bonus":1.140000000000001},{"rt":2012.1000000014901,"stimulus":"bees-with-color/bee-B2DM.svg","response":1,"trial_type":"image-button-response","trial_index":53,"time_elapsed":258835,"internal_node_id":"0.0-4.0-0.23","subject_id":"5d67476c0ca617001699fe7a","study_id":"6197b3f67c2b5cd3b6d9596a","session_id":"619be31d4e3e3beef4c3195a","condition":"contingent","relevant_dimensions":["antennae","pattern"],"bee_group":{"antennae":"A","wings":"X","pattern":"D","legs":"X"},"action":"avoid","summary":"bad-avoid","bonus":1.140000000000001},{"rt":652.6000000014901,"stimulus":"\n                    <p><b>Action: <em>avoid</em></b></p>\n                    <p>This is the bee that you just saw.</p>\n                    <img src=\"bees-with-color/bee-B2DM.svg\" width=\"200\">\n                    <p><br>Your bonus pay is unchanged, and remains at $0.50.</p>\n            ","response":0,"trial_type":"html-button-response","trial_index":54,"time_elapsed":259489,"internal_node_id":"0.0-4.0-1.23","subject_id":"5d67476c0ca617001699fe7a","study_id":"6197b3f67c2b5cd3b6d9596a","session_id":"619be31d4e3e3beef4c3195a","condition":"contingent","relevant_dimensions":["antennae","pattern"],"bee_group":{"antennae":"A","wings":"X","pattern":"D","legs":"X"},"bonus":1.140000000000001},{"rt":1473.199999999255,"stimulus":"bees-with-color/bee-A2SM.svg","response":0,"trial_type":"image-button-response","trial_index":55,"time_elapsed":260963,"internal_node_id":"0.0-4.0-0.24","subject_id":"5d67476c0ca617001699fe7a","study_id":"6197b3f67c2b5cd3b6d9596a","session_id":"619be31d4e3e3beef4c3195a","condition":"contingent","relevant_dimensions":["antennae","pattern"],"bee_group":{"antennae":"A","wings":"X","pattern":"D","legs":"X"},"action":"harvest","summary":"good-harvest","bonus":1.140000000000001},{"rt":512.5,"stimulus":"\n                    <p><b>Action: <em>harvest</em></b></p>\n                    <p>This is the bee that you just saw.</p>\n                    <img src=\"bees-with-color/bee-A2SM.svg\" width=\"200\">\n                    <p><span class=\"greenText\"><b>Successful harvest!</b></span><br>Your pay has increased by $0.02. Your bonus pay is now $0.52.</p>\n            ","response":0,"trial_type":"html-button-response","trial_index":56,"time_elapsed":261477,"internal_node_id":"0.0-4.0-1.24","subject_id":"5d67476c0ca617001699fe7a","study_id":"6197b3f67c2b5cd3b6d9596a","session_id":"619be31d4e3e3beef4c3195a","condition":"contingent","relevant_dimensions":["antennae","pattern"],"bee_group":{"antennae":"A","wings":"X","pattern":"D","legs":"X"},"bonus":1.140000000000001},{"rt":1410.800000000745,"stimulus":"bees-with-color/bee-B2SF.svg","response":0,"trial_type":"image-button-response","trial_index":57,"time_elapsed":262889,"internal_node_id":"0.0-4.0-0.25","subject_id":"5d67476c0ca617001699fe7a","study_id":"6197b3f67c2b5cd3b6d9596a","session_id":"619be31d4e3e3beef4c3195a","condition":"contingent","relevant_dimensions":["antennae","pattern"],"bee_group":{"antennae":"A","wings":"X","pattern":"D","legs":"X"},"action":"harvest","summary":"good-harvest","bonus":1.140000000000001},{"rt":560.1000000014901,"stimulus":"\n                    <p><b>Action: <em>harvest</em></b></p>\n                    <p>This is the bee that you just saw.</p>\n                    <img src=\"bees-with-color/bee-B2SF.svg\" width=\"200\">\n                    <p><span class=\"greenText\"><b>Successful harvest!</b></span><br>Your pay has increased by $0.02. Your bonus pay is now $0.54.</p>\n            ","response":0,"trial_type":"html-button-response","trial_index":58,"time_elapsed":263450,"internal_node_id":"0.0-4.0-1.25","subject_id":"5d67476c0ca617001699fe7a","study_id":"6197b3f67c2b5cd3b6d9596a","session_id":"619be31d4e3e3beef4c3195a","condition":"contingent","relevant_dimensions":["antennae","pattern"],"bee_group":{"antennae":"A","wings":"X","pattern":"D","legs":"X"},"bonus":1.140000000000001},{"rt":1278.199999999255,"stimulus":"bees-with-color/bee-B1SM.svg","response":0,"trial_type":"image-button-response","trial_index":59,"time_elapsed":264729,"internal_node_id":"0.0-4.0-0.26","subject_id":"5d67476c0ca617001699fe7a","study_id":"6197b3f67c2b5cd3b6d9596a","session_id":"619be31d4e3e3beef4c3195a","condition":"contingent","relevant_dimensions":["antennae","pattern"],"bee_group":{"antennae":"A","wings":"X","pattern":"D","legs":"X"},"action":"harvest","summary":"good-harvest","bonus":1.140000000000001},{"rt":944.6999999992549,"stimulus":"\n                    <p><b>Action: <em>harvest</em></b></p>\n                    <p>This is the bee that you just saw.</p>\n                    <img src=\"bees-with-color/bee-B1SM.svg\" width=\"200\">\n                    <p><span class=\"greenText\"><b>Successful harvest!</b></span><br>Your pay has increased by $0.02. Your bonus pay is now $0.56.</p>\n            ","response":0,"trial_type":"html-button-response","trial_index":60,"time_elapsed":265675,"internal_node_id":"0.0-4.0-1.26","subject_id":"5d67476c0ca617001699fe7a","study_id":"6197b3f67c2b5cd3b6d9596a","session_id":"619be31d4e3e3beef4c3195a","condition":"contingent","relevant_dimensions":["antennae","pattern"],"bee_group":{"antennae":"A","wings":"X","pattern":"D","legs":"X"},"bonus":1.140000000000001},{"rt":2316.300000000745,"stimulus":"bees-with-color/bee-B1DM.svg","response":1,"trial_type":"image-button-response","trial_index":61,"time_elapsed":267992,"internal_node_id":"0.0-4.0-0.27","subject_id":"5d67476c0ca617001699fe7a","study_id":"6197b3f67c2b5cd3b6d9596a","session_id":"619be31d4e3e3beef4c3195a","condition":"contingent","relevant_dimensions":["antennae","pattern"],"bee_group":{"antennae":"A","wings":"X","pattern":"D","legs":"X"},"action":"avoid","summary":"bad-avoid","bonus":1.140000000000001},{"rt":708,"stimulus":"\n                    <p><b>Action: <em>avoid</em></b></p>\n                    <p>This is the bee that you just saw.</p>\n                    <img src=\"bees-with-color/bee-B1DM.svg\" width=\"200\">\n                    <p><br>Your bonus pay is unchanged, and remains at $0.56.</p>\n            ","response":0,"trial_type":"html-button-response","trial_index":62,"time_elapsed":268701,"internal_node_id":"0.0-4.0-1.27","subject_id":"5d67476c0ca617001699fe7a","study_id":"6197b3f67c2b5cd3b6d9596a","session_id":"619be31d4e3e3beef4c3195a","condition":"contingent","relevant_dimensions":["antennae","pattern"],"bee_group":{"antennae":"A","wings":"X","pattern":"D","legs":"X"},"bonus":1.140000000000001},{"rt":3107.699999999255,"stimulus":"bees-with-color/bee-A2DM.svg","response":1,"trial_type":"image-button-response","trial_index":63,"time_elapsed":271810,"internal_node_id":"0.0-4.0-0.28","subject_id":"5d67476c0ca617001699fe7a","study_id":"6197b3f67c2b5cd3b6d9596a","session_id":"619be31d4e3e3beef4c3195a","condition":"contingent","relevant_dimensions":["antennae","pattern"],"bee_group":{"antennae":"A","wings":"X","pattern":"D","legs":"X"},"action":"avoid","summary":"good-avoid","bonus":1.140000000000001},{"rt":655.8999999985099,"stimulus":"\n                    <p><b>Action: <em>avoid</em></b></p>\n                    <p>This is the bee that you just saw.</p>\n                    <img src=\"bees-with-color/bee-A2DM.svg\" width=\"200\">\n                    <p><br>Your bonus pay is unchanged, and remains at $0.56.</p>\n            ","response":0,"trial_type":"html-button-response","trial_index":64,"time_elapsed":272467,"internal_node_id":"0.0-4.0-1.28","subject_id":"5d67476c0ca617001699fe7a","study_id":"6197b3f67c2b5cd3b6d9596a","session_id":"619be31d4e3e3beef4c3195a","condition":"contingent","relevant_dimensions":["antennae","pattern"],"bee_group":{"antennae":"A","wings":"X","pattern":"D","legs":"X"},"bonus":1.140000000000001},{"rt":2339.10000000149,"stimulus":"bees-with-color/bee-A1DM.svg","response":1,"trial_type":"image-button-response","trial_index":65,"time_elapsed":274807,"internal_node_id":"0.0-4.0-0.29","subject_id":"5d67476c0ca617001699fe7a","study_id":"6197b3f67c2b5cd3b6d9596a","session_id":"619be31d4e3e3beef4c3195a","condition":"contingent","relevant_dimensions":["antennae","pattern"],"bee_group":{"antennae":"A","wings":"X","pattern":"D","legs":"X"},"action":"avoid","summary":"good-avoid","bonus":1.140000000000001},{"rt":490.3999999985099,"stimulus":"\n                    <p><b>Action: <em>avoid</em></b></p>\n                    <p>This is the bee that you just saw.</p>\n                    <img src=\"bees-with-color/bee-A1DM.svg\" width=\"200\">\n                    <p><br>Your bonus pay is unchanged, and remains at $0.56.</p>\n            ","response":0,"trial_type":"html-button-response","trial_index":66,"time_elapsed":275299,"internal_node_id":"0.0-4.0-1.29","subject_id":"5d67476c0ca617001699fe7a","study_id":"6197b3f67c2b5cd3b6d9596a","session_id":"619be31d4e3e3beef4c3195a","condition":"contingent","relevant_dimensions":["antennae","pattern"],"bee_group":{"antennae":"A","wings":"X","pattern":"D","legs":"X"},"bonus":1.140000000000001},{"rt":1478.6000000014901,"stimulus":"bees-with-color/bee-A1SM.svg","response":0,"trial_type":"image-button-response","trial_index":67,"time_elapsed":276778,"internal_node_id":"0.0-4.0-0.30","subject_id":"5d67476c0ca617001699fe7a","study_id":"6197b3f67c2b5cd3b6d9596a","session_id":"619be31d4e3e3beef4c3195a","condition":"contingent","relevant_dimensions":["antennae","pattern"],"bee_group":{"antennae":"A","wings":"X","pattern":"D","legs":"X"},"action":"harvest","summary":"good-harvest","bonus":1.140000000000001},{"rt":994.1000000014901,"stimulus":"\n                    <p><b>Action: <em>harvest</em></b></p>\n                    <p>This is the bee that you just saw.</p>\n                    <img src=\"bees-with-color/bee-A1SM.svg\" width=\"200\">\n                    <p><span class=\"greenText\"><b>Successful harvest!</b></span><br>Your pay has increased by $0.02. Your bonus pay is now $0.58.</p>\n            ","response":0,"trial_type":"html-button-response","trial_index":68,"time_elapsed":277774,"internal_node_id":"0.0-4.0-1.30","subject_id":"5d67476c0ca617001699fe7a","study_id":"6197b3f67c2b5cd3b6d9596a","session_id":"619be31d4e3e3beef4c3195a","condition":"contingent","relevant_dimensions":["antennae","pattern"],"bee_group":{"antennae":"A","wings":"X","pattern":"D","legs":"X"},"bonus":1.140000000000001},{"rt":1180.800000000745,"stimulus":"bees-with-color/bee-A2SF.svg","response":0,"trial_type":"image-button-response","trial_index":69,"time_elapsed":278956,"internal_node_id":"0.0-4.0-0.31","subject_id":"5d67476c0ca617001699fe7a","study_id":"6197b3f67c2b5cd3b6d9596a","session_id":"619be31d4e3e3beef4c3195a","condition":"contingent","relevant_dimensions":["antennae","pattern"],"bee_group":{"antennae":"A","wings":"X","pattern":"D","legs":"X"},"action":"harvest","summary":"good-harvest","bonus":1.140000000000001},{"rt":515.5999999977648,"stimulus":"\n                    <p><b>Action: <em>harvest</em></b></p>\n                    <p>This is the bee that you just saw.</p>\n                    <img src=\"bees-with-color/bee-A2SF.svg\" width=\"200\">\n                    <p><span class=\"greenText\"><b>Successful harvest!</b></span><br>Your pay has increased by $0.02. Your bonus pay is now $0.60.</p>\n            ","response":0,"trial_type":"html-button-response","trial_index":70,"time_elapsed":279472,"internal_node_id":"0.0-4.0-1.31","subject_id":"5d67476c0ca617001699fe7a","study_id":"6197b3f67c2b5cd3b6d9596a","session_id":"619be31d4e3e3beef4c3195a","condition":"contingent","relevant_dimensions":["antennae","pattern"],"bee_group":{"antennae":"A","wings":"X","pattern":"D","legs":"X"},"bonus":1.140000000000001},{"rt":2945.2999999970198,"stimulus":"bees-with-color/bee-B2DM.svg","response":1,"trial_type":"image-button-response","trial_index":71,"time_elapsed":282419,"internal_node_id":"0.0-4.0-0.32","subject_id":"5d67476c0ca617001699fe7a","study_id":"6197b3f67c2b5cd3b6d9596a","session_id":"619be31d4e3e3beef4c3195a","condition":"contingent","relevant_dimensions":["antennae","pattern"],"bee_group":{"antennae":"A","wings":"X","pattern":"D","legs":"X"},"action":"avoid","summary":"bad-avoid","bonus":1.140000000000001},{"rt":1121.8999999985099,"stimulus":"\n                    <p><b>Action: <em>avoid</em></b></p>\n                    <p>This is the bee that you just saw.</p>\n                    <img src=\"bees-with-color/bee-B2DM.svg\" width=\"200\">\n                    <p><br>Your bonus pay is unchanged, and remains at $0.60.</p>\n            ","response":0,"trial_type":"html-button-response","trial_index":72,"time_elapsed":283542,"internal_node_id":"0.0-4.0-1.32","subject_id":"5d67476c0ca617001699fe7a","study_id":"6197b3f67c2b5cd3b6d9596a","session_id":"619be31d4e3e3beef4c3195a","condition":"contingent","relevant_dimensions":["antennae","pattern"],"bee_group":{"antennae":"A","wings":"X","pattern":"D","legs":"X"},"bonus":1.140000000000001},{"rt":1034.9000000022352,"stimulus":"bees-with-color/bee-B1SM.svg","response":0,"trial_type":"image-button-response","trial_index":73,"time_elapsed":284578,"internal_node_id":"0.0-4.0-0.33","subject_id":"5d67476c0ca617001699fe7a","study_id":"6197b3f67c2b5cd3b6d9596a","session_id":"619be31d4e3e3beef4c3195a","condition":"contingent","relevant_dimensions":["antennae","pattern"],"bee_group":{"antennae":"A","wings":"X","pattern":"D","legs":"X"},"action":"harvest","summary":"good-harvest","bonus":1.140000000000001},{"rt":767.1999999992549,"stimulus":"\n                    <p><b>Action: <em>harvest</em></b></p>\n                    <p>This is the bee that you just saw.</p>\n                    <img src=\"bees-with-color/bee-B1SM.svg\" width=\"200\">\n                    <p><span class=\"greenText\"><b>Successful harvest!</b></span><br>Your pay has increased by $0.02. Your bonus pay is now $0.62.</p>\n            ","response":0,"trial_type":"html-button-response","trial_index":74,"time_elapsed":285346,"internal_node_id":"0.0-4.0-1.33","subject_id":"5d67476c0ca617001699fe7a","study_id":"6197b3f67c2b5cd3b6d9596a","session_id":"619be31d4e3e3beef4c3195a","condition":"contingent","relevant_dimensions":["antennae","pattern"],"bee_group":{"antennae":"A","wings":"X","pattern":"D","legs":"X"},"bonus":1.140000000000001},{"rt":1678.5999999977648,"stimulus":"bees-with-color/bee-A1SF.svg","response":0,"trial_type":"image-button-response","trial_index":75,"time_elapsed":287026,"internal_node_id":"0.0-4.0-0.34","subject_id":"5d67476c0ca617001699fe7a","study_id":"6197b3f67c2b5cd3b6d9596a","session_id":"619be31d4e3e3beef4c3195a","condition":"contingent","relevant_dimensions":["antennae","pattern"],"bee_group":{"antennae":"A","wings":"X","pattern":"D","legs":"X"},"action":"harvest","summary":"good-harvest","bonus":1.140000000000001},{"rt":582.6999999992549,"stimulus":"\n                    <p><b>Action: <em>harvest</em></b></p>\n                    <p>This is the bee that you just saw.</p>\n                    <img src=\"bees-with-color/bee-A1SF.svg\" width=\"200\">\n                    <p><span class=\"greenText\"><b>Successful harvest!</b></span><br>Your pay has increased by $0.02. Your bonus pay is now $0.64.</p>\n            ","response":0,"trial_type":"html-button-response","trial_index":76,"time_elapsed":287609,"internal_node_id":"0.0-4.0-1.34","subject_id":"5d67476c0ca617001699fe7a","study_id":"6197b3f67c2b5cd3b6d9596a","session_id":"619be31d4e3e3beef4c3195a","condition":"contingent","relevant_dimensions":["antennae","pattern"],"bee_group":{"antennae":"A","wings":"X","pattern":"D","legs":"X"},"bonus":1.140000000000001},{"rt":3344.60000000149,"stimulus":"bees-with-color/bee-B1DM.svg","response":1,"trial_type":"image-button-response","trial_index":77,"time_elapsed":290955,"internal_node_id":"0.0-4.0-0.35","subject_id":"5d67476c0ca617001699fe7a","study_id":"6197b3f67c2b5cd3b6d9596a","session_id":"619be31d4e3e3beef4c3195a","condition":"contingent","relevant_dimensions":["antennae","pattern"],"bee_group":{"antennae":"A","wings":"X","pattern":"D","legs":"X"},"action":"avoid","summary":"bad-avoid","bonus":1.140000000000001},{"rt":588.5,"stimulus":"\n                    <p><b>Action: <em>avoid</em></b></p>\n                    <p>This is the bee that you just saw.</p>\n                    <img src=\"bees-with-color/bee-B1DM.svg\" width=\"200\">\n                    <p><br>Your bonus pay is unchanged, and remains at $0.64.</p>\n            ","response":0,"trial_type":"html-button-response","trial_index":78,"time_elapsed":291545,"internal_node_id":"0.0-4.0-1.35","subject_id":"5d67476c0ca617001699fe7a","study_id":"6197b3f67c2b5cd3b6d9596a","session_id":"619be31d4e3e3beef4c3195a","condition":"contingent","relevant_dimensions":["antennae","pattern"],"bee_group":{"antennae":"A","wings":"X","pattern":"D","legs":"X"},"bonus":1.140000000000001},{"rt":1035.1000000014901,"stimulus":"bees-with-color/bee-A2SM.svg","response":0,"trial_type":"image-button-response","trial_index":79,"time_elapsed":292581,"internal_node_id":"0.0-4.0-0.36","subject_id":"5d67476c0ca617001699fe7a","study_id":"6197b3f67c2b5cd3b6d9596a","session_id":"619be31d4e3e3beef4c3195a","condition":"contingent","relevant_dimensions":["antennae","pattern"],"bee_group":{"antennae":"A","wings":"X","pattern":"D","legs":"X"},"action":"harvest","summary":"good-harvest","bonus":1.140000000000001},{"rt":532.5,"stimulus":"\n                    <p><b>Action: <em>harvest</em></b></p>\n                    <p>This is the bee that you just saw.</p>\n                    <img src=\"bees-with-color/bee-A2SM.svg\" width=\"200\">\n                    <p><span class=\"greenText\"><b>Successful harvest!</b></span><br>Your pay has increased by $0.02. Your bonus pay is now $0.66.</p>\n            ","response":0,"trial_type":"html-button-response","trial_index":80,"time_elapsed":293115,"internal_node_id":"0.0-4.0-1.36","subject_id":"5d67476c0ca617001699fe7a","study_id":"6197b3f67c2b5cd3b6d9596a","session_id":"619be31d4e3e3beef4c3195a","condition":"contingent","relevant_dimensions":["antennae","pattern"],"bee_group":{"antennae":"A","wings":"X","pattern":"D","legs":"X"},"bonus":1.140000000000001},{"rt":4029.199999999255,"stimulus":"bees-with-color/bee-A1DM.svg","response":0,"trial_type":"image-button-response","trial_index":81,"time_elapsed":297145,"internal_node_id":"0.0-4.0-0.37","subject_id":"5d67476c0ca617001699fe7a","study_id":"6197b3f67c2b5cd3b6d9596a","session_id":"619be31d4e3e3beef4c3195a","condition":"contingent","relevant_dimensions":["antennae","pattern"],"bee_group":{"antennae":"A","wings":"X","pattern":"D","legs":"X"},"action":"harvest","summary":"bad-harvest","bonus":1.140000000000001},{"rt":881.3000000007451,"stimulus":"\n                    <p><b>Action: <em>harvest</em></b></p>\n                    <p>This is the bee that you just saw.</p>\n                    <img src=\"bees-with-color/bee-A1DM.svg\" width=\"200\">\n                    <p><span class=\"redText\">Bad choice, the bee was angry.</span><br><b>You have been stung!</b><br>Your pay has been decreased by $0.10. Your bonus pay is now $0.56.</p>\n            ","response":0,"trial_type":"html-button-response","trial_index":82,"time_elapsed":298027,"internal_node_id":"0.0-4.0-1.37","subject_id":"5d67476c0ca617001699fe7a","study_id":"6197b3f67c2b5cd3b6d9596a","session_id":"619be31d4e3e3beef4c3195a","condition":"contingent","relevant_dimensions":["antennae","pattern"],"bee_group":{"antennae":"A","wings":"X","pattern":"D","legs":"X"},"bonus":1.140000000000001},{"rt":1746.0999999977648,"stimulus":"bees-with-color/bee-A1DF.svg","response":1,"trial_type":"image-button-response","trial_index":83,"time_elapsed":299774,"internal_node_id":"0.0-4.0-0.38","subject_id":"5d67476c0ca617001699fe7a","study_id":"6197b3f67c2b5cd3b6d9596a","session_id":"619be31d4e3e3beef4c3195a","condition":"contingent","relevant_dimensions":["antennae","pattern"],"bee_group":{"antennae":"A","wings":"X","pattern":"D","legs":"X"},"action":"avoid","summary":"good-avoid","bonus":1.140000000000001},{"rt":612.3000000007451,"stimulus":"\n                    <p><b>Action: <em>avoid</em></b></p>\n                    <p>This is the bee that you just saw.</p>\n                    <img src=\"bees-with-color/bee-A1DF.svg\" width=\"200\">\n                    <p><br>Your bonus pay is unchanged, and remains at $0.56.</p>\n            ","response":0,"trial_type":"html-button-response","trial_index":84,"time_elapsed":300388,"internal_node_id":"0.0-4.0-1.38","subject_id":"5d67476c0ca617001699fe7a","study_id":"6197b3f67c2b5cd3b6d9596a","session_id":"619be31d4e3e3beef4c3195a","condition":"contingent","relevant_dimensions":["antennae","pattern"],"bee_group":{"antennae":"A","wings":"X","pattern":"D","legs":"X"},"bonus":1.140000000000001},{"rt":854.8999999985099,"stimulus":"bees-with-color/bee-A2SF.svg","response":0,"trial_type":"image-button-response","trial_index":85,"time_elapsed":301244,"internal_node_id":"0.0-4.0-0.39","subject_id":"5d67476c0ca617001699fe7a","study_id":"6197b3f67c2b5cd3b6d9596a","session_id":"619be31d4e3e3beef4c3195a","condition":"contingent","relevant_dimensions":["antennae","pattern"],"bee_group":{"antennae":"A","wings":"X","pattern":"D","legs":"X"},"action":"harvest","summary":"good-harvest","bonus":1.140000000000001},{"rt":481,"stimulus":"\n                    <p><b>Action: <em>harvest</em></b></p>\n                    <p>This is the bee that you just saw.</p>\n                    <img src=\"bees-with-color/bee-A2SF.svg\" width=\"200\">\n                    <p><span class=\"greenText\"><b>Successful harvest!</b></span><br>Your pay has increased by $0.02. Your bonus pay is now $0.58.</p>\n            ","response":0,"trial_type":"html-button-response","trial_index":86,"time_elapsed":301726,"internal_node_id":"0.0-4.0-1.39","subject_id":"5d67476c0ca617001699fe7a","study_id":"6197b3f67c2b5cd3b6d9596a","session_id":"619be31d4e3e3beef4c3195a","condition":"contingent","relevant_dimensions":["antennae","pattern"],"bee_group":{"antennae":"A","wings":"X","pattern":"D","legs":"X"},"bonus":1.140000000000001},{"rt":1258.0999999977648,"stimulus":"bees-with-color/bee-B2SM.svg","response":0,"trial_type":"image-button-response","trial_index":87,"time_elapsed":302985,"internal_node_id":"0.0-4.0-0.40","subject_id":"5d67476c0ca617001699fe7a","study_id":"6197b3f67c2b5cd3b6d9596a","session_id":"619be31d4e3e3beef4c3195a","condition":"contingent","relevant_dimensions":["antennae","pattern"],"bee_group":{"antennae":"A","wings":"X","pattern":"D","legs":"X"},"action":"harvest","summary":"good-harvest","bonus":1.140000000000001},{"rt":479,"stimulus":"\n                    <p><b>Action: <em>harvest</em></b></p>\n                    <p>This is the bee that you just saw.</p>\n                    <img src=\"bees-with-color/bee-B2SM.svg\" width=\"200\">\n                    <p><span class=\"greenText\"><b>Successful harvest!</b></span><br>Your pay has increased by $0.02. Your bonus pay is now $0.60.</p>\n            ","response":0,"trial_type":"html-button-response","trial_index":88,"time_elapsed":303465,"internal_node_id":"0.0-4.0-1.40","subject_id":"5d67476c0ca617001699fe7a","study_id":"6197b3f67c2b5cd3b6d9596a","session_id":"619be31d4e3e3beef4c3195a","condition":"contingent","relevant_dimensions":["antennae","pattern"],"bee_group":{"antennae":"A","wings":"X","pattern":"D","legs":"X"},"bonus":1.140000000000001},{"rt":855.8000000007451,"stimulus":"bees-with-color/bee-A1SM.svg","response":0,"trial_type":"image-button-response","trial_index":89,"time_elapsed":304322,"internal_node_id":"0.0-4.0-0.41","subject_id":"5d67476c0ca617001699fe7a","study_id":"6197b3f67c2b5cd3b6d9596a","session_id":"619be31d4e3e3beef4c3195a","condition":"contingent","relevant_dimensions":["antennae","pattern"],"bee_group":{"antennae":"A","wings":"X","pattern":"D","legs":"X"},"action":"harvest","summary":"good-harvest","bonus":1.140000000000001},{"rt":507.6000000014901,"stimulus":"\n                    <p><b>Action: <em>harvest</em></b></p>\n                    <p>This is the bee that you just saw.</p>\n                    <img src=\"bees-with-color/bee-A1SM.svg\" width=\"200\">\n                    <p><span class=\"greenText\"><b>Successful harvest!</b></span><br>Your pay has increased by $0.02. Your bonus pay is now $0.62.</p>\n            ","response":0,"trial_type":"html-button-response","trial_index":90,"time_elapsed":304831,"internal_node_id":"0.0-4.0-1.41","subject_id":"5d67476c0ca617001699fe7a","study_id":"6197b3f67c2b5cd3b6d9596a","session_id":"619be31d4e3e3beef4c3195a","condition":"contingent","relevant_dimensions":["antennae","pattern"],"bee_group":{"antennae":"A","wings":"X","pattern":"D","legs":"X"},"bonus":1.140000000000001},{"rt":1110.7000000029802,"stimulus":"bees-with-color/bee-B2SF.svg","response":0,"trial_type":"image-button-response","trial_index":91,"time_elapsed":305942,"internal_node_id":"0.0-4.0-0.42","subject_id":"5d67476c0ca617001699fe7a","study_id":"6197b3f67c2b5cd3b6d9596a","session_id":"619be31d4e3e3beef4c3195a","condition":"contingent","relevant_dimensions":["antennae","pattern"],"bee_group":{"antennae":"A","wings":"X","pattern":"D","legs":"X"},"action":"harvest","summary":"good-harvest","bonus":1.140000000000001},{"rt":542.1000000014901,"stimulus":"\n                    <p><b>Action: <em>harvest</em></b></p>\n                    <p>This is the bee that you just saw.</p>\n                    <img src=\"bees-with-color/bee-B2SF.svg\" width=\"200\">\n                    <p><span class=\"greenText\"><b>Successful harvest!</b></span><br>Your pay has increased by $0.02. Your bonus pay is now $0.64.</p>\n            ","response":0,"trial_type":"html-button-response","trial_index":92,"time_elapsed":306486,"internal_node_id":"0.0-4.0-1.42","subject_id":"5d67476c0ca617001699fe7a","study_id":"6197b3f67c2b5cd3b6d9596a","session_id":"619be31d4e3e3beef4c3195a","condition":"contingent","relevant_dimensions":["antennae","pattern"],"bee_group":{"antennae":"A","wings":"X","pattern":"D","legs":"X"},"bonus":1.140000000000001},{"rt":920.8000000007451,"stimulus":"bees-with-color/bee-A2DM.svg","response":1,"trial_type":"image-button-response","trial_index":93,"time_elapsed":307407,"internal_node_id":"0.0-4.0-0.43","subject_id":"5d67476c0ca617001699fe7a","study_id":"6197b3f67c2b5cd3b6d9596a","session_id":"619be31d4e3e3beef4c3195a","condition":"contingent","relevant_dimensions":["antennae","pattern"],"bee_group":{"antennae":"A","wings":"X","pattern":"D","legs":"X"},"action":"avoid","summary":"good-avoid","bonus":1.140000000000001},{"rt":822.7999999970198,"stimulus":"\n                    <p><b>Action: <em>avoid</em></b></p>\n                    <p>This is the bee that you just saw.</p>\n                    <img src=\"bees-with-color/bee-A2DM.svg\" width=\"200\">\n                    <p><br>Your bonus pay is unchanged, and remains at $0.64.</p>\n            ","response":0,"trial_type":"html-button-response","trial_index":94,"time_elapsed":308231,"internal_node_id":"0.0-4.0-1.43","subject_id":"5d67476c0ca617001699fe7a","study_id":"6197b3f67c2b5cd3b6d9596a","session_id":"619be31d4e3e3beef4c3195a","condition":"contingent","relevant_dimensions":["antennae","pattern"],"bee_group":{"antennae":"A","wings":"X","pattern":"D","legs":"X"},"bonus":1.140000000000001},{"rt":1209.199999999255,"stimulus":"bees-with-color/bee-B1SF.svg","response":0,"trial_type":"image-button-response","trial_index":95,"time_elapsed":309442,"internal_node_id":"0.0-4.0-0.44","subject_id":"5d67476c0ca617001699fe7a","study_id":"6197b3f67c2b5cd3b6d9596a","session_id":"619be31d4e3e3beef4c3195a","condition":"contingent","relevant_dimensions":["antennae","pattern"],"bee_group":{"antennae":"A","wings":"X","pattern":"D","legs":"X"},"action":"harvest","summary":"good-harvest","bonus":1.140000000000001},{"rt":467,"stimulus":"\n                    <p><b>Action: <em>harvest</em></b></p>\n                    <p>This is the bee that you just saw.</p>\n                    <img src=\"bees-with-color/bee-B1SF.svg\" width=\"200\">\n                    <p><span class=\"greenText\"><b>Successful harvest!</b></span><br>Your pay has increased by $0.02. Your bonus pay is now $0.66.</p>\n            ","response":0,"trial_type":"html-button-response","trial_index":96,"time_elapsed":309910,"internal_node_id":"0.0-4.0-1.44","subject_id":"5d67476c0ca617001699fe7a","study_id":"6197b3f67c2b5cd3b6d9596a","session_id":"619be31d4e3e3beef4c3195a","condition":"contingent","relevant_dimensions":["antennae","pattern"],"bee_group":{"antennae":"A","wings":"X","pattern":"D","legs":"X"},"bonus":1.140000000000001},{"rt":763.8000000007451,"stimulus":"bees-with-color/bee-A2DF.svg","response":1,"trial_type":"image-button-response","trial_index":97,"time_elapsed":310675,"internal_node_id":"0.0-4.0-0.45","subject_id":"5d67476c0ca617001699fe7a","study_id":"6197b3f67c2b5cd3b6d9596a","session_id":"619be31d4e3e3beef4c3195a","condition":"contingent","relevant_dimensions":["antennae","pattern"],"bee_group":{"antennae":"A","wings":"X","pattern":"D","legs":"X"},"action":"avoid","summary":"good-avoid","bonus":1.140000000000001},{"rt":555.3999999985099,"stimulus":"\n                    <p><b>Action: <em>avoid</em></b></p>\n                    <p>This is the bee that you just saw.</p>\n                    <img src=\"bees-with-color/bee-A2DF.svg\" width=\"200\">\n                    <p><br>Your bonus pay is unchanged, and remains at $0.66.</p>\n            ","response":0,"trial_type":"html-button-response","trial_index":98,"time_elapsed":311231,"internal_node_id":"0.0-4.0-1.45","subject_id":"5d67476c0ca617001699fe7a","study_id":"6197b3f67c2b5cd3b6d9596a","session_id":"619be31d4e3e3beef4c3195a","condition":"contingent","relevant_dimensions":["antennae","pattern"],"bee_group":{"antennae":"A","wings":"X","pattern":"D","legs":"X"},"bonus":1.140000000000001},{"rt":2644.300000000745,"stimulus":"bees-with-color/bee-B2DF.svg","response":1,"trial_type":"image-button-response","trial_index":99,"time_elapsed":313877,"internal_node_id":"0.0-4.0-0.46","subject_id":"5d67476c0ca617001699fe7a","study_id":"6197b3f67c2b5cd3b6d9596a","session_id":"619be31d4e3e3beef4c3195a","condition":"contingent","relevant_dimensions":["antennae","pattern"],"bee_group":{"antennae":"A","wings":"X","pattern":"D","legs":"X"},"action":"avoid","summary":"bad-avoid","bonus":1.140000000000001},{"rt":483,"stimulus":"\n                    <p><b>Action: <em>avoid</em></b></p>\n                    <p>This is the bee that you just saw.</p>\n                    <img src=\"bees-with-color/bee-B2DF.svg\" width=\"200\">\n                    <p><br>Your bonus pay is unchanged, and remains at $0.66.</p>\n            ","response":0,"trial_type":"html-button-response","trial_index":100,"time_elapsed":314362,"internal_node_id":"0.0-4.0-1.46","subject_id":"5d67476c0ca617001699fe7a","study_id":"6197b3f67c2b5cd3b6d9596a","session_id":"619be31d4e3e3beef4c3195a","condition":"contingent","relevant_dimensions":["antennae","pattern"],"bee_group":{"antennae":"A","wings":"X","pattern":"D","legs":"X"},"bonus":1.140000000000001},{"rt":791.8000000007451,"stimulus":"bees-with-color/bee-B1DF.svg","response":1,"trial_type":"image-button-response","trial_index":101,"time_elapsed":315155,"internal_node_id":"0.0-4.0-0.47","subject_id":"5d67476c0ca617001699fe7a","study_id":"6197b3f67c2b5cd3b6d9596a","session_id":"619be31d4e3e3beef4c3195a","condition":"contingent","relevant_dimensions":["antennae","pattern"],"bee_group":{"antennae":"A","wings":"X","pattern":"D","legs":"X"},"action":"avoid","summary":"bad-avoid","bonus":1.140000000000001},{"rt":427.3999999985099,"stimulus":"\n                    <p><b>Action: <em>avoid</em></b></p>\n                    <p>This is the bee that you just saw.</p>\n                    <img src=\"bees-with-color/bee-B1DF.svg\" width=\"200\">\n                    <p><br>Your bonus pay is unchanged, and remains at $0.66.</p>\n            ","response":0,"trial_type":"html-button-response","trial_index":102,"time_elapsed":315584,"internal_node_id":"0.0-4.0-1.47","subject_id":"5d67476c0ca617001699fe7a","study_id":"6197b3f67c2b5cd3b6d9596a","session_id":"619be31d4e3e3beef4c3195a","condition":"contingent","relevant_dimensions":["antennae","pattern"],"bee_group":{"antennae":"A","wings":"X","pattern":"D","legs":"X"},"bonus":1.140000000000001},{"rt":998.8999999985099,"stimulus":"bees-with-color/bee-A1DF.svg","response":1,"trial_type":"image-button-response","trial_index":103,"time_elapsed":316584,"internal_node_id":"0.0-4.0-0.48","subject_id":"5d67476c0ca617001699fe7a","study_id":"6197b3f67c2b5cd3b6d9596a","session_id":"619be31d4e3e3beef4c3195a","condition":"contingent","relevant_dimensions":["antennae","pattern"],"bee_group":{"antennae":"A","wings":"X","pattern":"D","legs":"X"},"action":"avoid","summary":"good-avoid","bonus":1.140000000000001},{"rt":445.0999999977648,"stimulus":"\n                    <p><b>Action: <em>avoid</em></b></p>\n                    <p>This is the bee that you just saw.</p>\n                    <img src=\"bees-with-color/bee-A1DF.svg\" width=\"200\">\n                    <p><br>Your bonus pay is unchanged, and remains at $0.66.</p>\n            ","response":0,"trial_type":"html-button-response","trial_index":104,"time_elapsed":317029,"internal_node_id":"0.0-4.0-1.48","subject_id":"5d67476c0ca617001699fe7a","study_id":"6197b3f67c2b5cd3b6d9596a","session_id":"619be31d4e3e3beef4c3195a","condition":"contingent","relevant_dimensions":["antennae","pattern"],"bee_group":{"antennae":"A","wings":"X","pattern":"D","legs":"X"},"bonus":1.140000000000001},{"rt":1176.699999999255,"stimulus":"bees-with-color/bee-B2SM.svg","response":0,"trial_type":"image-button-response","trial_index":105,"time_elapsed":318207,"internal_node_id":"0.0-4.0-0.49","subject_id":"5d67476c0ca617001699fe7a","study_id":"6197b3f67c2b5cd3b6d9596a","session_id":"619be31d4e3e3beef4c3195a","condition":"contingent","relevant_dimensions":["antennae","pattern"],"bee_group":{"antennae":"A","wings":"X","pattern":"D","legs":"X"},"action":"harvest","summary":"good-harvest","bonus":1.140000000000001},{"rt":538.4000000022352,"stimulus":"\n                    <p><b>Action: <em>harvest</em></b></p>\n                    <p>This is the bee that you just saw.</p>\n                    <img src=\"bees-with-color/bee-B2SM.svg\" width=\"200\">\n                    <p><span class=\"greenText\"><b>Successful harvest!</b></span><br>Your pay has increased by $0.02. Your bonus pay is now $0.68.</p>\n            ","response":0,"trial_type":"html-button-response","trial_index":106,"time_elapsed":318746,"internal_node_id":"0.0-4.0-1.49","subject_id":"5d67476c0ca617001699fe7a","study_id":"6197b3f67c2b5cd3b6d9596a","session_id":"619be31d4e3e3beef4c3195a","condition":"contingent","relevant_dimensions":["antennae","pattern"],"bee_group":{"antennae":"A","wings":"X","pattern":"D","legs":"X"},"bonus":1.140000000000001},{"rt":2673.699999999255,"stimulus":"bees-with-color/bee-A2SM.svg","response":0,"trial_type":"image-button-response","trial_index":107,"time_elapsed":321421,"internal_node_id":"0.0-4.0-0.50","subject_id":"5d67476c0ca617001699fe7a","study_id":"6197b3f67c2b5cd3b6d9596a","session_id":"619be31d4e3e3beef4c3195a","condition":"contingent","relevant_dimensions":["antennae","pattern"],"bee_group":{"antennae":"A","wings":"X","pattern":"D","legs":"X"},"action":"harvest","summary":"good-harvest","bonus":1.140000000000001},{"rt":531.1000000014901,"stimulus":"\n                    <p><b>Action: <em>harvest</em></b></p>\n                    <p>This is the bee that you just saw.</p>\n                    <img src=\"bees-with-color/bee-A2SM.svg\" width=\"200\">\n                    <p><span class=\"greenText\"><b>Successful harvest!</b></span><br>Your pay has increased by $0.02. Your bonus pay is now $0.70.</p>\n            ","response":0,"trial_type":"html-button-response","trial_index":108,"time_elapsed":321953,"internal_node_id":"0.0-4.0-1.50","subject_id":"5d67476c0ca617001699fe7a","study_id":"6197b3f67c2b5cd3b6d9596a","session_id":"619be31d4e3e3beef4c3195a","condition":"contingent","relevant_dimensions":["antennae","pattern"],"bee_group":{"antennae":"A","wings":"X","pattern":"D","legs":"X"},"bonus":1.140000000000001},{"rt":1263.3999999985099,"stimulus":"bees-with-color/bee-B1DF.svg","response":1,"trial_type":"image-button-response","trial_index":109,"time_elapsed":323218,"internal_node_id":"0.0-4.0-0.51","subject_id":"5d67476c0ca617001699fe7a","study_id":"6197b3f67c2b5cd3b6d9596a","session_id":"619be31d4e3e3beef4c3195a","condition":"contingent","relevant_dimensions":["antennae","pattern"],"bee_group":{"antennae":"A","wings":"X","pattern":"D","legs":"X"},"action":"avoid","summary":"bad-avoid","bonus":1.140000000000001},{"rt":444.6000000014901,"stimulus":"\n                    <p><b>Action: <em>avoid</em></b></p>\n                    <p>This is the bee that you just saw.</p>\n                    <img src=\"bees-with-color/bee-B1DF.svg\" width=\"200\">\n                    <p><br>Your bonus pay is unchanged, and remains at $0.70.</p>\n            ","response":0,"trial_type":"html-button-response","trial_index":110,"time_elapsed":323664,"internal_node_id":"0.0-4.0-1.51","subject_id":"5d67476c0ca617001699fe7a","study_id":"6197b3f67c2b5cd3b6d9596a","session_id":"619be31d4e3e3beef4c3195a","condition":"contingent","relevant_dimensions":["antennae","pattern"],"bee_group":{"antennae":"A","wings":"X","pattern":"D","legs":"X"},"bonus":1.140000000000001},{"rt":1063.5,"stimulus":"bees-with-color/bee-B2DM.svg","response":1,"trial_type":"image-button-response","trial_index":111,"time_elapsed":324728,"internal_node_id":"0.0-4.0-0.52","subject_id":"5d67476c0ca617001699fe7a","study_id":"6197b3f67c2b5cd3b6d9596a","session_id":"619be31d4e3e3beef4c3195a","condition":"contingent","relevant_dimensions":["antennae","pattern"],"bee_group":{"antennae":"A","wings":"X","pattern":"D","legs":"X"},"action":"avoid","summary":"bad-avoid","bonus":1.140000000000001},{"rt":397.79999999701977,"stimulus":"\n                    <p><b>Action: <em>avoid</em></b></p>\n                    <p>This is the bee that you just saw.</p>\n                    <img src=\"bees-with-color/bee-B2DM.svg\" width=\"200\">\n                    <p><br>Your bonus pay is unchanged, and remains at $0.70.</p>\n            ","response":0,"trial_type":"html-button-response","trial_index":112,"time_elapsed":325128,"internal_node_id":"0.0-4.0-1.52","subject_id":"5d67476c0ca617001699fe7a","study_id":"6197b3f67c2b5cd3b6d9596a","session_id":"619be31d4e3e3beef4c3195a","condition":"contingent","relevant_dimensions":["antennae","pattern"],"bee_group":{"antennae":"A","wings":"X","pattern":"D","legs":"X"},"bonus":1.140000000000001},{"rt":672.3000000007451,"stimulus":"bees-with-color/bee-A1SF.svg","response":0,"trial_type":"image-button-response","trial_index":113,"time_elapsed":325801,"internal_node_id":"0.0-4.0-0.53","subject_id":"5d67476c0ca617001699fe7a","study_id":"6197b3f67c2b5cd3b6d9596a","session_id":"619be31d4e3e3beef4c3195a","condition":"contingent","relevant_dimensions":["antennae","pattern"],"bee_group":{"antennae":"A","wings":"X","pattern":"D","legs":"X"},"action":"harvest","summary":"good-harvest","bonus":1.140000000000001},{"rt":393.5999999977648,"stimulus":"\n                    <p><b>Action: <em>harvest</em></b></p>\n                    <p>This is the bee that you just saw.</p>\n                    <img src=\"bees-with-color/bee-A1SF.svg\" width=\"200\">\n                    <p><span class=\"greenText\"><b>Successful harvest!</b></span><br>Your pay has increased by $0.02. Your bonus pay is now $0.72.</p>\n            ","response":0,"trial_type":"html-button-response","trial_index":114,"time_elapsed":326195,"internal_node_id":"0.0-4.0-1.53","subject_id":"5d67476c0ca617001699fe7a","study_id":"6197b3f67c2b5cd3b6d9596a","session_id":"619be31d4e3e3beef4c3195a","condition":"contingent","relevant_dimensions":["antennae","pattern"],"bee_group":{"antennae":"A","wings":"X","pattern":"D","legs":"X"},"bonus":1.140000000000001},{"rt":1490.2999999970198,"stimulus":"bees-with-color/bee-A1SM.svg","response":0,"trial_type":"image-button-response","trial_index":115,"time_elapsed":327687,"internal_node_id":"0.0-4.0-0.54","subject_id":"5d67476c0ca617001699fe7a","study_id":"6197b3f67c2b5cd3b6d9596a","session_id":"619be31d4e3e3beef4c3195a","condition":"contingent","relevant_dimensions":["antennae","pattern"],"bee_group":{"antennae":"A","wings":"X","pattern":"D","legs":"X"},"action":"harvest","summary":"good-harvest","bonus":1.140000000000001},{"rt":477.29999999701977,"stimulus":"\n                    <p><b>Action: <em>harvest</em></b></p>\n                    <p>This is the bee that you just saw.</p>\n                    <img src=\"bees-with-color/bee-A1SM.svg\" width=\"200\">\n                    <p><span class=\"greenText\"><b>Successful harvest!</b></span><br>Your pay has increased by $0.02. Your bonus pay is now $0.74.</p>\n            ","response":0,"trial_type":"html-button-response","trial_index":116,"time_elapsed":328165,"internal_node_id":"0.0-4.0-1.54","subject_id":"5d67476c0ca617001699fe7a","study_id":"6197b3f67c2b5cd3b6d9596a","session_id":"619be31d4e3e3beef4c3195a","condition":"contingent","relevant_dimensions":["antennae","pattern"],"bee_group":{"antennae":"A","wings":"X","pattern":"D","legs":"X"},"bonus":1.140000000000001},{"rt":2011,"stimulus":"bees-with-color/bee-A2DM.svg","response":1,"trial_type":"image-button-response","trial_index":117,"time_elapsed":330177,"internal_node_id":"0.0-4.0-0.55","subject_id":"5d67476c0ca617001699fe7a","study_id":"6197b3f67c2b5cd3b6d9596a","session_id":"619be31d4e3e3beef4c3195a","condition":"contingent","relevant_dimensions":["antennae","pattern"],"bee_group":{"antennae":"A","wings":"X","pattern":"D","legs":"X"},"action":"avoid","summary":"good-avoid","bonus":1.140000000000001},{"rt":825.8999999985099,"stimulus":"\n                    <p><b>Action: <em>avoid</em></b></p>\n                    <p>This is the bee that you just saw.</p>\n                    <img src=\"bees-with-color/bee-A2DM.svg\" width=\"200\">\n                    <p><br>Your bonus pay is unchanged, and remains at $0.74.</p>\n            ","response":0,"trial_type":"html-button-response","trial_index":118,"time_elapsed":331004,"internal_node_id":"0.0-4.0-1.55","subject_id":"5d67476c0ca617001699fe7a","study_id":"6197b3f67c2b5cd3b6d9596a","session_id":"619be31d4e3e3beef4c3195a","condition":"contingent","relevant_dimensions":["antennae","pattern"],"bee_group":{"antennae":"A","wings":"X","pattern":"D","legs":"X"},"bonus":1.140000000000001},{"rt":1097.800000000745,"stimulus":"bees-with-color/bee-A2SF.svg","response":0,"trial_type":"image-button-response","trial_index":119,"time_elapsed":332103,"internal_node_id":"0.0-4.0-0.56","subject_id":"5d67476c0ca617001699fe7a","study_id":"6197b3f67c2b5cd3b6d9596a","session_id":"619be31d4e3e3beef4c3195a","condition":"contingent","relevant_dimensions":["antennae","pattern"],"bee_group":{"antennae":"A","wings":"X","pattern":"D","legs":"X"},"action":"harvest","summary":"good-harvest","bonus":1.140000000000001},{"rt":454.20000000298023,"stimulus":"\n                    <p><b>Action: <em>harvest</em></b></p>\n                    <p>This is the bee that you just saw.</p>\n                    <img src=\"bees-with-color/bee-A2SF.svg\" width=\"200\">\n                    <p><span class=\"greenText\"><b>Successful harvest!</b></span><br>Your pay has increased by $0.02. Your bonus pay is now $0.76.</p>\n            ","response":0,"trial_type":"html-button-response","trial_index":120,"time_elapsed":332558,"internal_node_id":"0.0-4.0-1.56","subject_id":"5d67476c0ca617001699fe7a","study_id":"6197b3f67c2b5cd3b6d9596a","session_id":"619be31d4e3e3beef4c3195a","condition":"contingent","relevant_dimensions":["antennae","pattern"],"bee_group":{"antennae":"A","wings":"X","pattern":"D","legs":"X"},"bonus":1.140000000000001},{"rt":958.7000000029802,"stimulus":"bees-with-color/bee-B1SF.svg","response":0,"trial_type":"image-button-response","trial_index":121,"time_elapsed":333518,"internal_node_id":"0.0-4.0-0.57","subject_id":"5d67476c0ca617001699fe7a","study_id":"6197b3f67c2b5cd3b6d9596a","session_id":"619be31d4e3e3beef4c3195a","condition":"contingent","relevant_dimensions":["antennae","pattern"],"bee_group":{"antennae":"A","wings":"X","pattern":"D","legs":"X"},"action":"harvest","summary":"good-harvest","bonus":1.140000000000001},{"rt":441.8999999985099,"stimulus":"\n                    <p><b>Action: <em>harvest</em></b></p>\n                    <p>This is the bee that you just saw.</p>\n                    <img src=\"bees-with-color/bee-B1SF.svg\" width=\"200\">\n                    <p><span class=\"greenText\"><b>Successful harvest!</b></span><br>Your pay has increased by $0.02. Your bonus pay is now $0.78.</p>\n            ","response":0,"trial_type":"html-button-response","trial_index":122,"time_elapsed":333961,"internal_node_id":"0.0-4.0-1.57","subject_id":"5d67476c0ca617001699fe7a","study_id":"6197b3f67c2b5cd3b6d9596a","session_id":"619be31d4e3e3beef4c3195a","condition":"contingent","relevant_dimensions":["antennae","pattern"],"bee_group":{"antennae":"A","wings":"X","pattern":"D","legs":"X"},"bonus":1.140000000000001},{"rt":1344.9000000022352,"stimulus":"bees-with-color/bee-A2DF.svg","response":1,"trial_type":"image-button-response","trial_index":123,"time_elapsed":335307,"internal_node_id":"0.0-4.0-0.58","subject_id":"5d67476c0ca617001699fe7a","study_id":"6197b3f67c2b5cd3b6d9596a","session_id":"619be31d4e3e3beef4c3195a","condition":"contingent","relevant_dimensions":["antennae","pattern"],"bee_group":{"antennae":"A","wings":"X","pattern":"D","legs":"X"},"action":"avoid","summary":"good-avoid","bonus":1.140000000000001},{"rt":957,"stimulus":"\n                    <p><b>Action: <em>avoid</em></b></p>\n                    <p>This is the bee that you just saw.</p>\n                    <img src=\"bees-with-color/bee-A2DF.svg\" width=\"200\">\n                    <p><br>Your bonus pay is unchanged, and remains at $0.78.</p>\n            ","response":0,"trial_type":"html-button-response","trial_index":124,"time_elapsed":336265,"internal_node_id":"0.0-4.0-1.58","subject_id":"5d67476c0ca617001699fe7a","study_id":"6197b3f67c2b5cd3b6d9596a","session_id":"619be31d4e3e3beef4c3195a","condition":"contingent","relevant_dimensions":["antennae","pattern"],"bee_group":{"antennae":"A","wings":"X","pattern":"D","legs":"X"},"bonus":1.140000000000001},{"rt":2086.900000002235,"stimulus":"bees-with-color/bee-B1SM.svg","response":0,"trial_type":"image-button-response","trial_index":125,"time_elapsed":338352,"internal_node_id":"0.0-4.0-0.59","subject_id":"5d67476c0ca617001699fe7a","study_id":"6197b3f67c2b5cd3b6d9596a","session_id":"619be31d4e3e3beef4c3195a","condition":"contingent","relevant_dimensions":["antennae","pattern"],"bee_group":{"antennae":"A","wings":"X","pattern":"D","legs":"X"},"action":"harvest","summary":"good-harvest","bonus":1.140000000000001},{"rt":4671.20000000298,"stimulus":"\n                    <p><b>Action: <em>harvest</em></b></p>\n                    <p>This is the bee that you just saw.</p>\n                    <img src=\"bees-with-color/bee-B1SM.svg\" width=\"200\">\n                    <p><span class=\"greenText\"><b>Successful harvest!</b></span><br>Your pay has increased by $0.02. Your bonus pay is now $0.80.</p>\n            ","response":0,"trial_type":"html-button-response","trial_index":126,"time_elapsed":343025,"internal_node_id":"0.0-4.0-1.59","subject_id":"5d67476c0ca617001699fe7a","study_id":"6197b3f67c2b5cd3b6d9596a","session_id":"619be31d4e3e3beef4c3195a","condition":"contingent","relevant_dimensions":["antennae","pattern"],"bee_group":{"antennae":"A","wings":"X","pattern":"D","legs":"X"},"bonus":1.140000000000001},{"rt":5304.20000000298,"stimulus":"bees-with-color/bee-B2SF.svg","response":0,"trial_type":"image-button-response","trial_index":127,"time_elapsed":348330,"internal_node_id":"0.0-4.0-0.60","subject_id":"5d67476c0ca617001699fe7a","study_id":"6197b3f67c2b5cd3b6d9596a","session_id":"619be31d4e3e3beef4c3195a","condition":"contingent","relevant_dimensions":["antennae","pattern"],"bee_group":{"antennae":"A","wings":"X","pattern":"D","legs":"X"},"action":"harvest","summary":"good-harvest","bonus":1.140000000000001},{"rt":945.5,"stimulus":"\n                    <p><b>Action: <em>harvest</em></b></p>\n                    <p>This is the bee that you just saw.</p>\n                    <img src=\"bees-with-color/bee-B2SF.svg\" width=\"200\">\n                    <p><span class=\"greenText\"><b>Successful harvest!</b></span><br>Your pay has increased by $0.02. Your bonus pay is now $0.82.</p>\n            ","response":0,"trial_type":"html-button-response","trial_index":128,"time_elapsed":349277,"internal_node_id":"0.0-4.0-1.60","subject_id":"5d67476c0ca617001699fe7a","study_id":"6197b3f67c2b5cd3b6d9596a","session_id":"619be31d4e3e3beef4c3195a","condition":"contingent","relevant_dimensions":["antennae","pattern"],"bee_group":{"antennae":"A","wings":"X","pattern":"D","legs":"X"},"bonus":1.140000000000001},{"rt":1388.300000000745,"stimulus":"bees-with-color/bee-B2DF.svg","response":1,"trial_type":"image-button-response","trial_index":129,"time_elapsed":350666,"internal_node_id":"0.0-4.0-0.61","subject_id":"5d67476c0ca617001699fe7a","study_id":"6197b3f67c2b5cd3b6d9596a","session_id":"619be31d4e3e3beef4c3195a","condition":"contingent","relevant_dimensions":["antennae","pattern"],"bee_group":{"antennae":"A","wings":"X","pattern":"D","legs":"X"},"action":"avoid","summary":"bad-avoid","bonus":1.140000000000001},{"rt":881.3999999985099,"stimulus":"\n                    <p><b>Action: <em>avoid</em></b></p>\n                    <p>This is the bee that you just saw.</p>\n                    <img src=\"bees-with-color/bee-B2DF.svg\" width=\"200\">\n                    <p><br>Your bonus pay is unchanged, and remains at $0.82.</p>\n            ","response":0,"trial_type":"html-button-response","trial_index":130,"time_elapsed":351549,"internal_node_id":"0.0-4.0-1.61","subject_id":"5d67476c0ca617001699fe7a","study_id":"6197b3f67c2b5cd3b6d9596a","session_id":"619be31d4e3e3beef4c3195a","condition":"contingent","relevant_dimensions":["antennae","pattern"],"bee_group":{"antennae":"A","wings":"X","pattern":"D","legs":"X"},"bonus":1.140000000000001},{"rt":921.1999999992549,"stimulus":"bees-with-color/bee-A1DM.svg","response":1,"trial_type":"image-button-response","trial_index":131,"time_elapsed":352471,"internal_node_id":"0.0-4.0-0.62","subject_id":"5d67476c0ca617001699fe7a","study_id":"6197b3f67c2b5cd3b6d9596a","session_id":"619be31d4e3e3beef4c3195a","condition":"contingent","relevant_dimensions":["antennae","pattern"],"bee_group":{"antennae":"A","wings":"X","pattern":"D","legs":"X"},"action":"avoid","summary":"good-avoid","bonus":1.140000000000001},{"rt":505.5,"stimulus":"\n                    <p><b>Action: <em>avoid</em></b></p>\n                    <p>This is the bee that you just saw.</p>\n                    <img src=\"bees-with-color/bee-A1DM.svg\" width=\"200\">\n                    <p><br>Your bonus pay is unchanged, and remains at $0.82.</p>\n            ","response":0,"trial_type":"html-button-response","trial_index":132,"time_elapsed":352978,"internal_node_id":"0.0-4.0-1.62","subject_id":"5d67476c0ca617001699fe7a","study_id":"6197b3f67c2b5cd3b6d9596a","session_id":"619be31d4e3e3beef4c3195a","condition":"contingent","relevant_dimensions":["antennae","pattern"],"bee_group":{"antennae":"A","wings":"X","pattern":"D","legs":"X"},"bonus":1.140000000000001},{"rt":955.9000000022352,"stimulus":"bees-with-color/bee-B1DM.svg","response":1,"trial_type":"image-button-response","trial_index":133,"time_elapsed":353935,"internal_node_id":"0.0-4.0-0.63","subject_id":"5d67476c0ca617001699fe7a","study_id":"6197b3f67c2b5cd3b6d9596a","session_id":"619be31d4e3e3beef4c3195a","condition":"contingent","relevant_dimensions":["antennae","pattern"],"bee_group":{"antennae":"A","wings":"X","pattern":"D","legs":"X"},"action":"avoid","summary":"bad-avoid","bonus":1.140000000000001},{"rt":804.6999999992549,"stimulus":"\n                    <p><b>Action: <em>avoid</em></b></p>\n                    <p>This is the bee that you just saw.</p>\n                    <img src=\"bees-with-color/bee-B1DM.svg\" width=\"200\">\n                    <p><br>Your bonus pay is unchanged, and remains at $0.82.</p>\n            ","response":0,"trial_type":"html-button-response","trial_index":134,"time_elapsed":354740,"internal_node_id":"0.0-4.0-1.63","subject_id":"5d67476c0ca617001699fe7a","study_id":"6197b3f67c2b5cd3b6d9596a","session_id":"619be31d4e3e3beef4c3195a","condition":"contingent","relevant_dimensions":["antennae","pattern"],"bee_group":{"antennae":"A","wings":"X","pattern":"D","legs":"X"},"bonus":1.140000000000001},{"rt":7420,"stimulus":"You have completed the first part of this experiment.<br><br>You will now begin a shorter second part, in which you will receive no feedback.<br>The same rules regarding bonus pay apply.<br><br>Press any key to begin.","response":"n","trial_type":"html-keyboard-response","trial_index":135,"time_elapsed":362161,"internal_node_id":"0.0-5.0","subject_id":"5d67476c0ca617001699fe7a","study_id":"6197b3f67c2b5cd3b6d9596a","session_id":"619be31d4e3e3beef4c3195a","condition":"contingent","relevant_dimensions":["antennae","pattern"],"bee_group":{"antennae":"A","wings":"X","pattern":"D","legs":"X"},"bonus":1.140000000000001},{"rt":2977.900000002235,"stimulus":"bees-with-color/bee-B1DF.svg","response":1,"trial_type":"image-button-response","trial_index":136,"time_elapsed":365145,"internal_node_id":"0.0-6.0-0.0","subject_id":"5d67476c0ca617001699fe7a","study_id":"6197b3f67c2b5cd3b6d9596a","session_id":"619be31d4e3e3beef4c3195a","condition":"contingent","relevant_dimensions":["antennae","pattern"],"bee_group":{"antennae":"A","wings":"X","pattern":"D","legs":"X"},"bonus":1.140000000000001},{"rt":2934,"stimulus":"bees-with-color/bee-B1DM.svg","response":1,"trial_type":"image-button-response","trial_index":137,"time_elapsed":368082,"internal_node_id":"0.0-6.0-0.1","subject_id":"5d67476c0ca617001699fe7a","study_id":"6197b3f67c2b5cd3b6d9596a","session_id":"619be31d4e3e3beef4c3195a","condition":"contingent","relevant_dimensions":["antennae","pattern"],"bee_group":{"antennae":"A","wings":"X","pattern":"D","legs":"X"},"bonus":1.140000000000001},{"rt":944.1999999992549,"stimulus":"bees-with-color/bee-B2SM.svg","response":0,"trial_type":"image-button-response","trial_index":138,"time_elapsed":369027,"internal_node_id":"0.0-6.0-0.2","subject_id":"5d67476c0ca617001699fe7a","study_id":"6197b3f67c2b5cd3b6d9596a","session_id":"619be31d4e3e3beef4c3195a","condition":"contingent","relevant_dimensions":["antennae","pattern"],"bee_group":{"antennae":"A","wings":"X","pattern":"D","legs":"X"},"bonus":1.140000000000001},{"rt":1019.8000000007451,"stimulus":"bees-with-color/bee-A2SM.svg","response":0,"trial_type":"image-button-response","trial_index":139,"time_elapsed":370049,"internal_node_id":"0.0-6.0-0.3","subject_id":"5d67476c0ca617001699fe7a","study_id":"6197b3f67c2b5cd3b6d9596a","session_id":"619be31d4e3e3beef4c3195a","condition":"contingent","relevant_dimensions":["antennae","pattern"],"bee_group":{"antennae":"A","wings":"X","pattern":"D","legs":"X"},"bonus":1.140000000000001},{"rt":1016.6000000014901,"stimulus":"bees-with-color/bee-A1SF.svg","response":0,"trial_type":"image-button-response","trial_index":140,"time_elapsed":371067,"internal_node_id":"0.0-6.0-0.4","subject_id":"5d67476c0ca617001699fe7a","study_id":"6197b3f67c2b5cd3b6d9596a","session_id":"619be31d4e3e3beef4c3195a","condition":"contingent","relevant_dimensions":["antennae","pattern"],"bee_group":{"antennae":"A","wings":"X","pattern":"D","legs":"X"},"bonus":1.140000000000001},{"rt":1306.7999999970198,"stimulus":"bees-with-color/bee-B2DM.svg","response":1,"trial_type":"image-button-response","trial_index":141,"time_elapsed":372375,"internal_node_id":"0.0-6.0-0.5","subject_id":"5d67476c0ca617001699fe7a","study_id":"6197b3f67c2b5cd3b6d9596a","session_id":"619be31d4e3e3beef4c3195a","condition":"contingent","relevant_dimensions":["antennae","pattern"],"bee_group":{"antennae":"A","wings":"X","pattern":"D","legs":"X"},"bonus":1.140000000000001},{"rt":1051.5,"stimulus":"bees-with-color/bee-A2DM.svg","response":1,"trial_type":"image-button-response","trial_index":142,"time_elapsed":373428,"internal_node_id":"0.0-6.0-0.6","subject_id":"5d67476c0ca617001699fe7a","study_id":"6197b3f67c2b5cd3b6d9596a","session_id":"619be31d4e3e3beef4c3195a","condition":"contingent","relevant_dimensions":["antennae","pattern"],"bee_group":{"antennae":"A","wings":"X","pattern":"D","legs":"X"},"bonus":1.140000000000001},{"rt":714.5,"stimulus":"bees-with-color/bee-A1DM.svg","response":1,"trial_type":"image-button-response","trial_index":143,"time_elapsed":374145,"internal_node_id":"0.0-6.0-0.7","subject_id":"5d67476c0ca617001699fe7a","study_id":"6197b3f67c2b5cd3b6d9596a","session_id":"619be31d4e3e3beef4c3195a","condition":"contingent","relevant_dimensions":["antennae","pattern"],"bee_group":{"antennae":"A","wings":"X","pattern":"D","legs":"X"},"bonus":1.140000000000001},{"rt":766.5,"stimulus":"bees-with-color/bee-A2DF.svg","response":1,"trial_type":"image-button-response","trial_index":144,"time_elapsed":374912,"internal_node_id":"0.0-6.0-0.8","subject_id":"5d67476c0ca617001699fe7a","study_id":"6197b3f67c2b5cd3b6d9596a","session_id":"619be31d4e3e3beef4c3195a","condition":"contingent","relevant_dimensions":["antennae","pattern"],"bee_group":{"antennae":"A","wings":"X","pattern":"D","legs":"X"},"bonus":1.140000000000001},{"rt":875.8000000007451,"stimulus":"bees-with-color/bee-B1SF.svg","response":0,"trial_type":"image-button-response","trial_index":145,"time_elapsed":375790,"internal_node_id":"0.0-6.0-0.9","subject_id":"5d67476c0ca617001699fe7a","study_id":"6197b3f67c2b5cd3b6d9596a","session_id":"619be31d4e3e3beef4c3195a","condition":"contingent","relevant_dimensions":["antennae","pattern"],"bee_group":{"antennae":"A","wings":"X","pattern":"D","legs":"X"},"bonus":1.140000000000001},{"rt":1032.6000000014901,"stimulus":"bees-with-color/bee-A1DF.svg","response":1,"trial_type":"image-button-response","trial_index":146,"time_elapsed":376824,"internal_node_id":"0.0-6.0-0.10","subject_id":"5d67476c0ca617001699fe7a","study_id":"6197b3f67c2b5cd3b6d9596a","session_id":"619be31d4e3e3beef4c3195a","condition":"contingent","relevant_dimensions":["antennae","pattern"],"bee_group":{"antennae":"A","wings":"X","pattern":"D","legs":"X"},"bonus":1.140000000000001},{"rt":1605.300000000745,"stimulus":"bees-with-color/bee-B1SM.svg","response":0,"trial_type":"image-button-response","trial_index":147,"time_elapsed":378431,"internal_node_id":"0.0-6.0-0.11","subject_id":"5d67476c0ca617001699fe7a","study_id":"6197b3f67c2b5cd3b6d9596a","session_id":"619be31d4e3e3beef4c3195a","condition":"contingent","relevant_dimensions":["antennae","pattern"],"bee_group":{"antennae":"A","wings":"X","pattern":"D","legs":"X"},"bonus":1.140000000000001},{"rt":682.1999999992549,"stimulus":"bees-with-color/bee-B2SF.svg","response":0,"trial_type":"image-button-response","trial_index":148,"time_elapsed":379114,"internal_node_id":"0.0-6.0-0.12","subject_id":"5d67476c0ca617001699fe7a","study_id":"6197b3f67c2b5cd3b6d9596a","session_id":"619be31d4e3e3beef4c3195a","condition":"contingent","relevant_dimensions":["antennae","pattern"],"bee_group":{"antennae":"A","wings":"X","pattern":"D","legs":"X"},"bonus":1.140000000000001},{"rt":729.9000000022352,"stimulus":"bees-with-color/bee-A1SM.svg","response":0,"trial_type":"image-button-response","trial_index":149,"time_elapsed":379848,"internal_node_id":"0.0-6.0-0.13","subject_id":"5d67476c0ca617001699fe7a","study_id":"6197b3f67c2b5cd3b6d9596a","session_id":"619be31d4e3e3beef4c3195a","condition":"contingent","relevant_dimensions":["antennae","pattern"],"bee_group":{"antennae":"A","wings":"X","pattern":"D","legs":"X"},"bonus":1.140000000000001},{"rt":908.1999999992549,"stimulus":"bees-with-color/bee-B2DF.svg","response":1,"trial_type":"image-button-response","trial_index":150,"time_elapsed":380758,"internal_node_id":"0.0-6.0-0.14","subject_id":"5d67476c0ca617001699fe7a","study_id":"6197b3f67c2b5cd3b6d9596a","session_id":"619be31d4e3e3beef4c3195a","condition":"contingent","relevant_dimensions":["antennae","pattern"],"bee_group":{"antennae":"A","wings":"X","pattern":"D","legs":"X"},"bonus":1.140000000000001},{"rt":857.3000000007451,"stimulus":"bees-with-color/bee-A2SF.svg","response":0,"trial_type":"image-button-response","trial_index":151,"time_elapsed":381616,"internal_node_id":"0.0-6.0-0.15","subject_id":"5d67476c0ca617001699fe7a","study_id":"6197b3f67c2b5cd3b6d9596a","session_id":"619be31d4e3e3beef4c3195a","condition":"contingent","relevant_dimensions":["antennae","pattern"],"bee_group":{"antennae":"A","wings":"X","pattern":"D","legs":"X"},"bonus":1.140000000000001},{"rt":613.3000000007451,"stimulus":"bees-with-color/bee-A1SF.svg","response":0,"trial_type":"image-button-response","trial_index":152,"time_elapsed":382230,"internal_node_id":"0.0-6.0-0.16","subject_id":"5d67476c0ca617001699fe7a","study_id":"6197b3f67c2b5cd3b6d9596a","session_id":"619be31d4e3e3beef4c3195a","condition":"contingent","relevant_dimensions":["antennae","pattern"],"bee_group":{"antennae":"A","wings":"X","pattern":"D","legs":"X"},"bonus":1.140000000000001},{"rt":904.5,"stimulus":"bees-with-color/bee-B2DF.svg","response":1,"trial_type":"image-button-response","trial_index":153,"time_elapsed":383136,"internal_node_id":"0.0-6.0-0.17","subject_id":"5d67476c0ca617001699fe7a","study_id":"6197b3f67c2b5cd3b6d9596a","session_id":"619be31d4e3e3beef4c3195a","condition":"contingent","relevant_dimensions":["antennae","pattern"],"bee_group":{"antennae":"A","wings":"X","pattern":"D","legs":"X"},"bonus":1.140000000000001},{"rt":738.1999999992549,"stimulus":"bees-with-color/bee-A1SM.svg","response":0,"trial_type":"image-button-response","trial_index":154,"time_elapsed":383875,"internal_node_id":"0.0-6.0-0.18","subject_id":"5d67476c0ca617001699fe7a","study_id":"6197b3f67c2b5cd3b6d9596a","session_id":"619be31d4e3e3beef4c3195a","condition":"contingent","relevant_dimensions":["antennae","pattern"],"bee_group":{"antennae":"A","wings":"X","pattern":"D","legs":"X"},"bonus":1.140000000000001},{"rt":898.4000000022352,"stimulus":"bees-with-color/bee-B2DM.svg","response":1,"trial_type":"image-button-response","trial_index":155,"time_elapsed":384775,"internal_node_id":"0.0-6.0-0.19","subject_id":"5d67476c0ca617001699fe7a","study_id":"6197b3f67c2b5cd3b6d9596a","session_id":"619be31d4e3e3beef4c3195a","condition":"contingent","relevant_dimensions":["antennae","pattern"],"bee_group":{"antennae":"A","wings":"X","pattern":"D","legs":"X"},"bonus":1.140000000000001},{"rt":708,"stimulus":"bees-with-color/bee-B1SM.svg","response":0,"trial_type":"image-button-response","trial_index":156,"time_elapsed":385485,"internal_node_id":"0.0-6.0-0.20","subject_id":"5d67476c0ca617001699fe7a","study_id":"6197b3f67c2b5cd3b6d9596a","session_id":"619be31d4e3e3beef4c3195a","condition":"contingent","relevant_dimensions":["antennae","pattern"],"bee_group":{"antennae":"A","wings":"X","pattern":"D","legs":"X"},"bonus":1.140000000000001},{"rt":670.1999999992549,"stimulus":"bees-with-color/bee-A1DM.svg","response":1,"trial_type":"image-button-response","trial_index":157,"time_elapsed":386156,"internal_node_id":"0.0-6.0-0.21","subject_id":"5d67476c0ca617001699fe7a","study_id":"6197b3f67c2b5cd3b6d9596a","session_id":"619be31d4e3e3beef4c3195a","condition":"contingent","relevant_dimensions":["antennae","pattern"],"bee_group":{"antennae":"A","wings":"X","pattern":"D","legs":"X"},"bonus":1.140000000000001},{"rt":594.5,"stimulus":"bees-with-color/bee-B2SM.svg","response":0,"trial_type":"image-button-response","trial_index":158,"time_elapsed":386752,"internal_node_id":"0.0-6.0-0.22","subject_id":"5d67476c0ca617001699fe7a","study_id":"6197b3f67c2b5cd3b6d9596a","session_id":"619be31d4e3e3beef4c3195a","condition":"contingent","relevant_dimensions":["antennae","pattern"],"bee_group":{"antennae":"A","wings":"X","pattern":"D","legs":"X"},"bonus":1.140000000000001},{"rt":726.6000000014901,"stimulus":"bees-with-color/bee-A2DF.svg","response":1,"trial_type":"image-button-response","trial_index":159,"time_elapsed":387479,"internal_node_id":"0.0-6.0-0.23","subject_id":"5d67476c0ca617001699fe7a","study_id":"6197b3f67c2b5cd3b6d9596a","session_id":"619be31d4e3e3beef4c3195a","condition":"contingent","relevant_dimensions":["antennae","pattern"],"bee_group":{"antennae":"A","wings":"X","pattern":"D","legs":"X"},"bonus":1.140000000000001},{"rt":656,"stimulus":"bees-with-color/bee-B2SF.svg","response":0,"trial_type":"image-button-response","trial_index":160,"time_elapsed":388136,"internal_node_id":"0.0-6.0-0.24","subject_id":"5d67476c0ca617001699fe7a","study_id":"6197b3f67c2b5cd3b6d9596a","session_id":"619be31d4e3e3beef4c3195a","condition":"contingent","relevant_dimensions":["antennae","pattern"],"bee_group":{"antennae":"A","wings":"X","pattern":"D","legs":"X"},"bonus":1.140000000000001},{"rt":549.6000000014901,"stimulus":"bees-with-color/bee-A2SM.svg","response":0,"trial_type":"image-button-response","trial_index":161,"time_elapsed":388688,"internal_node_id":"0.0-6.0-0.25","subject_id":"5d67476c0ca617001699fe7a","study_id":"6197b3f67c2b5cd3b6d9596a","session_id":"619be31d4e3e3beef4c3195a","condition":"contingent","relevant_dimensions":["antennae","pattern"],"bee_group":{"antennae":"A","wings":"X","pattern":"D","legs":"X"},"bonus":1.140000000000001},{"rt":711.6999999992549,"stimulus":"bees-with-color/bee-A2SF.svg","response":0,"trial_type":"image-button-response","trial_index":162,"time_elapsed":389401,"internal_node_id":"0.0-6.0-0.26","subject_id":"5d67476c0ca617001699fe7a","study_id":"6197b3f67c2b5cd3b6d9596a","session_id":"619be31d4e3e3beef4c3195a","condition":"contingent","relevant_dimensions":["antennae","pattern"],"bee_group":{"antennae":"A","wings":"X","pattern"