[{"success":true,"trial_type":"fullscreen","trial_index":0,"time_elapsed":7256,"internal_node_id":"0.0-0.0","subject_id":"6159fe747ba656d250f21e09","study_id":"60edd13110225f80f9f3709b","session_id":"6196c4a57afdd8353abe0cf2","condition":"full-information","relevant_dimensions":["antennae","legs"],"bee_group":{"antennae":"B","wings":"X","pattern":"X","legs":"M"},"bonus":0.5000000000000009},{"success":true,"timeout":false,"failed_images":[],"failed_audio":[],"failed_video":[],"trial_type":"preload","trial_index":1,"time_elapsed":10962,"internal_node_id":"0.0-1.0","subject_id":"6159fe747ba656d250f21e09","study_id":"60edd13110225f80f9f3709b","session_id":"6196c4a57afdd8353abe0cf2","condition":"full-information","relevant_dimensions":["antennae","legs"],"bee_group":{"antennae":"B","wings":"X","pattern":"X","legs":"M"},"bonus":0.5000000000000009},{"rt":2205.300000011921,"stimulus":"Welcome! Press any key to begin.","response":"k","trial_type":"html-keyboard-response","trial_index":2,"time_elapsed":13172,"internal_node_id":"0.0-2.0","subject_id":"6159fe747ba656d250f21e09","study_id":"60edd13110225f80f9f3709b","session_id":"6196c4a57afdd8353abe0cf2","condition":"full-information","relevant_dimensions":["antennae","legs"],"bee_group":{"antennae":"B","wings":"X","pattern":"X","legs":"M"},"bonus":0.5000000000000009},{"view_history":[{"page_index":0,"viewing_time":6000.300000011921},{"page_index":1,"viewing_time":13118.399999976158},{"page_index":2,"viewing_time":21682.100000023842},{"page_index":3,"viewing_time":16889.399999976158},{"page_index":4,"viewing_time":6020.100000023842},{"page_index":5,"viewing_time":9131.099999964237},{"page_index":6,"viewing_time":17899.5},{"page_index":7,"viewing_time":6760.900000035763},{"page_index":8,"viewing_time":4103.399999976158},{"page_index":9,"viewing_time":3941.800000011921},{"page_index":10,"viewing_time":3691.600000023842},{"page_index":11,"viewing_time":8838.099999964237},{"page_index":12,"viewing_time":31710.600000023842},{"page_index":13,"viewing_time":1825.5999999642372},{"page_index":14,"viewing_time":2611.600000023842}],"rt":154225.5,"trial_type":"instructions","trial_index":3,"time_elapsed":167407,"internal_node_id":"0.0-3.0-0.0","subject_id":"6159fe747ba656d250f21e09","study_id":"60edd13110225f80f9f3709b","session_id":"6196c4a57afdd8353abe0cf2","condition":"full-information","relevant_dimensions":["antennae","legs"],"bee_group":{"antennae":"B","wings":"X","pattern":"X","legs":"M"},"bonus":0.5000000000000009},{"rt":12826.5,"response":{"Q0":["Two or six legs","Stripes or spots on body","Single or double wings","Antennae or no antennae"]},"question_order":[0],"trial_type":"survey-multi-select","trial_index":4,"time_elapsed":180250,"internal_node_id":"0.0-3.0-1.0","subject_id":"6159fe747ba656d250f21e09","study_id":"60edd13110225f80f9f3709b","session_id":"6196c4a57afdd8353abe0cf2","condition":"full-information","relevant_dimensions":["antennae","legs"],"bee_group":{"antennae":"B","wings":"X","pattern":"X","legs":"M"},"correct":true,"bonus":0.5000000000000009},{"rt":24219.69999998808,"response":{"Q1":"No.","Q2":"Based on the four features of the bee.","Q3":"You learn if it was friendly or dangerous, but do not alter your bonus."},"question_order":[0,1,2],"trial_type":"survey-multi-choice","trial_index":5,"time_elapsed":204479,"internal_node_id":"0.0-3.0-2.0","subject_id":"6159fe747ba656d250f21e09","study_id":"60edd13110225f80f9f3709b","session_id":"6196c4a57afdd8353abe0cf2","condition":"full-information","relevant_dimensions":["antennae","legs"],"bee_group":{"antennae":"B","wings":"X","pattern":"X","legs":"M"},"correct":true,"bonus":0.5000000000000009},{"rt":3335.300000011921,"stimulus":"<p>Congrats, you got everything right<br>When you're ready, click the button below to continue to the experiment.</p>","response":0,"trial_type":"html-button-response","trial_index":6,"time_elapsed":207824,"internal_node_id":"0.0-3.0-3.0","subject_id":"6159fe747ba656d250f21e09","study_id":"60edd13110225f80f9f3709b","session_id":"6196c4a57afdd8353abe0cf2","condition":"full-information","relevant_dimensions":["antennae","legs"],"bee_group":{"antennae":"B","wings":"X","pattern":"X","legs":"M"},"bonus":0.5000000000000009},{"rt":4576.799999952316,"stimulus":"bees-with-color/bee-A2SF.svg","response":0,"trial_type":"image-button-response","trial_index":7,"time_elapsed":212414,"internal_node_id":"0.0-4.0-0.0","subject_id":"6159fe747ba656d250f21e09","study_id":"60edd13110225f80f9f3709b","session_id":"6196c4a57afdd8353abe0cf2","condition":"full-information","relevant_dimensions":["antennae","legs"],"bee_group":{"antennae":"B","wings":"X","pattern":"X","legs":"M"},"action":"harvest","summary":"good-harvest","bonus":0.5000000000000009},{"rt":10670.100000023842,"stimulus":"\n                    <p><b>Action: <em>harvest</em></b></p>\n                    <p>This is the bee that you just saw.</p>\n                    <img src=\"bees-with-color/bee-A2SF.svg\" width=\"200\">\n                    <p><span class=\"greenText\"><b>Successful harvest!</b></span><br>Your pay has increased by $0.02. Your bonus pay is now $0.56.</p>\n            ","response":0,"trial_type":"html-button-response","trial_index":8,"time_elapsed":223094,"internal_node_id":"0.0-4.0-1.0","subject_id":"6159fe747ba656d250f21e09","study_id":"60edd13110225f80f9f3709b","session_id":"6196c4a57afdd8353abe0cf2","condition":"full-information","relevant_dimensions":["antennae","legs"],"bee_group":{"antennae":"B","wings":"X","pattern":"X","legs":"M"},"bonus":0.5000000000000009},{"rt":2883.400000035763,"stimulus":"bees-with-color/bee-B2SM.svg","response":1,"trial_type":"image-button-response","trial_index":9,"time_elapsed":225990,"internal_node_id":"0.0-4.0-0.1","subject_id":"6159fe747ba656d250f21e09","study_id":"60edd13110225f80f9f3709b","session_id":"6196c4a57afdd8353abe0cf2","condition":"full-information","relevant_dimensions":["antennae","legs"],"bee_group":{"antennae":"B","wings":"X","pattern":"X","legs":"M"},"action":"avoid","summary":"good-avoid","bonus":0.5000000000000009},{"rt":5806.099999964237,"stimulus":"\n                    <p><b>Action: <em>avoid</em></b></p>\n                    <p>This is the bee that you just saw.</p>\n                    <img src=\"bees-with-color/bee-B2SM.svg\" width=\"200\">\n                    <p><span class=\"greenText\">Good choice!</span>  This bee would have stung you.<br>Your bonus pay is unchanged, and remains at $0.56.</p>\n            ","response":0,"trial_type":"html-button-response","trial_index":10,"time_elapsed":231804,"internal_node_id":"0.0-4.0-1.1","subject_id":"6159fe747ba656d250f21e09","study_id":"60edd13110225f80f9f3709b","session_id":"6196c4a57afdd8353abe0cf2","condition":"full-information","relevant_dimensions":["antennae","legs"],"bee_group":{"antennae":"B","wings":"X","pattern":"X","legs":"M"},"bonus":0.5000000000000009},{"rt":4154.300000011921,"stimulus":"bees-with-color/bee-B1DF.svg","response":0,"trial_type":"image-button-response","trial_index":11,"time_elapsed":235976,"internal_node_id":"0.0-4.0-0.2","subject_id":"6159fe747ba656d250f21e09","study_id":"60edd13110225f80f9f3709b","session_id":"6196c4a57afdd8353abe0cf2","condition":"full-information","relevant_dimensions":["antennae","legs"],"bee_group":{"antennae":"B","wings":"X","pattern":"X","legs":"M"},"action":"harvest","summary":"good-harvest","bonus":0.5000000000000009},{"rt":10286.199999988079,"stimulus":"\n                    <p><b>Action: <em>harvest</em></b></p>\n                    <p>This is the bee that you just saw.</p>\n                    <img src=\"bees-with-color/bee-B1DF.svg\" width=\"200\">\n                    <p><span class=\"greenText\"><b>Successful harvest!</b></span><br>Your pay has increased by $0.02. Your bonus pay is now $0.58.</p>\n            ","response":0,"trial_type":"html-button-response","trial_index":12,"time_elapsed":246271,"internal_node_id":"0.0-4.0-1.2","subject_id":"6159fe747ba656d250f21e09","study_id":"60edd13110225f80f9f3709b","session_id":"6196c4a57afdd8353abe0cf2","condition":"full-information","relevant_dimensions":["antennae","legs"],"bee_group":{"antennae":"B","wings":"X","pattern":"X","legs":"M"},"bonus":0.5000000000000009},{"rt":2212.199999988079,"stimulus":"bees-with-color/bee-A2DM.svg","response":1,"trial_type":"image-button-response","trial_index":13,"time_elapsed":248494,"internal_node_id":"0.0-4.0-0.3","subject_id":"6159fe747ba656d250f21e09","study_id":"60edd13110225f80f9f3709b","session_id":"6196c4a57afdd8353abe0cf2","condition":"full-information","relevant_dimensions":["antennae","legs"],"bee_group":{"antennae":"B","wings":"X","pattern":"X","legs":"M"},"action":"avoid","summary":"bad-avoid","bonus":0.5000000000000009},{"rt":14998.600000023842,"stimulus":"\n                    <p><b>Action: <em>avoid</em></b></p>\n                    <p>This is the bee that you just saw.</p>\n                    <img src=\"bees-with-color/bee-A2DM.svg\" width=\"200\">\n                    <p><span class=\"redText\">Bad choice,</span> the bee was friendly.<br>Your bonus pay is unchanged, and remains at $0.58.</p>\n            ","response":0,"trial_type":"html-button-response","trial_index":14,"time_elapsed":263499,"internal_node_id":"0.0-4.0-1.3","subject_id":"6159fe747ba656d250f21e09","study_id":"60edd13110225f80f9f3709b","session_id":"6196c4a57afdd8353abe0cf2","condition":"full-information","relevant_dimensions":["antennae","legs"],"bee_group":{"antennae":"B","wings":"X","pattern":"X","legs":"M"},"bonus":0.5000000000000009},{"rt":3152.300000011921,"stimulus":"bees-with-color/bee-B1SF.svg","response":0,"trial_type":"image-button-response","trial_index":15,"time_elapsed":266663,"internal_node_id":"0.0-4.0-0.4","subject_id":"6159fe747ba656d250f21e09","study_id":"60edd13110225f80f9f3709b","session_id":"6196c4a57afdd8353abe0cf2","condition":"full-information","relevant_dimensions":["antennae","legs"],"bee_group":{"antennae":"B","wings":"X","pattern":"X","legs":"M"},"action":"harvest","summary":"good-harvest","bonus":0.5000000000000009},{"rt":7672.300000011921,"stimulus":"\n                    <p><b>Action: <em>harvest</em></b></p>\n                    <p>This is the bee that you just saw.</p>\n                    <img src=\"bees-with-color/bee-B1SF.svg\" width=\"200\">\n                    <p><span class=\"greenText\"><b>Successful harvest!</b></span><br>Your pay has increased by $0.02. Your bonus pay is now $0.60.</p>\n            ","response":0,"trial_type":"html-button-response","trial_index":16,"time_elapsed":274342,"internal_node_id":"0.0-4.0-1.4","subject_id":"6159fe747ba656d250f21e09","study_id":"60edd13110225f80f9f3709b","session_id":"6196c4a57afdd8353abe0cf2","condition":"full-information","relevant_dimensions":["antennae","legs"],"bee_group":{"antennae":"B","wings":"X","pattern":"X","legs":"M"},"bonus":0.5000000000000009},{"rt":2593.099999964237,"stimulus":"bees-with-color/bee-A1SF.svg","response":0,"trial_type":"image-button-response","trial_index":17,"time_elapsed":276944,"internal_node_id":"0.0-4.0-0.5","subject_id":"6159fe747ba656d250f21e09","study_id":"60edd13110225f80f9f3709b","session_id":"6196c4a57afdd8353abe0cf2","condition":"full-information","relevant_dimensions":["antennae","legs"],"bee_group":{"antennae":"B","wings":"X","pattern":"X","legs":"M"},"action":"harvest","summary":"good-harvest","bonus":0.5000000000000009},{"rt":2461.300000011921,"stimulus":"\n                    <p><b>Action: <em>harvest</em></b></p>\n                    <p>This is the bee that you just saw.</p>\n                    <img src=\"bees-with-color/bee-A1SF.svg\" width=\"200\">\n                    <p><span class=\"greenText\"><b>Successful harvest!</b></span><br>Your pay has increased by $0.02. Your bonus pay is now $0.62.</p>\n            ","response":0,"trial_type":"html-button-response","trial_index":18,"time_elapsed":279413,"internal_node_id":"0.0-4.0-1.5","subject_id":"6159fe747ba656d250f21e09","study_id":"60edd13110225f80f9f3709b","session_id":"6196c4a57afdd8353abe0cf2","condition":"full-information","relevant_dimensions":["antennae","legs"],"bee_group":{"antennae":"B","wings":"X","pattern":"X","legs":"M"},"bonus":0.5000000000000009},{"rt":2359,"stimulus":"bees-with-color/bee-A2SM.svg","response":1,"trial_type":"image-button-response","trial_index":19,"time_elapsed":281782,"internal_node_id":"0.0-4.0-0.6","subject_id":"6159fe747ba656d250f21e09","study_id":"60edd13110225f80f9f3709b","session_id":"6196c4a57afdd8353abe0cf2","condition":"full-information","relevant_dimensions":["antennae","legs"],"bee_group":{"antennae":"B","wings":"X","pattern":"X","legs":"M"},"action":"avoid","summary":"bad-avoid","bonus":0.5000000000000009},{"rt":15853.399999976158,"stimulus":"\n                    <p><b>Action: <em>avoid</em></b></p>\n                    <p>This is the bee that you just saw.</p>\n                    <img src=\"bees-with-color/bee-A2SM.svg\" width=\"200\">\n                    <p><span class=\"redText\">Bad choice,</span> the bee was friendly.<br>Your bonus pay is unchanged, and remains at $0.62.</p>\n            ","response":0,"trial_type":"html-button-response","trial_index":20,"time_elapsed":297644,"internal_node_id":"0.0-4.0-1.6","subject_id":"6159fe747ba656d250f21e09","study_id":"60edd13110225f80f9f3709b","session_id":"6196c4a57afdd8353abe0cf2","condition":"full-information","relevant_dimensions":["antennae","legs"],"bee_group":{"antennae":"B","wings":"X","pattern":"X","legs":"M"},"bonus":0.5000000000000009},{"rt":3499.800000011921,"stimulus":"bees-with-color/bee-B2DM.svg","response":0,"trial_type":"image-button-response","trial_index":21,"time_elapsed":301157,"internal_node_id":"0.0-4.0-0.7","subject_id":"6159fe747ba656d250f21e09","study_id":"60edd13110225f80f9f3709b","session_id":"6196c4a57afdd8353abe0cf2","condition":"full-information","relevant_dimensions":["antennae","legs"],"bee_group":{"antennae":"B","wings":"X","pattern":"X","legs":"M"},"action":"harvest","summary":"bad-harvest","bonus":0.5000000000000009},{"rt":7646.699999988079,"stimulus":"\n                    <p><b>Action: <em>harvest</em></b></p>\n                    <p>This is the bee that you just saw.</p>\n                    <img src=\"bees-with-color/bee-B2DM.svg\" width=\"200\">\n                    <p><span class=\"redText\">Bad choice, the bee was angry.</span><br><b>You have been stung!</b><br>Your pay has been decreased by $0.10. Your bonus pay is now $0.52.</p>\n            ","response":0,"trial_type":"html-button-response","trial_index":22,"time_elapsed":308809,"internal_node_id":"0.0-4.0-1.7","subject_id":"6159fe747ba656d250f21e09","study_id":"60edd13110225f80f9f3709b","session_id":"6196c4a57afdd8353abe0cf2","condition":"full-information","relevant_dimensions":["antennae","legs"],"bee_group":{"antennae":"B","wings":"X","pattern":"X","legs":"M"},"bonus":0.5000000000000009},{"rt":2773.399999976158,"stimulus":"bees-with-color/bee-A1SM.svg","response":0,"trial_type":"image-button-response","trial_index":23,"time_elapsed":311591,"internal_node_id":"0.0-4.0-0.8","subject_id":"6159fe747ba656d250f21e09","study_id":"60edd13110225f80f9f3709b","session_id":"6196c4a57afdd8353abe0cf2","condition":"full-information","relevant_dimensions":["antennae","legs"],"bee_group":{"antennae":"B","wings":"X","pattern":"X","legs":"M"},"action":"harvest","summary":"good-harvest","bonus":0.5000000000000009},{"rt":5426.199999988079,"stimulus":"\n                    <p><b>Action: <em>harvest</em></b></p>\n                    <p>This is the bee that you just saw.</p>\n                    <img src=\"bees-with-color/bee-A1SM.svg\" width=\"200\">\n                    <p><span class=\"greenText\"><b>Successful harvest!</b></span><br>Your pay has increased by $0.02. Your bonus pay is now $0.54.</p>\n            ","response":0,"trial_type":"html-button-response","trial_index":24,"time_elapsed":317024,"internal_node_id":"0.0-4.0-1.8","subject_id":"6159fe747ba656d250f21e09","study_id":"60edd13110225f80f9f3709b","session_id":"6196c4a57afdd8353abe0cf2","condition":"full-information","relevant_dimensions":["antennae","legs"],"bee_group":{"antennae":"B","wings":"X","pattern":"X","legs":"M"},"bonus":0.5000000000000009},{"rt":2748.699999988079,"stimulus":"bees-with-color/bee-B2SF.svg","response":1,"trial_type":"image-button-response","trial_index":25,"time_elapsed":319780,"internal_node_id":"0.0-4.0-0.9","subject_id":"6159fe747ba656d250f21e09","study_id":"60edd13110225f80f9f3709b","session_id":"6196c4a57afdd8353abe0cf2","condition":"full-information","relevant_dimensions":["antennae","legs"],"bee_group":{"antennae":"B","wings":"X","pattern":"X","legs":"M"},"action":"avoid","summary":"bad-avoid","bonus":0.5000000000000009},{"rt":6418.299999952316,"stimulus":"\n                    <p><b>Action: <em>avoid</em></b></p>\n                    <p>This is the bee that you just saw.</p>\n                    <img src=\"bees-with-color/bee-B2SF.svg\" width=\"200\">\n                    <p><span class=\"redText\">Bad choice,</span> the bee was friendly.<br>Your bonus pay is unchanged, and remains at $0.54.</p>\n            ","response":0,"trial_type":"html-button-response","trial_index":26,"time_elapsed":326206,"internal_node_id":"0.0-4.0-1.9","subject_id":"6159fe747ba656d250f21e09","study_id":"60edd13110225f80f9f3709b","session_id":"6196c4a57afdd8353abe0cf2","condition":"full-information","relevant_dimensions":["antennae","legs"],"bee_group":{"antennae":"B","wings":"X","pattern":"X","legs":"M"},"bonus":0.5000000000000009},{"rt":3306.300000011921,"stimulus":"bees-with-color/bee-A1DM.svg","response":0,"trial_type":"image-button-response","trial_index":27,"time_elapsed":329520,"internal_node_id":"0.0-4.0-0.10","subject_id":"6159fe747ba656d250f21e09","study_id":"60edd13110225f80f9f3709b","session_id":"6196c4a57afdd8353abe0cf2","condition":"full-information","relevant_dimensions":["antennae","legs"],"bee_group":{"antennae":"B","wings":"X","pattern":"X","legs":"M"},"action":"harvest","summary":"good-harvest","bonus":0.5000000000000009},{"rt":2780.5,"stimulus":"\n                    <p><b>Action: <em>harvest</em></b></p>\n                    <p>This is the bee that you just saw.</p>\n                    <img src=\"bees-with-color/bee-A1DM.svg\" width=\"200\">\n                    <p><span class=\"greenText\"><b>Successful harvest!</b></span><br>Your pay has increased by $0.02. Your bonus pay is now $0.56.</p>\n            ","response":0,"trial_type":"html-button-response","trial_index":28,"time_elapsed":332309,"internal_node_id":"0.0-4.0-1.10","subject_id":"6159fe747ba656d250f21e09","study_id":"60edd13110225f80f9f3709b","session_id":"6196c4a57afdd8353abe0cf2","condition":"full-information","relevant_dimensions":["antennae","legs"],"bee_group":{"antennae":"B","wings":"X","pattern":"X","legs":"M"},"bonus":0.5000000000000009},{"rt":2865.100000023842,"stimulus":"bees-with-color/bee-B1DM.svg","response":1,"trial_type":"image-button-response","trial_index":29,"time_elapsed":335181,"internal_node_id":"0.0-4.0-0.11","subject_id":"6159fe747ba656d250f21e09","study_id":"60edd13110225f80f9f3709b","session_id":"6196c4a57afdd8353abe0cf2","condition":"full-information","relevant_dimensions":["antennae","legs"],"bee_group":{"antennae":"B","wings":"X","pattern":"X","legs":"M"},"action":"avoid","summary":"good-avoid","bonus":0.5000000000000009},{"rt":4247.5,"stimulus":"\n                    <p><b>Action: <em>avoid</em></b></p>\n                    <p>This is the bee that you just saw.</p>\n                    <img src=\"bees-with-color/bee-B1DM.svg\" width=\"200\">\n                    <p><span class=\"greenText\">Good choice!</span>  This bee would have stung you.<br>Your bonus pay is unchanged, and remains at $0.56.</p>\n            ","response":0,"trial_type":"html-button-response","trial_index":30,"time_elapsed":339436,"internal_node_id":"0.0-4.0-1.11","subject_id":"6159fe747ba656d250f21e09","study_id":"60edd13110225f80f9f3709b","session_id":"6196c4a57afdd8353abe0cf2","condition":"full-information","relevant_dimensions":["antennae","legs"],"bee_group":{"antennae":"B","wings":"X","pattern":"X","legs":"M"},"bonus":0.5000000000000009},{"rt":2717.199999988079,"stimulus":"bees-with-color/bee-A1DF.svg","response":0,"trial_type":"image-button-response","trial_index":31,"time_elapsed":342163,"internal_node_id":"0.0-4.0-0.12","subject_id":"6159fe747ba656d250f21e09","study_id":"60edd13110225f80f9f3709b","session_id":"6196c4a57afdd8353abe0cf2","condition":"full-information","relevant_dimensions":["antennae","legs"],"bee_group":{"antennae":"B","wings":"X","pattern":"X","legs":"M"},"action":"harvest","summary":"good-harvest","bonus":0.5000000000000009},{"rt":2568.900000035763,"stimulus":"\n                    <p><b>Action: <em>harvest</em></b></p>\n                    <p>This is the bee that you just saw.</p>\n                    <img src=\"bees-with-color/bee-A1DF.svg\" width=\"200\">\n                    <p><span class=\"greenText\"><b>Successful harvest!</b></span><br>Your pay has increased by $0.02. Your bonus pay is now $0.58.</p>\n            ","response":0,"trial_type":"html-button-response","trial_index":32,"time_elapsed":344739,"internal_node_id":"0.0-4.0-1.12","subject_id":"6159fe747ba656d250f21e09","study_id":"60edd13110225f80f9f3709b","session_id":"6196c4a57afdd8353abe0cf2","condition":"full-information","relevant_dimensions":["antennae","legs"],"bee_group":{"antennae":"B","wings":"X","pattern":"X","legs":"M"},"bonus":0.5000000000000009},{"rt":4056.7999999523163,"stimulus":"bees-with-color/bee-B2DF.svg","response":1,"trial_type":"image-button-response","trial_index":33,"time_elapsed":348803,"internal_node_id":"0.0-4.0-0.13","subject_id":"6159fe747ba656d250f21e09","study_id":"60edd13110225f80f9f3709b","session_id":"6196c4a57afdd8353abe0cf2","condition":"full-information","relevant_dimensions":["antennae","legs"],"bee_group":{"antennae":"B","wings":"X","pattern":"X","legs":"M"},"action":"avoid","summary":"bad-avoid","bonus":0.5000000000000009},{"rt":2862.900000035763,"stimulus":"\n                    <p><b>Action: <em>avoid</em></b></p>\n                    <p>This is the bee that you just saw.</p>\n                    <img src=\"bees-with-color/bee-B2DF.svg\" width=\"200\">\n                    <p><span class=\"redText\">Bad choice,</span> the bee was friendly.<br>Your bonus pay is unchanged, and remains at $0.58.</p>\n            ","response":0,"trial_type":"html-button-response","trial_index":34,"time_elapsed":351674,"internal_node_id":"0.0-4.0-1.13","subject_id":"6159fe747ba656d250f21e09","study_id":"60edd13110225f80f9f3709b","session_id":"6196c4a57afdd8353abe0cf2","condition":"full-information","relevant_dimensions":["antennae","legs"],"bee_group":{"antennae":"B","wings":"X","pattern":"X","legs":"M"},"bonus":0.5000000000000009},{"rt":3957.800000011921,"stimulus":"bees-with-color/bee-B1SM.svg","response":1,"trial_type":"image-button-response","trial_index":35,"time_elapsed":355637,"internal_node_id":"0.0-4.0-0.14","subject_id":"6159fe747ba656d250f21e09","study_id":"60edd13110225f80f9f3709b","session_id":"6196c4a57afdd8353abe0cf2","condition":"full-information","relevant_dimensions":["antennae","legs"],"bee_group":{"antennae":"B","wings":"X","pattern":"X","legs":"M"},"action":"avoid","summary":"good-avoid","bonus":0.5000000000000009},{"rt":2352.399999976158,"stimulus":"\n                    <p><b>Action: <em>avoid</em></b></p>\n                    <p>This is the bee that you just saw.</p>\n                    <img src=\"bees-with-color/bee-B1SM.svg\" width=\"200\">\n                    <p><span class=\"greenText\">Good choice!</span>  This bee would have stung you.<br>Your bonus pay is unchanged, and remains at $0.58.</p>\n            ","response":0,"trial_type":"html-button-response","trial_index":36,"time_elapsed":357997,"internal_node_id":"0.0-4.0-1.14","subject_id":"6159fe747ba656d250f21e09","study_id":"60edd13110225f80f9f3709b","session_id":"6196c4a57afdd8353abe0cf2","condition":"full-information","relevant_dimensions":["antennae","legs"],"bee_group":{"antennae":"B","wings":"X","pattern":"X","legs":"M"},"bonus":0.5000000000000009},{"rt":3965,"stimulus":"bees-with-color/bee-A2DF.svg","response":0,"trial_type":"image-button-response","trial_index":37,"time_elapsed":361970,"internal_node_id":"0.0-4.0-0.15","subject_id":"6159fe747ba656d250f21e09","study_id":"60edd13110225f80f9f3709b","session_id":"6196c4a57afdd8353abe0cf2","condition":"full-information","relevant_dimensions":["antennae","legs"],"bee_group":{"antennae":"B","wings":"X","pattern":"X","legs":"M"},"action":"harvest","summary":"good-harvest","bonus":0.5000000000000009},{"rt":2385.699999988079,"stimulus":"\n                    <p><b>Action: <em>harvest</em></b></p>\n                    <p>This is the bee that you just saw.</p>\n                    <img src=\"bees-with-color/bee-A2DF.svg\" width=\"200\">\n                    <p><span class=\"greenText\"><b>Successful harvest!</b></span><br>Your pay has increased by $0.02. Your bonus pay is now $0.60.</p>\n            ","response":0,"trial_type":"html-button-response","trial_index":38,"time_elapsed":364364,"internal_node_id":"0.0-4.0-1.15","subject_id":"6159fe747ba656d250f21e09","study_id":"60edd13110225f80f9f3709b","session_id":"6196c4a57afdd8353abe0cf2","condition":"full-information","relevant_dimensions":["antennae","legs"],"bee_group":{"antennae":"B","wings":"X","pattern":"X","legs":"M"},"bonus":0.5000000000000009},{"rt":2796.699999988079,"stimulus":"bees-with-color/bee-A1SM.svg","response":0,"trial_type":"image-button-response","trial_index":39,"time_elapsed":367171,"internal_node_id":"0.0-4.0-0.16","subject_id":"6159fe747ba656d250f21e09","study_id":"60edd13110225f80f9f3709b","session_id":"6196c4a57afdd8353abe0cf2","condition":"full-information","relevant_dimensions":["antennae","legs"],"bee_group":{"antennae":"B","wings":"X","pattern":"X","legs":"M"},"action":"harvest","summary":"good-harvest","bonus":0.5000000000000009},{"rt":1897,"stimulus":"\n                    <p><b>Action: <em>harvest</em></b></p>\n                    <p>This is the bee that you just saw.</p>\n                    <img src=\"bees-with-color/bee-A1SM.svg\" width=\"200\">\n                    <p><span class=\"greenText\"><b>Successful harvest!</b></span><br>Your pay has increased by $0.02. Your bonus pay is now $0.62.</p>\n            ","response":0,"trial_type":"html-button-response","trial_index":40,"time_elapsed":369075,"internal_node_id":"0.0-4.0-1.16","subject_id":"6159fe747ba656d250f21e09","study_id":"60edd13110225f80f9f3709b","session_id":"6196c4a57afdd8353abe0cf2","condition":"full-information","relevant_dimensions":["antennae","legs"],"bee_group":{"antennae":"B","wings":"X","pattern":"X","legs":"M"},"bonus":0.5000000000000009},{"rt":1985.5,"stimulus":"bees-with-color/bee-B2SM.svg","response":1,"trial_type":"image-button-response","trial_index":41,"time_elapsed":371067,"internal_node_id":"0.0-4.0-0.17","subject_id":"6159fe747ba656d250f21e09","study_id":"60edd13110225f80f9f3709b","session_id":"6196c4a57afdd8353abe0cf2","condition":"full-information","relevant_dimensions":["antennae","legs"],"bee_group":{"antennae":"B","wings":"X","pattern":"X","legs":"M"},"action":"avoid","summary":"good-avoid","bonus":0.5000000000000009},{"rt":3399.099999964237,"stimulus":"\n                    <p><b>Action: <em>avoid</em></b></p>\n                    <p>This is the bee that you just saw.</p>\n                    <img src=\"bees-with-color/bee-B2SM.svg\" width=\"200\">\n                    <p><span class=\"greenText\">Good choice!</span>  This bee would have stung you.<br>Your bonus pay is unchanged, and remains at $0.62.</p>\n            ","response":0,"trial_type":"html-button-response","trial_index":42,"time_elapsed":374475,"internal_node_id":"0.0-4.0-1.17","subject_id":"6159fe747ba656d250f21e09","study_id":"60edd13110225f80f9f3709b","session_id":"6196c4a57afdd8353abe0cf2","condition":"full-information","relevant_dimensions":["antennae","legs"],"bee_group":{"antennae":"B","wings":"X","pattern":"X","legs":"M"},"bonus":0.5000000000000009},{"rt":3063.600000023842,"stimulus":"bees-with-color/bee-B1DM.svg","response":1,"trial_type":"image-button-response","trial_index":43,"time_elapsed":377546,"internal_node_id":"0.0-4.0-0.18","subject_id":"6159fe747ba656d250f21e09","study_id":"60edd13110225f80f9f3709b","session_id":"6196c4a57afdd8353abe0cf2","condition":"full-information","relevant_dimensions":["antennae","legs"],"bee_group":{"antennae":"B","wings":"X","pattern":"X","legs":"M"},"action":"avoid","summary":"good-avoid","bonus":0.5000000000000009},{"rt":3925.699999988079,"stimulus":"\n                    <p><b>Action: <em>avoid</em></b></p>\n                    <p>This is the bee that you just saw.</p>\n                    <img src=\"bees-with-color/bee-B1DM.svg\" width=\"200\">\n                    <p><span class=\"greenText\">Good choice!</span>  This bee would have stung you.<br>Your bonus pay is unchanged, and remains at $0.62.</p>\n            ","response":0,"trial_type":"html-button-response","trial_index":44,"time_elapsed":381480,"internal_node_id":"0.0-4.0-1.18","subject_id":"6159fe747ba656d250f21e09","study_id":"60edd13110225f80f9f3709b","session_id":"6196c4a57afdd8353abe0cf2","condition":"full-information","relevant_dimensions":["antennae","legs"],"bee_group":{"antennae":"B","wings":"X","pattern":"X","legs":"M"},"bonus":0.5000000000000009},{"rt":3801.400000035763,"stimulus":"bees-with-color/bee-B1DF.svg","response":0,"trial_type":"image-button-response","trial_index":45,"time_elapsed":385292,"internal_node_id":"0.0-4.0-0.19","subject_id":"6159fe747ba656d250f21e09","study_id":"60edd13110225f80f9f3709b","session_id":"6196c4a57afdd8353abe0cf2","condition":"full-information","relevant_dimensions":["antennae","legs"],"bee_group":{"antennae":"B","wings":"X","pattern":"X","legs":"M"},"action":"harvest","summary":"good-harvest","bonus":0.5000000000000009},{"rt":4225.600000023842,"stimulus":"\n                    <p><b>Action: <em>harvest</em></b></p>\n                    <p>This is the bee that you just saw.</p>\n                    <img src=\"bees-with-color/bee-B1DF.svg\" width=\"200\">\n                    <p><span class=\"greenText\"><b>Successful harvest!</b></span><br>Your pay has increased by $0.02. Your bonus pay is now $0.64.</p>\n            ","response":0,"trial_type":"html-button-response","trial_index":46,"time_elapsed":389525,"internal_node_id":"0.0-4.0-1.19","subject_id":"6159fe747ba656d250f21e09","study_id":"60edd13110225f80f9f3709b","session_id":"6196c4a57afdd8353abe0cf2","condition":"full-information","relevant_dimensions":["antennae","legs"],"bee_group":{"antennae":"B","wings":"X","pattern":"X","legs":"M"},"bonus":0.5000000000000009},{"rt":2795.5,"stimulus":"bees-with-color/bee-A2DM.svg","response":1,"trial_type":"image-button-response","trial_index":47,"time_elapsed":392328,"internal_node_id":"0.0-4.0-0.20","subject_id":"6159fe747ba656d250f21e09","study_id":"60edd13110225f80f9f3709b","session_id":"6196c4a57afdd8353abe0cf2","condition":"full-information","relevant_dimensions":["antennae","legs"],"bee_group":{"antennae":"B","wings":"X","pattern":"X","legs":"M"},"action":"avoid","summary":"bad-avoid","bonus":0.5000000000000009},{"rt":2297.099999964237,"stimulus":"\n                    <p><b>Action: <em>avoid</em></b></p>\n                    <p>This is the bee that you just saw.</p>\n                    <img src=\"bees-with-color/bee-A2DM.svg\" width=\"200\">\n                    <p><span class=\"redText\">Bad choice,</span> the bee was friendly.<br>Your bonus pay is unchanged, and remains at $0.64.</p>\n            ","response":0,"trial_type":"html-button-response","trial_index":48,"time_elapsed":394636,"internal_node_id":"0.0-4.0-1.20","subject_id":"6159fe747ba656d250f21e09","study_id":"60edd13110225f80f9f3709b","session_id":"6196c4a57afdd8353abe0cf2","condition":"full-information","relevant_dimensions":["antennae","legs"],"bee_group":{"antennae":"B","wings":"X","pattern":"X","legs":"M"},"bonus":0.5000000000000009},{"rt":3237.5,"stimulus":"bees-with-color/bee-B2DF.svg","response":1,"trial_type":"image-button-response","trial_index":49,"time_elapsed":397882,"internal_node_id":"0.0-4.0-0.21","subject_id":"6159fe747ba656d250f21e09","study_id":"60edd13110225f80f9f3709b","session_id":"6196c4a57afdd8353abe0cf2","condition":"full-information","relevant_dimensions":["antennae","legs"],"bee_group":{"antennae":"B","wings":"X","pattern":"X","legs":"M"},"action":"avoid","summary":"bad-avoid","bonus":0.5000000000000009},{"rt":2014.5999999642372,"stimulus":"\n                    <p><b>Action: <em>avoid</em></b></p>\n                    <p>This is the bee that you just saw.</p>\n                    <img src=\"bees-with-color/bee-B2DF.svg\" width=\"200\">\n                    <p><span class=\"redText\">Bad choice,</span> the bee was friendly.<br>Your bonus pay is unchanged, and remains at $0.64.</p>\n            ","response":0,"trial_type":"html-button-response","trial_index":50,"time_elapsed":399906,"internal_node_id":"0.0-4.0-1.21","subject_id":"6159fe747ba656d250f21e09","study_id":"60edd13110225f80f9f3709b","session_id":"6196c4a57afdd8353abe0cf2","condition":"full-information","relevant_dimensions":["antennae","legs"],"bee_group":{"antennae":"B","wings":"X","pattern":"X","legs":"M"},"bonus":0.5000000000000009},{"rt":3765.5,"stimulus":"bees-with-color/bee-A2SM.svg","response":0,"trial_type":"image-button-response","trial_index":51,"time_elapsed":403679,"internal_node_id":"0.0-4.0-0.22","subject_id":"6159fe747ba656d250f21e09","study_id":"60edd13110225f80f9f3709b","session_id":"6196c4a57afdd8353abe0cf2","condition":"full-information","relevant_dimensions":["antennae","legs"],"bee_group":{"antennae":"B","wings":"X","pattern":"X","legs":"M"},"action":"harvest","summary":"good-harvest","bonus":0.5000000000000009},{"rt":7789.5,"stimulus":"\n                    <p><b>Action: <em>harvest</em></b></p>\n                    <p>This is the bee that you just saw.</p>\n                    <img src=\"bees-with-color/bee-A2SM.svg\" width=\"200\">\n                    <p><span class=\"greenText\"><b>Successful harvest!</b></span><br>Your pay has increased by $0.02. Your bonus pay is now $0.66.</p>\n            ","response":0,"trial_type":"html-button-response","trial_index":52,"time_elapsed":411479,"internal_node_id":"0.0-4.0-1.22","subject_id":"6159fe747ba656d250f21e09","study_id":"60edd13110225f80f9f3709b","session_id":"6196c4a57afdd8353abe0cf2","condition":"full-information","relevant_dimensions":["antennae","legs"],"bee_group":{"antennae":"B","wings":"X","pattern":"X","legs":"M"},"bonus":0.5000000000000009},{"rt":2570.899999976158,"stimulus":"bees-with-color/bee-B2SF.svg","response":1,"trial_type":"image-button-response","trial_index":53,"time_elapsed":414061,"internal_node_id":"0.0-4.0-0.23","subject_id":"6159fe747ba656d250f21e09","study_id":"60edd13110225f80f9f3709b","session_id":"6196c4a57afdd8353abe0cf2","condition":"full-information","relevant_dimensions":["antennae","legs"],"bee_group":{"antennae":"B","wings":"X","pattern":"X","legs":"M"},"action":"avoid","summary":"bad-avoid","bonus":0.5000000000000009},{"rt":1621.0999999642372,"stimulus":"\n                    <p><b>Action: <em>avoid</em></b></p>\n                    <p>This is the bee that you just saw.</p>\n                    <img src=\"bees-with-color/bee-B2SF.svg\" width=\"200\">\n                    <p><span class=\"redText\">Bad choice,</span> the bee was friendly.<br>Your bonus pay is unchanged, and remains at $0.66.</p>\n            ","response":0,"trial_type":"html-button-response","trial_index":54,"time_elapsed":415695,"internal_node_id":"0.0-4.0-1.23","subject_id":"6159fe747ba656d250f21e09","study_id":"60edd13110225f80f9f3709b","session_id":"6196c4a57afdd8353abe0cf2","condition":"full-information","relevant_dimensions":["antennae","legs"],"bee_group":{"antennae":"B","wings":"X","pattern":"X","legs":"M"},"bonus":0.5000000000000009},{"rt":2082.899999976158,"stimulus":"bees-with-color/bee-A1SF.svg","response":1,"trial_type":"image-button-response","trial_index":55,"time_elapsed":417787,"internal_node_id":"0.0-4.0-0.24","subject_id":"6159fe747ba656d250f21e09","study_id":"60edd13110225f80f9f3709b","session_id":"6196c4a57afdd8353abe0cf2","condition":"full-information","relevant_dimensions":["antennae","legs"],"bee_group":{"antennae":"B","wings":"X","pattern":"X","legs":"M"},"action":"avoid","summary":"bad-avoid","bonus":0.5000000000000009},{"rt":1541.1000000238419,"stimulus":"\n                    <p><b>Action: <em>avoid</em></b></p>\n                    <p>This is the bee that you just saw.</p>\n                    <img src=\"bees-with-color/bee-A1SF.svg\" width=\"200\">\n                    <p><span class=\"redText\">Bad choice,</span> the bee was friendly.<br>Your bonus pay is unchanged, and remains at $0.66.</p>\n            ","response":0,"trial_type":"html-button-response","trial_index":56,"time_elapsed":419338,"internal_node_id":"0.0-4.0-1.24","subject_id":"6159fe747ba656d250f21e09","study_id":"60edd13110225f80f9f3709b","session_id":"6196c4a57afdd8353abe0cf2","condition":"full-information","relevant_dimensions":["antennae","legs"],"bee_group":{"antennae":"B","wings":"X","pattern":"X","legs":"M"},"bonus":0.5000000000000009},{"rt":2527.800000011921,"stimulus":"bees-with-color/bee-B1SM.svg","response":0,"trial_type":"image-button-response","trial_index":57,"time_elapsed":421876,"internal_node_id":"0.0-4.0-0.25","subject_id":"6159fe747ba656d250f21e09","study_id":"60edd13110225f80f9f3709b","session_id":"6196c4a57afdd8353abe0cf2","condition":"full-information","relevant_dimensions":["antennae","legs"],"bee_group":{"antennae":"B","wings":"X","pattern":"X","legs":"M"},"action":"harvest","summary":"bad-harvest","bonus":0.5000000000000009},{"rt":3298.599999964237,"stimulus":"\n                    <p><b>Action: <em>harvest</em></b></p>\n                    <p>This is the bee that you just saw.</p>\n                    <img src=\"bees-with-color/bee-B1SM.svg\" width=\"200\">\n                    <p><span class=\"redText\">Bad choice, the bee was angry.</span><br><b>You have been stung!</b><br>Your pay has been decreased by $0.10. Your bonus pay is now $0.56.</p>\n            ","response":0,"trial_type":"html-button-response","trial_index":58,"time_elapsed":425182,"internal_node_id":"0.0-4.0-1.25","subject_id":"6159fe747ba656d250f21e09","study_id":"60edd13110225f80f9f3709b","session_id":"6196c4a57afdd8353abe0cf2","condition":"full-information","relevant_dimensions":["antennae","legs"],"bee_group":{"antennae":"B","wings":"X","pattern":"X","legs":"M"},"bonus":0.5000000000000009},{"rt":1925.1000000238419,"stimulus":"bees-with-color/bee-B1SF.svg","response":0,"trial_type":"image-button-response","trial_index":59,"time_elapsed":427115,"internal_node_id":"0.0-4.0-0.26","subject_id":"6159fe747ba656d250f21e09","study_id":"60edd13110225f80f9f3709b","session_id":"6196c4a57afdd8353abe0cf2","condition":"full-information","relevant_dimensions":["antennae","legs"],"bee_group":{"antennae":"B","wings":"X","pattern":"X","legs":"M"},"action":"harvest","summary":"good-harvest","bonus":0.5000000000000009},{"rt":2086.100000023842,"stimulus":"\n                    <p><b>Action: <em>harvest</em></b></p>\n                    <p>This is the bee that you just saw.</p>\n                    <img src=\"bees-with-color/bee-B1SF.svg\" width=\"200\">\n                    <p><span class=\"greenText\"><b>Successful harvest!</b></span><br>Your pay has increased by $0.02. Your bonus pay is now $0.58.</p>\n            ","response":0,"trial_type":"html-button-response","trial_index":60,"time_elapsed":429211,"internal_node_id":"0.0-4.0-1.26","subject_id":"6159fe747ba656d250f21e09","study_id":"60edd13110225f80f9f3709b","session_id":"6196c4a57afdd8353abe0cf2","condition":"full-information","relevant_dimensions":["antennae","legs"],"bee_group":{"antennae":"B","wings":"X","pattern":"X","legs":"M"},"bonus":0.5000000000000009},{"rt":3370.199999988079,"stimulus":"bees-with-color/bee-A1DM.svg","response":1,"trial_type":"image-button-response","trial_index":61,"time_elapsed":432593,"internal_node_id":"0.0-4.0-0.27","subject_id":"6159fe747ba656d250f21e09","study_id":"60edd13110225f80f9f3709b","session_id":"6196c4a57afdd8353abe0cf2","condition":"full-information","relevant_dimensions":["antennae","legs"],"bee_group":{"antennae":"B","wings":"X","pattern":"X","legs":"M"},"action":"avoid","summary":"bad-avoid","bonus":0.5000000000000009},{"rt":1572.4000000357628,"stimulus":"\n                    <p><b>Action: <em>avoid</em></b></p>\n                    <p>This is the bee that you just saw.</p>\n                    <img src=\"bees-with-color/bee-A1DM.svg\" width=\"200\">\n                    <p><span class=\"redText\">Bad choice,</span> the bee was friendly.<br>Your bonus pay is unchanged, and remains at $0.58.</p>\n            ","response":0,"trial_type":"html-button-response","trial_index":62,"time_elapsed":434175,"internal_node_id":"0.0-4.0-1.27","subject_id":"6159fe747ba656d250f21e09","study_id":"60edd13110225f80f9f3709b","session_id":"6196c4a57afdd8353abe0cf2","condition":"full-information","relevant_dimensions":["antennae","legs"],"bee_group":{"antennae":"B","wings":"X","pattern":"X","legs":"M"},"bonus":0.5000000000000009},{"rt":1914.8999999761581,"stimulus":"bees-with-color/bee-B2DM.svg","response":1,"trial_type":"image-button-response","trial_index":63,"time_elapsed":436098,"internal_node_id":"0.0-4.0-0.28","subject_id":"6159fe747ba656d250f21e09","study_id":"60edd13110225f80f9f3709b","session_id":"6196c4a57afdd8353abe0cf2","condition":"full-information","relevant_dimensions":["antennae","legs"],"bee_group":{"antennae":"B","wings":"X","pattern":"X","legs":"M"},"action":"avoid","summary":"good-avoid","bonus":0.5000000000000009},{"rt":1765.699999988079,"stimulus":"\n                    <p><b>Action: <em>avoid</em></b></p>\n                    <p>This is the bee that you just saw.</p>\n                    <img src=\"bees-with-color/bee-B2DM.svg\" width=\"200\">\n                    <p><span class=\"greenText\">Good choice!</span>  This bee would have stung you.<br>Your bonus pay is unchanged, and remains at $0.58.</p>\n            ","response":0,"trial_type":"html-button-response","trial_index":64,"time_elapsed":437870,"internal_node_id":"0.0-4.0-1.28","subject_id":"6159fe747ba656d250f21e09","study_id":"60edd13110225f80f9f3709b","session_id":"6196c4a57afdd8353abe0cf2","condition":"full-information","relevant_dimensions":["antennae","legs"],"bee_group":{"antennae":"B","wings":"X","pattern":"X","legs":"M"},"bonus":0.5000000000000009},{"rt":1808.5,"stimulus":"bees-with-color/bee-A2SF.svg","response":0,"trial_type":"image-button-response","trial_index":65,"time_elapsed":439688,"internal_node_id":"0.0-4.0-0.29","subject_id":"6159fe747ba656d250f21e09","study_id":"60edd13110225f80f9f3709b","session_id":"6196c4a57afdd8353abe0cf2","condition":"full-information","relevant_dimensions":["antennae","legs"],"bee_group":{"antennae":"B","wings":"X","pattern":"X","legs":"M"},"action":"harvest","summary":"good-harvest","bonus":0.5000000000000009},{"rt":6417.5,"stimulus":"\n                    <p><b>Action: <em>harvest</em></b></p>\n                    <p>This is the bee that you just saw.</p>\n                    <img src=\"bees-with-color/bee-A2SF.svg\" width=\"200\">\n                    <p><span class=\"greenText\"><b>Successful harvest!</b></span><br>Your pay has increased by $0.02. Your bonus pay is now $0.60.</p>\n            ","response":0,"trial_type":"html-button-response","trial_index":66,"time_elapsed":446113,"internal_node_id":"0.0-4.0-1.29","subject_id":"6159fe747ba656d250f21e09","study_id":"60edd13110225f80f9f3709b","session_id":"6196c4a57afdd8353abe0cf2","condition":"full-information","relevant_dimensions":["antennae","legs"],"bee_group":{"antennae":"B","wings":"X","pattern":"X","legs":"M"},"bonus":0.5000000000000009},{"rt":2575.099999964237,"stimulus":"bees-with-color/bee-A1DF.svg","response":0,"trial_type":"image-button-response","trial_index":67,"time_elapsed":448694,"internal_node_id":"0.0-4.0-0.30","subject_id":"6159fe747ba656d250f21e09","study_id":"60edd13110225f80f9f3709b","session_id":"6196c4a57afdd8353abe0cf2","condition":"full-information","relevant_dimensions":["antennae","legs"],"bee_group":{"antennae":"B","wings":"X","pattern":"X","legs":"M"},"action":"harvest","summary":"good-harvest","bonus":0.5000000000000009},{"rt":1850.800000011921,"stimulus":"\n                    <p><b>Action: <em>harvest</em></b></p>\n                    <p>This is the bee that you just saw.</p>\n                    <img src=\"bees-with-color/bee-A1DF.svg\" width=\"200\">\n                    <p><span class=\"greenText\"><b>Successful harvest!</b></span><br>Your pay has increased by $0.02. Your bonus pay is now $0.62.</p>\n            ","response":0,"trial_type":"html-button-response","trial_index":68,"time_elapsed":450551,"internal_node_id":"0.0-4.0-1.30","subject_id":"6159fe747ba656d250f21e09","study_id":"60edd13110225f80f9f3709b","session_id":"6196c4a57afdd8353abe0cf2","condition":"full-information","relevant_dimensions":["antennae","legs"],"bee_group":{"antennae":"B","wings":"X","pattern":"X","legs":"M"},"bonus":0.5000000000000009},{"rt":4883.100000023842,"stimulus":"bees-with-color/bee-A2DF.svg","response":0,"trial_type":"image-button-response","trial_index":69,"time_elapsed":455441,"internal_node_id":"0.0-4.0-0.31","subject_id":"6159fe747ba656d250f21e09","study_id":"60edd13110225f80f9f3709b","session_id":"6196c4a57afdd8353abe0cf2","condition":"full-information","relevant_dimensions":["antennae","legs"],"bee_group":{"antennae":"B","wings":"X","pattern":"X","legs":"M"},"action":"harvest","summary":"good-harvest","bonus":0.5000000000000009},{"rt":2162.699999988079,"stimulus":"\n                    <p><b>Action: <em>harvest</em></b></p>\n                    <p>This is the bee that you just saw.</p>\n                    <img src=\"bees-with-color/bee-A2DF.svg\" width=\"200\">\n                    <p><span class=\"greenText\"><b>Successful harvest!</b></span><br>Your pay has increased by $0.02. Your bonus pay is now $0.64.</p>\n            ","response":0,"trial_type":"html-button-response","trial_index":70,"time_elapsed":457609,"internal_node_id":"0.0-4.0-1.31","subject_id":"6159fe747ba656d250f21e09","study_id":"60edd13110225f80f9f3709b","session_id":"6196c4a57afdd8353abe0cf2","condition":"full-information","relevant_dimensions":["antennae","legs"],"bee_group":{"antennae":"B","wings":"X","pattern":"X","legs":"M"},"bonus":0.5000000000000009},{"rt":1827.3999999761581,"stimulus":"bees-with-color/bee-B1DF.svg","response":1,"trial_type":"image-button-response","trial_index":71,"time_elapsed":459444,"internal_node_id":"0.0-4.0-0.32","subject_id":"6159fe747ba656d250f21e09","study_id":"60edd13110225f80f9f3709b","session_id":"6196c4a57afdd8353abe0cf2","condition":"full-information","relevant_dimensions":["antennae","legs"],"bee_group":{"antennae":"B","wings":"X","pattern":"X","legs":"M"},"action":"avoid","summary":"bad-avoid","bonus":0.5000000000000009},{"rt":1775.4000000357628,"stimulus":"\n                    <p><b>Action: <em>avoid</em></b></p>\n                    <p>This is the bee that you just saw.</p>\n                    <img src=\"bees-with-color/bee-B1DF.svg\" width=\"200\">\n                    <p><span class=\"redText\">Bad choice,</span> the bee was friendly.<br>Your bonus pay is unchanged, and remains at $0.64.</p>\n            ","response":0,"trial_type":"html-button-response","trial_index":72,"time_elapsed":461225,"internal_node_id":"0.0-4.0-1.32","subject_id":"6159fe747ba656d250f21e09","study_id":"60edd13110225f80f9f3709b","session_id":"6196c4a57afdd8353abe0cf2","condition":"full-information","relevant_dimensions":["antennae","legs"],"bee_group":{"antennae":"B","wings":"X","pattern":"X","legs":"M"},"bonus":0.5000000000000009},{"rt":3803.699999988079,"stimulus":"bees-with-color/bee-B1SF.svg","response":0,"trial_type":"image-button-response","trial_index":73,"time_elapsed":465035,"internal_node_id":"0.0-4.0-0.33","subject_id":"6159fe747ba656d250f21e09","study_id":"60edd13110225f80f9f3709b","session_id":"6196c4a57afdd8353abe0cf2","condition":"full-information","relevant_dimensions":["antennae","legs"],"bee_group":{"antennae":"B","wings":"X","pattern":"X","legs":"M"},"action":"harvest","summary":"good-harvest","bonus":0.5000000000000009},{"rt":1634.300000011921,"stimulus":"\n                    <p><b>Action: <em>harvest</em></b></p>\n                    <p>This is the bee that you just saw.</p>\n                    <img src=\"bees-with-color/bee-B1SF.svg\" width=\"200\">\n                    <p><span class=\"greenText\"><b>Successful harvest!</b></span><br>Your pay has increased by $0.02. Your bonus pay is now $0.66.</p>\n            ","response":0,"trial_type":"html-button-response","trial_index":74,"time_elapsed":466678,"internal_node_id":"0.0-4.0-1.33","subject_id":"6159fe747ba656d250f21e09","study_id":"60edd13110225f80f9f3709b","session_id":"6196c4a57afdd8353abe0cf2","condition":"full-information","relevant_dimensions":["antennae","legs"],"bee_group":{"antennae":"B","wings":"X","pattern":"X","legs":"M"},"bonus":0.5000000000000009},{"rt":2094,"stimulus":"bees-with-color/bee-A1SF.svg","response":1,"trial_type":"image-button-response","trial_index":75,"time_elapsed":468778,"internal_node_id":"0.0-4.0-0.34","subject_id":"6159fe747ba656d250f21e09","study_id":"60edd13110225f80f9f3709b","session_id":"6196c4a57afdd8353abe0cf2","condition":"full-information","relevant_dimensions":["antennae","legs"],"bee_group":{"antennae":"B","wings":"X","pattern":"X","legs":"M"},"action":"avoid","summary":"bad-avoid","bonus":0.5000000000000009},{"rt":4095.699999988079,"stimulus":"\n                    <p><b>Action: <em>avoid</em></b></p>\n                    <p>This is the bee that you just saw.</p>\n                    <img src=\"bees-with-color/bee-A1SF.svg\" width=\"200\">\n                    <p><span class=\"redText\">Bad choice,</span> the bee was friendly.<br>Your bonus pay is unchanged, and remains at $0.66.</p>\n            ","response":0,"trial_type":"html-button-response","trial_index":76,"time_elapsed":472880,"internal_node_id":"0.0-4.0-1.34","subject_id":"6159fe747ba656d250f21e09","study_id":"60edd13110225f80f9f3709b","session_id":"6196c4a57afdd8353abe0cf2","condition":"full-information","relevant_dimensions":["antennae","legs"],"bee_group":{"antennae":"B","wings":"X","pattern":"X","legs":"M"},"bonus":0.5000000000000009},{"rt":2681.900000035763,"stimulus":"bees-with-color/bee-A1DM.svg","response":1,"trial_type":"image-button-response","trial_index":77,"time_elapsed":475569,"internal_node_id":"0.0-4.0-0.35","subject_id":"6159fe747ba656d250f21e09","study_id":"60edd13110225f80f9f3709b","session_id":"6196c4a57afdd8353abe0cf2","condition":"full-information","relevant_dimensions":["antennae","legs"],"bee_group":{"antennae":"B","wings":"X","pattern":"X","legs":"M"},"action":"avoid","summary":"bad-avoid","bonus":0.5000000000000009},{"rt":1456.300000011921,"stimulus":"\n                    <p><b>Action: <em>avoid</em></b></p>\n                    <p>This is the bee that you just saw.</p>\n                    <img src=\"bees-with-color/bee-A1DM.svg\" width=\"200\">\n                    <p><span class=\"redText\">Bad choice,</span> the bee was friendly.<br>Your bonus pay is unchanged, and remains at $0.66.</p>\n            ","response":0,"trial_type":"html-button-response","trial_index":78,"time_elapsed":477038,"internal_node_id":"0.0-4.0-1.35","subject_id":"6159fe747ba656d250f21e09","study_id":"60edd13110225f80f9f3709b","session_id":"6196c4a57afdd8353abe0cf2","condition":"full-information","relevant_dimensions":["antennae","legs"],"bee_group":{"antennae":"B","wings":"X","pattern":"X","legs":"M"},"bonus":0.5000000000000009},{"rt":2908.5,"stimulus":"bees-with-color/bee-A2DM.svg","response":1,"trial_type":"image-button-response","trial_index":79,"time_elapsed":479957,"internal_node_id":"0.0-4.0-0.36","subject_id":"6159fe747ba656d250f21e09","study_id":"60edd13110225f80f9f3709b","session_id":"6196c4a57afdd8353abe0cf2","condition":"full-information","relevant_dimensions":["antennae","legs"],"bee_group":{"antennae":"B","wings":"X","pattern":"X","legs":"M"},"action":"avoid","summary":"bad-avoid","bonus":0.5000000000000009},{"rt":1332.3999999761581,"stimulus":"\n                    <p><b>Action: <em>avoid</em></b></p>\n                    <p>This is the bee that you just saw.</p>\n                    <img src=\"bees-with-color/bee-A2DM.svg\" width=\"200\">\n                    <p><span class=\"redText\">Bad choice,</span> the bee was friendly.<br>Your bonus pay is unchanged, and remains at $0.66.</p>\n            ","response":0,"trial_type":"html-button-response","trial_index":80,"time_elapsed":481298,"internal_node_id":"0.0-4.0-1.36","subject_id":"6159fe747ba656d250f21e09","study_id":"60edd13110225f80f9f3709b","session_id":"6196c4a57afdd8353abe0cf2","condition":"full-information","relevant_dimensions":["antennae","legs"],"bee_group":{"antennae":"B","wings":"X","pattern":"X","legs":"M"},"bonus":0.5000000000000009},{"rt":2691.199999988079,"stimulus":"bees-with-color/bee-B1DM.svg","response":1,"trial_type":"image-button-response","trial_index":81,"time_elapsed":483999,"internal_node_id":"0.0-4.0-0.37","subject_id":"6159fe747ba656d250f21e09","study_id":"60edd13110225f80f9f3709b","session_id":"6196c4a57afdd8353abe0cf2","condition":"full-information","relevant_dimensions":["antennae","legs"],"bee_group":{"antennae":"B","wings":"X","pattern":"X","legs":"M"},"action":"avoid","summary":"good-avoid","bonus":0.5000000000000009},{"rt":1925.6000000238419,"stimulus":"\n                    <p><b>Action: <em>avoid</em></b></p>\n                    <p>This is the bee that you just saw.</p>\n                    <img src=\"bees-with-color/bee-B1DM.svg\" width=\"200\">\n                    <p><span class=\"greenText\">Good choice!</span>  This bee would have stung you.<br>Your bonus pay is unchanged, and remains at $0.66.</p>\n            ","response":0,"trial_type":"html-button-response","trial_index":82,"time_elapsed":485930,"internal_node_id":"0.0-4.0-1.37","subject_id":"6159fe747ba656d250f21e09","study_id":"60edd13110225f80f9f3709b","session_id":"6196c4a57afdd8353abe0cf2","condition":"full-information","relevant_dimensions":["antennae","legs"],"bee_group":{"antennae":"B","wings":"X","pattern":"X","legs":"M"},"bonus":0.5000000000000009},{"rt":8100.399999976158,"stimulus":"bees-with-color/bee-B1SM.svg","response":0,"trial_type":"image-button-response","trial_index":83,"time_elapsed":494038,"internal_node_id":"0.0-4.0-0.38","subject_id":"6159fe747ba656d250f21e09","study_id":"60edd13110225f80f9f3709b","session_id":"6196c4a57afdd8353abe0cf2","condition":"full-information","relevant_dimensions":["antennae","legs"],"bee_group":{"antennae":"B","wings":"X","pattern":"X","legs":"M"},"action":"harvest","summary":"bad-harvest","bonus":0.5000000000000009},{"rt":1785.199999988079,"stimulus":"\n                    <p><b>Action: <em>harvest</em></b></p>\n                    <p>This is the bee that you just saw.</p>\n                    <img src=\"bees-with-color/bee-B1SM.svg\" width=\"200\">\n                    <p><span class=\"redText\">Bad choice, the bee was angry.</span><br><b>You have been stung!</b><br>Your pay has been decreased by $0.10. Your bonus pay is now $0.56.</p>\n            ","response":0,"trial_type":"html-button-response","trial_index":84,"time_elapsed":495832,"internal_node_id":"0.0-4.0-1.38","subject_id":"6159fe747ba656d250f21e09","study_id":"60edd13110225f80f9f3709b","session_id":"6196c4a57afdd8353abe0cf2","condition":"full-information","relevant_dimensions":["antennae","legs"],"bee_group":{"antennae":"B","wings":"X","pattern":"X","legs":"M"},"bonus":0.5000000000000009},{"rt":3841.900000035763,"stimulus":"bees-with-color/bee-A2DF.svg","response":1,"trial_type":"image-button-response","trial_index":85,"time_elapsed":499682,"internal_node_id":"0.0-4.0-0.39","subject_id":"6159fe747ba656d250f21e09","study_id":"60edd13110225f80f9f3709b","session_id":"6196c4a57afdd8353abe0cf2","condition":"full-information","relevant_dimensions":["antennae","legs"],"bee_group":{"antennae":"B","wings":"X","pattern":"X","legs":"M"},"action":"avoid","summary":"bad-avoid","bonus":0.5000000000000009},{"rt":1391.5999999642372,"stimulus":"\n                    <p><b>Action: <em>avoid</em></b></p>\n                    <p>This is the bee that you just saw.</p>\n                    <img src=\"bees-with-color/bee-A2DF.svg\" width=\"200\">\n                    <p><span class=\"redText\">Bad choice,</span> the bee was friendly.<br>Your bonus pay is unchanged, and remains at $0.56.</p>\n            ","response":0,"trial_type":"html-button-response","trial_index":86,"time_elapsed":501080,"internal_node_id":"0.0-4.0-1.39","subject_id":"6159fe747ba656d250f21e09","study_id":"60edd13110225f80f9f3709b","session_id":"6196c4a57afdd8353abe0cf2","condition":"full-information","relevant_dimensions":["antennae","legs"],"bee_group":{"antennae":"B","wings":"X","pattern":"X","legs":"M"},"bonus":0.5000000000000009},{"rt":2484,"stimulus":"bees-with-color/bee-A1SM.svg","response":1,"trial_type":"image-button-response","trial_index":87,"time_elapsed":503572,"internal_node_id":"0.0-4.0-0.40","subject_id":"6159fe747ba656d250f21e09","study_id":"60edd13110225f80f9f3709b","session_id":"6196c4a57afdd8353abe0cf2","condition":"full-information","relevant_dimensions":["antennae","legs"],"bee_group":{"antennae":"B","wings":"X","pattern":"X","legs":"M"},"action":"avoid","summary":"bad-avoid","bonus":0.5000000000000009},{"rt":1325.1000000238419,"stimulus":"\n                    <p><b>Action: <em>avoid</em></b></p>\n                    <p>This is the bee that you just saw.</p>\n                    <img src=\"bees-with-color/bee-A1SM.svg\" width=\"200\">\n                    <p><span class=\"redText\">Bad choice,</span> the bee was friendly.<br>Your bonus pay is unchanged, and remains at $0.56.</p>\n            ","response":0,"trial_type":"html-button-response","trial_index":88,"time_elapsed":504906,"internal_node_id":"0.0-4.0-1.40","subject_id":"6159fe747ba656d250f21e09","study_id":"60edd13110225f80f9f3709b","session_id":"6196c4a57afdd8353abe0cf2","condition":"full-information","relevant_dimensions":["antennae","legs"],"bee_group":{"antennae":"B","wings":"X","pattern":"X","legs":"M"},"bonus":0.5000000000000009},{"rt":2931.600000023842,"stimulus":"bees-with-color/bee-B2DF.svg","response":1,"trial_type":"image-button-response","trial_index":89,"time_elapsed":507848,"internal_node_id":"0.0-4.0-0.41","subject_id":"6159fe747ba656d250f21e09","study_id":"60edd13110225f80f9f3709b","session_id":"6196c4a57afdd8353abe0cf2","condition":"full-information","relevant_dimensions":["antennae","legs"],"bee_group":{"antennae":"B","wings":"X","pattern":"X","legs":"M"},"action":"avoid","summary":"bad-avoid","bonus":0.5000000000000009},{"rt":1169.300000011921,"stimulus":"\n                    <p><b>Action: <em>avoid</em></b></p>\n                    <p>This is the bee that you just saw.</p>\n                    <img src=\"bees-with-color/bee-B2DF.svg\" width=\"200\">\n                    <p><span class=\"redText\">Bad choice,</span> the bee was friendly.<br>Your bonus pay is unchanged, and remains at $0.56.</p>\n            ","response":0,"trial_type":"html-button-response","trial_index":90,"time_elapsed":509033,"internal_node_id":"0.0-4.0-1.41","subject_id":"6159fe747ba656d250f21e09","study_id":"60edd13110225f80f9f3709b","session_id":"6196c4a57afdd8353abe0cf2","condition":"full-information","relevant_dimensions":["antennae","legs"],"bee_group":{"antennae":"B","wings":"X","pattern":"X","legs":"M"},"bonus":0.5000000000000009},{"rt":3146.5,"stimulus":"bees-with-color/bee-A1DF.svg","response":0,"trial_type":"image-button-response","trial_index":91,"time_elapsed":512187,"internal_node_id":"0.0-4.0-0.42","subject_id":"6159fe747ba656d250f21e09","study_id":"60edd13110225f80f9f3709b","session_id":"6196c4a57afdd8353abe0cf2","condition":"full-information","relevant_dimensions":["antennae","legs"],"bee_group":{"antennae":"B","wings":"X","pattern":"X","legs":"M"},"action":"harvest","summary":"good-harvest","bonus":0.5000000000000009},{"rt":1587.8999999761581,"stimulus":"\n                    <p><b>Action: <em>harvest</em></b></p>\n                    <p>This is the bee that you just saw.</p>\n                    <img src=\"bees-with-color/bee-A1DF.svg\" width=\"200\">\n                    <p><span class=\"greenText\"><b>Successful harvest!</b></span><br>Your pay has increased by $0.02. Your bonus pay is now $0.58.</p>\n            ","response":0,"trial_type":"html-button-response","trial_index":92,"time_elapsed":513783,"internal_node_id":"0.0-4.0-1.42","subject_id":"6159fe747ba656d250f21e09","study_id":"60edd13110225f80f9f3709b","session_id":"6196c4a57afdd8353abe0cf2","condition":"full-information","relevant_dimensions":["antennae","legs"],"bee_group":{"antennae":"B","wings":"X","pattern":"X","legs":"M"},"bonus":0.5000000000000009},{"rt":4866.899999976158,"stimulus":"bees-with-color/bee-B2SM.svg","response":0,"trial_type":"image-button-response","trial_index":93,"time_elapsed":518659,"internal_node_id":"0.0-4.0-0.43","subject_id":"6159fe747ba656d250f21e09","study_id":"60edd13110225f80f9f3709b","session_id":"6196c4a57afdd8353abe0cf2","condition":"full-information","relevant_dimensions":["antennae","legs"],"bee_group":{"antennae":"B","wings":"X","pattern":"X","legs":"M"},"action":"harvest","summary":"bad-harvest","bonus":0.5000000000000009},{"rt":1848.4000000357628,"stimulus":"\n                    <p><b>Action: <em>harvest</em></b></p>\n                    <p>This is the bee that you just saw.</p>\n                    <img src=\"bees-with-color/bee-B2SM.svg\" width=\"200\">\n                    <p><span class=\"redText\">Bad choice, the bee was angry.</span><br><b>You have been stung!</b><br>Your pay has been decreased by $0.10. Your bonus pay is now $0.48.</p>\n            ","response":0,"trial_type":"html-button-response","trial_index":94,"time_elapsed":520514,"internal_node_id":"0.0-4.0-1.43","subject_id":"6159fe747ba656d250f21e09","study_id":"60edd13110225f80f9f3709b","session_id":"6196c4a57afdd8353abe0cf2","condition":"full-information","relevant_dimensions":["antennae","legs"],"bee_group":{"antennae":"B","wings":"X","pattern":"X","legs":"M"},"bonus":0.5000000000000009},{"rt":2795.300000011921,"stimulus":"bees-with-color/bee-B2DM.svg","response":0,"trial_type":"image-button-response","trial_index":95,"time_elapsed":523318,"internal_node_id":"0.0-4.0-0.44","subject_id":"6159fe747ba656d250f21e09","study_id":"60edd13110225f80f9f3709b","session_id":"6196c4a57afdd8353abe0cf2","condition":"full-information","relevant_dimensions":["antennae","legs"],"bee_group":{"antennae":"B","wings":"X","pattern":"X","legs":"M"},"action":"harvest","summary":"bad-harvest","bonus":0.5000000000000009},{"rt":1579.5,"stimulus":"\n                    <p><b>Action: <em>harvest</em></b></p>\n                    <p>This is the bee that you just saw.</p>\n                    <img src=\"bees-with-color/bee-B2DM.svg\" width=\"200\">\n                    <p><span class=\"redText\">Bad choice, the bee was angry.</span><br><b>You have been stung!</b><br>Your pay has been decreased by $0.10. Your bonus pay is now $0.38.</p>\n            ","response":0,"trial_type":"html-button-response","trial_index":96,"time_elapsed":524908,"internal_node_id":"0.0-4.0-1.44","subject_id":"6159fe747ba656d250f21e09","study_id":"60edd13110225f80f9f3709b","session_id":"6196c4a57afdd8353abe0cf2","condition":"full-information","relevant_dimensions":["antennae","legs"],"bee_group":{"antennae":"B","wings":"X","pattern":"X","legs":"M"},"bonus":0.5000000000000009},{"rt":2160.2999999523163,"stimulus":"bees-with-color/bee-A2SF.svg","response":0,"trial_type":"image-button-response","trial_index":97,"time_elapsed":527077,"internal_node_id":"0.0-4.0-0.45","subject_id":"6159fe747ba656d250f21e09","study_id":"60edd13110225f80f9f3709b","session_id":"6196c4a57afdd8353abe0cf2","condition":"full-information","relevant_dimensions":["antennae","legs"],"bee_group":{"antennae":"B","wings":"X","pattern":"X","legs":"M"},"action":"harvest","summary":"good-harvest","bonus":0.5000000000000009},{"rt":1466.699999988079,"stimulus":"\n                    <p><b>Action: <em>harvest</em></b></p>\n                    <p>This is the bee that you just saw.</p>\n                    <img src=\"bees-with-color/bee-A2SF.svg\" width=\"200\">\n                    <p><span class=\"greenText\"><b>Successful harvest!</b></span><br>Your pay has increased by $0.02. Your bonus pay is now $0.40.</p>\n            ","response":0,"trial_type":"html-button-response","trial_index":98,"time_elapsed":528551,"internal_node_id":"0.0-4.0-1.45","subject_id":"6159fe747ba656d250f21e09","study_id":"60edd13110225f80f9f3709b","session_id":"6196c4a57afdd8353abe0cf2","condition":"full-information","relevant_dimensions":["antennae","legs"],"bee_group":{"antennae":"B","wings":"X","pattern":"X","legs":"M"},"bonus":0.5000000000000009},{"rt":2121.899999976158,"stimulus":"bees-with-color/bee-A2SM.svg","response":0,"trial_type":"image-button-response","trial_index":99,"time_elapsed":530684,"internal_node_id":"0.0-4.0-0.46","subject_id":"6159fe747ba656d250f21e09","study_id":"60edd13110225f80f9f3709b","session_id":"6196c4a57afdd8353abe0cf2","condition":"full-information","relevant_dimensions":["antennae","legs"],"bee_group":{"antennae":"B","wings":"X","pattern":"X","legs":"M"},"action":"harvest","summary":"good-harvest","bonus":0.5000000000000009},{"rt":1661.199999988079,"stimulus":"\n                    <p><b>Action: <em>harvest</em></b></p>\n                    <p>This is the bee that you just saw.</p>\n                    <img src=\"bees-with-color/bee-A2SM.svg\" width=\"200\">\n                    <p><span class=\"greenText\"><b>Successful harvest!</b></span><br>Your pay has increased by $0.02. Your bonus pay is now $0.42.</p>\n            ","response":0,"trial_type":"html-button-response","trial_index":100,"time_elapsed":532356,"internal_node_id":"0.0-4.0-1.46","subject_id":"6159fe747ba656d250f21e09","study_id":"60edd13110225f80f9f3709b","session_id":"6196c4a57afdd8353abe0cf2","condition":"full-information","relevant_dimensions":["antennae","legs"],"bee_group":{"antennae":"B","wings":"X","pattern":"X","legs":"M"},"bonus":0.5000000000000009},{"rt":1953,"stimulus":"bees-with-color/bee-B2SF.svg","response":1,"trial_type":"image-button-response","trial_index":101,"time_elapsed":534318,"internal_node_id":"0.0-4.0-0.47","subject_id":"6159fe747ba656d250f21e09","study_id":"60edd13110225f80f9f3709b","session_id":"6196c4a57afdd8353abe0cf2","condition":"full-information","relevant_dimensions":["antennae","legs"],"bee_group":{"antennae":"B","wings":"X","pattern":"X","legs":"M"},"action":"avoid","summary":"bad-avoid","bonus":0.5000000000000009},{"rt":1518.9000000357628,"stimulus":"\n                    <p><b>Action: <em>avoid</em></b></p>\n                    <p>This is the bee that you just saw.</p>\n                    <img src=\"bees-with-color/bee-B2SF.svg\" width=\"200\">\n                    <p><span class=\"redText\">Bad choice,</span> the bee was friendly.<br>Your bonus pay is unchanged, and remains at $0.42.</p>\n            ","response":0,"trial_type":"html-button-response","trial_index":102,"time_elapsed":535845,"internal_node_id":"0.0-4.0-1.47","subject_id":"6159fe747ba656d250f21e09","study_id":"60edd13110225f80f9f3709b","session_id":"6196c4a57afdd8353abe0cf2","condition":"full-information","relevant_dimensions":["antennae","legs"],"bee_group":{"antennae":"B","wings":"X","pattern":"X","legs":"M"},"bonus":0.5000000000000009},{"rt":1795.5,"stimulus":"bees-with-color/bee-B1SF.svg","response":0,"trial_type":"image-button-response","trial_index":103,"time_elapsed":537647,"internal_node_id":"0.0-4.0-0.48","subject_id":"6159fe747ba656d250f21e09","study_id":"60edd13110225f80f9f3709b","session_id":"6196c4a57afdd8353abe0cf2","condition":"full-information","relevant_dimensions":["antennae","legs"],"bee_group":{"antennae":"B","wings":"X","pattern":"X","legs":"M"},"action":"harvest","summary":"good-harvest","bonus":0.5000000000000009},{"rt":1551.800000011921,"stimulus":"\n                    <p><b>Action: <em>harvest</em></b></p>\n                    <p>This is the bee that you just saw.</p>\n                    <img src=\"bees-with-color/bee-B1SF.svg\" width=\"200\">\n                    <p><span class=\"greenText\"><b>Successful harvest!</b></span><br>Your pay has increased by $0.02. Your bonus pay is now $0.44.</p>\n            ","response":0,"trial_type":"html-button-response","trial_index":104,"time_elapsed":539209,"internal_node_id":"0.0-4.0-1.48","subject_id":"6159fe747ba656d250f21e09","study_id":"60edd13110225f80f9f3709b","session_id":"6196c4a57afdd8353abe0cf2","condition":"full-information","relevant_dimensions":["antennae","legs"],"bee_group":{"antennae":"B","wings":"X","pattern":"X","legs":"M"},"bonus":0.5000000000000009},{"rt":4305.799999952316,"stimulus":"bees-with-color/bee-A2DM.svg","response":1,"trial_type":"image-button-response","trial_index":105,"time_elapsed":543522,"internal_node_id":"0.0-4.0-0.49","subject_id":"6159fe747ba656d250f21e09","study_id":"60edd13110225f80f9f3709b","session_id":"6196c4a57afdd8353abe0cf2","condition":"full-information","relevant_dimensions":["antennae","legs"],"bee_group":{"antennae":"B","wings":"X","pattern":"X","legs":"M"},"action":"avoid","summary":"bad-avoid","bonus":0.5000000000000009},{"rt":1307.2000000476837,"stimulus":"\n                    <p><b>Action: <em>avoid</em></b></p>\n                    <p>This is the bee that you just saw.</p>\n                    <img src=\"bees-with-color/bee-A2DM.svg\" width=\"200\">\n                    <p><span class=\"redText\">Bad choice,</span> the bee was friendly.<br>Your bonus pay is unchanged, and remains at $0.44.</p>\n            ","response":0,"trial_type":"html-button-response","trial_index":106,"time_elapsed":544837,"internal_node_id":"0.0-4.0-1.49","subject_id":"6159fe747ba656d250f21e09","study_id":"60edd13110225f80f9f3709b","session_id":"6196c4a57afdd8353abe0cf2","condition":"full-information","relevant_dimensions":["antennae","legs"],"bee_group":{"antennae":"B","wings":"X","pattern":"X","legs":"M"},"bonus":0.5000000000000009},{"rt":2648.399999976158,"stimulus":"bees-with-color/bee-A1SM.svg","response":1,"trial_type":"image-button-response","trial_index":107,"time_elapsed":547496,"internal_node_id":"0.0-4.0-0.50","subject_id":"6159fe747ba656d250f21e09","study_id":"60edd13110225f80f9f3709b","session_id":"6196c4a57afdd8353abe0cf2","condition":"full-information","relevant_dimensions":["antennae","legs"],"bee_group":{"antennae":"B","wings":"X","pattern":"X","legs":"M"},"action":"avoid","summary":"bad-avoid","bonus":0.5000000000000009},{"rt":1284.7000000476837,"stimulus":"\n                    <p><b>Action: <em>avoid</em></b></p>\n                    <p>This is the bee that you just saw.</p>\n                    <img src=\"bees-with-color/bee-A1SM.svg\" width=\"200\">\n                    <p><span class=\"redText\">Bad choice,</span> the bee was friendly.<br>Your bonus pay is unchanged, and remains at $0.44.</p>\n            ","response":0,"trial_type":"html-button-response","trial_index":108,"time_elapsed":548787,"internal_node_id":"0.0-4.0-1.50","subject_id":"6159fe747ba656d250f21e09","study_id":"60edd13110225f80f9f3709b","session_id":"6196c4a57afdd8353abe0cf2","condition":"full-information","relevant_dimensions":["antennae","legs"],"bee_group":{"antennae":"B","wings":"X","pattern":"X","legs":"M"},"bonus":0.5000000000000009},{"rt":3082.5,"stimulus":"bees-with-color/bee-A2SF.svg","response":1,"trial_type":"image-button-response","trial_index":109,"time_elapsed":551881,"internal_node_id":"0.0-4.0-0.51","subject_id":"6159fe747ba656d250f21e09","study_id":"60edd13110225f80f9f3709b","session_id":"6196c4a57afdd8353abe0cf2","condition":"full-information","relevant_dimensions":["antennae","legs"],"bee_group":{"antennae":"B","wings":"X","pattern":"X","legs":"M"},"action":"avoid","summary":"bad-avoid","bonus":0.5000000000000009},{"rt":1322.300000011921,"stimulus":"\n                    <p><b>Action: <em>avoid</em></b></p>\n                    <p>This is the bee that you just saw.</p>\n                    <img src=\"bees-with-color/bee-A2SF.svg\" width=\"200\">\n                    <p><span class=\"redText\">Bad choice,</span> the bee was friendly.<br>Your bonus pay is unchanged, and remains at $0.44.</p>\n            ","response":0,"trial_type":"html-button-response","trial_index":110,"time_elapsed":553210,"internal_node_id":"0.0-4.0-1.51","subject_id":"6159fe747ba656d250f21e09","study_id":"60edd13110225f80f9f3709b","session_id":"6196c4a57afdd8353abe0cf2","condition":"full-information","relevant_dimensions":["antennae","legs"],"bee_group":{"antennae":"B","wings":"X","pattern":"X","legs":"M"},"bonus":0.5000000000000009},{"rt":2504.5,"stimulus":"bees-with-color/bee-B2DM.svg","response":1,"trial_type":"image-button-response","trial_index":111,"time_elapsed":555724,"internal_node_id":"0.0-4.0-0.52","subject_id":"6159fe747ba656d250f21e09","study_id":"60edd13110225f80f9f3709b","session_id":"6196c4a57afdd8353abe0cf2","condition":"full-information","relevant_dimensions":["antennae","legs"],"bee_group":{"antennae":"B","wings":"X","pattern":"X","legs":"M"},"action":"avoid","summary":"good-avoid","bonus":0.5000000000000009},{"rt":1825.199999988079,"stimulus":"\n                    <p><b>Action: <em>avoid</em></b></p>\n                    <p>This is the bee that you just saw.</p>\n                    <img src=\"bees-with-color/bee-B2DM.svg\" width=\"200\">\n                    <p><span class=\"greenText\">Good choice!</span>  This bee would have stung you.<br>Your bonus pay is unchanged, and remains at $0.44.</p>\n            ","response":0,"trial_type":"html-button-response","trial_index":112,"time_elapsed":557558,"internal_node_id":"0.0-4.0-1.52","subject_id":"6159fe747ba656d250f21e09","study_id":"60edd13110225f80f9f3709b","session_id":"6196c4a57afdd8353abe0cf2","condition":"full-information","relevant_dimensions":["antennae","legs"],"bee_group":{"antennae":"B","wings":"X","pattern":"X","legs":"M"},"bonus":0.5000000000000009},{"rt":3366.199999988079,"stimulus":"bees-with-color/bee-B2DF.svg","response":1,"trial_type":"image-button-response","trial_index":113,"time_elapsed":560934,"internal_node_id":"0.0-4.0-0.53","subject_id":"6159fe747ba656d250f21e09","study_id":"60edd13110225f80f9f3709b","session_id":"6196c4a57afdd8353abe0cf2","condition":"full-information","relevant_dimensions":["antennae","legs"],"bee_group":{"antennae":"B","wings":"X","pattern":"X","legs":"M"},"action":"avoid","summary":"bad-avoid","bonus":0.5000000000000009},{"rt":1327.5,"stimulus":"\n                    <p><b>Action: <em>avoid</em></b></p>\n                    <p>This is the bee that you just saw.</p>\n                    <img src=\"bees-with-color/bee-B2DF.svg\" width=\"200\">\n                    <p><span class=\"redText\">Bad choice,</span> the bee was friendly.<br>Your bonus pay is unchanged, and remains at $0.44.</p>\n            ","response":0,"trial_type":"html-button-response","trial_index":114,"time_elapsed":562270,"internal_node_id":"0.0-4.0-1.53","subject_id":"6159fe747ba656d250f21e09","study_id":"60edd13110225f80f9f3709b","session_id":"6196c4a57afdd8353abe0cf2","condition":"full-information","relevant_dimensions":["antennae","legs"],"bee_group":{"antennae":"B","wings":"X","pattern":"X","legs":"M"},"bonus":0.5000000000000009},{"rt":1677.5,"stimulus":"bees-with-color/bee-B1SM.svg","response":0,"trial_type":"image-button-response","trial_index":115,"time_elapsed":563959,"internal_node_id":"0.0-4.0-0.54","subject_id":"6159fe747ba656d250f21e09","study_id":"60edd13110225f80f9f3709b","session_id":"6196c4a57afdd8353abe0cf2","condition":"full-information","relevant_dimensions":["antennae","legs"],"bee_group":{"antennae":"B","wings":"X","pattern":"X","legs":"M"},"action":"harvest","summary":"bad-harvest","bonus":0.5000000000000009},{"rt":1445.300000011921,"stimulus":"\n                    <p><b>Action: <em>harvest</em></b></p>\n                    <p>This is the bee that you just saw.</p>\n                    <img src=\"bees-with-color/bee-B1SM.svg\" width=\"200\">\n                    <p><span class=\"redText\">Bad choice, the bee was angry.</span><br><b>You have been stung!</b><br>Your pay has been decreased by $0.10. Your bonus pay is now $0.34.</p>\n            ","response":0,"trial_type":"html-button-response","trial_index":116,"time_elapsed":565409,"internal_node_id":"0.0-4.0-1.54","subject_id":"6159fe747ba656d250f21e09","study_id":"60edd13110225f80f9f3709b","session_id":"6196c4a57afdd8353abe0cf2","condition":"full-information","relevant_dimensions":["antennae","legs"],"bee_group":{"antennae":"B","wings":"X","pattern":"X","legs":"M"},"bonus":0.5000000000000009},{"rt":2248.300000011921,"stimulus":"bees-with-color/bee-B1DF.svg","response":0,"trial_type":"image-button-response","trial_index":117,"time_elapsed":567664,"internal_node_id":"0.0-4.0-0.55","subject_id":"6159fe747ba656d250f21e09","study_id":"60edd13110225f80f9f3709b","session_id":"6196c4a57afdd8353abe0cf2","condition":"full-information","relevant_dimensions":["antennae","legs"],"bee_group":{"antennae":"B","wings":"X","pattern":"X","legs":"M"},"action":"harvest","summary":"good-harvest","bonus":0.5000000000000009},{"rt":1342.699999988079,"stimulus":"\n                    <p><b>Action: <em>harvest</em></b></p>\n                    <p>This is the bee that you just saw.</p>\n                    <img src=\"bees-with-color/bee-B1DF.svg\" width=\"200\">\n                    <p><span class=\"greenText\"><b>Successful harvest!</b></span><br>Your pay has increased by $0.02. Your bonus pay is now $0.36.</p>\n            ","response":0,"trial_type":"html-button-response","trial_index":118,"time_elapsed":569014,"internal_node_id":"0.0-4.0-1.55","subject_id":"6159fe747ba656d250f21e09","study_id":"60edd13110225f80f9f3709b","session_id":"6196c4a57afdd8353abe0cf2","condition":"full-information","relevant_dimensions":["antennae","legs"],"bee_group":{"antennae":"B","wings":"X","pattern":"X","legs":"M"},"bonus":0.5000000000000009},{"rt":2775.199999988079,"stimulus":"bees-with-color/bee-B1DM.svg","response":0,"trial_type":"image-button-response","trial_index":119,"time_elapsed":571796,"internal_node_id":"0.0-4.0-0.56","subject_id":"6159fe747ba656d250f21e09","study_id":"60edd13110225f80f9f3709b","session_id":"6196c4a57afdd8353abe0cf2","condition":"full-information","relevant_dimensions":["antennae","legs"],"bee_group":{"antennae":"B","wings":"X","pattern":"X","legs":"M"},"action":"harvest","summary":"bad-harvest","bonus":0.5000000000000009},{"rt":1652.6000000238419,"stimulus":"\n                    <p><b>Action: <em>harvest</em></b></p>\n                    <p>This is the bee that you just saw.</p>\n                    <img src=\"bees-with-color/bee-B1DM.svg\" width=\"200\">\n                    <p><span class=\"redText\">Bad choice, the bee was angry.</span><br><b>You have been stung!</b><br>Your pay has been decreased by $0.10. Your bonus pay is now $0.26.</p>\n            ","response":0,"trial_type":"html-button-response","trial_index":120,"time_elapsed":573455,"internal_node_id":"0.0-4.0-1.56","subject_id":"6159fe747ba656d250f21e09","study_id":"60edd13110225f80f9f3709b","session_id":"6196c4a57afdd8353abe0cf2","condition":"full-information","relevant_dimensions":["antennae","legs"],"bee_group":{"antennae":"B","wings":"X","pattern":"X","legs":"M"},"bonus":0.5000000000000009},{"rt":11212.300000011921,"stimulus":"bees-with-color/bee-A2SM.svg","response":0,"trial_type":"image-button-response","trial_index":121,"time_elapsed":584676,"internal_node_id":"0.0-4.0-0.57","subject_id":"6159fe747ba656d250f21e09","study_id":"60edd13110225f80f9f3709b","session_id":"6196c4a57afdd8353abe0cf2","condition":"full-information","relevant_dimensions":["antennae","legs"],"bee_group":{"antennae":"B","wings":"X","pattern":"X","legs":"M"},"action":"harvest","summary":"good-harvest","bonus":0.5000000000000009},{"rt":2126.199999988079,"stimulus":"\n                    <p><b>Action: <em>harvest</em></b></p>\n                    <p>This is the bee that you just saw.</p>\n                    <img src=\"bees-with-color/bee-A2SM.svg\" width=\"200\">\n                    <p><span class=\"greenText\"><b>Successful harvest!</b></span><br>Your pay has increased by $0.02. Your bonus pay is now $0.28.</p>\n            ","response":0,"trial_type":"html-button-response","trial_index":122,"time_elapsed":586808,"internal_node_id":"0.0-4.0-1.57","subject_id":"6159fe747ba656d250f21e09","study_id":"60edd13110225f80f9f3709b","session_id":"6196c4a57afdd8353abe0cf2","condition":"full-information","relevant_dimensions":["antennae","legs"],"bee_group":{"antennae":"B","wings":"X","pattern":"X","legs":"M"},"bonus":0.5000000000000009},{"rt":5750.799999952316,"stimulus":"bees-with-color/bee-A1DF.svg","response":0,"trial_type":"image-button-response","trial_index":123,"time_elapsed":592567,"internal_node_id":"0.0-4.0-0.58","subject_id":"6159fe747ba656d250f21e09","study_id":"60edd13110225f80f9f3709b","session_id":"6196c4a57afdd8353abe0cf2","condition":"full-information","relevant_dimensions":["antennae","legs"],"bee_group":{"antennae":"B","wings":"X","pattern":"X","legs":"M"},"action":"harvest","summary":"good-harvest","bonus":0.5000000000000009},{"rt":2460.199999988079,"stimulus":"\n                    <p><b>Action: <em>harvest</em></b></p>\n                    <p>This is the bee that you just saw.</p>\n                    <img src=\"bees-with-color/bee-A1DF.svg\" width=\"200\">\n                    <p><span class=\"greenText\"><b>Successful harvest!</b></span><br>Your pay has increased by $0.02. Your bonus pay is now $0.30.</p>\n            ","response":0,"trial_type":"html-button-response","trial_index":124,"time_elapsed":595034,"internal_node_id":"0.0-4.0-1.58","subject_id":"6159fe747ba656d250f21e09","study_id":"60edd13110225f80f9f3709b","session_id":"6196c4a57afdd8353abe0cf2","condition":"full-information","relevant_dimensions":["antennae","legs"],"bee_group":{"antennae":"B","wings":"X","pattern":"X","legs":"M"},"bonus":0.5000000000000009},{"rt":2466.400000035763,"stimulus":"bees-with-color/bee-B2SF.svg","response":1,"trial_type":"image-button-response","trial_index":125,"time_elapsed":597504,"internal_node_id":"0.0-4.0-0.59","subject_id":"6159fe747ba656d250f21e09","study_id":"60edd13110225f80f9f3709b","session_id":"6196c4a57afdd8353abe0cf2","condition":"full-information","relevant_dimensions":["antennae","legs"],"bee_group":{"antennae":"B","wings":"X","pattern":"X","legs":"M"},"action":"avoid","summary":"bad-avoid","bonus":0.5000000000000009},{"rt":1803.5,"stimulus":"\n                    <p><b>Action: <em>avoid</em></b></p>\n                    <p>This is the bee that you just saw.</p>\n                    <img src=\"bees-with-color/bee-B2SF.svg\" width=\"200\">\n                    <p><span class=\"redText\">Bad choice,</span> the bee was friendly.<br>Your bonus pay is unchanged, and remains at $0.30.</p>\n            ","response":0,"trial_type":"html-button-response","trial_index":126,"time_elapsed":599315,"internal_node_id":"0.0-4.0-1.59","subject_id":"6159fe747ba656d250f21e09","study_id":"60edd13110225f80f9f3709b","session_id":"6196c4a57afdd8353abe0cf2","condition":"full-information","relevant_dimensions":["antennae","legs"],"bee_group":{"antennae":"B","wings":"X","pattern":"X","legs":"M"},"bonus":0.5000000000000009},{"rt":4826.100000023842,"stimulus":"bees-with-color/bee-A1DM.svg","response":1,"trial_type":"image-button-response","trial_index":127,"time_elapsed":604153,"internal_node_id":"0.0-4.0-0.60","subject_id":"6159fe747ba656d250f21e09","study_id":"60edd13110225f80f9f3709b","session_id":"6196c4a57afdd8353abe0cf2","condition":"full-information","relevant_dimensions":["antennae","legs"],"bee_group":{"antennae":"B","wings":"X","pattern":"X","legs":"M"},"action":"avoid","summary":"bad-avoid","bonus":0.5000000000000009},{"rt":2166.899999976158,"stimulus":"\n                    <p><b>Action: <em>avoid</em></b></p>\n                    <p>This is the bee that you just saw.</p>\n                    <img src=\"bees-with-color/bee-A1DM.svg\" width=\"200\">\n                    <p><span class=\"redText\">Bad choice,</span> the bee was friendly.<br>Your bonus pay is unchanged, and remains at $0.30.</p>\n            ","response":0,"trial_type":"html-button-response","trial_index":128,"time_elapsed":606326,"internal_node_id":"0.0-4.0-1.60","subject_id":"6159fe747ba656d250f21e09","study_id":"60edd13110225f80f9f3709b","session_id":"6196c4a57afdd8353abe0cf2","condition":"full-information","relevant_dimensions":["antennae","legs"],"bee_group":{"antennae":"B","wings":"X","pattern":"X","legs":"M"},"bonus":0.5000000000000009},{"rt":3657,"stimulus":"bees-with-color/bee-B2SM.svg","response":1,"trial_type":"image-button-response","trial_index":129,"time_elapsed":609993,"internal_node_id":"0.0-4.0-0.61","subject_id":"6159fe747ba656d250f21e09","study_id":"60edd13110225f80f9f3709b","session_id":"6196c4a57afdd8353abe0cf2","condition":"full-information","relevant_dimensions":["antennae","legs"],"bee_group":{"antennae":"B","wings":"X","pattern":"X","legs":"M"},"action":"avoid","summary":"good-avoid","bonus":0.5000000000000009},{"rt":1567.199999988079,"stimulus":"\n                    <p><b>Action: <em>avoid</em></b></p>\n                    <p>This is the bee that you just saw.</p>\n                    <img src=\"bees-with-color/bee-B2SM.svg\" width=\"200\">\n                    <p><span class=\"greenText\">Good choice!</span>  This bee would have stung you.<br>Your bonus pay is unchanged, and remains at $0.30.</p>\n            ","response":0,"trial_type":"html-button-response","trial_index":130,"time_elapsed":611568,"internal_node_id":"0.0-4.0-1.61","subject_id":"6159fe747ba656d250f21e09","study_id":"60edd13110225f80f9f3709b","session_id":"6196c4a57afdd8353abe0cf2","condition":"full-information","relevant_dimensions":["antennae","legs"],"bee_group":{"antennae":"B","wings":"X","pattern":"X","legs":"M"},"bonus":0.5000000000000009},{"rt":4582.400000035763,"stimulus":"bees-with-color/bee-A2DF.svg","response":0,"trial_type":"image-button-response","trial_index":131,"time_elapsed":616158,"internal_node_id":"0.0-4.0-0.62","subject_id":"6159fe747ba656d250f21e09","study_id":"60edd13110225f80f9f3709b","session_id":"6196c4a57afdd8353abe0cf2","condition":"full-information","relevant_dimensions":["antennae","legs"],"bee_group":{"antennae":"B","wings":"X","pattern":"X","legs":"M"},"action":"harvest","summary":"good-harvest","bonus":0.5000000000000009},{"rt":1788.5,"stimulus":"\n                    <p><b>Action: <em>harvest</em></b></p>\n                    <p>This is the bee that you just saw.</p>\n                    <img src=\"bees-with-color/bee-A2DF.svg\" width=\"200\">\n                    <p><span class=\"greenText\"><b>Successful harvest!</b></span><br>Your pay has increased by $0.02. Your bonus pay is now $0.32.</p>\n            ","response":0,"trial_type":"html-button-response","trial_index":132,"time_elapsed":617952,"internal_node_id":"0.0-4.0-1.62","subject_id":"6159fe747ba656d250f21e09","study_id":"60edd13110225f80f9f3709b","session_id":"6196c4a57afdd8353abe0cf2","condition":"full-information","relevant_dimensions":["antennae","legs"],"bee_group":{"antennae":"B","wings":"X","pattern":"X","legs":"M"},"bonus":0.5000000000000009},{"rt":4269.800000011921,"stimulus":"bees-with-color/bee-A1SF.svg","response":0,"trial_type":"image-button-response","trial_index":133,"time_elapsed":622230,"internal_node_id":"0.0-4.0-0.63","subject_id":"6159fe747ba656d250f21e09","study_id":"60edd13110225f80f9f3709b","session_id":"6196c4a57afdd8353abe0cf2","condition":"full-information","relevant_dimensions":["antennae","legs"],"bee_group":{"antennae":"B","wings":"X","pattern":"X","legs":"M"},"action":"harvest","summary":"good-harvest","bonus":0.5000000000000009},{"rt":1573.3999999761581,"stimulus":"\n                    <p><b>Action: <em>harvest</em></b></p>\n                    <p>This is the bee that you just saw.</p>\n                    <img src=\"bees-with-color/bee-A1SF.svg\" width=\"200\">\n                    <p><span class=\"greenText\"><b>Successful harvest!</b></span><br>Your pay has increased by $0.02. Your bonus pay is now $0.34.</p>\n            ","response":0,"trial_type":"html-button-response","trial_index":134,"time_elapsed":623812,"internal_node_id":"0.0-4.0-1.63","subject_id":"6159fe747ba656d250f21e09","study_id":"60edd13110225f80f9f3709b","session_id":"6196c4a57afdd8353abe0cf2","condition":"full-information","relevant_dimensions":["antennae","legs"],"bee_group":{"antennae":"B","wings":"X","pattern":"X","legs":"M"},"bonus":0.5000000000000009},{"rt":7828.699999988079,"stimulus":"You have completed the first part of this experiment.<br><br>You will now begin a shorter second part, in which you will receive no feedback.<br>The same rules regarding bonus pay apply.<br><br>Press any key to begin.","response":"h","trial_type":"html-keyboard-response","trial_index":135,"time_elapsed":631651,"internal_node_id":"0.0-5.0","subject_id":"6159fe747ba656d250f21e09","study_id":"60edd13110225f80f9f3709b","session_id":"6196c4a57afdd8353abe0cf2","condition":"full-information","relevant_dimensions":["antennae","legs"],"bee_group":{"antennae":"B","wings":"X","pattern":"X","legs":"M"},"bonus":0.5000000000000009},{"rt":5699.199999988079,"stimulus":"bees-with-color/bee-A1DM.svg","response":0,"trial_type":"image-button-response","trial_index":136,"time_elapsed":637417,"internal_node_id":"0.0-6.0-0.0","subject_id":"6159fe747ba656d250f21e09","study_id":"60edd13110225f80f9f3709b","session_id":"6196c4a57afdd8353abe0cf2","condition":"full-information","relevant_dimensions":["antennae","legs"],"bee_group":{"antennae":"B","wings":"X","pattern":"X","legs":"M"},"bonus":0.5000000000000009},{"rt":12110.799999952316,"stimulus":"bees-with-color/bee-B2DF.svg","response":1,"trial_type":"image-button-response","trial_index":137,"time_elapsed":649539,"internal_node_id":"0.0-6.0-0.1","subject_id":"6159fe747ba656d250f21e09","study_id":"60edd13110225f80f9f3709b","session_id":"6196c4a57afdd8353abe0cf2","condition":"full-information","relevant_dimensions":["antennae","legs"],"bee_group":{"antennae":"B","wings":"X","pattern":"X","legs":"M"},"bonus":0.5000000000000009},{"rt":2766.099999964237,"stimulus":"bees-with-color/bee-A1DF.svg","response":0,"trial_type":"image-button-response","trial_index":138,"time_elapsed":652319,"internal_node_id":"0.0-6.0-0.2","subject_id":"6159fe747ba656d250f21e09","study_id":"60edd13110225f80f9f3709b","session_id":"6196c4a57afdd8353abe0cf2","condition":"full-information","relevant_dimensions":["antennae","legs"],"bee_group":{"antennae":"B","wings":"X","pattern":"X","legs":"M"},"bonus":0.5000000000000009},{"rt":1858.5999999642372,"stimulus":"bees-with-color/bee-B2DM.svg","response":1,"trial_type":"image-button-response","trial_index":139,"time_elapsed":654185,"internal_node_id":"0.0-6.0-0.3","subject_id":"6159fe747ba656d250f21e09","study_id":"60edd13110225f80f9f3709b","session_id":"6196c4a57afdd8353abe0cf2","condition":"full-information","relevant_dimensions":["antennae","legs"],"bee_group":{"antennae":"B","wings":"X","pattern":"X","legs":"M"},"bonus":0.5000000000000009},{"rt":2510.699999988079,"stimulus":"bees-with-color/bee-A2SF.svg","response":0,"trial_type":"image-button-response","trial_index":140,"time_elapsed":656705,"internal_node_id":"0.0-6.0-0.4","subject_id":"6159fe747ba656d250f21e09","study_id":"60edd13110225f80f9f3709b","session_id":"6196c4a57afdd8353abe0cf2","condition":"full-information","relevant_dimensions":["antennae","legs"],"bee_group":{"antennae":"B","wings":"X","pattern":"X","legs":"M"},"bonus":0.5000000000000009},{"rt":3505,"stimulus":"bees-with-color/bee-B1DF.svg","response":1,"trial_type":"image-button-response","trial_index":141,"time_elapsed":660220,"internal_node_id":"0.0-6.0-0.5","subject_id":"6159fe747ba656d250f21e09","study_id":"60edd13110225f80f9f3709b","session_id":"6196c4a57afdd8353abe0cf2","condition":"full-information","relevant_dimensions":["antennae","legs"],"bee_group":{"antennae":"B","wings":"X","pattern":"X","legs":"M"},"bonus":0.5000000000000009},{"rt":1829.300000011921,"stimulus":"bees-with-color/bee-A1SF.svg","response":0,"trial_type":"image-button-response","trial_index":142,"time_elapsed":662061,"internal_node_id":"0.0-6.0-0.6","subject_id":"6159fe747ba656d250f21e09","study_id":"60edd13110225f80f9f3709b","session_id":"6196c4a57afdd8353abe0cf2","condition":"full-information","relevant_dimensions":["antennae","legs"],"bee_group":{"antennae":"B","wings":"X","pattern":"X","legs":"M"},"bonus":0.5000000000000009},{"rt":5588.199999988079,"stimulus":"bees-with-color/bee-B2SM.svg","response":1,"trial_type":"image-button-response","trial_index":143,"time_elapsed":667659,"internal_node_id":"0.0-6.0-0.7","subject_id":"6159fe747ba656d250f21e09","study_id":"60edd13110225f80f9f3709b","session_id":"6196c4a57afdd8353abe0cf2","condition":"full-information","relevant_dimensions":["antennae","legs"],"bee_group":{"antennae":"B","wings":"X","pattern":"X","legs":"M"},"bonus":0.5000000000000009},{"rt":2366.399999976158,"stimulus":"bees-with-color/bee-B1SF.svg","response":1,"trial_type":"image-button-response","trial_index":144,"time_elapsed":670037,"internal_node_id":"0.0-6.0-0.8","subject_id":"6159fe747ba656d250f21e09","study_id":"60edd13110225f80f9f3709b","session_id":"6196c4a57afdd8353abe0cf2","condition":"full-information","relevant_dimensions":["antennae","legs"],"bee_group":{"antennae":"B","wings":"X","pattern":"X","legs":"M"},"bonus":0.5000000000000009},{"rt":3481.099999964237,"stimulus":"bees-with-color/bee-A2DF.svg","response":0,"trial_type":"image-button-response","trial_index":145,"time_elapsed":673527,"internal_node_id":"0.0-6.0-0.9","subject_id":"6159fe747ba656d250f21e09","study_id":"60edd13110225f80f9f3709b","session_id":"6196c4a57afdd8353abe0cf2","condition":"full-information","relevant_dimensions":["antennae","legs"],"bee_group":{"antennae":"B","wings":"X","pattern":"X","legs":"M"},"bonus":0.5000000000000009},{"rt":5190.700000047684,"stimulus":"bees-with-color/bee-B1DM.svg","response":1,"trial_type":"image-button-response","trial_index":146,"time_elapsed":678729,"internal_node_id":"0.0-6.0-0.10","subject_id":"6159fe747ba656d250f21e09","study_id":"60edd13110225f80f9f3709b","session_id":"6196c4a57afdd8353abe0cf2","condition":"full-information","relevant_dimensions":["antennae","legs"],"bee_group":{"antennae":"B","wings":"X","pattern":"X","legs":"M"},"bonus":0.5000000000000009},{"rt":2354.5,"stimulus":"bees-with-color/bee-B2SF.svg","response":1,"trial_type":"image-button-response","trial_index":147,"time_elapsed":681098,"internal_node_id":"0.0-6.0-0.11","subject_id":"6159fe747ba656d250f21e09","study_id":"60edd13110225f80f9f3709b","session_id":"6196c4a57afdd8353abe0cf2","condition":"full-information","relevant_dimensions":["antennae","legs"],"bee_group":{"antennae":"B","wings":"X","pattern":"X","legs":"M"},"bonus":0.5000000000000009},{"rt":5103.699999988079,"stimulus":"bees-with-color/bee-A2DM.svg","response":1,"trial_type":"image-button-response","trial_index":148,"time_elapsed":686215,"internal_node_id":"0.0-6.0-0.12","subject_id":"6159fe747ba656d250f21e09","study_id":"60edd13110225f80f9f3709b","session_id":"6196c4a57afdd8353abe0cf2","condition":"full-information","relevant_dimensions":["antennae","legs"],"bee_group":{"antennae":"B","wings":"X","pattern":"X","legs":"M"},"bonus":0.5000000000000009},{"rt":2231.600000023842,"stimulus":"bees-with-color/bee-B1SM.svg","response":1,"trial_type":"image-button-response","trial_index":149,"time_elapsed":688460,"internal_node_id":"0.0-6.0-0.13","subject_id":"6159fe747ba656d250f21e09","study_id":"60edd13110225f80f9f3709b","session_id":"6196c4a57afdd8353abe0cf2","condition":"full-information","relevant_dimensions":["antennae","legs"],"bee_group":{"antennae":"B","wings":"X","pattern":"X","legs":"M"},"bonus":0.5000000000000009},{"rt":3167.199999988079,"stimulus":"bees-with-color/bee-A1SM.svg","response":0,"trial_type":"image-button-response","trial_index":150,"time_elapsed":691640,"internal_node_id":"0.0-6.0-0.14","subject_id":"6159fe747ba656d250f21e09","study_id":"60edd13110225f80f9f3709b","session_id":"6196c4a57afdd8353abe0cf2","condition":"full-information","relevant_dimensions":["antennae","legs"],"bee_group":{"antennae":"B","wings":"X","pattern":"X","legs":"M"},"bonus":0.5000000000000009},{"rt":4349.099999964237,"stimulus":"bees-with-color/bee-A2SM.svg","response":1,"trial_type":"image-button-response","trial_index":151,"time_elapsed":696003,"internal_node_id":"0.0-6.0-0.15","subject_id":"6159fe747ba656d250f21e09","study_id":"60edd13110225f80f9f3709b","session_id":"6196c4a57afdd8353abe0cf2","condition":"full-information","relevant_dimensions":["antennae","legs"],"bee_group":{"antennae":"B","wings":"X","pattern":"X","legs":"M"},"bonus":0.5000000000000009},{"rt":2195.2000000476837,"stimulus":"bees-with-color/bee-B1SF.svg","response":1,"trial_type":"image-button-response","trial_index":152,"time_elapsed":698209,"internal_node_id":"0.0-6.0-0.16","subject_id":"6159fe747ba656d250f21e09","study_id":"60edd13110225f80f9f3709b","session_id":"6196c4a57afdd8353abe0cf2","condition":"full-information","relevant_dimensions":["antennae","legs"],"bee_group":{"antennae":"B","wings":"X","pattern":"X","legs":"M"},"bonus":0.5000000000000009},{"rt":2113.800000011921,"stimulus":"bees-with-color/bee-A1SM.svg","response":0,"trial_type":"image-button-response","trial_index":153,"time_elapsed":700335,"internal_node_id":"0.0-6.0-0.17","subject_id":"6159fe747ba656d250f21e09","study_id":"60edd13110225f80f9f3709b","session_id":"6196c4a57afdd8353abe0cf2","condition":"full-information","relevant_dimensions":["antennae","legs"],"bee_group":{"antennae":"B","wings":"X","pattern":"X","legs":"M"},"bonus":0.5000000000000009},{"rt":2471.7000000476837,"stimulus":"bees-with-color/bee-A1DF.svg","response":0,"trial_type":"image-button-response","trial_index":154,"time_elapsed":702818,"internal_node_id":"0.0-6.0-0.18","subject_id":"6159fe747ba656d250f21e09","study_id":"60edd13110225f80f9f3709b","session_id":"6196c4a57afdd8353abe0cf2","condition":"full-information","relevant_dimensions":["antennae","legs"],"bee_group":{"antennae":"B","wings":"X","pattern":"X","legs":"M"},"bonus":0.5000000000000009},{"rt":2364.099999964237,"stimulus":"bees-with-color/bee-B1DM.svg","response":1,"trial_type":"image-button-response","trial_index":155,"time_elapsed":705191,"internal_node_id":"0.0-6.0-0.19","subject_id":"6159fe747ba656d250f21e09","study_id":"60edd13110225f80f9f3709b","session_id":"6196c4a57afdd8353abe0cf2","condition":"full-information","relevant_dimensions":["antennae","legs"],"bee_group":{"antennae":"B","wings":"X","pattern":"X","legs":"M"},"bonus":0.5000000000000009},{"rt":2192.099999964237,"stimulus":"bees-with-color/bee-A1SF.svg","response":0,"trial_type":"image-button-response","trial_index":156,"time_elapsed":707391,"internal_node_id":"0.0-6.0-0.20","subject_id":"6159fe747ba656d250f21e09","study_id":"60edd13110225f80f9f3709b","session_id":"6196c4a57afdd8353abe0cf2","condition":"full-information","relevant_dimensions":["antennae","legs"],"bee_group":{"antennae":"B","wings":"X","pattern":"X","legs":"M"},"bonus":0.5000000000000009},{"rt":2715.300000011921,"stimulus":"bees-with-color/bee-B1SM.svg","response":1,"trial_type":"image-button-response","trial_index":157,"time_elapsed":710119,"internal_node_id":"0.0-6.0-0.21","subject_id":"6159fe747ba656d250f21e09","study_id":"60edd13110225f80f9f3709b","session_id":"6196c