[{"success":true,"trial_type":"fullscreen","trial_index":0,"time_elapsed":52738,"internal_node_id":"0.0-0.0","subject_id":"613a24c421e8910a6ab8234d","study_id":"6197b3f67c2b5cd3b6d9596a","session_id":"619beef13f51543f4083cd7e","condition":"contingent","relevant_dimensions":["wings","pattern"],"bee_group":{"antennae":"X","wings":"2","pattern":"S","legs":"X"},"bonus":1.280000000000001},{"success":true,"timeout":false,"failed_images":[],"failed_audio":[],"failed_video":[],"trial_type":"preload","trial_index":1,"time_elapsed":53828,"internal_node_id":"0.0-1.0","subject_id":"613a24c421e8910a6ab8234d","study_id":"6197b3f67c2b5cd3b6d9596a","session_id":"619beef13f51543f4083cd7e","condition":"contingent","relevant_dimensions":["wings","pattern"],"bee_group":{"antennae":"X","wings":"2","pattern":"S","legs":"X"},"bonus":1.280000000000001},{"rt":1219.5,"stimulus":"Welcome! Press any key to begin.","response":" ","trial_type":"html-keyboard-response","trial_index":2,"time_elapsed":55050,"internal_node_id":"0.0-2.0","subject_id":"613a24c421e8910a6ab8234d","study_id":"6197b3f67c2b5cd3b6d9596a","session_id":"619beef13f51543f4083cd7e","condition":"contingent","relevant_dimensions":["wings","pattern"],"bee_group":{"antennae":"X","wings":"2","pattern":"S","legs":"X"},"bonus":1.280000000000001},{"view_history":[{"page_index":0,"viewing_time":5405},{"page_index":1,"viewing_time":13815.199999999255},{"page_index":2,"viewing_time":13122.900000000373},{"page_index":3,"viewing_time":18109.299999998882},{"page_index":4,"viewing_time":8274.800000000745},{"page_index":5,"viewing_time":9728.199999999255},{"page_index":6,"viewing_time":7848.5},{"page_index":7,"viewing_time":9368.800000000745},{"page_index":8,"viewing_time":5314.0999999996275},{"page_index":9,"viewing_time":3892.300000000745},{"page_index":10,"viewing_time":3743.7999999988824},{"page_index":11,"viewing_time":11650.5},{"page_index":12,"viewing_time":9378},{"page_index":13,"viewing_time":2043.5},{"page_index":14,"viewing_time":1642.7000000011176}],"rt":123338,"trial_type":"instructions","trial_index":3,"time_elapsed":178389,"internal_node_id":"0.0-3.0-0.0","subject_id":"613a24c421e8910a6ab8234d","study_id":"6197b3f67c2b5cd3b6d9596a","session_id":"619beef13f51543f4083cd7e","condition":"contingent","relevant_dimensions":["wings","pattern"],"bee_group":{"antennae":"X","wings":"2","pattern":"S","legs":"X"},"bonus":1.280000000000001},{"rt":11631.599999999627,"response":{"Q0":["Two or six legs","Stripes or spots on body","Single or double wings","Antennae or no antennae"]},"question_order":[0],"trial_type":"survey-multi-select","trial_index":4,"time_elapsed":190029,"internal_node_id":"0.0-3.0-1.0","subject_id":"613a24c421e8910a6ab8234d","study_id":"6197b3f67c2b5cd3b6d9596a","session_id":"619beef13f51543f4083cd7e","condition":"contingent","relevant_dimensions":["wings","pattern"],"bee_group":{"antennae":"X","wings":"2","pattern":"S","legs":"X"},"correct":true,"bonus":1.280000000000001},{"rt":20856.300000000745,"response":{"Q1":"No.","Q2":"Based on the four features of the bee.","Q3":"You do not learn if it was friendly or dangerous, and do not alter your bonus."},"question_order":[0,1,2],"trial_type":"survey-multi-choice","trial_index":5,"time_elapsed":210890,"internal_node_id":"0.0-3.0-2.0","subject_id":"613a24c421e8910a6ab8234d","study_id":"6197b3f67c2b5cd3b6d9596a","session_id":"619beef13f51543f4083cd7e","condition":"contingent","relevant_dimensions":["wings","pattern"],"bee_group":{"antennae":"X","wings":"2","pattern":"S","legs":"X"},"correct":true,"bonus":1.280000000000001},{"rt":4121,"stimulus":"<p>Congrats, you got everything right<br>When you're ready, click the button below to continue to the experiment.</p>","response":0,"trial_type":"html-button-response","trial_index":6,"time_elapsed":215014,"internal_node_id":"0.0-3.0-3.0","subject_id":"613a24c421e8910a6ab8234d","study_id":"6197b3f67c2b5cd3b6d9596a","session_id":"619beef13f51543f4083cd7e","condition":"contingent","relevant_dimensions":["wings","pattern"],"bee_group":{"antennae":"X","wings":"2","pattern":"S","legs":"X"},"bonus":1.280000000000001},{"rt":2727.39999999851,"stimulus":"bees-with-color/bee-A1SF.svg","response":0,"trial_type":"image-button-response","trial_index":7,"time_elapsed":217746,"internal_node_id":"0.0-4.0-0.0","subject_id":"613a24c421e8910a6ab8234d","study_id":"6197b3f67c2b5cd3b6d9596a","session_id":"619beef13f51543f4083cd7e","condition":"contingent","relevant_dimensions":["wings","pattern"],"bee_group":{"antennae":"X","wings":"2","pattern":"S","legs":"X"},"action":"harvest","summary":"good-harvest","bonus":1.280000000000001},{"rt":9980.800000000745,"stimulus":"\n                    <p><b>Action: <em>harvest</em></b></p>\n                    <p>This is the bee that you just saw.</p>\n                    <img src=\"bees-with-color/bee-A1SF.svg\" width=\"200\">\n                    <p><span class=\"greenText\"><b>Successful harvest!</b></span><br>Your pay has increased by $0.02. Your bonus pay is now $0.56.</p>\n            ","response":0,"trial_type":"html-button-response","trial_index":8,"time_elapsed":227732,"internal_node_id":"0.0-4.0-1.0","subject_id":"613a24c421e8910a6ab8234d","study_id":"6197b3f67c2b5cd3b6d9596a","session_id":"619beef13f51543f4083cd7e","condition":"contingent","relevant_dimensions":["wings","pattern"],"bee_group":{"antennae":"X","wings":"2","pattern":"S","legs":"X"},"bonus":1.280000000000001},{"rt":4081,"stimulus":"bees-with-color/bee-A2SF.svg","response":0,"trial_type":"image-button-response","trial_index":9,"time_elapsed":231818,"internal_node_id":"0.0-4.0-0.1","subject_id":"613a24c421e8910a6ab8234d","study_id":"6197b3f67c2b5cd3b6d9596a","session_id":"619beef13f51543f4083cd7e","condition":"contingent","relevant_dimensions":["wings","pattern"],"bee_group":{"antennae":"X","wings":"2","pattern":"S","legs":"X"},"action":"harvest","summary":"bad-harvest","bonus":1.280000000000001},{"rt":4807.800000000745,"stimulus":"\n                    <p><b>Action: <em>harvest</em></b></p>\n                    <p>This is the bee that you just saw.</p>\n                    <img src=\"bees-with-color/bee-A2SF.svg\" width=\"200\">\n                    <p><span class=\"redText\">Bad choice, the bee was angry.</span><br><b>You have been stung!</b><br>Your pay has been decreased by $0.10. Your bonus pay is now $0.46.</p>\n            ","response":0,"trial_type":"html-button-response","trial_index":10,"time_elapsed":236630,"internal_node_id":"0.0-4.0-1.1","subject_id":"613a24c421e8910a6ab8234d","study_id":"6197b3f67c2b5cd3b6d9596a","session_id":"619beef13f51543f4083cd7e","condition":"contingent","relevant_dimensions":["wings","pattern"],"bee_group":{"antennae":"X","wings":"2","pattern":"S","legs":"X"},"bonus":1.280000000000001},{"rt":2162.5,"stimulus":"bees-with-color/bee-A1SM.svg","response":0,"trial_type":"image-button-response","trial_index":11,"time_elapsed":238799,"internal_node_id":"0.0-4.0-0.2","subject_id":"613a24c421e8910a6ab8234d","study_id":"6197b3f67c2b5cd3b6d9596a","session_id":"619beef13f51543f4083cd7e","condition":"contingent","relevant_dimensions":["wings","pattern"],"bee_group":{"antennae":"X","wings":"2","pattern":"S","legs":"X"},"action":"harvest","summary":"good-harvest","bonus":1.280000000000001},{"rt":13565.299999998882,"stimulus":"\n                    <p><b>Action: <em>harvest</em></b></p>\n                    <p>This is the bee that you just saw.</p>\n                    <img src=\"bees-with-color/bee-A1SM.svg\" width=\"200\">\n                    <p><span class=\"greenText\"><b>Successful harvest!</b></span><br>Your pay has increased by $0.02. Your bonus pay is now $0.48.</p>\n            ","response":0,"trial_type":"html-button-response","trial_index":12,"time_elapsed":252369,"internal_node_id":"0.0-4.0-1.2","subject_id":"613a24c421e8910a6ab8234d","study_id":"6197b3f67c2b5cd3b6d9596a","session_id":"619beef13f51543f4083cd7e","condition":"contingent","relevant_dimensions":["wings","pattern"],"bee_group":{"antennae":"X","wings":"2","pattern":"S","legs":"X"},"bonus":1.280000000000001},{"rt":6740.4000000003725,"stimulus":"bees-with-color/bee-B2DF.svg","response":1,"trial_type":"image-button-response","trial_index":13,"time_elapsed":259113,"internal_node_id":"0.0-4.0-0.3","subject_id":"613a24c421e8910a6ab8234d","study_id":"6197b3f67c2b5cd3b6d9596a","session_id":"619beef13f51543f4083cd7e","condition":"contingent","relevant_dimensions":["wings","pattern"],"bee_group":{"antennae":"X","wings":"2","pattern":"S","legs":"X"},"action":"avoid","summary":"bad-avoid","bonus":1.280000000000001},{"rt":3503.199999999255,"stimulus":"\n                    <p><b>Action: <em>avoid</em></b></p>\n                    <p>This is the bee that you just saw.</p>\n                    <img src=\"bees-with-color/bee-B2DF.svg\" width=\"200\">\n                    <p><br>Your bonus pay is unchanged, and remains at $0.48.</p>\n            ","response":0,"trial_type":"html-button-response","trial_index":14,"time_elapsed":262619,"internal_node_id":"0.0-4.0-1.3","subject_id":"613a24c421e8910a6ab8234d","study_id":"6197b3f67c2b5cd3b6d9596a","session_id":"619beef13f51543f4083cd7e","condition":"contingent","relevant_dimensions":["wings","pattern"],"bee_group":{"antennae":"X","wings":"2","pattern":"S","legs":"X"},"bonus":1.280000000000001},{"rt":3299.60000000149,"stimulus":"bees-with-color/bee-B2SF.svg","response":0,"trial_type":"image-button-response","trial_index":15,"time_elapsed":265923,"internal_node_id":"0.0-4.0-0.4","subject_id":"613a24c421e8910a6ab8234d","study_id":"6197b3f67c2b5cd3b6d9596a","session_id":"619beef13f51543f4083cd7e","condition":"contingent","relevant_dimensions":["wings","pattern"],"bee_group":{"antennae":"X","wings":"2","pattern":"S","legs":"X"},"action":"harvest","summary":"bad-harvest","bonus":1.280000000000001},{"rt":4947.5,"stimulus":"\n                    <p><b>Action: <em>harvest</em></b></p>\n                    <p>This is the bee that you just saw.</p>\n                    <img src=\"bees-with-color/bee-B2SF.svg\" width=\"200\">\n                    <p><span class=\"redText\">Bad choice, the bee was angry.</span><br><b>You have been stung!</b><br>Your pay has been decreased by $0.10. Your bonus pay is now $0.38.</p>\n            ","response":0,"trial_type":"html-button-response","trial_index":16,"time_elapsed":270873,"internal_node_id":"0.0-4.0-1.4","subject_id":"613a24c421e8910a6ab8234d","study_id":"6197b3f67c2b5cd3b6d9596a","session_id":"619beef13f51543f4083cd7e","condition":"contingent","relevant_dimensions":["wings","pattern"],"bee_group":{"antennae":"X","wings":"2","pattern":"S","legs":"X"},"bonus":1.280000000000001},{"rt":2542.699999999255,"stimulus":"bees-with-color/bee-B1SM.svg","response":0,"trial_type":"image-button-response","trial_index":17,"time_elapsed":273419,"internal_node_id":"0.0-4.0-0.5","subject_id":"613a24c421e8910a6ab8234d","study_id":"6197b3f67c2b5cd3b6d9596a","session_id":"619beef13f51543f4083cd7e","condition":"contingent","relevant_dimensions":["wings","pattern"],"bee_group":{"antennae":"X","wings":"2","pattern":"S","legs":"X"},"action":"harvest","summary":"good-harvest","bonus":1.280000000000001},{"rt":2461.2000000011176,"stimulus":"\n                    <p><b>Action: <em>harvest</em></b></p>\n                    <p>This is the bee that you just saw.</p>\n                    <img src=\"bees-with-color/bee-B1SM.svg\" width=\"200\">\n                    <p><span class=\"greenText\"><b>Successful harvest!</b></span><br>Your pay has increased by $0.02. Your bonus pay is now $0.40.</p>\n            ","response":0,"trial_type":"html-button-response","trial_index":18,"time_elapsed":275884,"internal_node_id":"0.0-4.0-1.5","subject_id":"613a24c421e8910a6ab8234d","study_id":"6197b3f67c2b5cd3b6d9596a","session_id":"619beef13f51543f4083cd7e","condition":"contingent","relevant_dimensions":["wings","pattern"],"bee_group":{"antennae":"X","wings":"2","pattern":"S","legs":"X"},"bonus":1.280000000000001},{"rt":1756.699999999255,"stimulus":"bees-with-color/bee-A2DM.svg","response":1,"trial_type":"image-button-response","trial_index":19,"time_elapsed":277645,"internal_node_id":"0.0-4.0-0.6","subject_id":"613a24c421e8910a6ab8234d","study_id":"6197b3f67c2b5cd3b6d9596a","session_id":"619beef13f51543f4083cd7e","condition":"contingent","relevant_dimensions":["wings","pattern"],"bee_group":{"antennae":"X","wings":"2","pattern":"S","legs":"X"},"action":"avoid","summary":"bad-avoid","bonus":1.280000000000001},{"rt":1412.8999999985099,"stimulus":"\n                    <p><b>Action: <em>avoid</em></b></p>\n                    <p>This is the bee that you just saw.</p>\n                    <img src=\"bees-with-color/bee-A2DM.svg\" width=\"200\">\n                    <p><br>Your bonus pay is unchanged, and remains at $0.40.</p>\n            ","response":0,"trial_type":"html-button-response","trial_index":20,"time_elapsed":279063,"internal_node_id":"0.0-4.0-1.6","subject_id":"613a24c421e8910a6ab8234d","study_id":"6197b3f67c2b5cd3b6d9596a","session_id":"619beef13f51543f4083cd7e","condition":"contingent","relevant_dimensions":["wings","pattern"],"bee_group":{"antennae":"X","wings":"2","pattern":"S","legs":"X"},"bonus":1.280000000000001},{"rt":1485.5,"stimulus":"bees-with-color/bee-B1DM.svg","response":0,"trial_type":"image-button-response","trial_index":21,"time_elapsed":280552,"internal_node_id":"0.0-4.0-0.7","subject_id":"613a24c421e8910a6ab8234d","study_id":"6197b3f67c2b5cd3b6d9596a","session_id":"619beef13f51543f4083cd7e","condition":"contingent","relevant_dimensions":["wings","pattern"],"bee_group":{"antennae":"X","wings":"2","pattern":"S","legs":"X"},"action":"harvest","summary":"good-harvest","bonus":1.280000000000001},{"rt":1359.7999999988824,"stimulus":"\n                    <p><b>Action: <em>harvest</em></b></p>\n                    <p>This is the bee that you just saw.</p>\n                    <img src=\"bees-with-color/bee-B1DM.svg\" width=\"200\">\n                    <p><span class=\"greenText\"><b>Successful harvest!</b></span><br>Your pay has increased by $0.02. Your bonus pay is now $0.42.</p>\n            ","response":0,"trial_type":"html-button-response","trial_index":22,"time_elapsed":281916,"internal_node_id":"0.0-4.0-1.7","subject_id":"613a24c421e8910a6ab8234d","study_id":"6197b3f67c2b5cd3b6d9596a","session_id":"619beef13f51543f4083cd7e","condition":"contingent","relevant_dimensions":["wings","pattern"],"bee_group":{"antennae":"X","wings":"2","pattern":"S","legs":"X"},"bonus":1.280000000000001},{"rt":1543.5999999996275,"stimulus":"bees-with-color/bee-A2DF.svg","response":1,"trial_type":"image-button-response","trial_index":23,"time_elapsed":283463,"internal_node_id":"0.0-4.0-0.8","subject_id":"613a24c421e8910a6ab8234d","study_id":"6197b3f67c2b5cd3b6d9596a","session_id":"619beef13f51543f4083cd7e","condition":"contingent","relevant_dimensions":["wings","pattern"],"bee_group":{"antennae":"X","wings":"2","pattern":"S","legs":"X"},"action":"avoid","summary":"bad-avoid","bonus":1.280000000000001},{"rt":1279.2999999988824,"stimulus":"\n                    <p><b>Action: <em>avoid</em></b></p>\n                    <p>This is the bee that you just saw.</p>\n                    <img src=\"bees-with-color/bee-A2DF.svg\" width=\"200\">\n                    <p><br>Your bonus pay is unchanged, and remains at $0.42.</p>\n            ","response":0,"trial_type":"html-button-response","trial_index":24,"time_elapsed":284747,"internal_node_id":"0.0-4.0-1.8","subject_id":"613a24c421e8910a6ab8234d","study_id":"6197b3f67c2b5cd3b6d9596a","session_id":"619beef13f51543f4083cd7e","condition":"contingent","relevant_dimensions":["wings","pattern"],"bee_group":{"antennae":"X","wings":"2","pattern":"S","legs":"X"},"bonus":1.280000000000001},{"rt":1819.7999999988824,"stimulus":"bees-with-color/bee-B1DF.svg","response":0,"trial_type":"image-button-response","trial_index":25,"time_elapsed":286571,"internal_node_id":"0.0-4.0-0.9","subject_id":"613a24c421e8910a6ab8234d","study_id":"6197b3f67c2b5cd3b6d9596a","session_id":"619beef13f51543f4083cd7e","condition":"contingent","relevant_dimensions":["wings","pattern"],"bee_group":{"antennae":"X","wings":"2","pattern":"S","legs":"X"},"action":"harvest","summary":"good-harvest","bonus":1.280000000000001},{"rt":1350.5,"stimulus":"\n                    <p><b>Action: <em>harvest</em></b></p>\n                    <p>This is the bee that you just saw.</p>\n                    <img src=\"bees-with-color/bee-B1DF.svg\" width=\"200\">\n                    <p><span class=\"greenText\"><b>Successful harvest!</b></span><br>Your pay has increased by $0.02. Your bonus pay is now $0.44.</p>\n            ","response":0,"trial_type":"html-button-response","trial_index":26,"time_elapsed":287924,"internal_node_id":"0.0-4.0-1.9","subject_id":"613a24c421e8910a6ab8234d","study_id":"6197b3f67c2b5cd3b6d9596a","session_id":"619beef13f51543f4083cd7e","condition":"contingent","relevant_dimensions":["wings","pattern"],"bee_group":{"antennae":"X","wings":"2","pattern":"S","legs":"X"},"bonus":1.280000000000001},{"rt":2437.300000000745,"stimulus":"bees-with-color/bee-A1DF.svg","response":0,"trial_type":"image-button-response","trial_index":27,"time_elapsed":290363,"internal_node_id":"0.0-4.0-0.10","subject_id":"613a24c421e8910a6ab8234d","study_id":"6197b3f67c2b5cd3b6d9596a","session_id":"619beef13f51543f4083cd7e","condition":"contingent","relevant_dimensions":["wings","pattern"],"bee_group":{"antennae":"X","wings":"2","pattern":"S","legs":"X"},"action":"harvest","summary":"good-harvest","bonus":1.280000000000001},{"rt":1596,"stimulus":"\n                    <p><b>Action: <em>harvest</em></b></p>\n                    <p>This is the bee that you just saw.</p>\n                    <img src=\"bees-with-color/bee-A1DF.svg\" width=\"200\">\n                    <p><span class=\"greenText\"><b>Successful harvest!</b></span><br>Your pay has increased by $0.02. Your bonus pay is now $0.46.</p>\n            ","response":0,"trial_type":"html-button-response","trial_index":28,"time_elapsed":291962,"internal_node_id":"0.0-4.0-1.10","subject_id":"613a24c421e8910a6ab8234d","study_id":"6197b3f67c2b5cd3b6d9596a","session_id":"619beef13f51543f4083cd7e","condition":"contingent","relevant_dimensions":["wings","pattern"],"bee_group":{"antennae":"X","wings":"2","pattern":"S","legs":"X"},"bonus":1.280000000000001},{"rt":1485.5,"stimulus":"bees-with-color/bee-B2DM.svg","response":1,"trial_type":"image-button-response","trial_index":29,"time_elapsed":293451,"internal_node_id":"0.0-4.0-0.11","subject_id":"613a24c421e8910a6ab8234d","study_id":"6197b3f67c2b5cd3b6d9596a","session_id":"619beef13f51543f4083cd7e","condition":"contingent","relevant_dimensions":["wings","pattern"],"bee_group":{"antennae":"X","wings":"2","pattern":"S","legs":"X"},"action":"avoid","summary":"bad-avoid","bonus":1.280000000000001},{"rt":1311.0999999996275,"stimulus":"\n                    <p><b>Action: <em>avoid</em></b></p>\n                    <p>This is the bee that you just saw.</p>\n                    <img src=\"bees-with-color/bee-B2DM.svg\" width=\"200\">\n                    <p><br>Your bonus pay is unchanged, and remains at $0.46.</p>\n            ","response":0,"trial_type":"html-button-response","trial_index":30,"time_elapsed":294765,"internal_node_id":"0.0-4.0-1.11","subject_id":"613a24c421e8910a6ab8234d","study_id":"6197b3f67c2b5cd3b6d9596a","session_id":"619beef13f51543f4083cd7e","condition":"contingent","relevant_dimensions":["wings","pattern"],"bee_group":{"antennae":"X","wings":"2","pattern":"S","legs":"X"},"bonus":1.280000000000001},{"rt":1442.699999999255,"stimulus":"bees-with-color/bee-A2SM.svg","response":1,"trial_type":"image-button-response","trial_index":31,"time_elapsed":296211,"internal_node_id":"0.0-4.0-0.12","subject_id":"613a24c421e8910a6ab8234d","study_id":"6197b3f67c2b5cd3b6d9596a","session_id":"619beef13f51543f4083cd7e","condition":"contingent","relevant_dimensions":["wings","pattern"],"bee_group":{"antennae":"X","wings":"2","pattern":"S","legs":"X"},"action":"avoid","summary":"good-avoid","bonus":1.280000000000001},{"rt":1367.5999999996275,"stimulus":"\n                    <p><b>Action: <em>avoid</em></b></p>\n                    <p>This is the bee that you just saw.</p>\n                    <img src=\"bees-with-color/bee-A2SM.svg\" width=\"200\">\n                    <p><br>Your bonus pay is unchanged, and remains at $0.46.</p>\n            ","response":0,"trial_type":"html-button-response","trial_index":32,"time_elapsed":297582,"internal_node_id":"0.0-4.0-1.12","subject_id":"613a24c421e8910a6ab8234d","study_id":"6197b3f67c2b5cd3b6d9596a","session_id":"619beef13f51543f4083cd7e","condition":"contingent","relevant_dimensions":["wings","pattern"],"bee_group":{"antennae":"X","wings":"2","pattern":"S","legs":"X"},"bonus":1.280000000000001},{"rt":1322.7000000011176,"stimulus":"bees-with-color/bee-B1SF.svg","response":0,"trial_type":"image-button-response","trial_index":33,"time_elapsed":298906,"internal_node_id":"0.0-4.0-0.13","subject_id":"613a24c421e8910a6ab8234d","study_id":"6197b3f67c2b5cd3b6d9596a","session_id":"619beef13f51543f4083cd7e","condition":"contingent","relevant_dimensions":["wings","pattern"],"bee_group":{"antennae":"X","wings":"2","pattern":"S","legs":"X"},"action":"harvest","summary":"good-harvest","bonus":1.280000000000001},{"rt":1073.199999999255,"stimulus":"\n                    <p><b>Action: <em>harvest</em></b></p>\n                    <p>This is the bee that you just saw.</p>\n                    <img src=\"bees-with-color/bee-B1SF.svg\" width=\"200\">\n                    <p><span class=\"greenText\"><b>Successful harvest!</b></span><br>Your pay has increased by $0.02. Your bonus pay is now $0.48.</p>\n            ","response":0,"trial_type":"html-button-response","trial_index":34,"time_elapsed":299982,"internal_node_id":"0.0-4.0-1.13","subject_id":"613a24c421e8910a6ab8234d","study_id":"6197b3f67c2b5cd3b6d9596a","session_id":"619beef13f51543f4083cd7e","condition":"contingent","relevant_dimensions":["wings","pattern"],"bee_group":{"antennae":"X","wings":"2","pattern":"S","legs":"X"},"bonus":1.280000000000001},{"rt":1272,"stimulus":"bees-with-color/bee-B2SM.svg","response":1,"trial_type":"image-button-response","trial_index":35,"time_elapsed":301257,"internal_node_id":"0.0-4.0-0.14","subject_id":"613a24c421e8910a6ab8234d","study_id":"6197b3f67c2b5cd3b6d9596a","session_id":"619beef13f51543f4083cd7e","condition":"contingent","relevant_dimensions":["wings","pattern"],"bee_group":{"antennae":"X","wings":"2","pattern":"S","legs":"X"},"action":"avoid","summary":"good-avoid","bonus":1.280000000000001},{"rt":1199.5999999996275,"stimulus":"\n                    <p><b>Action: <em>avoid</em></b></p>\n                    <p>This is the bee that you just saw.</p>\n                    <img src=\"bees-with-color/bee-B2SM.svg\" width=\"200\">\n                    <p><br>Your bonus pay is unchanged, and remains at $0.48.</p>\n            ","response":0,"trial_type":"html-button-response","trial_index":36,"time_elapsed":302458,"internal_node_id":"0.0-4.0-1.14","subject_id":"613a24c421e8910a6ab8234d","study_id":"6197b3f67c2b5cd3b6d9596a","session_id":"619beef13f51543f4083cd7e","condition":"contingent","relevant_dimensions":["wings","pattern"],"bee_group":{"antennae":"X","wings":"2","pattern":"S","legs":"X"},"bonus":1.280000000000001},{"rt":2162.4000000003725,"stimulus":"bees-with-color/bee-A1DM.svg","response":0,"trial_type":"image-button-response","trial_index":37,"time_elapsed":304623,"internal_node_id":"0.0-4.0-0.15","subject_id":"613a24c421e8910a6ab8234d","study_id":"6197b3f67c2b5cd3b6d9596a","session_id":"619beef13f51543f4083cd7e","condition":"contingent","relevant_dimensions":["wings","pattern"],"bee_group":{"antennae":"X","wings":"2","pattern":"S","legs":"X"},"action":"harvest","summary":"good-harvest","bonus":1.280000000000001},{"rt":1152.699999999255,"stimulus":"\n                    <p><b>Action: <em>harvest</em></b></p>\n                    <p>This is the bee that you just saw.</p>\n                    <img src=\"bees-with-color/bee-A1DM.svg\" width=\"200\">\n                    <p><span class=\"greenText\"><b>Successful harvest!</b></span><br>Your pay has increased by $0.02. Your bonus pay is now $0.50.</p>\n            ","response":0,"trial_type":"html-button-response","trial_index":38,"time_elapsed":305779,"internal_node_id":"0.0-4.0-1.15","subject_id":"613a24c421e8910a6ab8234d","study_id":"6197b3f67c2b5cd3b6d9596a","session_id":"619beef13f51543f4083cd7e","condition":"contingent","relevant_dimensions":["wings","pattern"],"bee_group":{"antennae":"X","wings":"2","pattern":"S","legs":"X"},"bonus":1.280000000000001},{"rt":1995,"stimulus":"bees-with-color/bee-B2DF.svg","response":1,"trial_type":"image-button-response","trial_index":39,"time_elapsed":307778,"internal_node_id":"0.0-4.0-0.16","subject_id":"613a24c421e8910a6ab8234d","study_id":"6197b3f67c2b5cd3b6d9596a","session_id":"619beef13f51543f4083cd7e","condition":"contingent","relevant_dimensions":["wings","pattern"],"bee_group":{"antennae":"X","wings":"2","pattern":"S","legs":"X"},"action":"avoid","summary":"bad-avoid","bonus":1.280000000000001},{"rt":1075.699999999255,"stimulus":"\n                    <p><b>Action: <em>avoid</em></b></p>\n                    <p>This is the bee that you just saw.</p>\n                    <img src=\"bees-with-color/bee-B2DF.svg\" width=\"200\">\n                    <p><br>Your bonus pay is unchanged, and remains at $0.50.</p>\n            ","response":0,"trial_type":"html-button-response","trial_index":40,"time_elapsed":308857,"internal_node_id":"0.0-4.0-1.16","subject_id":"613a24c421e8910a6ab8234d","study_id":"6197b3f67c2b5cd3b6d9596a","session_id":"619beef13f51543f4083cd7e","condition":"contingent","relevant_dimensions":["wings","pattern"],"bee_group":{"antennae":"X","wings":"2","pattern":"S","legs":"X"},"bonus":1.280000000000001},{"rt":1830.199999999255,"stimulus":"bees-with-color/bee-B1SM.svg","response":0,"trial_type":"image-button-response","trial_index":41,"time_elapsed":310690,"internal_node_id":"0.0-4.0-0.17","subject_id":"613a24c421e8910a6ab8234d","study_id":"6197b3f67c2b5cd3b6d9596a","session_id":"619beef13f51543f4083cd7e","condition":"contingent","relevant_dimensions":["wings","pattern"],"bee_group":{"antennae":"X","wings":"2","pattern":"S","legs":"X"},"action":"harvest","summary":"good-harvest","bonus":1.280000000000001},{"rt":1353,"stimulus":"\n                    <p><b>Action: <em>harvest</em></b></p>\n                    <p>This is the bee that you just saw.</p>\n                    <img src=\"bees-with-color/bee-B1SM.svg\" width=\"200\">\n                    <p><span class=\"greenText\"><b>Successful harvest!</b></span><br>Your pay has increased by $0.02. Your bonus pay is now $0.52.</p>\n            ","response":0,"trial_type":"html-button-response","trial_index":42,"time_elapsed":312047,"internal_node_id":"0.0-4.0-1.17","subject_id":"613a24c421e8910a6ab8234d","study_id":"6197b3f67c2b5cd3b6d9596a","session_id":"619beef13f51543f4083cd7e","condition":"contingent","relevant_dimensions":["wings","pattern"],"bee_group":{"antennae":"X","wings":"2","pattern":"S","legs":"X"},"bonus":1.280000000000001},{"rt":1231.4000000003725,"stimulus":"bees-with-color/bee-A1SF.svg","response":0,"trial_type":"image-button-response","trial_index":43,"time_elapsed":313282,"internal_node_id":"0.0-4.0-0.18","subject_id":"613a24c421e8910a6ab8234d","study_id":"6197b3f67c2b5cd3b6d9596a","session_id":"619beef13f51543f4083cd7e","condition":"contingent","relevant_dimensions":["wings","pattern"],"bee_group":{"antennae":"X","wings":"2","pattern":"S","legs":"X"},"action":"harvest","summary":"good-harvest","bonus":1.280000000000001},{"rt":1462.5,"stimulus":"\n                    <p><b>Action: <em>harvest</em></b></p>\n                    <p>This is the bee that you just saw.</p>\n                    <img src=\"bees-with-color/bee-A1SF.svg\" width=\"200\">\n                    <p><span class=\"greenText\"><b>Successful harvest!</b></span><br>Your pay has increased by $0.02. Your bonus pay is now $0.54.</p>\n            ","response":0,"trial_type":"html-button-response","trial_index":44,"time_elapsed":314748,"internal_node_id":"0.0-4.0-1.18","subject_id":"613a24c421e8910a6ab8234d","study_id":"6197b3f67c2b5cd3b6d9596a","session_id":"619beef13f51543f4083cd7e","condition":"contingent","relevant_dimensions":["wings","pattern"],"bee_group":{"antennae":"X","wings":"2","pattern":"S","legs":"X"},"bonus":1.280000000000001},{"rt":1258.5,"stimulus":"bees-with-color/bee-B2SM.svg","response":1,"trial_type":"image-button-response","trial_index":45,"time_elapsed":316010,"internal_node_id":"0.0-4.0-0.19","subject_id":"613a24c421e8910a6ab8234d","study_id":"6197b3f67c2b5cd3b6d9596a","session_id":"619beef13f51543f4083cd7e","condition":"contingent","relevant_dimensions":["wings","pattern"],"bee_group":{"antennae":"X","wings":"2","pattern":"S","legs":"X"},"action":"avoid","summary":"good-avoid","bonus":1.280000000000001},{"rt":1200.5,"stimulus":"\n                    <p><b>Action: <em>avoid</em></b></p>\n                    <p>This is the bee that you just saw.</p>\n                    <img src=\"bees-with-color/bee-B2SM.svg\" width=\"200\">\n                    <p><br>Your bonus pay is unchanged, and remains at $0.54.</p>\n            ","response":0,"trial_type":"html-button-response","trial_index":46,"time_elapsed":317215,"internal_node_id":"0.0-4.0-1.19","subject_id":"613a24c421e8910a6ab8234d","study_id":"6197b3f67c2b5cd3b6d9596a","session_id":"619beef13f51543f4083cd7e","condition":"contingent","relevant_dimensions":["wings","pattern"],"bee_group":{"antennae":"X","wings":"2","pattern":"S","legs":"X"},"bonus":1.280000000000001},{"rt":1225.699999999255,"stimulus":"bees-with-color/bee-A1SM.svg","response":0,"trial_type":"image-button-response","trial_index":47,"time_elapsed":318444,"internal_node_id":"0.0-4.0-0.20","subject_id":"613a24c421e8910a6ab8234d","study_id":"6197b3f67c2b5cd3b6d9596a","session_id":"619beef13f51543f4083cd7e","condition":"contingent","relevant_dimensions":["wings","pattern"],"bee_group":{"antennae":"X","wings":"2","pattern":"S","legs":"X"},"action":"harvest","summary":"good-harvest","bonus":1.280000000000001},{"rt":918.5,"stimulus":"\n                    <p><b>Action: <em>harvest</em></b></p>\n                    <p>This is the bee that you just saw.</p>\n                    <img src=\"bees-with-color/bee-A1SM.svg\" width=\"200\">\n                    <p><span class=\"greenText\"><b>Successful harvest!</b></span><br>Your pay has increased by $0.02. Your bonus pay is now $0.56.</p>\n            ","response":0,"trial_type":"html-button-response","trial_index":48,"time_elapsed":319366,"internal_node_id":"0.0-4.0-1.20","subject_id":"613a24c421e8910a6ab8234d","study_id":"6197b3f67c2b5cd3b6d9596a","session_id":"619beef13f51543f4083cd7e","condition":"contingent","relevant_dimensions":["wings","pattern"],"bee_group":{"antennae":"X","wings":"2","pattern":"S","legs":"X"},"bonus":1.280000000000001},{"rt":1963.0999999996275,"stimulus":"bees-with-color/bee-A2DM.svg","response":1,"trial_type":"image-button-response","trial_index":49,"time_elapsed":321332,"internal_node_id":"0.0-4.0-0.21","subject_id":"613a24c421e8910a6ab8234d","study_id":"6197b3f67c2b5cd3b6d9596a","session_id":"619beef13f51543f4083cd7e","condition":"contingent","relevant_dimensions":["wings","pattern"],"bee_group":{"antennae":"X","wings":"2","pattern":"S","legs":"X"},"action":"avoid","summary":"bad-avoid","bonus":1.280000000000001},{"rt":1077.0999999996275,"stimulus":"\n                    <p><b>Action: <em>avoid</em></b></p>\n                    <p>This is the bee that you just saw.</p>\n                    <img src=\"bees-with-color/bee-A2DM.svg\" width=\"200\">\n                    <p><br>Your bonus pay is unchanged, and remains at $0.56.</p>\n            ","response":0,"trial_type":"html-button-response","trial_index":50,"time_elapsed":322413,"internal_node_id":"0.0-4.0-1.21","subject_id":"613a24c421e8910a6ab8234d","study_id":"6197b3f67c2b5cd3b6d9596a","session_id":"619beef13f51543f4083cd7e","condition":"contingent","relevant_dimensions":["wings","pattern"],"bee_group":{"antennae":"X","wings":"2","pattern":"S","legs":"X"},"bonus":1.280000000000001},{"rt":1375.5,"stimulus":"bees-with-color/bee-A2SF.svg","response":1,"trial_type":"image-button-response","trial_index":51,"time_elapsed":323791,"internal_node_id":"0.0-4.0-0.22","subject_id":"613a24c421e8910a6ab8234d","study_id":"6197b3f67c2b5cd3b6d9596a","session_id":"619beef13f51543f4083cd7e","condition":"contingent","relevant_dimensions":["wings","pattern"],"bee_group":{"antennae":"X","wings":"2","pattern":"S","legs":"X"},"action":"avoid","summary":"good-avoid","bonus":1.280000000000001},{"rt":879.5,"stimulus":"\n                    <p><b>Action: <em>avoid</em></b></p>\n                    <p>This is the bee that you just saw.</p>\n                    <img src=\"bees-with-color/bee-A2SF.svg\" width=\"200\">\n                    <p><br>Your bonus pay is unchanged, and remains at $0.56.</p>\n            ","response":0,"trial_type":"html-button-response","trial_index":52,"time_elapsed":324673,"internal_node_id":"0.0-4.0-1.22","subject_id":"613a24c421e8910a6ab8234d","study_id":"6197b3f67c2b5cd3b6d9596a","session_id":"619beef13f51543f4083cd7e","condition":"contingent","relevant_dimensions":["wings","pattern"],"bee_group":{"antennae":"X","wings":"2","pattern":"S","legs":"X"},"bonus":1.280000000000001},{"rt":1317.0999999996275,"stimulus":"bees-with-color/bee-A1DM.svg","response":0,"trial_type":"image-button-response","trial_index":53,"time_elapsed":325993,"internal_node_id":"0.0-4.0-0.23","subject_id":"613a24c421e8910a6ab8234d","study_id":"6197b3f67c2b5cd3b6d9596a","session_id":"619beef13f51543f4083cd7e","condition":"contingent","relevant_dimensions":["wings","pattern"],"bee_group":{"antennae":"X","wings":"2","pattern":"S","legs":"X"},"action":"harvest","summary":"good-harvest","bonus":1.280000000000001},{"rt":1300,"stimulus":"\n                    <p><b>Action: <em>harvest</em></b></p>\n                    <p>This is the bee that you just saw.</p>\n                    <img src=\"bees-with-color/bee-A1DM.svg\" width=\"200\">\n                    <p><span class=\"greenText\"><b>Successful harvest!</b></span><br>Your pay has increased by $0.02. Your bonus pay is now $0.58.</p>\n            ","response":0,"trial_type":"html-button-response","trial_index":54,"time_elapsed":327298,"internal_node_id":"0.0-4.0-1.23","subject_id":"613a24c421e8910a6ab8234d","study_id":"6197b3f67c2b5cd3b6d9596a","session_id":"619beef13f51543f4083cd7e","condition":"contingent","relevant_dimensions":["wings","pattern"],"bee_group":{"antennae":"X","wings":"2","pattern":"S","legs":"X"},"bonus":1.280000000000001},{"rt":1449.5999999996275,"stimulus":"bees-with-color/bee-B1SF.svg","response":0,"trial_type":"image-button-response","trial_index":55,"time_elapsed":328751,"internal_node_id":"0.0-4.0-0.24","subject_id":"613a24c421e8910a6ab8234d","study_id":"6197b3f67c2b5cd3b6d9596a","session_id":"619beef13f51543f4083cd7e","condition":"contingent","relevant_dimensions":["wings","pattern"],"bee_group":{"antennae":"X","wings":"2","pattern":"S","legs":"X"},"action":"harvest","summary":"good-harvest","bonus":1.280000000000001},{"rt":1001.2000000011176,"stimulus":"\n                    <p><b>Action: <em>harvest</em></b></p>\n                    <p>This is the bee that you just saw.</p>\n                    <img src=\"bees-with-color/bee-B1SF.svg\" width=\"200\">\n                    <p><span class=\"greenText\"><b>Successful harvest!</b></span><br>Your pay has increased by $0.02. Your bonus pay is now $0.60.</p>\n            ","response":0,"trial_type":"html-button-response","trial_index":56,"time_elapsed":329755,"internal_node_id":"0.0-4.0-1.24","subject_id":"613a24c421e8910a6ab8234d","study_id":"6197b3f67c2b5cd3b6d9596a","session_id":"619beef13f51543f4083cd7e","condition":"contingent","relevant_dimensions":["wings","pattern"],"bee_group":{"antennae":"X","wings":"2","pattern":"S","legs":"X"},"bonus":1.280000000000001},{"rt":1484.5,"stimulus":"bees-with-color/bee-A1DF.svg","response":0,"trial_type":"image-button-response","trial_index":57,"time_elapsed":331243,"internal_node_id":"0.0-4.0-0.25","subject_id":"613a24c421e8910a6ab8234d","study_id":"6197b3f67c2b5cd3b6d9596a","session_id":"619beef13f51543f4083cd7e","condition":"contingent","relevant_dimensions":["wings","pattern"],"bee_group":{"antennae":"X","wings":"2","pattern":"S","legs":"X"},"action":"harvest","summary":"good-harvest","bonus":1.280000000000001},{"rt":1178.199999999255,"stimulus":"\n                    <p><b>Action: <em>harvest</em></b></p>\n                    <p>This is the bee that you just saw.</p>\n                    <img src=\"bees-with-color/bee-A1DF.svg\" width=\"200\">\n                    <p><span class=\"greenText\"><b>Successful harvest!</b></span><br>Your pay has increased by $0.02. Your bonus pay is now $0.62.</p>\n            ","response":0,"trial_type":"html-button-response","trial_index":58,"time_elapsed":332426,"internal_node_id":"0.0-4.0-1.25","subject_id":"613a24c421e8910a6ab8234d","study_id":"6197b3f67c2b5cd3b6d9596a","session_id":"619beef13f51543f4083cd7e","condition":"contingent","relevant_dimensions":["wings","pattern"],"bee_group":{"antennae":"X","wings":"2","pattern":"S","legs":"X"},"bonus":1.280000000000001},{"rt":1150.2000000011176,"stimulus":"bees-with-color/bee-B1DF.svg","response":0,"trial_type":"image-button-response","trial_index":59,"time_elapsed":333582,"internal_node_id":"0.0-4.0-0.26","subject_id":"613a24c421e8910a6ab8234d","study_id":"6197b3f67c2b5cd3b6d9596a","session_id":"619beef13f51543f4083cd7e","condition":"contingent","relevant_dimensions":["wings","pattern"],"bee_group":{"antennae":"X","wings":"2","pattern":"S","legs":"X"},"action":"harvest","summary":"good-harvest","bonus":1.280000000000001},{"rt":1121.5999999996275,"stimulus":"\n                    <p><b>Action: <em>harvest</em></b></p>\n                    <p>This is the bee that you just saw.</p>\n                    <img src=\"bees-with-color/bee-B1DF.svg\" width=\"200\">\n                    <p><span class=\"greenText\"><b>Successful harvest!</b></span><br>Your pay has increased by $0.02. Your bonus pay is now $0.64.</p>\n            ","response":0,"trial_type":"html-button-response","trial_index":60,"time_elapsed":334706,"internal_node_id":"0.0-4.0-1.26","subject_id":"613a24c421e8910a6ab8234d","study_id":"6197b3f67c2b5cd3b6d9596a","session_id":"619beef13f51543f4083cd7e","condition":"contingent","relevant_dimensions":["wings","pattern"],"bee_group":{"antennae":"X","wings":"2","pattern":"S","legs":"X"},"bonus":1.280000000000001},{"rt":1333.800000000745,"stimulus":"bees-with-color/bee-B2SF.svg","response":1,"trial_type":"image-button-response","trial_index":61,"time_elapsed":336043,"internal_node_id":"0.0-4.0-0.27","subject_id":"613a24c421e8910a6ab8234d","study_id":"6197b3f67c2b5cd3b6d9596a","session_id":"619beef13f51543f4083cd7e","condition":"contingent","relevant_dimensions":["wings","pattern"],"bee_group":{"antennae":"X","wings":"2","pattern":"S","legs":"X"},"action":"avoid","summary":"good-avoid","bonus":1.280000000000001},{"rt":1214.3999999985099,"stimulus":"\n                    <p><b>Action: <em>avoid</em></b></p>\n                    <p>This is the bee that you just saw.</p>\n                    <img src=\"bees-with-color/bee-B2SF.svg\" width=\"200\">\n                    <p><br>Your bonus pay is unchanged, and remains at $0.64.</p>\n            ","response":0,"trial_type":"html-button-response","trial_index":62,"time_elapsed":337259,"internal_node_id":"0.0-4.0-1.27","subject_id":"613a24c421e8910a6ab8234d","study_id":"6197b3f67c2b5cd3b6d9596a","session_id":"619beef13f51543f4083cd7e","condition":"contingent","relevant_dimensions":["wings","pattern"],"bee_group":{"antennae":"X","wings":"2","pattern":"S","legs":"X"},"bonus":1.280000000000001},{"rt":1247.5999999996275,"stimulus":"bees-with-color/bee-B1DM.svg","response":0,"trial_type":"image-button-response","trial_index":63,"time_elapsed":338513,"internal_node_id":"0.0-4.0-0.28","subject_id":"613a24c421e8910a6ab8234d","study_id":"6197b3f67c2b5cd3b6d9596a","session_id":"619beef13f51543f4083cd7e","condition":"contingent","relevant_dimensions":["wings","pattern"],"bee_group":{"antennae":"X","wings":"2","pattern":"S","legs":"X"},"action":"harvest","summary":"good-harvest","bonus":1.280000000000001},{"rt":1091.4000000003725,"stimulus":"\n                    <p><b>Action: <em>harvest</em></b></p>\n                    <p>This is the bee that you just saw.</p>\n                    <img src=\"bees-with-color/bee-B1DM.svg\" width=\"200\">\n                    <p><span class=\"greenText\"><b>Successful harvest!</b></span><br>Your pay has increased by $0.02. Your bonus pay is now $0.66.</p>\n            ","response":0,"trial_type":"html-button-response","trial_index":64,"time_elapsed":339607,"internal_node_id":"0.0-4.0-1.28","subject_id":"613a24c421e8910a6ab8234d","study_id":"6197b3f67c2b5cd3b6d9596a","session_id":"619beef13f51543f4083cd7e","condition":"contingent","relevant_dimensions":["wings","pattern"],"bee_group":{"antennae":"X","wings":"2","pattern":"S","legs":"X"},"bonus":1.280000000000001},{"rt":1331.5,"stimulus":"bees-with-color/bee-A2DF.svg","response":1,"trial_type":"image-button-response","trial_index":65,"time_elapsed":340941,"internal_node_id":"0.0-4.0-0.29","subject_id":"613a24c421e8910a6ab8234d","study_id":"6197b3f67c2b5cd3b6d9596a","session_id":"619beef13f51543f4083cd7e","condition":"contingent","relevant_dimensions":["wings","pattern"],"bee_group":{"antennae":"X","wings":"2","pattern":"S","legs":"X"},"action":"avoid","summary":"bad-avoid","bonus":1.280000000000001},{"rt":981.5999999996275,"stimulus":"\n                    <p><b>Action: <em>avoid</em></b></p>\n                    <p>This is the bee that you just saw.</p>\n                    <img src=\"bees-with-color/bee-A2DF.svg\" width=\"200\">\n                    <p><br>Your bonus pay is unchanged, and remains at $0.66.</p>\n            ","response":0,"trial_type":"html-button-response","trial_index":66,"time_elapsed":341925,"internal_node_id":"0.0-4.0-1.29","subject_id":"613a24c421e8910a6ab8234d","study_id":"6197b3f67c2b5cd3b6d9596a","session_id":"619beef13f51543f4083cd7e","condition":"contingent","relevant_dimensions":["wings","pattern"],"bee_group":{"antennae":"X","wings":"2","pattern":"S","legs":"X"},"bonus":1.280000000000001},{"rt":1211,"stimulus":"bees-with-color/bee-A2SM.svg","response":1,"trial_type":"image-button-response","trial_index":67,"time_elapsed":343138,"internal_node_id":"0.0-4.0-0.30","subject_id":"613a24c421e8910a6ab8234d","study_id":"6197b3f67c2b5cd3b6d9596a","session_id":"619beef13f51543f4083cd7e","condition":"contingent","relevant_dimensions":["wings","pattern"],"bee_group":{"antennae":"X","wings":"2","pattern":"S","legs":"X"},"action":"avoid","summary":"good-avoid","bonus":1.280000000000001},{"rt":913.5,"stimulus":"\n                    <p><b>Action: <em>avoid</em></b></p>\n                    <p>This is the bee that you just saw.</p>\n                    <img src=\"bees-with-color/bee-A2SM.svg\" width=\"200\">\n                    <p><br>Your bonus pay is unchanged, and remains at $0.66.</p>\n            ","response":0,"trial_type":"html-button-response","trial_index":68,"time_elapsed":344054,"internal_node_id":"0.0-4.0-1.30","subject_id":"613a24c421e8910a6ab8234d","study_id":"6197b3f67c2b5cd3b6d9596a","session_id":"619beef13f51543f4083cd7e","condition":"contingent","relevant_dimensions":["wings","pattern"],"bee_group":{"antennae":"X","wings":"2","pattern":"S","legs":"X"},"bonus":1.280000000000001},{"rt":2102.7000000011176,"stimulus":"bees-with-color/bee-B2DM.svg","response":1,"trial_type":"image-button-response","trial_index":69,"time_elapsed":346159,"internal_node_id":"0.0-4.0-0.31","subject_id":"613a24c421e8910a6ab8234d","study_id":"6197b3f67c2b5cd3b6d9596a","session_id":"619beef13f51543f4083cd7e","condition":"contingent","relevant_dimensions":["wings","pattern"],"bee_group":{"antennae":"X","wings":"2","pattern":"S","legs":"X"},"action":"avoid","summary":"bad-avoid","bonus":1.280000000000001},{"rt":894.1000000014901,"stimulus":"\n                    <p><b>Action: <em>avoid</em></b></p>\n                    <p>This is the bee that you just saw.</p>\n                    <img src=\"bees-with-color/bee-B2DM.svg\" width=\"200\">\n                    <p><br>Your bonus pay is unchanged, and remains at $0.66.</p>\n            ","response":0,"trial_type":"html-button-response","trial_index":70,"time_elapsed":347055,"internal_node_id":"0.0-4.0-1.31","subject_id":"613a24c421e8910a6ab8234d","study_id":"6197b3f67c2b5cd3b6d9596a","session_id":"619beef13f51543f4083cd7e","condition":"contingent","relevant_dimensions":["wings","pattern"],"bee_group":{"antennae":"X","wings":"2","pattern":"S","legs":"X"},"bonus":1.280000000000001},{"rt":1112.7000000011176,"stimulus":"bees-with-color/bee-B1SM.svg","response":0,"trial_type":"image-button-response","trial_index":71,"time_elapsed":348172,"internal_node_id":"0.0-4.0-0.32","subject_id":"613a24c421e8910a6ab8234d","study_id":"6197b3f67c2b5cd3b6d9596a","session_id":"619beef13f51543f4083cd7e","condition":"contingent","relevant_dimensions":["wings","pattern"],"bee_group":{"antennae":"X","wings":"2","pattern":"S","legs":"X"},"action":"harvest","summary":"good-harvest","bonus":1.280000000000001},{"rt":901.7000000011176,"stimulus":"\n                    <p><b>Action: <em>harvest</em></b></p>\n                    <p>This is the bee that you just saw.</p>\n                    <img src=\"bees-with-color/bee-B1SM.svg\" width=\"200\">\n                    <p><span class=\"greenText\"><b>Successful harvest!</b></span><br>Your pay has increased by $0.02. Your bonus pay is now $0.68.</p>\n            ","response":0,"trial_type":"html-button-response","trial_index":72,"time_elapsed":349076,"internal_node_id":"0.0-4.0-1.32","subject_id":"613a24c421e8910a6ab8234d","study_id":"6197b3f67c2b5cd3b6d9596a","session_id":"619beef13f51543f4083cd7e","condition":"contingent","relevant_dimensions":["wings","pattern"],"bee_group":{"antennae":"X","wings":"2","pattern":"S","legs":"X"},"bonus":1.280000000000001},{"rt":1278.6000000014901,"stimulus":"bees-with-color/bee-A2SM.svg","response":1,"trial_type":"image-button-response","trial_index":73,"time_elapsed":350357,"internal_node_id":"0.0-4.0-0.33","subject_id":"613a24c421e8910a6ab8234d","study_id":"6197b3f67c2b5cd3b6d9596a","session_id":"619beef13f51543f4083cd7e","condition":"contingent","relevant_dimensions":["wings","pattern"],"bee_group":{"antennae":"X","wings":"2","pattern":"S","legs":"X"},"action":"avoid","summary":"good-avoid","bonus":1.280000000000001},{"rt":1079.5,"stimulus":"\n                    <p><b>Action: <em>avoid</em></b></p>\n                    <p>This is the bee that you just saw.</p>\n                    <img src=\"bees-with-color/bee-A2SM.svg\" width=\"200\">\n                    <p><br>Your bonus pay is unchanged, and remains at $0.68.</p>\n            ","response":0,"trial_type":"html-button-response","trial_index":74,"time_elapsed":351439,"internal_node_id":"0.0-4.0-1.33","subject_id":"613a24c421e8910a6ab8234d","study_id":"6197b3f67c2b5cd3b6d9596a","session_id":"619beef13f51543f4083cd7e","condition":"contingent","relevant_dimensions":["wings","pattern"],"bee_group":{"antennae":"X","wings":"2","pattern":"S","legs":"X"},"bonus":1.280000000000001},{"rt":1096.6000000014901,"stimulus":"bees-with-color/bee-B2DM.svg","response":1,"trial_type":"image-button-response","trial_index":75,"time_elapsed":352538,"internal_node_id":"0.0-4.0-0.34","subject_id":"613a24c421e8910a6ab8234d","study_id":"6197b3f67c2b5cd3b6d9596a","session_id":"619beef13f51543f4083cd7e","condition":"contingent","relevant_dimensions":["wings","pattern"],"bee_group":{"antennae":"X","wings":"2","pattern":"S","legs":"X"},"action":"avoid","summary":"bad-avoid","bonus":1.280000000000001},{"rt":879.8000000007451,"stimulus":"\n                    <p><b>Action: <em>avoid</em></b></p>\n                    <p>This is the bee that you just saw.</p>\n                    <img src=\"bees-with-color/bee-B2DM.svg\" width=\"200\">\n                    <p><br>Your bonus pay is unchanged, and remains at $0.68.</p>\n            ","response":0,"trial_type":"html-button-response","trial_index":76,"time_elapsed":353421,"internal_node_id":"0.0-4.0-1.34","subject_id":"613a24c421e8910a6ab8234d","study_id":"6197b3f67c2b5cd3b6d9596a","session_id":"619beef13f51543f4083cd7e","condition":"contingent","relevant_dimensions":["wings","pattern"],"bee_group":{"antennae":"X","wings":"2","pattern":"S","legs":"X"},"bonus":1.280000000000001},{"rt":1119.5,"stimulus":"bees-with-color/bee-A2DM.svg","response":1,"trial_type":"image-button-response","trial_index":77,"time_elapsed":354542,"internal_node_id":"0.0-4.0-0.35","subject_id":"613a24c421e8910a6ab8234d","study_id":"6197b3f67c2b5cd3b6d9596a","session_id":"619beef13f51543f4083cd7e","condition":"contingent","relevant_dimensions":["wings","pattern"],"bee_group":{"antennae":"X","wings":"2","pattern":"S","legs":"X"},"action":"avoid","summary":"bad-avoid","bonus":1.280000000000001},{"rt":892.0999999996275,"stimulus":"\n                    <p><b>Action: <em>avoid</em></b></p>\n                    <p>This is the bee that you just saw.</p>\n                    <img src=\"bees-with-color/bee-A2DM.svg\" width=\"200\">\n                    <p><br>Your bonus pay is unchanged, and remains at $0.68.</p>\n            ","response":0,"trial_type":"html-button-response","trial_index":78,"time_elapsed":355437,"internal_node_id":"0.0-4.0-1.35","subject_id":"613a24c421e8910a6ab8234d","study_id":"6197b3f67c2b5cd3b6d9596a","session_id":"619beef13f51543f4083cd7e","condition":"contingent","relevant_dimensions":["wings","pattern"],"bee_group":{"antennae":"X","wings":"2","pattern":"S","legs":"X"},"bonus":1.280000000000001},{"rt":1237.800000000745,"stimulus":"bees-with-color/bee-B1DM.svg","response":0,"trial_type":"image-button-response","trial_index":79,"time_elapsed":356678,"internal_node_id":"0.0-4.0-0.36","subject_id":"613a24c421e8910a6ab8234d","study_id":"6197b3f67c2b5cd3b6d9596a","session_id":"619beef13f51543f4083cd7e","condition":"contingent","relevant_dimensions":["wings","pattern"],"bee_group":{"antennae":"X","wings":"2","pattern":"S","legs":"X"},"action":"harvest","summary":"good-harvest","bonus":1.280000000000001},{"rt":994.2000000011176,"stimulus":"\n                    <p><b>Action: <em>harvest</em></b></p>\n                    <p>This is the bee that you just saw.</p>\n                    <img src=\"bees-with-color/bee-B1DM.svg\" width=\"200\">\n                    <p><span class=\"greenText\"><b>Successful harvest!</b></span><br>Your pay has increased by $0.02. Your bonus pay is now $0.70.</p>\n            ","response":0,"trial_type":"html-button-response","trial_index":80,"time_elapsed":357677,"internal_node_id":"0.0-4.0-1.36","subject_id":"613a24c421e8910a6ab8234d","study_id":"6197b3f67c2b5cd3b6d9596a","session_id":"619beef13f51543f4083cd7e","condition":"contingent","relevant_dimensions":["wings","pattern"],"bee_group":{"antennae":"X","wings":"2","pattern":"S","legs":"X"},"bonus":1.280000000000001},{"rt":1735.2000000011176,"stimulus":"bees-with-color/bee-B1SF.svg","response":0,"trial_type":"image-button-response","trial_index":81,"time_elapsed":359416,"internal_node_id":"0.0-4.0-0.37","subject_id":"613a24c421e8910a6ab8234d","study_id":"6197b3f67c2b5cd3b6d9596a","session_id":"619beef13f51543f4083cd7e","condition":"contingent","relevant_dimensions":["wings","pattern"],"bee_group":{"antennae":"X","wings":"2","pattern":"S","legs":"X"},"action":"harvest","summary":"good-harvest","bonus":1.280000000000001},{"rt":1212.5,"stimulus":"\n                    <p><b>Action: <em>harvest</em></b></p>\n                    <p>This is the bee that you just saw.</p>\n                    <img src=\"bees-with-color/bee-B1SF.svg\" width=\"200\">\n                    <p><span class=\"greenText\"><b>Successful harvest!</b></span><br>Your pay has increased by $0.02. Your bonus pay is now $0.72.</p>\n            ","response":0,"trial_type":"html-button-response","trial_index":82,"time_elapsed":360632,"internal_node_id":"0.0-4.0-1.37","subject_id":"613a24c421e8910a6ab8234d","study_id":"6197b3f67c2b5cd3b6d9596a","session_id":"619beef13f51543f4083cd7e","condition":"contingent","relevant_dimensions":["wings","pattern"],"bee_group":{"antennae":"X","wings":"2","pattern":"S","legs":"X"},"bonus":1.280000000000001},{"rt":1183,"stimulus":"bees-with-color/bee-A1DM.svg","response":0,"trial_type":"image-button-response","trial_index":83,"time_elapsed":361818,"internal_node_id":"0.0-4.0-0.38","subject_id":"613a24c421e8910a6ab8234d","study_id":"6197b3f67c2b5cd3b6d9596a","session_id":"619beef13f51543f4083cd7e","condition":"contingent","relevant_dimensions":["wings","pattern"],"bee_group":{"antennae":"X","wings":"2","pattern":"S","legs":"X"},"action":"harvest","summary":"good-harvest","bonus":1.280000000000001},{"rt":2233.5999999996275,"stimulus":"\n                    <p><b>Action: <em>harvest</em></b></p>\n                    <p>This is the bee that you just saw.</p>\n                    <img src=\"bees-with-color/bee-A1DM.svg\" width=\"200\">\n                    <p><span class=\"greenText\"><b>Successful harvest!</b></span><br>Your pay has increased by $0.02. Your bonus pay is now $0.74.</p>\n            ","response":0,"trial_type":"html-button-response","trial_index":84,"time_elapsed":364055,"internal_node_id":"0.0-4.0-1.38","subject_id":"613a24c421e8910a6ab8234d","study_id":"6197b3f67c2b5cd3b6d9596a","session_id":"619beef13f51543f4083cd7e","condition":"contingent","relevant_dimensions":["wings","pattern"],"bee_group":{"antennae":"X","wings":"2","pattern":"S","legs":"X"},"bonus":1.280000000000001},{"rt":1222.2000000011176,"stimulus":"bees-with-color/bee-B2SM.svg","response":1,"trial_type":"image-button-response","trial_index":85,"time_elapsed":365280,"internal_node_id":"0.0-4.0-0.39","subject_id":"613a24c421e8910a6ab8234d","study_id":"6197b3f67c2b5cd3b6d9596a","session_id":"619beef13f51543f4083cd7e","condition":"contingent","relevant_dimensions":["wings","pattern"],"bee_group":{"antennae":"X","wings":"2","pattern":"S","legs":"X"},"action":"avoid","summary":"good-avoid","bonus":1.280000000000001},{"rt":1265.5999999996275,"stimulus":"\n                    <p><b>Action: <em>avoid</em></b></p>\n                    <p>This is the bee that you just saw.</p>\n                    <img src=\"bees-with-color/bee-B2SM.svg\" width=\"200\">\n                    <p><br>Your bonus pay is unchanged, and remains at $0.74.</p>\n            ","response":0,"trial_type":"html-button-response","trial_index":86,"time_elapsed":366548,"internal_node_id":"0.0-4.0-1.39","subject_id":"613a24c421e8910a6ab8234d","study_id":"6197b3f67c2b5cd3b6d9596a","session_id":"619beef13f51543f4083cd7e","condition":"contingent","relevant_dimensions":["wings","pattern"],"bee_group":{"antennae":"X","wings":"2","pattern":"S","legs":"X"},"bonus":1.280000000000001},{"rt":1114.2999999988824,"stimulus":"bees-with-color/bee-A2DF.svg","response":1,"trial_type":"image-button-response","trial_index":87,"time_elapsed":367665,"internal_node_id":"0.0-4.0-0.40","subject_id":"613a24c421e8910a6ab8234d","study_id":"6197b3f67c2b5cd3b6d9596a","session_id":"619beef13f51543f4083cd7e","condition":"contingent","relevant_dimensions":["wings","pattern"],"bee_group":{"antennae":"X","wings":"2","pattern":"S","legs":"X"},"action":"avoid","summary":"bad-avoid","bonus":1.280000000000001},{"rt":1063.2000000011176,"stimulus":"\n                    <p><b>Action: <em>avoid</em></b></p>\n                    <p>This is the bee that you just saw.</p>\n                    <img src=\"bees-with-color/bee-A2DF.svg\" width=\"200\">\n                    <p><br>Your bonus pay is unchanged, and remains at $0.74.</p>\n            ","response":0,"trial_type":"html-button-response","trial_index":88,"time_elapsed":368732,"internal_node_id":"0.0-4.0-1.40","subject_id":"613a24c421e8910a6ab8234d","study_id":"6197b3f67c2b5cd3b6d9596a","session_id":"619beef13f51543f4083cd7e","condition":"contingent","relevant_dimensions":["wings","pattern"],"bee_group":{"antennae":"X","wings":"2","pattern":"S","legs":"X"},"bonus":1.280000000000001},{"rt":1049.199999999255,"stimulus":"bees-with-color/bee-B2SF.svg","response":1,"trial_type":"image-button-response","trial_index":89,"time_elapsed":369784,"internal_node_id":"0.0-4.0-0.41","subject_id":"613a24c421e8910a6ab8234d","study_id":"6197b3f67c2b5cd3b6d9596a","session_id":"619beef13f51543f4083cd7e","condition":"contingent","relevant_dimensions":["wings","pattern"],"bee_group":{"antennae":"X","wings":"2","pattern":"S","legs":"X"},"action":"avoid","summary":"good-avoid","bonus":1.280000000000001},{"rt":809.5999999996275,"stimulus":"\n                    <p><b>Action: <em>avoid</em></b></p>\n                    <p>This is the bee that you just saw.</p>\n                    <img src=\"bees-with-color/bee-B2SF.svg\" width=\"200\">\n                    <p><br>Your bonus pay is unchanged, and remains at $0.74.</p>\n            ","response":0,"trial_type":"html-button-response","trial_index":90,"time_elapsed":370598,"internal_node_id":"0.0-4.0-1.41","subject_id":"613a24c421e8910a6ab8234d","study_id":"6197b3f67c2b5cd3b6d9596a","session_id":"619beef13f51543f4083cd7e","condition":"contingent","relevant_dimensions":["wings","pattern"],"bee_group":{"antennae":"X","wings":"2","pattern":"S","legs":"X"},"bonus":1.280000000000001},{"rt":1097.300000000745,"stimulus":"bees-with-color/bee-A1SM.svg","response":0,"trial_type":"image-button-response","trial_index":91,"time_elapsed":371698,"internal_node_id":"0.0-4.0-0.42","subject_id":"613a24c421e8910a6ab8234d","study_id":"6197b3f67c2b5cd3b6d9596a","session_id":"619beef13f51543f4083cd7e","condition":"contingent","relevant_dimensions":["wings","pattern"],"bee_group":{"antennae":"X","wings":"2","pattern":"S","legs":"X"},"action":"harvest","summary":"good-harvest","bonus":1.280000000000001},{"rt":948,"stimulus":"\n                    <p><b>Action: <em>harvest</em></b></p>\n                    <p>This is the bee that you just saw.</p>\n                    <img src=\"bees-with-color/bee-A1SM.svg\" width=\"200\">\n                    <p><span class=\"greenText\"><b>Successful harvest!</b></span><br>Your pay has increased by $0.02. Your bonus pay is now $0.76.</p>\n            ","response":0,"trial_type":"html-button-response","trial_index":92,"time_elapsed":372649,"internal_node_id":"0.0-4.0-1.42","subject_id":"613a24c421e8910a6ab8234d","study_id":"6197b3f67c2b5cd3b6d9596a","session_id":"619beef13f51543f4083cd7e","condition":"contingent","relevant_dimensions":["wings","pattern"],"bee_group":{"antennae":"X","wings":"2","pattern":"S","legs":"X"},"bonus":1.280000000000001},{"rt":978.5,"stimulus":"bees-with-color/bee-A2SF.svg","response":1,"trial_type":"image-button-response","trial_index":93,"time_elapsed":373632,"internal_node_id":"0.0-4.0-0.43","subject_id":"613a24c421e8910a6ab8234d","study_id":"6197b3f67c2b5cd3b6d9596a","session_id":"619beef13f51543f4083cd7e","condition":"contingent","relevant_dimensions":["wings","pattern"],"bee_group":{"antennae":"X","wings":"2","pattern":"S","legs":"X"},"action":"avoid","summary":"good-avoid","bonus":1.280000000000001},{"rt":1282,"stimulus":"\n                    <p><b>Action: <em>avoid</em></b></p>\n                    <p>This is the bee that you just saw.</p>\n                    <img src=\"bees-with-color/bee-A2SF.svg\" width=\"200\">\n                    <p><br>Your bonus pay is unchanged, and remains at $0.76.</p>\n            ","response":0,"trial_type":"html-button-response","trial_index":94,"time_elapsed":374917,"internal_node_id":"0.0-4.0-1.43","subject_id":"613a24c421e8910a6ab8234d","study_id":"6197b3f67c2b5cd3b6d9596a","session_id":"619beef13f51543f4083cd7e","condition":"contingent","relevant_dimensions":["wings","pattern"],"bee_group":{"antennae":"X","wings":"2","pattern":"S","legs":"X"},"bonus":1.280000000000001},{"rt":1091.800000000745,"stimulus":"bees-with-color/bee-A1DF.svg","response":0,"trial_type":"image-button-response","trial_index":95,"time_elapsed":376011,"internal_node_id":"0.0-4.0-0.44","subject_id":"613a24c421e8910a6ab8234d","study_id":"6197b3f67c2b5cd3b6d9596a","session_id":"619beef13f51543f4083cd7e","condition":"contingent","relevant_dimensions":["wings","pattern"],"bee_group":{"antennae":"X","wings":"2","pattern":"S","legs":"X"},"action":"harvest","summary":"good-harvest","bonus":1.280000000000001},{"rt":1450.2999999988824,"stimulus":"\n                    <p><b>Action: <em>harvest</em></b></p>\n                    <p>This is the bee that you just saw.</p>\n                    <img src=\"bees-with-color/bee-A1DF.svg\" width=\"200\">\n                    <p><span class=\"greenText\"><b>Successful harvest!</b></span><br>Your pay has increased by $0.02. Your bonus pay is now $0.78.</p>\n            ","response":0,"trial_type":"html-button-response","trial_index":96,"time_elapsed":377465,"internal_node_id":"0.0-4.0-1.44","subject_id":"613a24c421e8910a6ab8234d","study_id":"6197b3f67c2b5cd3b6d9596a","session_id":"619beef13f51543f4083cd7e","condition":"contingent","relevant_dimensions":["wings","pattern"],"bee_group":{"antennae":"X","wings":"2","pattern":"S","legs":"X"},"bonus":1.280000000000001},{"rt":1095,"stimulus":"bees-with-color/bee-B1DF.svg","response":0,"trial_type":"image-button-response","trial_index":97,"time_elapsed":378563,"internal_node_id":"0.0-4.0-0.45","subject_id":"613a24c421e8910a6ab8234d","study_id":"6197b3f67c2b5cd3b6d9596a","session_id":"619beef13f51543f4083cd7e","condition":"contingent","relevant_dimensions":["wings","pattern"],"bee_group":{"antennae":"X","wings":"2","pattern":"S","legs":"X"},"action":"harvest","summary":"good-harvest","bonus":1.280000000000001},{"rt":1167.3999999985099,"stimulus":"\n                    <p><b>Action: <em>harvest</em></b></p>\n                    <p>This is the bee that you just saw.</p>\n                    <img src=\"bees-with-color/bee-B1DF.svg\" width=\"200\">\n                    <p><span class=\"greenText\"><b>Successful harvest!</b></span><br>Your pay has increased by $0.02. Your bonus pay is now $0.80.</p>\n            ","response":0,"trial_type":"html-button-response","trial_index":98,"time_elapsed":379734,"internal_node_id":"0.0-4.0-1.45","subject_id":"613a24c421e8910a6ab8234d","study_id":"6197b3f67c2b5cd3b6d9596a","session_id":"619beef13f51543f4083cd7e","condition":"contingent","relevant_dimensions":["wings","pattern"],"bee_group":{"antennae":"X","wings":"2","pattern":"S","legs":"X"},"bonus":1.280000000000001},{"rt":1198.3999999985099,"stimulus":"bees-with-color/bee-B2DF.svg","response":1,"trial_type":"image-button-response","trial_index":99,"time_elapsed":380936,"internal_node_id":"0.0-4.0-0.46","subject_id":"613a24c421e8910a6ab8234d","study_id":"6197b3f67c2b5cd3b6d9596a","session_id":"619beef13f51543f4083cd7e","condition":"contingent","relevant_dimensions":["wings","pattern"],"bee_group":{"antennae":"X","wings":"2","pattern":"S","legs":"X"},"action":"avoid","summary":"bad-avoid","bonus":1.280000000000001},{"rt":1010.1999999992549,"stimulus":"\n                    <p><b>Action: <em>avoid</em></b></p>\n                    <p>This is the bee that you just saw.</p>\n                    <img src=\"bees-with-color/bee-B2DF.svg\" width=\"200\">\n                    <p><br>Your bonus pay is unchanged, and remains at $0.80.</p>\n            ","response":0,"trial_type":"html-button-response","trial_index":100,"time_elapsed":381949,"internal_node_id":"0.0-4.0-1.46","subject_id":"613a24c421e8910a6ab8234d","study_id":"6197b3f67c2b5cd3b6d9596a","session_id":"619beef13f51543f4083cd7e","condition":"contingent","relevant_dimensions":["wings","pattern"],"bee_group":{"antennae":"X","wings":"2","pattern":"S","legs":"X"},"bonus":1.280000000000001},{"rt":1168.8999999985099,"stimulus":"bees-with-color/bee-A1SF.svg","response":0,"trial_type":"image-button-response","trial_index":101,"time_elapsed":383121,"internal_node_id":"0.0-4.0-0.47","subject_id":"613a24c421e8910a6ab8234d","study_id":"6197b3f67c2b5cd3b6d9596a","session_id":"619beef13f51543f4083cd7e","condition":"contingent","relevant_dimensions":["wings","pattern"],"bee_group":{"antennae":"X","wings":"2","pattern":"S","legs":"X"},"action":"harvest","summary":"good-harvest","bonus":1.280000000000001},{"rt":1427.699999999255,"stimulus":"\n                    <p><b>Action: <em>harvest</em></b></p>\n                    <p>This is the bee that you just saw.</p>\n                    <img src=\"bees-with-color/bee-A1SF.svg\" width=\"200\">\n                    <p><span class=\"greenText\"><b>Successful harvest!</b></span><br>Your pay has increased by $0.02. Your bonus pay is now $0.82.</p>\n            ","response":0,"trial_type":"html-button-response","trial_index":102,"time_elapsed":384552,"internal_node_id":"0.0-4.0-1.47","subject_id":"613a24c421e8910a6ab8234d","study_id":"6197b3f67c2b5cd3b6d9596a","session_id":"619beef13f51543f4083cd7e","condition":"contingent","relevant_dimensions":["wings","pattern"],"bee_group":{"antennae":"X","wings":"2","pattern":"S","legs":"X"},"bonus":1.280000000000001},{"rt":1555.0999999996275,"stimulus":"bees-with-color/bee-A1SF.svg","response":0,"trial_type":"image-button-response","trial_index":103,"time_elapsed":386110,"internal_node_id":"0.0-4.0-0.48","subject_id":"613a24c421e8910a6ab8234d","study_id":"6197b3f67c2b5cd3b6d9596a","session_id":"619beef13f51543f4083cd7e","condition":"contingent","relevant_dimensions":["wings","pattern"],"bee_group":{"antennae":"X","wings":"2","pattern":"S","legs":"X"},"action":"harvest","summary":"good-harvest","bonus":1.280000000000001},{"rt":999.3000000007451,"stimulus":"\n                    <p><b>Action: <em>harvest</em></b></p>\n                    <p>This is the bee that you just saw.</p>\n                    <img src=\"bees-with-color/bee-A1SF.svg\" width=\"200\">\n                    <p><span class=\"greenText\"><b>Successful harvest!</b></span><br>Your pay has increased by $0.02. Your bonus pay is now $0.84.</p>\n            ","response":0,"trial_type":"html-button-response","trial_index":104,"time_elapsed":387111,"internal_node_id":"0.0-4.0-1.48","subject_id":"613a24c421e8910a6ab8234d","study_id":"6197b3f67c2b5cd3b6d9596a","session_id":"619beef13f51543f4083cd7e","condition":"contingent","relevant_dimensions":["wings","pattern"],"bee_group":{"antennae":"X","wings":"2","pattern":"S","legs":"X"},"bonus":1.280000000000001},{"rt":1131.699999999255,"stimulus":"bees-with-color/bee-B2SF.svg","response":1,"trial_type":"image-button-response","trial_index":105,"time_elapsed":388249,"internal_node_id":"0.0-4.0-0.49","subject_id":"613a24c421e8910a6ab8234d","study_id":"6197b3f67c2b5cd3b6d9596a","session_id":"619beef13f51543f4083cd7e","condition":"contingent","relevant_dimensions":["wings","pattern"],"bee_group":{"antennae":"X","wings":"2","pattern":"S","legs":"X"},"action":"avoid","summary":"good-avoid","bonus":1.280000000000001},{"rt":1082.2999999988824,"stimulus":"\n                    <p><b>Action: <em>avoid</em></b></p>\n                    <p>This is the bee that you just saw.</p>\n                    <img src=\"bees-with-color/bee-B2SF.svg\" width=\"200\">\n                    <p><br>Your bonus pay is unchanged, and remains at $0.84.</p>\n            ","response":0,"trial_type":"html-button-response","trial_index":106,"time_elapsed":389334,"internal_node_id":"0.0-4.0-1.49","subject_id":"613a24c421e8910a6ab8234d","study_id":"6197b3f67c2b5cd3b6d9596a","session_id":"619beef13f51543f4083cd7e","condition":"contingent","relevant_dimensions":["wings","pattern"],"bee_group":{"antennae":"X","wings":"2","pattern":"S","legs":"X"},"bonus":1.280000000000001},{"rt":1124.699999999255,"stimulus":"bees-with-color/bee-B1DM.svg","response":0,"trial_type":"image-button-response","trial_index":107,"time_elapsed":390462,"internal_node_id":"0.0-4.0-0.50","subject_id":"613a24c421e8910a6ab8234d","study_id":"6197b3f67c2b5cd3b6d9596a","session_id":"619beef13f51543f4083cd7e","condition":"contingent","relevant_dimensions":["wings","pattern"],"bee_group":{"antennae":"X","wings":"2","pattern":"S","legs":"X"},"action":"harvest","summary":"good-harvest","bonus":1.280000000000001},{"rt":1164.0999999996275,"stimulus":"\n                    <p><b>Action: <em>harvest</em></b></p>\n                    <p>This is the bee that you just saw.</p>\n                    <img src=\"bees-with-color/bee-B1DM.svg\" width=\"200\">\n                    <p><span class=\"greenText\"><b>Successful harvest!</b></span><br>Your pay has increased by $0.02. Your bonus pay is now $0.86.</p>\n            ","response":0,"trial_type":"html-button-response","trial_index":108,"time_elapsed":391631,"internal_node_id":"0.0-4.0-1.50","subject_id":"613a24c421e8910a6ab8234d","study_id":"6197b3f67c2b5cd3b6d9596a","session_id":"619beef13f51543f4083cd7e","condition":"contingent","relevant_dimensions":["wings","pattern"],"bee_group":{"antennae":"X","wings":"2","pattern":"S","legs":"X"},"bonus":1.280000000000001},{"rt":1426.2000000011176,"stimulus":"bees-with-color/bee-A2SF.svg","response":1,"trial_type":"image-button-response","trial_index":109,"time_elapsed":393060,"internal_node_id":"0.0-4.0-0.51","subject_id":"613a24c421e8910a6ab8234d","study_id":"6197b3f67c2b5cd3b6d9596a","session_id":"619beef13f51543f4083cd7e","condition":"contingent","relevant_dimensions":["wings","pattern"],"bee_group":{"antennae":"X","wings":"2","pattern":"S","legs":"X"},"action":"avoid","summary":"good-avoid","bonus":1.280000000000001},{"rt":1610.9000000003725,"stimulus":"\n                    <p><b>Action: <em>avoid</em></b></p>\n                    <p>This is the bee that you just saw.</p>\n                    <img src=\"bees-with-color/bee-A2SF.svg\" width=\"200\">\n                    <p><br>Your bonus pay is unchanged, and remains at $0.86.</p>\n            ","response":0,"trial_type":"html-button-response","trial_index":110,"time_elapsed":394675,"internal_node_id":"0.0-4.0-1.51","subject_id":"613a24c421e8910a6ab8234d","study_id":"6197b3f67c2b5cd3b6d9596a","session_id":"619beef13f51543f4083cd7e","condition":"contingent","relevant_dimensions":["wings","pattern"],"bee_group":{"antennae":"X","wings":"2","pattern":"S","legs":"X"},"bonus":1.280000000000001},{"rt":1247.2000000011176,"stimulus":"bees-with-color/bee-B1SF.svg","response":0,"trial_type":"image-button-response","trial_index":111,"time_elapsed":395924,"internal_node_id":"0.0-4.0-0.52","subject_id":"613a24c421e8910a6ab8234d","study_id":"6197b3f67c2b5cd3b6d9596a","session_id":"619beef13f51543f4083cd7e","condition":"contingent","relevant_dimensions":["wings","pattern"],"bee_group":{"antennae":"X","wings":"2","pattern":"S","legs":"X"},"action":"harvest","summary":"good-harvest","bonus":1.280000000000001},{"rt":1543.4000000003725,"stimulus":"\n                    <p><b>Action: <em>harvest</em></b></p>\n                    <p>This is the bee that you just saw.</p>\n                    <img src=\"bees-with-color/bee-B1SF.svg\" width=\"200\">\n                    <p><span class=\"greenText\"><b>Successful harvest!</b></span><br>Your pay has increased by $0.02. Your bonus pay is now $0.88.</p>\n            ","response":0,"trial_type":"html-button-response","trial_index":112,"time_elapsed":397471,"internal_node_id":"0.0-4.0-1.52","subject_id":"613a24c421e8910a6ab8234d","study_id":"6197b3f67c2b5cd3b6d9596a","session_id":"619beef13f51543f4083cd7e","condition":"contingent","relevant_dimensions":["wings","pattern"],"bee_group":{"antennae":"X","wings":"2","pattern":"S","legs":"X"},"bonus":1.280000000000001},{"rt":899.1999999992549,"stimulus":"bees-with-color/bee-A1DM.svg","response":1,"trial_type":"image-button-response","trial_index":113,"time_elapsed":398373,"internal_node_id":"0.0-4.0-0.53","subject_id":"613a24c421e8910a6ab8234d","study_id":"6197b3f67c2b5cd3b6d9596a","session_id":"619beef13f51543f4083cd7e","condition":"contingent","relevant_dimensions":["wings","pattern"],"bee_group":{"antennae":"X","wings":"2","pattern":"S","legs":"X"},"action":"avoid","summary":"bad-avoid","bonus":1.280000000000001},{"rt":1720.9000000003725,"stimulus":"\n                    <p><b>Action: <em>avoid</em></b></p>\n                    <p>This is the bee that you just saw.</p>\n                    <img src=\"bees-with-color/bee-A1DM.svg\" width=\"200\">\n                    <p><br>Your bonus pay is unchanged, and remains at $0.88.</p>\n            ","response":0,"trial_type":"html-button-response","trial_index":114,"time_elapsed":400097,"internal_node_id":"0.0-4.0-1.53","subject_id":"613a24c421e8910a6ab8234d","study_id":"6197b3f67c2b5cd3b6d9596a","session_id":"619beef13f51543f4083cd7e","condition":"contingent","relevant_dimensions":["wings","pattern"],"bee_group":{"antennae":"X","wings":"2","pattern":"S","legs":"X"},"bonus":1.280000000000001},{"rt":1045.9000000003725,"stimulus":"bees-with-color/bee-B1SM.svg","response":0,"trial_type":"image-button-response","trial_index":115,"time_elapsed":401145,"internal_node_id":"0.0-4.0-0.54","subject_id":"613a24c421e8910a6ab8234d","study_id":"6197b3f67c2b5cd3b6d9596a","session_id":"619beef13f51543f4083cd7e","condition":"contingent","relevant_dimensions":["wings","pattern"],"bee_group":{"antennae":"X","wings":"2","pattern":"S","legs":"X"},"action":"harvest","summary":"good-harvest","bonus":1.280000000000001},{"rt":1076.300000000745,"stimulus":"\n                    <p><b>Action: <em>harvest</em></b></p>\n                    <p>This is the bee that you just saw.</p>\n                    <img src=\"bees-with-color/bee-B1SM.svg\" width=\"200\">\n                    <p><span class=\"greenText\"><b>Successful harvest!</b></span><br>Your pay has increased by $0.02. Your bonus pay is now $0.90.</p>\n            ","response":0,"trial_type":"html-button-response","trial_index":116,"time_elapsed":402225,"internal_node_id":"0.0-4.0-1.54","subject_id":"613a24c421e8910a6ab8234d","study_id":"6197b3f67c2b5cd3b6d9596a","session_id":"619beef13f51543f4083cd7e","condition":"contingent","relevant_dimensions":["wings","pattern"],"bee_group":{"antennae":"X","wings":"2","pattern":"S","legs":"X"},"bonus":1.280000000000001},{"rt":1170.800000000745,"stimulus":"bees-with-color/bee-A2DM.svg","response":1,"trial_type":"image-button-response","trial_index":117,"time_elapsed":403398,"internal_node_id":"0.0-4.0-0.55","subject_id":"613a24c421e8910a6ab8234d","study_id":"6197b3f67c2b5cd3b6d9596a","session_id":"619beef13f51543f4083cd7e","condition":"contingent","relevant_dimensions":["wings","pattern"],"bee_group":{"antennae":"X","wings":"2","pattern":"S","legs":"X"},"action":"avoid","summary":"bad-avoid","bonus":1.280000000000001},{"rt":1025,"stimulus":"\n                    <p><b>Action: <em>avoid</em></b></p>\n                    <p>This is the bee that you just saw.</p>\n                    <img src=\"bees-with-color/bee-A2DM.svg\" width=\"200\">\n                    <p><br>Your bonus pay is unchanged, and remains at $0.90.</p>\n            ","response":0,"trial_type":"html-button-response","trial_index":118,"time_elapsed":404426,"internal_node_id":"0.0-4.0-1.55","subject_id":"613a24c421e8910a6ab8234d","study_id":"6197b3f67c2b5cd3b6d9596a","session_id":"619beef13f51543f4083cd7e","condition":"contingent","relevant_dimensions":["wings","pattern"],"bee_group":{"antennae":"X","wings":"2","pattern":"S","legs":"X"},"bonus":1.280000000000001},{"rt":1956.7000000011176,"stimulus":"bees-with-color/bee-B2DF.svg","response":1,"trial_type":"image-button-response","trial_index":119,"time_elapsed":406385,"internal_node_id":"0.0-4.0-0.56","subject_id":"613a24c421e8910a6ab8234d","study_id":"6197b3f67c2b5cd3b6d9596a","session_id":"619beef13f51543f4083cd7e","condition":"contingent","relevant_dimensions":["wings","pattern"],"bee_group":{"antennae":"X","wings":"2","pattern":"S","legs":"X"},"action":"avoid","summary":"bad-avoid","bonus":1.280000000000001},{"rt":1212.7000000011176,"stimulus":"\n                    <p><b>Action: <em>avoid</em></b></p>\n                    <p>This is the bee that you just saw.</p>\n                    <img src=\"bees-with-color/bee-B2DF.svg\" width=\"200\">\n                    <p><br>Your bonus pay is unchanged, and remains at $0.90.</p>\n            ","response":0,"trial_type":"html-button-response","trial_index":120,"time_elapsed":407601,"internal_node_id":"0.0-4.0-1.56","subject_id":"613a24c421e8910a6ab8234d","study_id":"6197b3f67c2b5cd3b6d9596a","session_id":"619beef13f51543f4083cd7e","condition":"contingent","relevant_dimensions":["wings","pattern"],"bee_group":{"antennae":"X","wings":"2","pattern":"S","legs":"X"},"bonus":1.280000000000001},{"rt":1237,"stimulus":"bees-with-color/bee-A1DF.svg","response":0,"trial_type":"image-button-response","trial_index":121,"time_elapsed":408840,"internal_node_id":"0.0-4.0-0.57","subject_id":"613a24c421e8910a6ab8234d","study_id":"6197b3f67c2b5cd3b6d9596a","session_id":"619beef13f51543f4083cd7e","condition":"contingent","relevant_dimensions":["wings","pattern"],"bee_group":{"antennae":"X","wings":"2","pattern":"S","legs":"X"},"action":"harvest","summary":"good-harvest","bonus":1.280000000000001},{"rt":1881.300000000745,"stimulus":"\n                    <p><b>Action: <em>harvest</em></b></p>\n                    <p>This is the bee that you just saw.</p>\n                    <img src=\"bees-with-color/bee-A1DF.svg\" width=\"200\">\n                    <p><span class=\"greenText\"><b>Successful harvest!</b></span><br>Your pay has increased by $0.02. Your bonus pay is now $0.92.</p>\n            ","response":0,"trial_type":"html-button-response","trial_index":122,"time_elapsed":410724,"internal_node_id":"0.0-4.0-1.57","subject_id":"613a24c421e8910a6ab8234d","study_id":"6197b3f67c2b5cd3b6d9596a","session_id":"619beef13f51543f4083cd7e","condition":"contingent","relevant_dimensions":["wings","pattern"],"bee_group":{"antennae":"X","wings":"2","pattern":"S","legs":"X"},"bonus":1.280000000000001},{"rt":1048.9000000003725,"stimulus":"bees-with-color/bee-A1SM.svg","response":0,"trial_type":"image-button-response","trial_index":123,"time_elapsed":411776,"internal_node_id":"0.0-4.0-0.58","subject_id":"613a24c421e8910a6ab8234d","study_id":"6197b3f67c2b5cd3b6d9596a","session_id":"619beef13f51543f4083cd7e","condition":"contingent","relevant_dimensions":["wings","pattern"],"bee_group":{"antennae":"X","wings":"2","pattern":"S","legs":"X"},"action":"harvest","summary":"good-harvest","bonus":1.280000000000001},{"rt":1085,"stimulus":"\n                    <p><b>Action: <em>harvest</em></b></p>\n                    <p>This is the bee that you just saw.</p>\n                    <img src=\"bees-with-color/bee-A1SM.svg\" width=\"200\">\n                    <p><span class=\"greenText\"><b>Successful harvest!</b></span><br>Your pay has increased by $0.02. Your bonus pay is now $0.94.</p>\n            ","response":0,"trial_type":"html-button-response","trial_index":124,"time_elapsed":412864,"internal_node_id":"0.0-4.0-1.58","subject_id":"613a24c421e8910a6ab8234d","study_id":"6197b3f67c2b5cd3b6d9596a","session_id":"619beef13f51543f4083cd7e","condition":"contingent","relevant_dimensions":["wings","pattern"],"bee_group":{"antennae":"X","wings":"2","pattern":"S","legs":"X"},"bonus":1.280000000000001},{"rt":1189.699999999255,"stimulus":"bees-with-color/bee-A2DF.svg","response":1,"trial_type":"image-button-response","trial_index":125,"time_elapsed":414056,"internal_node_id":"0.0-4.0-0.59","subject_id":"613a24c421e8910a6ab8234d","study_id":"6197b3f67c2b5cd3b6d9596a","session_id":"619beef13f51543f4083cd7e","condition":"contingent","relevant_dimensions":["wings","pattern"],"bee_group":{"antennae":"X","wings":"2","pattern":"S","legs":"X"},"action":"avoid","summary":"bad-avoid","bonus":1.280000000000001},{"rt":889.1999999992549,"stimulus":"\n                    <p><b>Action: <em>avoid</em></b></p>\n                    <p>This is the bee that you just saw.</p>\n                    <img src=\"bees-with-color/bee-A2DF.svg\" width=\"200\">\n                    <p><br>Your bonus pay is unchanged, and remains at $0.94.</p>\n            ","response":0,"trial_type":"html-button-response","trial_index":126,"time_elapsed":414949,"internal_node_id":"0.0-4.0-1.59","subject_id":"613a24c421e8910a6ab8234d","study_id":"6197b3f67c2b5cd3b6d9596a","session_id":"619beef13f51543f4083cd7e","condition":"contingent","relevant_dimensions":["wings","pattern"],"bee_group":{"antennae":"X","wings":"2","pattern":"S","legs":"X"},"bonus":1.280000000000001},{"rt":997,"stimulus":"bees-with-color/bee-B1DF.svg","response":0,"trial_type":"image-button-response","trial_index":127,"time_elapsed":415949,"internal_node_id":"0.0-4.0-0.60","subject_id":"613a24c421e8910a6ab8234d","study_id":"6197b3f67c2b5cd3b6d9596a","session_id":"619beef13f51543f4083cd7e","condition":"contingent","relevant_dimensions":["wings","pattern"],"bee_group":{"antennae":"X","wings":"2","pattern":"S","legs":"X"},"action":"harvest","summary":"good-harvest","bonus":1.280000000000001},{"rt":1026.0999999996275,"stimulus":"\n                    <p><b>Action: <em>harvest</em></b></p>\n                    <p>This is the bee that you just saw.</p>\n                    <img src=\"bees-with-color/bee-B1DF.svg\" width=\"200\">\n                    <p><span class=\"greenText\"><b>Successful harvest!</b></span><br>Your pay has increased by $0.02. Your bonus pay is now $0.96.</p>\n            ","response":0,"trial_type":"html-button-response","trial_index":128,"time_elapsed":416977,"internal_node_id":"0.0-4.0-1.60","subject_id":"613a24c421e8910a6ab8234d","study_id":"6197b3f67c2b5cd3b6d9596a","session_id":"619beef13f51543f4083cd7e","condition":"contingent","relevant_dimensions":["wings","pattern"],"bee_group":{"antennae":"X","wings":"2","pattern":"S","legs":"X"},"bonus":1.280000000000001},{"rt":1402.300000000745,"stimulus":"bees-with-color/bee-B2DM.svg","response":1,"trial_type":"image-button-response","trial_index":129,"time_elapsed":418383,"internal_node_id":"0.0-4.0-0.61","subject_id":"613a24c421e8910a6ab8234d","study_id":"6197b3f67c2b5cd3b6d9596a","session_id":"619beef13f51543f4083cd7e","condition":"contingent","relevant_dimensions":["wings","pattern"],"bee_group":{"antennae":"X","wings":"2","pattern":"S","legs":"X"},"action":"avoid","summary":"bad-avoid","bonus":1.280000000000001},{"rt":1059,"stimulus":"\n                    <p><b>Action: <em>avoid</em></b></p>\n                    <p>This is the bee that you just saw.</p>\n                    <img src=\"bees-with-color/bee-B2DM.svg\" width=\"200\">\n                    <p><br>Your bonus pay is unchanged, and remains at $0.96.</p>\n            ","response":0,"trial_type":"html-button-response","trial_index":130,"time_elapsed":419445,"internal_node_id":"0.0-4.0-1.61","subject_id":"613a24c421e8910a6ab8234d","study_id":"6197b3f67c2b5cd3b6d9596a","session_id":"619beef13f51543f4083cd7e","condition":"contingent","relevant_dimensions":["wings","pattern"],"bee_group":{"antennae":"X","wings":"2","pattern":"S","legs":"X"},"bonus":1.280000000000001},{"rt":1344,"stimulus":"bees-with-color/bee-B2SM.svg","response":1,"trial_type":"image-button-response","trial_index":131,"time_elapsed":420792,"internal_node_id":"0.0-4.0-0.62","subject_id":"613a24c421e8910a6ab8234d","study_id":"6197b3f67c2b5cd3b6d9596a","session_id":"619beef13f51543f4083cd7e","condition":"contingent","relevant_dimensions":["wings","pattern"],"bee_group":{"antennae":"X","wings":"2","pattern":"S","legs":"X"},"action":"avoid","summary":"good-avoid","bonus":1.280000000000001},{"rt":1115.2999999988824,"stimulus":"\n                    <p><b>Action: <em>avoid</em></b></p>\n                    <p>This is the bee that you just saw.</p>\n                    <img src=\"bees-with-color/bee-B2SM.svg\" width=\"200\">\n                    <p><br>Your bonus pay is unchanged, and remains at $0.96.</p>\n            ","response":0,"trial_type":"html-button-response","trial_index":132,"time_elapsed":421910,"internal_node_id":"0.0-4.0-1.62","subject_id":"613a24c421e8910a6ab8234d","study_id":"6197b3f67c2b5cd3b6d9596a","session_id":"619beef13f51543f4083cd7e","condition":"contingent","relevant_dimensions":["wings","pattern"],"bee_group":{"antennae":"X","wings":"2","pattern":"S","legs":"X"},"bonus":1.280000000000001},{"rt":1186.699999999255,"stimulus":"bees-with-color/bee-A2SM.svg","response":1,"trial_type":"image-button-response","trial_index":133,"time_elapsed":423099,"internal_node_id":"0.0-4.0-0.63","subject_id":"613a24c421e8910a6ab8234d","study_id":"6197b3f67c2b5cd3b6d9596a","session_id":"619beef13f51543f4083cd7e","condition":"contingent","relevant_dimensions":["wings","pattern"],"bee_group":{"antennae":"X","wings":"2","pattern":"S","legs":"X"},"action":"avoid","summary":"good-avoid","bonus":1.280000000000001},{"rt":987.0999999996275,"stimulus":"\n                    <p><b>Action: <em>avoid</em></b></p>\n                    <p>This is the bee that you just saw.</p>\n                    <img src=\"bees-with-color/bee-A2SM.svg\" width=\"200\">\n                    <p><br>Your bonus pay is unchanged, and remains at $0.96.</p>\n            ","response":0,"trial_type":"html-button-response","trial_index":134,"time_elapsed":424092,"internal_node_id":"0.0-4.0-1.63","subject_id":"613a24c421e8910a6ab8234d","study_id":"6197b3f67c2b5cd3b6d9596a","session_id":"619beef13f51543f4083cd7e","condition":"contingent","relevant_dimensions":["wings","pattern"],"bee_group":{"antennae":"X","wings":"2","pattern":"S","legs":"X"},"bonus":1.280000000000001},{"rt":8350.599999999627,"stimulus":"You have completed the first part of this experiment.<br><br>You will now begin a shorter second part, in which you will receive no feedback.<br>The same rules regarding bonus pay apply.<br><br>Press any key to begin.","response":" ","trial_type":"html-keyboard-response","trial_index":135,"time_elapsed":432446,"internal_node_id":"0.0-5.0","subject_id":"613a24c421e8910a6ab8234d","study_id":"6197b3f67c2b5cd3b6d9596a","session_id":"619beef13f51543f4083cd7e","condition":"contingent","relevant_dimensions":["wings","pattern"],"bee_group":{"antennae":"X","wings":"2","pattern":"S","legs":"X"},"bonus":1.280000000000001},{"rt":1477.4000000003725,"stimulus":"bees-with-color/bee-B1DM.svg","response":0,"trial_type":"image-button-response","trial_index":136,"time_elapsed":433942,"internal_node_id":"0.0-6.0-0.0","subject_id":"613a24c421e8910a6ab8234d","study_id":"6197b3f67c2b5cd3b6d9596a","session_id":"619beef13f51543f4083cd7e","condition":"contingent","relevant_dimensions":["wings","pattern"],"bee_group":{"antennae":"X","wings":"2","pattern":"S","legs":"X"},"bonus":1.280000000000001},{"rt":1661.0999999996275,"stimulus":"bees-with-color/bee-B2DF.svg","response":1,"trial_type":"image-button-response","trial_index":137,"time_elapsed":435607,"internal_node_id":"0.0-6.0-0.1","subject_id":"613a24c421e8910a6ab8234d","study_id":"6197b3f67c2b5cd3b6d9596a","session_id":"619beef13f51543f4083cd7e","condition":"contingent","relevant_dimensions":["wings","pattern"],"bee_group":{"antennae":"X","wings":"2","pattern":"S","legs":"X"},"bonus":1.280000000000001},{"rt":949.5,"stimulus":"bees-with-color/bee-A1DF.svg","response":0,"trial_type":"image-button-response","trial_index":138,"time_elapsed":436561,"internal_node_id":"0.0-6.0-0.2","subject_id":"613a24c421e8910a6ab8234d","study_id":"6197b3f67c2b5cd3b6d9596a","session_id":"619beef13f51543f4083cd7e","condition":"contingent","relevant_dimensions":["wings","pattern"],"bee_group":{"antennae":"X","wings":"2","pattern":"S","legs":"X"},"bonus":1.280000000000001},{"rt":1047.5,"stimulus":"bees-with-color/bee-A1SM.svg","response":0,"trial_type":"image-button-response","trial_index":139,"time_elapsed":437614,"internal_node_id":"0.0-6.0-0.3","subject_id":"613a24c421e8910a6ab8234d","study_id":"6197b3f67c2b5cd3b6d9596a","session_id":"619beef13f51543f4083cd7e","condition":"contingent","relevant_dimensions":["wings","pattern"],"bee_group":{"antennae":"X","wings":"2","pattern":"S","legs":"X"},"bonus":1.280000000000001},{"rt":1629.7000000011176,"stimulus":"bees-with-color/bee-B2SM.svg","response":1,"trial_type":"image-button-response","trial_index":140,"time_elapsed":439248,"internal_node_id":"0.0-6.0-0.4","subject_id":"613a24c421e8910a6ab8234d","study_id":"6197b3f67c2b5cd3b6d9596a","session_id":"619beef13f51543f4083cd7e","condition":"contingent","relevant_dimensions":["wings","pattern"],"bee_group":{"antennae":"X","wings":"2","pattern":"S","legs":"X"},"bonus":1.280000000000001},{"rt":912.5999999996275,"stimulus":"bees-with-color/bee-B1DF.svg","response":0,"trial_type":"image-button-response","trial_index":141,"time_elapsed":440164,"internal_node_id":"0.0-6.0-0.5","subject_id":"613a24c421e8910a6ab8234d","study_id":"6197b3f67c2b5cd3b6d9596a","session_id":"619beef13f51543f4083cd7e","condition":"contingent","relevant_dimensions":["wings","pattern"],"bee_group":{"antennae":"X","wings":"2","pattern":"S","legs":"X"},"bonus":1.280000000000001},{"rt":1192.1000000014901,"stimulus":"bees-with-color/bee-A2SM.svg","response":1,"trial_type":"image-button-response","trial_index":142,"time_elapsed":441360,"internal_node_id":"0.0-6.0-0.6","subject_id":"613a24c421e8910a6ab8234d","study_id":"6197b3f67c2b5cd3b6d9596a","session_id":"619beef13f51543f4083cd7e","condition":"contingent","relevant_dimensions":["wings","pattern"],"bee_group":{"antennae":"X","wings":"2","pattern":"S","legs":"X"},"bonus":1.280000000000001},{"rt":855.5999999996275,"stimulus":"bees-with-color/bee-A1DM.svg","response":0,"trial_type":"image-button-response","trial_index":143,"time_elapsed":442221,"internal_node_id":"0.0-6.0-0.7","subject_id":"613a24c421e8910a6ab8234d","study_id":"6197b3f67c2b5cd3b6d9596a","session_id":"619beef13f51543f4083cd7e","condition":"contingent","relevant_dimensions":["wings","pattern"],"bee_group":{"antennae":"X","wings":"2","pattern":"S","legs":"X"},"bonus":1.280000000000001},{"rt":1191.2000000011176,"stimulus":"bees-with-color/bee-A2DF.svg","response":1,"trial_type":"image-button-response","trial_index":144,"time_elapsed":443416,"internal_node_id":"0.0-6.0-0.8","subject_id":"613a24c421e8910a6ab8234d","study_id":"6197b3f67c2b5cd3b6d9596a","session_id":"619beef13f51543f4083cd7e","condition":"contingent","relevant_dimensions":["wings","pattern"],"bee_group":{"antennae":"X","wings":"2","pattern":"S","legs":"X"},"bonus":1.280000000000001},{"rt":844.6999999992549,"stimulus":"bees-with-color/bee-B1SF.svg","response":0,"trial_type":"image-button-response","trial_index":145,"time_elapsed":444265,"internal_node_id":"0.0-6.0-0.9","subject_id":"613a24c421e8910a6ab8234d","study_id":"6197b3f67c2b5cd3b6d9596a","session_id":"619beef13f51543f4083cd7e","condition":"contingent","relevant_dimensions":["wings","pattern"],"bee_group":{"antennae":"X","wings":"2","pattern":"S","legs":"X"},"bonus":1.280000000000001},{"rt":1001.1999999992549,"stimulus":"bees-with-color/bee-B2DM.svg","response":1,"trial_type":"image-button-response","trial_index":146,"time_elapsed":445270,"internal_node_id":"0.0-6.0-0.10","subject_id":"613a24c421e8910a6ab8234d","study_id":"6197b3f67c2b5cd3b6d9596a","session_id":"619beef13f51543f4083cd7e","condition":"contingent","relevant_dimensions":["wings","pattern"],"bee_group":{"antennae":"X","wings":"2","pattern":"S","legs":"X"},"bonus":1.280000000000001},{"rt":1104.2999999988824,"stimulus":"bees-with-color/bee-B2SF.svg","response":1,"trial_type":"image-button-response","trial_index":147,"time_elapsed":446378,"internal_node_id":"0.0-6.0-0.11","subject_id":"613a24c421e8910a6ab8234d","study_id":"6197b3f67c2b5cd3b6d9596a","session_id":"619beef13f51543f4083cd7e","condition":"contingent","relevant_dimensions":["wings","pattern"],"bee_group":{"antennae":"X","wings":"2","pattern":"S","legs":"X"},"bonus":1.280000000000001},{"rt":662.2999999988824,"stimulus":"bees-with-color/bee-A2DM.svg","response":1,"trial_type":"image-button-response","trial_index":148,"time_elapsed":447047,"internal_node_id":"0.0-6.0-0.12","subject_id":"613a24c421e8910a6ab8234d","study_id":"6197b3f67c2b5cd3b6d9596a","session_id":"619beef13f51543f4083cd7e","condition":"contingent","relevant_dimensions":["wings","pattern"],"bee_group":{"antennae":"X","wings":"2","pattern":"S","legs":"X"},"bonus":1.280000000000001},{"rt":1029.4000000003725,"stimulus":"bees-with-color/bee-A1SF.svg","response":0,"trial_type":"image-button-response","trial_index":149,"time_elapsed":448080,"internal_node_id":"0.0-6.0-0.13","subject_id":"613a24c421e8910a6ab8234d","study_id":"6197b3f67c2b5cd3b6d9596a","session_id":"619beef13f51543f4083cd7e","condition":"contingent","relevant_dimensions":["wings","pattern"],"bee_group":{"antennae":"X","wings":"2","pattern":"S","legs":"X"},"bonus":1.280000000000001},{"rt":1009.5999999996275,"stimulus":"bees-with-color/bee-A2SF.svg","response":1,"trial_type":"image-button-response","trial_index":150,"time_elapsed":449094,"internal_node_id":"0.0-6.0-0.14","subject_id":"613a24c421e8910a6ab8234d","study_id":"6197b3f67c2b5cd3b6d9596a","session_id":"619beef13f51543f4083cd7e","condition":"contingent","relevant_dimensions":["wings","pattern"],"bee_group":{"antennae":"X","wings":"2","pattern":"S","legs":"X"},"bonus":1.280000000000001},{"rt":1642.8999999985099,"stimulus":"bees-with-color/bee-B1SM.svg","response":0,"trial_type":"image-button-response","trial_index":151,"time_elapsed":450743,"internal_node_id":"0.0-6.0-0.15","subject_id":"613a24c421e8910a6ab8234d","study_id":"6197b3f67c2b5cd3b6d9596a","session_id":"619beef13f51543f4083cd7e","condition":"contingent","relevant_dimensions":["wings","pattern"],"bee_group":{"antennae":"X","wings":"2","pattern":"S","legs":"X"},"bonus":1.280000000000001},{"rt":763.7999999988824,"stimulus":"bees-with-color/bee-B1SF.svg","response":0,"trial_type":"image-button-response","trial_index":152,"time_elapsed":451510,"internal_node_id":"0.0-6.0-0.16","subject_id":"613a24c421e8910a6ab8234d","study_id":"6197b3f67c2b5cd3b6d9596a","session_id":"619beef13f51543f4083cd7e","condition":"contingent","relevant_dimensions":["wings","pattern"],"bee_group":{"antennae":"X","wings":"2","pattern":"S","legs":"X"},"bonus":1.280000000000001},{"rt":1091.5,"stimulus":"bees-with-color/bee-B2DM.svg","response":1,"trial_type":"image-button-response","trial_index":153,"time_elapsed":452604,"internal_node_id":"0.0-6.0-0.17","subject_id":"613a24c421e8910a6ab8234d","study_id":"6197b3f67c2b5cd3b6d9596a","session_id":"619beef13f51543f4083cd7e","condition":"contingent","relevant_dimensions":["wings","pattern"],"bee_group":{"antennae":"X","wings":"2","pattern":"S","legs":"X"},"bonus":1.280000000000001},{"rt":1855.0999999996275,"stimulus":"bees-with-color/bee-B2DF.svg","response":1,"trial_type":"image-button-response","trial_index":154,"time_elapsed":454462,"internal_node_id":"0.0-6.0-0.18","subject_id":"613a24c421e8910a6ab8234d","study_id":"6197b3f67c2b5cd3b6d9596a","session_id":"619beef13f51543f4083cd7e","condition":"contingent","relevant_dimensions":["wings","pattern"],"bee_group":{"antennae":"X","wings":"2","pattern":"S","legs":"X"},"bonus":1.280000000000001},{"rt":1075.5,"stimulus":"bees-with-color/bee-B1DF.svg","response":0,"trial_type":"image-button-response","trial_index":155,"time_elapsed":455544,"internal_node_id":"0.0-6.0-0.19","subject_id":"613a24c421e8910a6ab8234d","study_id":"6197b3f67c2b5cd3b6d9596a","session_id":"619beef13f51543f4083cd7e","condition":"contingent","relevant_dimensions":["wings","pattern"],"bee_group":{"antennae":"X","wings":"2","pattern":"S","legs":"X"},"bonus":1.280000000000001},{"rt":1954.7000000011176,"stimulus":"bees-with-color/bee-A1SM.svg","response":0,"trial_type":"image-button-response","trial_index":156,"time_elapsed":457504,"internal_node_id":"0.0-6.0-0.20","subject_id":"613a24c421e8910a6ab8234d","study_id":"6197b3f67c2b5cd3b6d9596a","session_id":"619beef13f51543f4083cd7e","condition":"contingent","relevant_dimensions":["wings","pattern"],"bee_group":{"antennae":"X","wings":"2","pattern":"S","legs":"X"},"bonus":1.280000000000001},{"rt":1658.699999999255,"stimulus":"bees-with-color/bee-A2SM.svg","response":1,"trial_type":"image-button-response","trial_index":157,"time_elapsed":459166,"internal_node_id":"0.0-6.0-0.21","subject_id":"613a24c421e8910a6ab8234d","study_id":"6197b3f67c2b5cd3b6d9596a","session_id":"619beef13f51543f4083cd7e","condition":"contingent","relevant_dimensions":["wings","pattern"],"bee_group":{"antennae":"X","wings":"2","pattern":"S","legs":"X"},"bonus":1.280000000000001},{"rt":1425.9000000003725,"stimulus":"bees-with-color/bee-A2SF.svg","response":1,"trial_type":"image-button-response","trial_index":158,"time_elapsed":460595,"internal_node_id":"0.0-6.0-0.22","subject_id":"613a24c421e8910a6ab8234d","study_id":"6197b3f67c2b5cd3b6d9596a","session_id":"619beef13f51543f4083cd7e","condition":"contingent","relevant_dimensions":["wings","pattern"],"bee_group":{"antennae":"X","wings":"2","pattern":"S","legs":"X"},"bonus":1.280000000000001},{"rt":1240.5999999996275,"stimulus":"bees-with-color/bee-A1DM.svg","response":0,"trial_type":"image-button-response","trial_index":159,"time_elapsed":461842,"internal_node_id":"0.0-6.0-0.23","subject_id":"613a24c421e8910a6ab8234d","study_id":"6197b3f67c2b5cd3b6d9596a","session_id":"619beef13f51543f4083cd7e","condition":"contingent","relevant_dimensions":["wings","pattern"],"bee_group":{"antennae":"X","wings":"2","pattern":"S","legs":"X"},"bonus":1.280000000000001},{"rt":1270.0999999996275,"stimulus":"bees-with-color/bee-A1SF.svg","response":0,"trial_type":"image-button-response","trial_index":160,"time_elapsed":463116,"internal_node_id":"0.0-6.0-0.24","subject_id":"613a24c421e8910a6ab8234d","study_id":"6197b3f67c2b5cd3b6d9596a","session_id":"619beef13f51543f4083cd7e","condition":"contingent","relevant_dimensions":["wings","pattern"],"bee_group":{"antennae":"X","wings":"2","pattern":"S","legs":"X"},"bonus":1.280000000000001},{"rt":1186.6000000014901,"stimulus":"bees-with-color/bee-A2DM.svg","response":1,"trial_type":"image-button-response","trial_index":161,"time_elapsed":464305,"internal_node_id":"0.0-6.0-0.25","subject_id":"613a24c421e8910a6ab8234d","study_id":"6197b3f67c2b5cd3b6d9596a","session_id":"619beef13f51543f4083cd7e","condition":"contingent","relevant_dimensions":["wings","pattern"],"bee_group":{"antennae":"X","wings":"2","pattern":"S","legs":"X"},"bonus":1.280000000000001},{"rt":1536.0999999996275,"stimulus":"bees-with-color/bee-B2SM.svg","response":1,"trial_type":"image-button-response","trial_index":162,"time_elapsed":465844,"internal_node_id":"0.0-6.0-0.26","subject_id":"613a24c421e8910a6ab8234d","study_id":"6197b3f67c2b5cd3b6d9596a","session_id":"619beef13f51543f4083cd7e","condition":"contingent","relevant_dimensions":["wings","pattern"],"bee_group":{"antennae":"X","wings":"2","pattern":"S","legs":"X"},"bonus":1.280000000000001},{"rt":1025.699999999255,"stimulus":"bees-with-color/bee-B1DM.svg","response":0,"trial_type":"image-button-response","trial_index":163,"time_elapsed":466874,"internal_node_id":"0.0-6.0-0.27","subject_id":"613a24c421e8910a6ab8234d","study_id":"6197b3f67c2b5cd3b6d9596a","session_id":"619beef13f51543f4083cd7e","condition":"contingent","relevant_dimensions":["wings","pattern"],"bee_group":{"antennae":"X","wings":"2","pattern":"S","legs":"X"},"bonus":1.280000000000001},{"rt":1258.800000000745,"stimulus":"bees-with-color/bee-B2SF.svg","response":1,"trial_type":"image-button-response","trial_index":164,"time_elapsed":468136,"internal_node_id":"0.0-6.0-0.28","subject_id":"613a24c421e8910a6ab8234d","study_id":"6197b3f67c2b5cd3b6d9596a","session_id":"619beef13f51543f4083cd7e","condition":"contingent","relevant_dimensions":["wings","pattern"],"bee_group":{"antennae":"X","wings":"2","pattern":"S","legs":"X"},"bonus":1.280000000000001},{"rt":1182.0999999996275,"stimulus":"bees-with-color/bee-A2DF.svg","res