[{"success":true,"trial_type":"fullscreen","trial_index":0,"time_elapsed":287407,"internal_node_id":"0.0-0.0","subject_id":"5f3b95fb505d7b2d3840293c","study_id":"6197b3f67c2b5cd3b6d9596a","session_id":"619bef0506ef00125c651558","condition":"full-information","relevant_dimensions":["wings","pattern"],"bee_group":{"antennae":"X","wings":"2","pattern":"S","legs":"X"},"bonus":0.920000000000001},{"success":true,"timeout":false,"failed_images":[],"failed_audio":[],"failed_video":[],"trial_type":"preload","trial_index":1,"time_elapsed":289553,"internal_node_id":"0.0-1.0","subject_id":"5f3b95fb505d7b2d3840293c","study_id":"6197b3f67c2b5cd3b6d9596a","session_id":"619bef0506ef00125c651558","condition":"full-information","relevant_dimensions":["wings","pattern"],"bee_group":{"antennae":"X","wings":"2","pattern":"S","legs":"X"},"bonus":0.920000000000001},{"rt":2007.2999997138977,"stimulus":"Welcome! Press any key to begin.","response":" ","trial_type":"html-keyboard-response","trial_index":2,"time_elapsed":291568,"internal_node_id":"0.0-2.0","subject_id":"5f3b95fb505d7b2d3840293c","study_id":"6197b3f67c2b5cd3b6d9596a","session_id":"619bef0506ef00125c651558","condition":"full-information","relevant_dimensions":["wings","pattern"],"bee_group":{"antennae":"X","wings":"2","pattern":"S","legs":"X"},"bonus":0.920000000000001},{"view_history":[{"page_index":0,"viewing_time":5431.799999713898},{"page_index":1,"viewing_time":12202.60000038147},{"page_index":2,"viewing_time":22856.5},{"page_index":3,"viewing_time":12299},{"page_index":4,"viewing_time":9682.39999961853},{"page_index":5,"viewing_time":6952.400000095367},{"page_index":6,"viewing_time":14297.200000286102},{"page_index":7,"viewing_time":7321},{"page_index":8,"viewing_time":3702.699999809265},{"page_index":9,"viewing_time":4801.800000190735},{"page_index":10,"viewing_time":3110.0999999046326},{"page_index":11,"viewing_time":8556.599999904633},{"page_index":12,"viewing_time":13654.199999809265},{"page_index":13,"viewing_time":2105.7000002861023},{"page_index":14,"viewing_time":3591.9000000953674}],"rt":130570.09999990463,"trial_type":"instructions","trial_index":3,"time_elapsed":422141,"internal_node_id":"0.0-3.0-0.0","subject_id":"5f3b95fb505d7b2d3840293c","study_id":"6197b3f67c2b5cd3b6d9596a","session_id":"619bef0506ef00125c651558","condition":"full-information","relevant_dimensions":["wings","pattern"],"bee_group":{"antennae":"X","wings":"2","pattern":"S","legs":"X"},"bonus":0.920000000000001},{"rt":15638.400000095367,"response":{"Q0":["Two or six legs","Stripes or spots on body","Single or double wings","Antennae or no antennae"]},"question_order":[0],"trial_type":"survey-multi-select","trial_index":4,"time_elapsed":437823,"internal_node_id":"0.0-3.0-1.0","subject_id":"5f3b95fb505d7b2d3840293c","study_id":"6197b3f67c2b5cd3b6d9596a","session_id":"619bef0506ef00125c651558","condition":"full-information","relevant_dimensions":["wings","pattern"],"bee_group":{"antennae":"X","wings":"2","pattern":"S","legs":"X"},"correct":true,"bonus":0.920000000000001},{"rt":20893.099999904633,"response":{"Q1":"Yes.","Q2":"Based on the four features of the bee.","Q3":"You learn if it was friendly or dangerous, but do not alter your bonus."},"question_order":[0,1,2],"trial_type":"survey-multi-choice","trial_index":5,"time_elapsed":458752,"internal_node_id":"0.0-3.0-2.0","subject_id":"5f3b95fb505d7b2d3840293c","study_id":"6197b3f67c2b5cd3b6d9596a","session_id":"619bef0506ef00125c651558","condition":"full-information","relevant_dimensions":["wings","pattern"],"bee_group":{"antennae":"X","wings":"2","pattern":"S","legs":"X"},"correct":false,"bonus":0.920000000000001},{"rt":4070.4000000953674,"stimulus":"<p>You did not answer all comprehension questions correctly.<br>Press <b>continue</b> to review the instructions again.</p>","response":0,"trial_type":"html-button-response","trial_index":6,"time_elapsed":462846,"internal_node_id":"0.0-3.0-3.0","subject_id":"5f3b95fb505d7b2d3840293c","study_id":"6197b3f67c2b5cd3b6d9596a","session_id":"619bef0506ef00125c651558","condition":"full-information","relevant_dimensions":["wings","pattern"],"bee_group":{"antennae":"X","wings":"2","pattern":"S","legs":"X"},"bonus":0.920000000000001},{"view_history":[{"page_index":0,"viewing_time":2105.800000190735},{"page_index":1,"viewing_time":4113.199999809265},{"page_index":2,"viewing_time":4324.300000190735},{"page_index":3,"viewing_time":14344.599999904633},{"page_index":4,"viewing_time":5913.599999904633},{"page_index":5,"viewing_time":5565.200000286102},{"page_index":6,"viewing_time":6545.89999961853},{"page_index":7,"viewing_time":3304.5},{"page_index":8,"viewing_time":4391},{"page_index":9,"viewing_time":1952.1000003814697},{"page_index":10,"viewing_time":2764.5999999046326},{"page_index":11,"viewing_time":6884.699999809265},{"page_index":12,"viewing_time":10682.5},{"page_index":13,"viewing_time":2090.5},{"page_index":14,"viewing_time":1731.9000000953674}],"rt":76715.09999990463,"trial_type":"instructions","trial_index":7,"time_elapsed":539565,"internal_node_id":"0.0-3.0-4.0-0.0","subject_id":"5f3b95fb505d7b2d3840293c","study_id":"6197b3f67c2b5cd3b6d9596a","session_id":"619bef0506ef00125c651558","condition":"full-information","relevant_dimensions":["wings","pattern"],"bee_group":{"antennae":"X","wings":"2","pattern":"S","legs":"X"},"bonus":0.920000000000001},{"rt":12984.599999904633,"response":{"Q0":["Two or six legs","Stripes or spots on body","Single or double wings","Antennae or no antennae"]},"question_order":[0],"trial_type":"survey-multi-select","trial_index":8,"time_elapsed":552565,"internal_node_id":"0.0-3.0-4.0-1.0","subject_id":"5f3b95fb505d7b2d3840293c","study_id":"6197b3f67c2b5cd3b6d9596a","session_id":"619bef0506ef00125c651558","condition":"full-information","relevant_dimensions":["wings","pattern"],"bee_group":{"antennae":"X","wings":"2","pattern":"S","legs":"X"},"correct":true,"bonus":0.920000000000001},{"rt":25288.700000286102,"response":{"Q1":"No.","Q2":"Based on the four features of the bee.","Q3":"You learn if it was friendly or dangerous, but do not alter your bonus."},"question_order":[0,1,2],"trial_type":"survey-multi-choice","trial_index":9,"time_elapsed":577880,"internal_node_id":"0.0-3.0-4.0-2.0","subject_id":"5f3b95fb505d7b2d3840293c","study_id":"6197b3f67c2b5cd3b6d9596a","session_id":"619bef0506ef00125c651558","condition":"full-information","relevant_dimensions":["wings","pattern"],"bee_group":{"antennae":"X","wings":"2","pattern":"S","legs":"X"},"correct":true,"bonus":0.920000000000001},{"rt":3411.7999997138977,"stimulus":"<p>Congrats, you got everything right<br>When you're ready, click the button below to continue to the experiment.</p>","response":0,"trial_type":"html-button-response","trial_index":10,"time_elapsed":581316,"internal_node_id":"0.0-3.0-4.0-3.0","subject_id":"5f3b95fb505d7b2d3840293c","study_id":"6197b3f67c2b5cd3b6d9596a","session_id":"619bef0506ef00125c651558","condition":"full-information","relevant_dimensions":["wings","pattern"],"bee_group":{"antennae":"X","wings":"2","pattern":"S","legs":"X"},"bonus":0.920000000000001},{"rt":7816.900000095367,"stimulus":"bees-with-color/bee-B1SF.svg","response":1,"trial_type":"image-button-response","trial_index":11,"time_elapsed":589146,"internal_node_id":"0.0-4.0-0.0","subject_id":"5f3b95fb505d7b2d3840293c","study_id":"6197b3f67c2b5cd3b6d9596a","session_id":"619bef0506ef00125c651558","condition":"full-information","relevant_dimensions":["wings","pattern"],"bee_group":{"antennae":"X","wings":"2","pattern":"S","legs":"X"},"action":"avoid","summary":"bad-avoid","bonus":0.920000000000001},{"rt":12932.300000190735,"stimulus":"\n                    <p><b>Action: <em>avoid</em></b></p>\n                    <p>This is the bee that you just saw.</p>\n                    <img src=\"bees-with-color/bee-B1SF.svg\" width=\"200\">\n                    <p><span class=\"redText\">Bad choice,</span> the bee was friendly.<br>Your bonus pay is unchanged, and remains at $0.54.</p>\n            ","response":0,"trial_type":"html-button-response","trial_index":12,"time_elapsed":602091,"internal_node_id":"0.0-4.0-1.0","subject_id":"5f3b95fb505d7b2d3840293c","study_id":"6197b3f67c2b5cd3b6d9596a","session_id":"619bef0506ef00125c651558","condition":"full-information","relevant_dimensions":["wings","pattern"],"bee_group":{"antennae":"X","wings":"2","pattern":"S","legs":"X"},"bonus":0.920000000000001},{"rt":5073.900000095367,"stimulus":"bees-with-color/bee-A1DM.svg","response":1,"trial_type":"image-button-response","trial_index":13,"time_elapsed":607174,"internal_node_id":"0.0-4.0-0.1","subject_id":"5f3b95fb505d7b2d3840293c","study_id":"6197b3f67c2b5cd3b6d9596a","session_id":"619bef0506ef00125c651558","condition":"full-information","relevant_dimensions":["wings","pattern"],"bee_group":{"antennae":"X","wings":"2","pattern":"S","legs":"X"},"action":"avoid","summary":"bad-avoid","bonus":0.920000000000001},{"rt":6462.200000286102,"stimulus":"\n                    <p><b>Action: <em>avoid</em></b></p>\n                    <p>This is the bee that you just saw.</p>\n                    <img src=\"bees-with-color/bee-A1DM.svg\" width=\"200\">\n                    <p><span class=\"redText\">Bad choice,</span> the bee was friendly.<br>Your bonus pay is unchanged, and remains at $0.54.</p>\n            ","response":0,"trial_type":"html-button-response","trial_index":14,"time_elapsed":613646,"internal_node_id":"0.0-4.0-1.1","subject_id":"5f3b95fb505d7b2d3840293c","study_id":"6197b3f67c2b5cd3b6d9596a","session_id":"619bef0506ef00125c651558","condition":"full-information","relevant_dimensions":["wings","pattern"],"bee_group":{"antennae":"X","wings":"2","pattern":"S","legs":"X"},"bonus":0.920000000000001},{"rt":2699.1000003814697,"stimulus":"bees-with-color/bee-B2DF.svg","response":1,"trial_type":"image-button-response","trial_index":15,"time_elapsed":616355,"internal_node_id":"0.0-4.0-0.2","subject_id":"5f3b95fb505d7b2d3840293c","study_id":"6197b3f67c2b5cd3b6d9596a","session_id":"619bef0506ef00125c651558","condition":"full-information","relevant_dimensions":["wings","pattern"],"bee_group":{"antennae":"X","wings":"2","pattern":"S","legs":"X"},"action":"avoid","summary":"bad-avoid","bonus":0.920000000000001},{"rt":3582.4000000953674,"stimulus":"\n                    <p><b>Action: <em>avoid</em></b></p>\n                    <p>This is the bee that you just saw.</p>\n                    <img src=\"bees-with-color/bee-B2DF.svg\" width=\"200\">\n                    <p><span class=\"redText\">Bad choice,</span> the bee was friendly.<br>Your bonus pay is unchanged, and remains at $0.54.</p>\n            ","response":0,"trial_type":"html-button-response","trial_index":16,"time_elapsed":619945,"internal_node_id":"0.0-4.0-1.2","subject_id":"5f3b95fb505d7b2d3840293c","study_id":"6197b3f67c2b5cd3b6d9596a","session_id":"619bef0506ef00125c651558","condition":"full-information","relevant_dimensions":["wings","pattern"],"bee_group":{"antennae":"X","wings":"2","pattern":"S","legs":"X"},"bonus":0.920000000000001},{"rt":2987.5999999046326,"stimulus":"bees-with-color/bee-A2DF.svg","response":1,"trial_type":"image-button-response","trial_index":17,"time_elapsed":622943,"internal_node_id":"0.0-4.0-0.3","subject_id":"5f3b95fb505d7b2d3840293c","study_id":"6197b3f67c2b5cd3b6d9596a","session_id":"619bef0506ef00125c651558","condition":"full-information","relevant_dimensions":["wings","pattern"],"bee_group":{"antennae":"X","wings":"2","pattern":"S","legs":"X"},"action":"avoid","summary":"bad-avoid","bonus":0.920000000000001},{"rt":5222,"stimulus":"\n                    <p><b>Action: <em>avoid</em></b></p>\n                    <p>This is the bee that you just saw.</p>\n                    <img src=\"bees-with-color/bee-A2DF.svg\" width=\"200\">\n                    <p><span class=\"redText\">Bad choice,</span> the bee was friendly.<br>Your bonus pay is unchanged, and remains at $0.54.</p>\n            ","response":0,"trial_type":"html-button-response","trial_index":18,"time_elapsed":628173,"internal_node_id":"0.0-4.0-1.3","subject_id":"5f3b95fb505d7b2d3840293c","study_id":"6197b3f67c2b5cd3b6d9596a","session_id":"619bef0506ef00125c651558","condition":"full-information","relevant_dimensions":["wings","pattern"],"bee_group":{"antennae":"X","wings":"2","pattern":"S","legs":"X"},"bonus":0.920000000000001},{"rt":1744.9000000953674,"stimulus":"bees-with-color/bee-A1DF.svg","response":1,"trial_type":"image-button-response","trial_index":19,"time_elapsed":629928,"internal_node_id":"0.0-4.0-0.4","subject_id":"5f3b95fb505d7b2d3840293c","study_id":"6197b3f67c2b5cd3b6d9596a","session_id":"619bef0506ef00125c651558","condition":"full-information","relevant_dimensions":["wings","pattern"],"bee_group":{"antennae":"X","wings":"2","pattern":"S","legs":"X"},"action":"avoid","summary":"bad-avoid","bonus":0.920000000000001},{"rt":3928.5,"stimulus":"\n                    <p><b>Action: <em>avoid</em></b></p>\n                    <p>This is the bee that you just saw.</p>\n                    <img src=\"bees-with-color/bee-A1DF.svg\" width=\"200\">\n                    <p><span class=\"redText\">Bad choice,</span> the bee was friendly.<br>Your bonus pay is unchanged, and remains at $0.54.</p>\n            ","response":0,"trial_type":"html-button-response","trial_index":20,"time_elapsed":633866,"internal_node_id":"0.0-4.0-1.4","subject_id":"5f3b95fb505d7b2d3840293c","study_id":"6197b3f67c2b5cd3b6d9596a","session_id":"619bef0506ef00125c651558","condition":"full-information","relevant_dimensions":["wings","pattern"],"bee_group":{"antennae":"X","wings":"2","pattern":"S","legs":"X"},"bonus":0.920000000000001},{"rt":1961.8000001907349,"stimulus":"bees-with-color/bee-A1SF.svg","response":1,"trial_type":"image-button-response","trial_index":21,"time_elapsed":635835,"internal_node_id":"0.0-4.0-0.5","subject_id":"5f3b95fb505d7b2d3840293c","study_id":"6197b3f67c2b5cd3b6d9596a","session_id":"619bef0506ef00125c651558","condition":"full-information","relevant_dimensions":["wings","pattern"],"bee_group":{"antennae":"X","wings":"2","pattern":"S","legs":"X"},"action":"avoid","summary":"bad-avoid","bonus":0.920000000000001},{"rt":2458.0999999046326,"stimulus":"\n                    <p><b>Action: <em>avoid</em></b></p>\n                    <p>This is the bee that you just saw.</p>\n                    <img src=\"bees-with-color/bee-A1SF.svg\" width=\"200\">\n                    <p><span class=\"redText\">Bad choice,</span> the bee was friendly.<br>Your bonus pay is unchanged, and remains at $0.54.</p>\n            ","response":0,"trial_type":"html-button-response","trial_index":22,"time_elapsed":638302,"internal_node_id":"0.0-4.0-1.5","subject_id":"5f3b95fb505d7b2d3840293c","study_id":"6197b3f67c2b5cd3b6d9596a","session_id":"619bef0506ef00125c651558","condition":"full-information","relevant_dimensions":["wings","pattern"],"bee_group":{"antennae":"X","wings":"2","pattern":"S","legs":"X"},"bonus":0.920000000000001},{"rt":2162.4000000953674,"stimulus":"bees-with-color/bee-A2SM.svg","response":1,"trial_type":"image-button-response","trial_index":23,"time_elapsed":640476,"internal_node_id":"0.0-4.0-0.6","subject_id":"5f3b95fb505d7b2d3840293c","study_id":"6197b3f67c2b5cd3b6d9596a","session_id":"619bef0506ef00125c651558","condition":"full-information","relevant_dimensions":["wings","pattern"],"bee_group":{"antennae":"X","wings":"2","pattern":"S","legs":"X"},"action":"avoid","summary":"good-avoid","bonus":0.920000000000001},{"rt":12351.800000190735,"stimulus":"\n                    <p><b>Action: <em>avoid</em></b></p>\n                    <p>This is the bee that you just saw.</p>\n                    <img src=\"bees-with-color/bee-A2SM.svg\" width=\"200\">\n                    <p><span class=\"greenText\">Good choice!</span>  This bee would have stung you.<br>Your bonus pay is unchanged, and remains at $0.54.</p>\n            ","response":0,"trial_type":"html-button-response","trial_index":24,"time_elapsed":652836,"internal_node_id":"0.0-4.0-1.6","subject_id":"5f3b95fb505d7b2d3840293c","study_id":"6197b3f67c2b5cd3b6d9596a","session_id":"619bef0506ef00125c651558","condition":"full-information","relevant_dimensions":["wings","pattern"],"bee_group":{"antennae":"X","wings":"2","pattern":"S","legs":"X"},"bonus":0.920000000000001},{"rt":2099.4000000953674,"stimulus":"bees-with-color/bee-B2SF.svg","response":1,"trial_type":"image-button-response","trial_index":25,"time_elapsed":654945,"internal_node_id":"0.0-4.0-0.7","subject_id":"5f3b95fb505d7b2d3840293c","study_id":"6197b3f67c2b5cd3b6d9596a","session_id":"619bef0506ef00125c651558","condition":"full-information","relevant_dimensions":["wings","pattern"],"bee_group":{"antennae":"X","wings":"2","pattern":"S","legs":"X"},"action":"avoid","summary":"good-avoid","bonus":0.920000000000001},{"rt":8496.599999904633,"stimulus":"\n                    <p><b>Action: <em>avoid</em></b></p>\n                    <p>This is the bee that you just saw.</p>\n                    <img src=\"bees-with-color/bee-B2SF.svg\" width=\"200\">\n                    <p><span class=\"greenText\">Good choice!</span>  This bee would have stung you.<br>Your bonus pay is unchanged, and remains at $0.54.</p>\n            ","response":0,"trial_type":"html-button-response","trial_index":26,"time_elapsed":663451,"internal_node_id":"0.0-4.0-1.7","subject_id":"5f3b95fb505d7b2d3840293c","study_id":"6197b3f67c2b5cd3b6d9596a","session_id":"619bef0506ef00125c651558","condition":"full-information","relevant_dimensions":["wings","pattern"],"bee_group":{"antennae":"X","wings":"2","pattern":"S","legs":"X"},"bonus":0.920000000000001},{"rt":2299.7000002861023,"stimulus":"bees-with-color/bee-A1SM.svg","response":1,"trial_type":"image-button-response","trial_index":27,"time_elapsed":665761,"internal_node_id":"0.0-4.0-0.8","subject_id":"5f3b95fb505d7b2d3840293c","study_id":"6197b3f67c2b5cd3b6d9596a","session_id":"619bef0506ef00125c651558","condition":"full-information","relevant_dimensions":["wings","pattern"],"bee_group":{"antennae":"X","wings":"2","pattern":"S","legs":"X"},"action":"avoid","summary":"bad-avoid","bonus":0.920000000000001},{"rt":1860.9000000953674,"stimulus":"\n                    <p><b>Action: <em>avoid</em></b></p>\n                    <p>This is the bee that you just saw.</p>\n                    <img src=\"bees-with-color/bee-A1SM.svg\" width=\"200\">\n                    <p><span class=\"redText\">Bad choice,</span> the bee was friendly.<br>Your bonus pay is unchanged, and remains at $0.54.</p>\n            ","response":0,"trial_type":"html-button-response","trial_index":28,"time_elapsed":667631,"internal_node_id":"0.0-4.0-1.8","subject_id":"5f3b95fb505d7b2d3840293c","study_id":"6197b3f67c2b5cd3b6d9596a","session_id":"619bef0506ef00125c651558","condition":"full-information","relevant_dimensions":["wings","pattern"],"bee_group":{"antennae":"X","wings":"2","pattern":"S","legs":"X"},"bonus":0.920000000000001},{"rt":1978.0999999046326,"stimulus":"bees-with-color/bee-B1DM.svg","response":1,"trial_type":"image-button-response","trial_index":29,"time_elapsed":669620,"internal_node_id":"0.0-4.0-0.9","subject_id":"5f3b95fb505d7b2d3840293c","study_id":"6197b3f67c2b5cd3b6d9596a","session_id":"619bef0506ef00125c651558","condition":"full-information","relevant_dimensions":["wings","pattern"],"bee_group":{"antennae":"X","wings":"2","pattern":"S","legs":"X"},"action":"avoid","summary":"bad-avoid","bonus":0.920000000000001},{"rt":2370.699999809265,"stimulus":"\n                    <p><b>Action: <em>avoid</em></b></p>\n                    <p>This is the bee that you just saw.</p>\n                    <img src=\"bees-with-color/bee-B1DM.svg\" width=\"200\">\n                    <p><span class=\"redText\">Bad choice,</span> the bee was friendly.<br>Your bonus pay is unchanged, and remains at $0.54.</p>\n            ","response":0,"trial_type":"html-button-response","trial_index":30,"time_elapsed":672000,"internal_node_id":"0.0-4.0-1.9","subject_id":"5f3b95fb505d7b2d3840293c","study_id":"6197b3f67c2b5cd3b6d9596a","session_id":"619bef0506ef00125c651558","condition":"full-information","relevant_dimensions":["wings","pattern"],"bee_group":{"antennae":"X","wings":"2","pattern":"S","legs":"X"},"bonus":0.920000000000001},{"rt":2918.5,"stimulus":"bees-with-color/bee-B1DF.svg","response":1,"trial_type":"image-button-response","trial_index":31,"time_elapsed":674928,"internal_node_id":"0.0-4.0-0.10","subject_id":"5f3b95fb505d7b2d3840293c","study_id":"6197b3f67c2b5cd3b6d9596a","session_id":"619bef0506ef00125c651558","condition":"full-information","relevant_dimensions":["wings","pattern"],"bee_group":{"antennae":"X","wings":"2","pattern":"S","legs":"X"},"action":"avoid","summary":"bad-avoid","bonus":0.920000000000001},{"rt":1741.5999999046326,"stimulus":"\n                    <p><b>Action: <em>avoid</em></b></p>\n                    <p>This is the bee that you just saw.</p>\n                    <img src=\"bees-with-color/bee-B1DF.svg\" width=\"200\">\n                    <p><span class=\"redText\">Bad choice,</span> the bee was friendly.<br>Your bonus pay is unchanged, and remains at $0.54.</p>\n            ","response":0,"trial_type":"html-button-response","trial_index":32,"time_elapsed":676679,"internal_node_id":"0.0-4.0-1.10","subject_id":"5f3b95fb505d7b2d3840293c","study_id":"6197b3f67c2b5cd3b6d9596a","session_id":"619bef0506ef00125c651558","condition":"full-information","relevant_dimensions":["wings","pattern"],"bee_group":{"antennae":"X","wings":"2","pattern":"S","legs":"X"},"bonus":0.920000000000001},{"rt":2831.0999999046326,"stimulus":"bees-with-color/bee-A2SF.svg","response":0,"trial_type":"image-button-response","trial_index":33,"time_elapsed":679520,"internal_node_id":"0.0-4.0-0.11","subject_id":"5f3b95fb505d7b2d3840293c","study_id":"6197b3f67c2b5cd3b6d9596a","session_id":"619bef0506ef00125c651558","condition":"full-information","relevant_dimensions":["wings","pattern"],"bee_group":{"antennae":"X","wings":"2","pattern":"S","legs":"X"},"action":"harvest","summary":"bad-harvest","bonus":0.920000000000001},{"rt":14813.099999904633,"stimulus":"\n                    <p><b>Action: <em>harvest</em></b></p>\n                    <p>This is the bee that you just saw.</p>\n                    <img src=\"bees-with-color/bee-A2SF.svg\" width=\"200\">\n                    <p><span class=\"redText\">Bad choice, the bee was angry.</span><br><b>You have been stung!</b><br>Your pay has been decreased by $0.10. Your bonus pay is now $0.44.</p>\n            ","response":0,"trial_type":"html-button-response","trial_index":34,"time_elapsed":694342,"internal_node_id":"0.0-4.0-1.11","subject_id":"5f3b95fb505d7b2d3840293c","study_id":"6197b3f67c2b5cd3b6d9596a","session_id":"619bef0506ef00125c651558","condition":"full-information","relevant_dimensions":["wings","pattern"],"bee_group":{"antennae":"X","wings":"2","pattern":"S","legs":"X"},"bonus":0.920000000000001},{"rt":2319.2999997138977,"stimulus":"bees-with-color/bee-B1SM.svg","response":0,"trial_type":"image-button-response","trial_index":35,"time_elapsed":696675,"internal_node_id":"0.0-4.0-0.12","subject_id":"5f3b95fb505d7b2d3840293c","study_id":"6197b3f67c2b5cd3b6d9596a","session_id":"619bef0506ef00125c651558","condition":"full-information","relevant_dimensions":["wings","pattern"],"bee_group":{"antennae":"X","wings":"2","pattern":"S","legs":"X"},"action":"harvest","summary":"good-harvest","bonus":0.920000000000001},{"rt":2689.4000000953674,"stimulus":"\n                    <p><b>Action: <em>harvest</em></b></p>\n                    <p>This is the bee that you just saw.</p>\n                    <img src=\"bees-with-color/bee-B1SM.svg\" width=\"200\">\n                    <p><span class=\"greenText\"><b>Successful harvest!</b></span><br>Your pay has increased by $0.02. Your bonus pay is now $0.46.</p>\n            ","response":0,"trial_type":"html-button-response","trial_index":36,"time_elapsed":699372,"internal_node_id":"0.0-4.0-1.12","subject_id":"5f3b95fb505d7b2d3840293c","study_id":"6197b3f67c2b5cd3b6d9596a","session_id":"619bef0506ef00125c651558","condition":"full-information","relevant_dimensions":["wings","pattern"],"bee_group":{"antennae":"X","wings":"2","pattern":"S","legs":"X"},"bonus":0.920000000000001},{"rt":3287.5,"stimulus":"bees-with-color/bee-B2DM.svg","response":0,"trial_type":"image-button-response","trial_index":37,"time_elapsed":702668,"internal_node_id":"0.0-4.0-0.13","subject_id":"5f3b95fb505d7b2d3840293c","study_id":"6197b3f67c2b5cd3b6d9596a","session_id":"619bef0506ef00125c651558","condition":"full-information","relevant_dimensions":["wings","pattern"],"bee_group":{"antennae":"X","wings":"2","pattern":"S","legs":"X"},"action":"harvest","summary":"good-harvest","bonus":0.920000000000001},{"rt":1952.6999998092651,"stimulus":"\n                    <p><b>Action: <em>harvest</em></b></p>\n                    <p>This is the bee that you just saw.</p>\n                    <img src=\"bees-with-color/bee-B2DM.svg\" width=\"200\">\n                    <p><span class=\"greenText\"><b>Successful harvest!</b></span><br>Your pay has increased by $0.02. Your bonus pay is now $0.48.</p>\n            ","response":0,"trial_type":"html-button-response","trial_index":38,"time_elapsed":704628,"internal_node_id":"0.0-4.0-1.13","subject_id":"5f3b95fb505d7b2d3840293c","study_id":"6197b3f67c2b5cd3b6d9596a","session_id":"619bef0506ef00125c651558","condition":"full-information","relevant_dimensions":["wings","pattern"],"bee_group":{"antennae":"X","wings":"2","pattern":"S","legs":"X"},"bonus":0.920000000000001},{"rt":3181.7000002861023,"stimulus":"bees-with-color/bee-B2SM.svg","response":0,"trial_type":"image-button-response","trial_index":39,"time_elapsed":707818,"internal_node_id":"0.0-4.0-0.14","subject_id":"5f3b95fb505d7b2d3840293c","study_id":"6197b3f67c2b5cd3b6d9596a","session_id":"619bef0506ef00125c651558","condition":"full-information","relevant_dimensions":["wings","pattern"],"bee_group":{"antennae":"X","wings":"2","pattern":"S","legs":"X"},"action":"harvest","summary":"bad-harvest","bonus":0.920000000000001},{"rt":2402.300000190735,"stimulus":"\n                    <p><b>Action: <em>harvest</em></b></p>\n                    <p>This is the bee that you just saw.</p>\n                    <img src=\"bees-with-color/bee-B2SM.svg\" width=\"200\">\n                    <p><span class=\"redText\">Bad choice, the bee was angry.</span><br><b>You have been stung!</b><br>Your pay has been decreased by $0.10. Your bonus pay is now $0.38.</p>\n            ","response":0,"trial_type":"html-button-response","trial_index":40,"time_elapsed":710229,"internal_node_id":"0.0-4.0-1.14","subject_id":"5f3b95fb505d7b2d3840293c","study_id":"6197b3f67c2b5cd3b6d9596a","session_id":"619bef0506ef00125c651558","condition":"full-information","relevant_dimensions":["wings","pattern"],"bee_group":{"antennae":"X","wings":"2","pattern":"S","legs":"X"},"bonus":0.920000000000001},{"rt":3900,"stimulus":"bees-with-color/bee-A2DM.svg","response":0,"trial_type":"image-button-response","trial_index":41,"time_elapsed":714137,"internal_node_id":"0.0-4.0-0.15","subject_id":"5f3b95fb505d7b2d3840293c","study_id":"6197b3f67c2b5cd3b6d9596a","session_id":"619bef0506ef00125c651558","condition":"full-information","relevant_dimensions":["wings","pattern"],"bee_group":{"antennae":"X","wings":"2","pattern":"S","legs":"X"},"action":"harvest","summary":"good-harvest","bonus":0.920000000000001},{"rt":2149.2999997138977,"stimulus":"\n                    <p><b>Action: <em>harvest</em></b></p>\n                    <p>This is the bee that you just saw.</p>\n                    <img src=\"bees-with-color/bee-A2DM.svg\" width=\"200\">\n                    <p><span class=\"greenText\"><b>Successful harvest!</b></span><br>Your pay has increased by $0.02. Your bonus pay is now $0.40.</p>\n            ","response":0,"trial_type":"html-button-response","trial_index":42,"time_elapsed":716293,"internal_node_id":"0.0-4.0-1.15","subject_id":"5f3b95fb505d7b2d3840293c","study_id":"6197b3f67c2b5cd3b6d9596a","session_id":"619bef0506ef00125c651558","condition":"full-information","relevant_dimensions":["wings","pattern"],"bee_group":{"antennae":"X","wings":"2","pattern":"S","legs":"X"},"bonus":0.920000000000001},{"rt":2629.2000002861023,"stimulus":"bees-with-color/bee-B1SM.svg","response":0,"trial_type":"image-button-response","trial_index":43,"time_elapsed":718930,"internal_node_id":"0.0-4.0-0.16","subject_id":"5f3b95fb505d7b2d3840293c","study_id":"6197b3f67c2b5cd3b6d9596a","session_id":"619bef0506ef00125c651558","condition":"full-information","relevant_dimensions":["wings","pattern"],"bee_group":{"antennae":"X","wings":"2","pattern":"S","legs":"X"},"action":"harvest","summary":"good-harvest","bonus":0.920000000000001},{"rt":2077.800000190735,"stimulus":"\n                    <p><b>Action: <em>harvest</em></b></p>\n                    <p>This is the bee that you just saw.</p>\n                    <img src=\"bees-with-color/bee-B1SM.svg\" width=\"200\">\n                    <p><span class=\"greenText\"><b>Successful harvest!</b></span><br>Your pay has increased by $0.02. Your bonus pay is now $0.42.</p>\n            ","response":0,"trial_type":"html-button-response","trial_index":44,"time_elapsed":721016,"internal_node_id":"0.0-4.0-1.16","subject_id":"5f3b95fb505d7b2d3840293c","study_id":"6197b3f67c2b5cd3b6d9596a","session_id":"619bef0506ef00125c651558","condition":"full-information","relevant_dimensions":["wings","pattern"],"bee_group":{"antennae":"X","wings":"2","pattern":"S","legs":"X"},"bonus":0.920000000000001},{"rt":6160.900000095367,"stimulus":"bees-with-color/bee-A2SM.svg","response":1,"trial_type":"image-button-response","trial_index":45,"time_elapsed":727184,"internal_node_id":"0.0-4.0-0.17","subject_id":"5f3b95fb505d7b2d3840293c","study_id":"6197b3f67c2b5cd3b6d9596a","session_id":"619bef0506ef00125c651558","condition":"full-information","relevant_dimensions":["wings","pattern"],"bee_group":{"antennae":"X","wings":"2","pattern":"S","legs":"X"},"action":"avoid","summary":"good-avoid","bonus":0.920000000000001},{"rt":3058.4000000953674,"stimulus":"\n                    <p><b>Action: <em>avoid</em></b></p>\n                    <p>This is the bee that you just saw.</p>\n                    <img src=\"bees-with-color/bee-A2SM.svg\" width=\"200\">\n                    <p><span class=\"greenText\">Good choice!</span>  This bee would have stung you.<br>Your bonus pay is unchanged, and remains at $0.42.</p>\n            ","response":0,"trial_type":"html-button-response","trial_index":46,"time_elapsed":730251,"internal_node_id":"0.0-4.0-1.17","subject_id":"5f3b95fb505d7b2d3840293c","study_id":"6197b3f67c2b5cd3b6d9596a","session_id":"619bef0506ef00125c651558","condition":"full-information","relevant_dimensions":["wings","pattern"],"bee_group":{"antennae":"X","wings":"2","pattern":"S","legs":"X"},"bonus":0.920000000000001},{"rt":2046.5,"stimulus":"bees-with-color/bee-B2DF.svg","response":0,"trial_type":"image-button-response","trial_index":47,"time_elapsed":732306,"internal_node_id":"0.0-4.0-0.18","subject_id":"5f3b95fb505d7b2d3840293c","study_id":"6197b3f67c2b5cd3b6d9596a","session_id":"619bef0506ef00125c651558","condition":"full-information","relevant_dimensions":["wings","pattern"],"bee_group":{"antennae":"X","wings":"2","pattern":"S","legs":"X"},"action":"harvest","summary":"good-harvest","bonus":0.920000000000001},{"rt":2127.7999997138977,"stimulus":"\n                    <p><b>Action: <em>harvest</em></b></p>\n                    <p>This is the bee that you just saw.</p>\n                    <img src=\"bees-with-color/bee-B2DF.svg\" width=\"200\">\n                    <p><span class=\"greenText\"><b>Successful harvest!</b></span><br>Your pay has increased by $0.02. Your bonus pay is now $0.44.</p>\n            ","response":0,"trial_type":"html-button-response","trial_index":48,"time_elapsed":734441,"internal_node_id":"0.0-4.0-1.18","subject_id":"5f3b95fb505d7b2d3840293c","study_id":"6197b3f67c2b5cd3b6d9596a","session_id":"619bef0506ef00125c651558","condition":"full-information","relevant_dimensions":["wings","pattern"],"bee_group":{"antennae":"X","wings":"2","pattern":"S","legs":"X"},"bonus":0.920000000000001},{"rt":4850.199999809265,"stimulus":"bees-with-color/bee-A2DM.svg","response":0,"trial_type":"image-button-response","trial_index":49,"time_elapsed":739302,"internal_node_id":"0.0-4.0-0.19","subject_id":"5f3b95fb505d7b2d3840293c","study_id":"6197b3f67c2b5cd3b6d9596a","session_id":"619bef0506ef00125c651558","condition":"full-information","relevant_dimensions":["wings","pattern"],"bee_group":{"antennae":"X","wings":"2","pattern":"S","legs":"X"},"action":"harvest","summary":"good-harvest","bonus":0.920000000000001},{"rt":1676.1999998092651,"stimulus":"\n                    <p><b>Action: <em>harvest</em></b></p>\n                    <p>This is the bee that you just saw.</p>\n                    <img src=\"bees-with-color/bee-A2DM.svg\" width=\"200\">\n                    <p><span class=\"greenText\"><b>Successful harvest!</b></span><br>Your pay has increased by $0.02. Your bonus pay is now $0.46.</p>\n            ","response":0,"trial_type":"html-button-response","trial_index":50,"time_elapsed":740986,"internal_node_id":"0.0-4.0-1.19","subject_id":"5f3b95fb505d7b2d3840293c","study_id":"6197b3f67c2b5cd3b6d9596a","session_id":"619bef0506ef00125c651558","condition":"full-information","relevant_dimensions":["wings","pattern"],"bee_group":{"antennae":"X","wings":"2","pattern":"S","legs":"X"},"bonus":0.920000000000001},{"rt":3080.800000190735,"stimulus":"bees-with-color/bee-B1DF.svg","response":1,"trial_type":"image-button-response","trial_index":51,"time_elapsed":744076,"internal_node_id":"0.0-4.0-0.20","subject_id":"5f3b95fb505d7b2d3840293c","study_id":"6197b3f67c2b5cd3b6d9596a","session_id":"619bef0506ef00125c651558","condition":"full-information","relevant_dimensions":["wings","pattern"],"bee_group":{"antennae":"X","wings":"2","pattern":"S","legs":"X"},"action":"avoid","summary":"bad-avoid","bonus":0.920000000000001},{"rt":2893.300000190735,"stimulus":"\n                    <p><b>Action: <em>avoid</em></b></p>\n                    <p>This is the bee that you just saw.</p>\n                    <img src=\"bees-with-color/bee-B1DF.svg\" width=\"200\">\n                    <p><span class=\"redText\">Bad choice,</span> the bee was friendly.<br>Your bonus pay is unchanged, and remains at $0.46.</p>\n            ","response":0,"trial_type":"html-button-response","trial_index":52,"time_elapsed":746978,"internal_node_id":"0.0-4.0-1.20","subject_id":"5f3b95fb505d7b2d3840293c","study_id":"6197b3f67c2b5cd3b6d9596a","session_id":"619bef0506ef00125c651558","condition":"full-information","relevant_dimensions":["wings","pattern"],"bee_group":{"antennae":"X","wings":"2","pattern":"S","legs":"X"},"bonus":0.920000000000001},{"rt":3193.6000003814697,"stimulus":"bees-with-color/bee-B2DM.svg","response":1,"trial_type":"image-button-response","trial_index":53,"time_elapsed":750180,"internal_node_id":"0.0-4.0-0.21","subject_id":"5f3b95fb505d7b2d3840293c","study_id":"6197b3f67c2b5cd3b6d9596a","session_id":"619bef0506ef00125c651558","condition":"full-information","relevant_dimensions":["wings","pattern"],"bee_group":{"antennae":"X","wings":"2","pattern":"S","legs":"X"},"action":"avoid","summary":"bad-avoid","bonus":0.920000000000001},{"rt":2016.5,"stimulus":"\n                    <p><b>Action: <em>avoid</em></b></p>\n                    <p>This is the bee that you just saw.</p>\n                    <img src=\"bees-with-color/bee-B2DM.svg\" width=\"200\">\n                    <p><span class=\"redText\">Bad choice,</span> the bee was friendly.<br>Your bonus pay is unchanged, and remains at $0.46.</p>\n            ","response":0,"trial_type":"html-button-response","trial_index":54,"time_elapsed":752204,"internal_node_id":"0.0-4.0-1.21","subject_id":"5f3b95fb505d7b2d3840293c","study_id":"6197b3f67c2b5cd3b6d9596a","session_id":"619bef0506ef00125c651558","condition":"full-information","relevant_dimensions":["wings","pattern"],"bee_group":{"antennae":"X","wings":"2","pattern":"S","legs":"X"},"bonus":0.920000000000001},{"rt":2579.199999809265,"stimulus":"bees-with-color/bee-B1DM.svg","response":1,"trial_type":"image-button-response","trial_index":55,"time_elapsed":754794,"internal_node_id":"0.0-4.0-0.22","subject_id":"5f3b95fb505d7b2d3840293c","study_id":"6197b3f67c2b5cd3b6d9596a","session_id":"619bef0506ef00125c651558","condition":"full-information","relevant_dimensions":["wings","pattern"],"bee_group":{"antennae":"X","wings":"2","pattern":"S","legs":"X"},"action":"avoid","summary":"bad-avoid","bonus":0.920000000000001},{"rt":2106.7000002861023,"stimulus":"\n                    <p><b>Action: <em>avoid</em></b></p>\n                    <p>This is the bee that you just saw.</p>\n                    <img src=\"bees-with-color/bee-B1DM.svg\" width=\"200\">\n                    <p><span class=\"redText\">Bad choice,</span> the bee was friendly.<br>Your bonus pay is unchanged, and remains at $0.46.</p>\n            ","response":0,"trial_type":"html-button-response","trial_index":56,"time_elapsed":756910,"internal_node_id":"0.0-4.0-1.22","subject_id":"5f3b95fb505d7b2d3840293c","study_id":"6197b3f67c2b5cd3b6d9596a","session_id":"619bef0506ef00125c651558","condition":"full-information","relevant_dimensions":["wings","pattern"],"bee_group":{"antennae":"X","wings":"2","pattern":"S","legs":"X"},"bonus":0.920000000000001},{"rt":2761.9000000953674,"stimulus":"bees-with-color/bee-A2SF.svg","response":1,"trial_type":"image-button-response","trial_index":57,"time_elapsed":759682,"internal_node_id":"0.0-4.0-0.23","subject_id":"5f3b95fb505d7b2d3840293c","study_id":"6197b3f67c2b5cd3b6d9596a","session_id":"619bef0506ef00125c651558","condition":"full-information","relevant_dimensions":["wings","pattern"],"bee_group":{"antennae":"X","wings":"2","pattern":"S","legs":"X"},"action":"avoid","summary":"good-avoid","bonus":0.920000000000001},{"rt":4514.900000095367,"stimulus":"\n                    <p><b>Action: <em>avoid</em></b></p>\n                    <p>This is the bee that you just saw.</p>\n                    <img src=\"bees-with-color/bee-A2SF.svg\" width=\"200\">\n                    <p><span class=\"greenText\">Good choice!</span>  This bee would have stung you.<br>Your bonus pay is unchanged, and remains at $0.46.</p>\n            ","response":0,"trial_type":"html-button-response","trial_index":58,"time_elapsed":764206,"internal_node_id":"0.0-4.0-1.23","subject_id":"5f3b95fb505d7b2d3840293c","study_id":"6197b3f67c2b5cd3b6d9596a","session_id":"619bef0506ef00125c651558","condition":"full-information","relevant_dimensions":["wings","pattern"],"bee_group":{"antennae":"X","wings":"2","pattern":"S","legs":"X"},"bonus":0.920000000000001},{"rt":3030.4000000953674,"stimulus":"bees-with-color/bee-B2SM.svg","response":1,"trial_type":"image-button-response","trial_index":59,"time_elapsed":767246,"internal_node_id":"0.0-4.0-0.24","subject_id":"5f3b95fb505d7b2d3840293c","study_id":"6197b3f67c2b5cd3b6d9596a","session_id":"619bef0506ef00125c651558","condition":"full-information","relevant_dimensions":["wings","pattern"],"bee_group":{"antennae":"X","wings":"2","pattern":"S","legs":"X"},"action":"avoid","summary":"good-avoid","bonus":0.920000000000001},{"rt":2875.300000190735,"stimulus":"\n                    <p><b>Action: <em>avoid</em></b></p>\n                    <p>This is the bee that you just saw.</p>\n                    <img src=\"bees-with-color/bee-B2SM.svg\" width=\"200\">\n                    <p><span class=\"greenText\">Good choice!</span>  This bee would have stung you.<br>Your bonus pay is unchanged, and remains at $0.46.</p>\n            ","response":0,"trial_type":"html-button-response","trial_index":60,"time_elapsed":770130,"internal_node_id":"0.0-4.0-1.24","subject_id":"5f3b95fb505d7b2d3840293c","study_id":"6197b3f67c2b5cd3b6d9596a","session_id":"619bef0506ef00125c651558","condition":"full-information","relevant_dimensions":["wings","pattern"],"bee_group":{"antennae":"X","wings":"2","pattern":"S","legs":"X"},"bonus":0.920000000000001},{"rt":3647.0999999046326,"stimulus":"bees-with-color/bee-A1DM.svg","response":0,"trial_type":"image-button-response","trial_index":61,"time_elapsed":773788,"internal_node_id":"0.0-4.0-0.25","subject_id":"5f3b95fb505d7b2d3840293c","study_id":"6197b3f67c2b5cd3b6d9596a","session_id":"619bef0506ef00125c651558","condition":"full-information","relevant_dimensions":["wings","pattern"],"bee_group":{"antennae":"X","wings":"2","pattern":"S","legs":"X"},"action":"harvest","summary":"good-harvest","bonus":0.920000000000001},{"rt":1468.5,"stimulus":"\n                    <p><b>Action: <em>harvest</em></b></p>\n                    <p>This is the bee that you just saw.</p>\n                    <img src=\"bees-with-color/bee-A1DM.svg\" width=\"200\">\n                    <p><span class=\"greenText\"><b>Successful harvest!</b></span><br>Your pay has increased by $0.02. Your bonus pay is now $0.48.</p>\n            ","response":0,"trial_type":"html-button-response","trial_index":62,"time_elapsed":775266,"internal_node_id":"0.0-4.0-1.25","subject_id":"5f3b95fb505d7b2d3840293c","study_id":"6197b3f67c2b5cd3b6d9596a","session_id":"619bef0506ef00125c651558","condition":"full-information","relevant_dimensions":["wings","pattern"],"bee_group":{"antennae":"X","wings":"2","pattern":"S","legs":"X"},"bonus":0.920000000000001},{"rt":2518,"stimulus":"bees-with-color/bee-A2DF.svg","response":0,"trial_type":"image-button-response","trial_index":63,"time_elapsed":777794,"internal_node_id":"0.0-4.0-0.26","subject_id":"5f3b95fb505d7b2d3840293c","study_id":"6197b3f67c2b5cd3b6d9596a","session_id":"619bef0506ef00125c651558","condition":"full-information","relevant_dimensions":["wings","pattern"],"bee_group":{"antennae":"X","wings":"2","pattern":"S","legs":"X"},"action":"harvest","summary":"good-harvest","bonus":0.920000000000001},{"rt":2387.4000000953674,"stimulus":"\n                    <p><b>Action: <em>harvest</em></b></p>\n                    <p>This is the bee that you just saw.</p>\n                    <img src=\"bees-with-color/bee-A2DF.svg\" width=\"200\">\n                    <p><span class=\"greenText\"><b>Successful harvest!</b></span><br>Your pay has increased by $0.02. Your bonus pay is now $0.50.</p>\n            ","response":0,"trial_type":"html-button-response","trial_index":64,"time_elapsed":780191,"internal_node_id":"0.0-4.0-1.26","subject_id":"5f3b95fb505d7b2d3840293c","study_id":"6197b3f67c2b5cd3b6d9596a","session_id":"619bef0506ef00125c651558","condition":"full-information","relevant_dimensions":["wings","pattern"],"bee_group":{"antennae":"X","wings":"2","pattern":"S","legs":"X"},"bonus":0.920000000000001},{"rt":4591.099999904633,"stimulus":"bees-with-color/bee-A1DF.svg","response":0,"trial_type":"image-button-response","trial_index":65,"time_elapsed":784791,"internal_node_id":"0.0-4.0-0.27","subject_id":"5f3b95fb505d7b2d3840293c","study_id":"6197b3f67c2b5cd3b6d9596a","session_id":"619bef0506ef00125c651558","condition":"full-information","relevant_dimensions":["wings","pattern"],"bee_group":{"antennae":"X","wings":"2","pattern":"S","legs":"X"},"action":"harvest","summary":"good-harvest","bonus":0.920000000000001},{"rt":1590,"stimulus":"\n                    <p><b>Action: <em>harvest</em></b></p>\n                    <p>This is the bee that you just saw.</p>\n                    <img src=\"bees-with-color/bee-A1DF.svg\" width=\"200\">\n                    <p><span class=\"greenText\"><b>Successful harvest!</b></span><br>Your pay has increased by $0.02. Your bonus pay is now $0.52.</p>\n            ","response":0,"trial_type":"html-button-response","trial_index":66,"time_elapsed":786390,"internal_node_id":"0.0-4.0-1.27","subject_id":"5f3b95fb505d7b2d3840293c","study_id":"6197b3f67c2b5cd3b6d9596a","session_id":"619bef0506ef00125c651558","condition":"full-information","relevant_dimensions":["wings","pattern"],"bee_group":{"antennae":"X","wings":"2","pattern":"S","legs":"X"},"bonus":0.920000000000001},{"rt":3275.7999997138977,"stimulus":"bees-with-color/bee-B2SF.svg","response":0,"trial_type":"image-button-response","trial_index":67,"time_elapsed":789680,"internal_node_id":"0.0-4.0-0.28","subject_id":"5f3b95fb505d7b2d3840293c","study_id":"6197b3f67c2b5cd3b6d9596a","session_id":"619bef0506ef00125c651558","condition":"full-information","relevant_dimensions":["wings","pattern"],"bee_group":{"antennae":"X","wings":"2","pattern":"S","legs":"X"},"action":"harvest","summary":"bad-harvest","bonus":0.920000000000001},{"rt":1575.8000001907349,"stimulus":"\n                    <p><b>Action: <em>harvest</em></b></p>\n                    <p>This is the bee that you just saw.</p>\n                    <img src=\"bees-with-color/bee-B2SF.svg\" width=\"200\">\n                    <p><span class=\"redText\">Bad choice, the bee was angry.</span><br><b>You have been stung!</b><br>Your pay has been decreased by $0.10. Your bonus pay is now $0.42.</p>\n            ","response":0,"trial_type":"html-button-response","trial_index":68,"time_elapsed":791266,"internal_node_id":"0.0-4.0-1.28","subject_id":"5f3b95fb505d7b2d3840293c","study_id":"6197b3f67c2b5cd3b6d9596a","session_id":"619bef0506ef00125c651558","condition":"full-information","relevant_dimensions":["wings","pattern"],"bee_group":{"antennae":"X","wings":"2","pattern":"S","legs":"X"},"bonus":0.920000000000001},{"rt":4322.099999904633,"stimulus":"bees-with-color/bee-A1SF.svg","response":0,"trial_type":"image-button-response","trial_index":69,"time_elapsed":795598,"internal_node_id":"0.0-4.0-0.29","subject_id":"5f3b95fb505d7b2d3840293c","study_id":"6197b3f67c2b5cd3b6d9596a","session_id":"619bef0506ef00125c651558","condition":"full-information","relevant_dimensions":["wings","pattern"],"bee_group":{"antennae":"X","wings":"2","pattern":"S","legs":"X"},"action":"harvest","summary":"good-harvest","bonus":0.920000000000001},{"rt":2016.1999998092651,"stimulus":"\n                    <p><b>Action: <em>harvest</em></b></p>\n                    <p>This is the bee that you just saw.</p>\n                    <img src=\"bees-with-color/bee-A1SF.svg\" width=\"200\">\n                    <p><span class=\"greenText\"><b>Successful harvest!</b></span><br>Your pay has increased by $0.02. Your bonus pay is now $0.44.</p>\n            ","response":0,"trial_type":"html-button-response","trial_index":70,"time_elapsed":797625,"internal_node_id":"0.0-4.0-1.29","subject_id":"5f3b95fb505d7b2d3840293c","study_id":"6197b3f67c2b5cd3b6d9596a","session_id":"619bef0506ef00125c651558","condition":"full-information","relevant_dimensions":["wings","pattern"],"bee_group":{"antennae":"X","wings":"2","pattern":"S","legs":"X"},"bonus":0.920000000000001},{"rt":3199,"stimulus":"bees-with-color/bee-B1SF.svg","response":0,"trial_type":"image-button-response","trial_index":71,"time_elapsed":800834,"internal_node_id":"0.0-4.0-0.30","subject_id":"5f3b95fb505d7b2d3840293c","study_id":"6197b3f67c2b5cd3b6d9596a","session_id":"619bef0506ef00125c651558","condition":"full-information","relevant_dimensions":["wings","pattern"],"bee_group":{"antennae":"X","wings":"2","pattern":"S","legs":"X"},"action":"harvest","summary":"good-harvest","bonus":0.920000000000001},{"rt":1557.2000002861023,"stimulus":"\n                    <p><b>Action: <em>harvest</em></b></p>\n                    <p>This is the bee that you just saw.</p>\n                    <img src=\"bees-with-color/bee-B1SF.svg\" width=\"200\">\n                    <p><span class=\"greenText\"><b>Successful harvest!</b></span><br>Your pay has increased by $0.02. Your bonus pay is now $0.46.</p>\n            ","response":0,"trial_type":"html-button-response","trial_index":72,"time_elapsed":802399,"internal_node_id":"0.0-4.0-1.30","subject_id":"5f3b95fb505d7b2d3840293c","study_id":"6197b3f67c2b5cd3b6d9596a","session_id":"619bef0506ef00125c651558","condition":"full-information","relevant_dimensions":["wings","pattern"],"bee_group":{"antennae":"X","wings":"2","pattern":"S","legs":"X"},"bonus":0.920000000000001},{"rt":4570.099999904633,"stimulus":"bees-with-color/bee-A1SM.svg","response":0,"trial_type":"image-button-response","trial_index":73,"time_elapsed":806977,"internal_node_id":"0.0-4.0-0.31","subject_id":"5f3b95fb505d7b2d3840293c","study_id":"6197b3f67c2b5cd3b6d9596a","session_id":"619bef0506ef00125c651558","condition":"full-information","relevant_dimensions":["wings","pattern"],"bee_group":{"antennae":"X","wings":"2","pattern":"S","legs":"X"},"action":"harvest","summary":"good-harvest","bonus":0.920000000000001},{"rt":1422.9000000953674,"stimulus":"\n                    <p><b>Action: <em>harvest</em></b></p>\n                    <p>This is the bee that you just saw.</p>\n                    <img src=\"bees-with-color/bee-A1SM.svg\" width=\"200\">\n                    <p><span class=\"greenText\"><b>Successful harvest!</b></span><br>Your pay has increased by $0.02. Your bonus pay is now $0.48.</p>\n            ","response":0,"trial_type":"html-button-response","trial_index":74,"time_elapsed":808408,"internal_node_id":"0.0-4.0-1.31","subject_id":"5f3b95fb505d7b2d3840293c","study_id":"6197b3f67c2b5cd3b6d9596a","session_id":"619bef0506ef00125c651558","condition":"full-information","relevant_dimensions":["wings","pattern"],"bee_group":{"antennae":"X","wings":"2","pattern":"S","legs":"X"},"bonus":0.920000000000001},{"rt":3848,"stimulus":"bees-with-color/bee-A1SF.svg","response":1,"trial_type":"image-button-response","trial_index":75,"time_elapsed":812266,"internal_node_id":"0.0-4.0-0.32","subject_id":"5f3b95fb505d7b2d3840293c","study_id":"6197b3f67c2b5cd3b6d9596a","session_id":"619bef0506ef00125c651558","condition":"full-information","relevant_dimensions":["wings","pattern"],"bee_group":{"antennae":"X","wings":"2","pattern":"S","legs":"X"},"action":"avoid","summary":"bad-avoid","bonus":0.920000000000001},{"rt":1770,"stimulus":"\n                    <p><b>Action: <em>avoid</em></b></p>\n                    <p>This is the bee that you just saw.</p>\n                    <img src=\"bees-with-color/bee-A1SF.svg\" width=\"200\">\n                    <p><span class=\"redText\">Bad choice,</span> the bee was friendly.<br>Your bonus pay is unchanged, and remains at $0.48.</p>\n            ","response":0,"trial_type":"html-button-response","trial_index":76,"time_elapsed":814044,"internal_node_id":"0.0-4.0-1.32","subject_id":"5f3b95fb505d7b2d3840293c","study_id":"6197b3f67c2b5cd3b6d9596a","session_id":"619bef0506ef00125c651558","condition":"full-information","relevant_dimensions":["wings","pattern"],"bee_group":{"antennae":"X","wings":"2","pattern":"S","legs":"X"},"bonus":0.920000000000001},{"rt":2226.5999999046326,"stimulus":"bees-with-color/bee-B1SM.svg","response":1,"trial_type":"image-button-response","trial_index":77,"time_elapsed":816274,"internal_node_id":"0.0-4.0-0.33","subject_id":"5f3b95fb505d7b2d3840293c","study_id":"6197b3f67c2b5cd3b6d9596a","session_id":"619bef0506ef00125c651558","condition":"full-information","relevant_dimensions":["wings","pattern"],"bee_group":{"antennae":"X","wings":"2","pattern":"S","legs":"X"},"action":"avoid","summary":"bad-avoid","bonus":0.920000000000001},{"rt":1603.5,"stimulus":"\n                    <p><b>Action: <em>avoid</em></b></p>\n                    <p>This is the bee that you just saw.</p>\n                    <img src=\"bees-with-color/bee-B1SM.svg\" width=\"200\">\n                    <p><span class=\"redText\">Bad choice,</span> the bee was friendly.<br>Your bonus pay is unchanged, and remains at $0.48.</p>\n            ","response":0,"trial_type":"html-button-response","trial_index":78,"time_elapsed":817885,"internal_node_id":"0.0-4.0-1.33","subject_id":"5f3b95fb505d7b2d3840293c","study_id":"6197b3f67c2b5cd3b6d9596a","session_id":"619bef0506ef00125c651558","condition":"full-information","relevant_dimensions":["wings","pattern"],"bee_group":{"antennae":"X","wings":"2","pattern":"S","legs":"X"},"bonus":0.920000000000001},{"rt":2079,"stimulus":"bees-with-color/bee-B2DF.svg","response":1,"trial_type":"image-button-response","trial_index":79,"time_elapsed":819972,"internal_node_id":"0.0-4.0-0.34","subject_id":"5f3b95fb505d7b2d3840293c","study_id":"6197b3f67c2b5cd3b6d9596a","session_id":"619bef0506ef00125c651558","condition":"full-information","relevant_dimensions":["wings","pattern"],"bee_group":{"antennae":"X","wings":"2","pattern":"S","legs":"X"},"action":"avoid","summary":"bad-avoid","bonus":0.920000000000001},{"rt":1486.8000001907349,"stimulus":"\n                    <p><b>Action: <em>avoid</em></b></p>\n                    <p>This is the bee that you just saw.</p>\n                    <img src=\"bees-with-color/bee-B2DF.svg\" width=\"200\">\n                    <p><span class=\"redText\">Bad choice,</span> the bee was friendly.<br>Your bonus pay is unchanged, and remains at $0.48.</p>\n            ","response":0,"trial_type":"html-button-response","trial_index":80,"time_elapsed":821467,"internal_node_id":"0.0-4.0-1.34","subject_id":"5f3b95fb505d7b2d3840293c","study_id":"6197b3f67c2b5cd3b6d9596a","session_id":"619bef0506ef00125c651558","condition":"full-information","relevant_dimensions":["wings","pattern"],"bee_group":{"antennae":"X","wings":"2","pattern":"S","legs":"X"},"bonus":0.920000000000001},{"rt":2353.4000000953674,"stimulus":"bees-with-color/bee-B2SF.svg","response":1,"trial_type":"image-button-response","trial_index":81,"time_elapsed":823828,"internal_node_id":"0.0-4.0-0.35","subject_id":"5f3b95fb505d7b2d3840293c","study_id":"6197b3f67c2b5cd3b6d9596a","session_id":"619bef0506ef00125c651558","condition":"full-information","relevant_dimensions":["wings","pattern"],"bee_group":{"antennae":"X","wings":"2","pattern":"S","legs":"X"},"action":"avoid","summary":"good-avoid","bonus":0.920000000000001},{"rt":1710.7000002861023,"stimulus":"\n                    <p><b>Action: <em>avoid</em></b></p>\n                    <p>This is the bee that you just saw.</p>\n                    <img src=\"bees-with-color/bee-B2SF.svg\" width=\"200\">\n                    <p><span class=\"greenText\">Good choice!</span>  This bee would have stung you.<br>Your bonus pay is unchanged, and remains at $0.48.</p>\n            ","response":0,"trial_type":"html-button-response","trial_index":82,"time_elapsed":825546,"internal_node_id":"0.0-4.0-1.35","subject_id":"5f3b95fb505d7b2d3840293c","study_id":"6197b3f67c2b5cd3b6d9596a","session_id":"619bef0506ef00125c651558","condition":"full-information","relevant_dimensions":["wings","pattern"],"bee_group":{"antennae":"X","wings":"2","pattern":"S","legs":"X"},"bonus":0.920000000000001},{"rt":3866.699999809265,"stimulus":"bees-with-color/bee-A2SF.svg","response":0,"trial_type":"image-button-response","trial_index":83,"time_elapsed":829421,"internal_node_id":"0.0-4.0-0.36","subject_id":"5f3b95fb505d7b2d3840293c","study_id":"6197b3f67c2b5cd3b6d9596a","session_id":"619bef0506ef00125c651558","condition":"full-information","relevant_dimensions":["wings","pattern"],"bee_group":{"antennae":"X","wings":"2","pattern":"S","legs":"X"},"action":"harvest","summary":"bad-harvest","bonus":0.920000000000001},{"rt":1469.4000000953674,"stimulus":"\n                    <p><b>Action: <em>harvest</em></b></p>\n                    <p>This is the bee that you just saw.</p>\n                    <img src=\"bees-with-color/bee-A2SF.svg\" width=\"200\">\n                    <p><span class=\"redText\">Bad choice, the bee was angry.</span><br><b>You have been stung!</b><br>Your pay has been decreased by $0.10. Your bonus pay is now $0.38.</p>\n            ","response":0,"trial_type":"html-button-response","trial_index":84,"time_elapsed":830898,"internal_node_id":"0.0-4.0-1.36","subject_id":"5f3b95fb505d7b2d3840293c","study_id":"6197b3f67c2b5cd3b6d9596a","session_id":"619bef0506ef00125c651558","condition":"full-information","relevant_dimensions":["wings","pattern"],"bee_group":{"antennae":"X","wings":"2","pattern":"S","legs":"X"},"bonus":0.920000000000001},{"rt":3338.0999999046326,"stimulus":"bees-with-color/bee-A1DF.svg","response":0,"trial_type":"image-button-response","trial_index":85,"time_elapsed":834244,"internal_node_id":"0.0-4.0-0.37","subject_id":"5f3b95fb505d7b2d3840293c","study_id":"6197b3f67c2b5cd3b6d9596a","session_id":"619bef0506ef00125c651558","condition":"full-information","relevant_dimensions":["wings","pattern"],"bee_group":{"antennae":"X","wings":"2","pattern":"S","legs":"X"},"action":"harvest","summary":"good-harvest","bonus":0.920000000000001},{"rt":1443.6999998092651,"stimulus":"\n                    <p><b>Action: <em>harvest</em></b></p>\n                    <p>This is the bee that you just saw.</p>\n                    <img src=\"bees-with-color/bee-A1DF.svg\" width=\"200\">\n                    <p><span class=\"greenText\"><b>Successful harvest!</b></span><br>Your pay has increased by $0.02. Your bonus pay is now $0.40.</p>\n            ","response":0,"trial_type":"html-button-response","trial_index":86,"time_elapsed":835695,"internal_node_id":"0.0-4.0-1.37","subject_id":"5f3b95fb505d7b2d3840293c","study_id":"6197b3f67c2b5cd3b6d9596a","session_id":"619bef0506ef00125c651558","condition":"full-information","relevant_dimensions":["wings","pattern"],"bee_group":{"antennae":"X","wings":"2","pattern":"S","legs":"X"},"bonus":0.920000000000001},{"rt":2347.199999809265,"stimulus":"bees-with-color/bee-A1SM.svg","response":0,"trial_type":"image-button-response","trial_index":87,"time_elapsed":838050,"internal_node_id":"0.0-4.0-0.38","subject_id":"5f3b95fb505d7b2d3840293c","study_id":"6197b3f67c2b5cd3b6d9596a","session_id":"619bef0506ef00125c651558","condition":"full-information","relevant_dimensions":["wings","pattern"],"bee_group":{"antennae":"X","wings":"2","pattern":"S","legs":"X"},"action":"harvest","summary":"good-harvest","bonus":0.920000000000001},{"rt":3039.5,"stimulus":"\n                    <p><b>Action: <em>harvest</em></b></p>\n                    <p>This is the bee that you just saw.</p>\n                    <img src=\"bees-with-color/bee-A1SM.svg\" width=\"200\">\n                    <p><span class=\"greenText\"><b>Successful harvest!</b></span><br>Your pay has increased by $0.02. Your bonus pay is now $0.42.</p>\n            ","response":0,"trial_type":"html-button-response","trial_index":88,"time_elapsed":841099,"internal_node_id":"0.0-4.0-1.38","subject_id":"5f3b95fb505d7b2d3840293c","study_id":"6197b3f67c2b5cd3b6d9596a","session_id":"619bef0506ef00125c651558","condition":"full-information","relevant_dimensions":["wings","pattern"],"bee_group":{"antennae":"X","wings":"2","pattern":"S","legs":"X"},"bonus":0.920000000000001},{"rt":3329.2000002861023,"stimulus":"bees-with-color/bee-A2DF.svg","response":0,"trial_type":"image-button-response","trial_index":89,"time_elapsed":844436,"internal_node_id":"0.0-4.0-0.39","subject_id":"5f3b95fb505d7b2d3840293c","study_id":"6197b3f67c2b5cd3b6d9596a","session_id":"619bef0506ef00125c651558","condition":"full-information","relevant_dimensions":["wings","pattern"],"bee_group":{"antennae":"X","wings":"2","pattern":"S","legs":"X"},"action":"harvest","summary":"good-harvest","bonus":0.920000000000001},{"rt":1402.8000001907349,"stimulus":"\n                    <p><b>Action: <em>harvest</em></b></p>\n                    <p>This is the bee that you just saw.</p>\n                    <img src=\"bees-with-color/bee-A2DF.svg\" width=\"200\">\n                    <p><span class=\"greenText\"><b>Successful harvest!</b></span><br>Your pay has increased by $0.02. Your bonus pay is now $0.44.</p>\n            ","response":0,"trial_type":"html-button-response","trial_index":90,"time_elapsed":845847,"internal_node_id":"0.0-4.0-1.39","subject_id":"5f3b95fb505d7b2d3840293c","study_id":"6197b3f67c2b5cd3b6d9596a","session_id":"619bef0506ef00125c651558","condition":"full-information","relevant_dimensions":["wings","pattern"],"bee_group":{"antennae":"X","wings":"2","pattern":"S","legs":"X"},"bonus":0.920000000000001},{"rt":1710,"stimulus":"bees-with-color/bee-B1DM.svg","response":0,"trial_type":"image-button-response","trial_index":91,"time_elapsed":847565,"internal_node_id":"0.0-4.0-0.40","subject_id":"5f3b95fb505d7b2d3840293c","study_id":"6197b3f67c2b5cd3b6d9596a","session_id":"619bef0506ef00125c651558","condition":"full-information","relevant_dimensions":["wings","pattern"],"bee_group":{"antennae":"X","wings":"2","pattern":"S","legs":"X"},"action":"harvest","summary":"good-harvest","bonus":0.920000000000001},{"rt":1376,"stimulus":"\n                    <p><b>Action: <em>harvest</em></b></p>\n                    <p>This is the bee that you just saw.</p>\n                    <img src=\"bees-with-color/bee-B1DM.svg\" width=\"200\">\n                    <p><span class=\"greenText\"><b>Successful harvest!</b></span><br>Your pay has increased by $0.02. Your bonus pay is now $0.46.</p>\n            ","response":0,"trial_type":"html-button-response","trial_index":92,"time_elapsed":848950,"internal_node_id":"0.0-4.0-1.40","subject_id":"5f3b95fb505d7b2d3840293c","study_id":"6197b3f67c2b5cd3b6d9596a","session_id":"619bef0506ef00125c651558","condition":"full-information","relevant_dimensions":["wings","pattern"],"bee_group":{"antennae":"X","wings":"2","pattern":"S","legs":"X"},"bonus":0.920000000000001},{"rt":2668.2000002861023,"stimulus":"bees-with-color/bee-B2DM.svg","response":0,"trial_type":"image-button-response","trial_index":93,"time_elapsed":851628,"internal_node_id":"0.0-4.0-0.41","subject_id":"5f3b95fb505d7b2d3840293c","study_id":"6197b3f67c2b5cd3b6d9596a","session_id":"619bef0506ef00125c651558","condition":"full-information","relevant_dimensions":["wings","pattern"],"bee_group":{"antennae":"X","wings":"2","pattern":"S","legs":"X"},"action":"harvest","summary":"good-harvest","bonus":0.920000000000001},{"rt":1371,"stimulus":"\n                    <p><b>Action: <em>harvest</em></b></p>\n                    <p>This is the bee that you just saw.</p>\n                    <img src=\"bees-with-color/bee-B2DM.svg\" width=\"200\">\n                    <p><span class=\"greenText\"><b>Successful harvest!</b></span><br>Your pay has increased by $0.02. Your bonus pay is now $0.48.</p>\n            ","response":0,"trial_type":"html-button-response","trial_index":94,"time_elapsed":853007,"internal_node_id":"0.0-4.0-1.41","subject_id":"5f3b95fb505d7b2d3840293c","study_id":"6197b3f67c2b5cd3b6d9596a","session_id":"619bef0506ef00125c651558","condition":"full-information","relevant_dimensions":["wings","pattern"],"bee_group":{"antennae":"X","wings":"2","pattern":"S","legs":"X"},"bonus":0.920000000000001},{"rt":1744.2000002861023,"stimulus":"bees-with-color/bee-A2DM.svg","response":0,"trial_type":"image-button-response","trial_index":95,"time_elapsed":854761,"internal_node_id":"0.0-4.0-0.42","subject_id":"5f3b95fb505d7b2d3840293c","study_id":"6197b3f67c2b5cd3b6d9596a","session_id":"619bef0506ef00125c651558","condition":"full-information","relevant_dimensions":["wings","pattern"],"bee_group":{"antennae":"X","wings":"2","pattern":"S","legs":"X"},"action":"harvest","summary":"good-harvest","bonus":0.920000000000001},{"rt":1776.5999999046326,"stimulus":"\n                    <p><b>Action: <em>harvest</em></b></p>\n                    <p>This is the bee that you just saw.</p>\n                    <img src=\"bees-with-color/bee-A2DM.svg\" width=\"200\">\n                    <p><span class=\"greenText\"><b>Successful harvest!</b></span><br>Your pay has increased by $0.02. Your bonus pay is now $0.50.</p>\n            ","response":0,"trial_type":"html-button-response","trial_index":96,"time_elapsed":856546,"internal_node_id":"0.0-4.0-1.42","subject_id":"5f3b95fb505d7b2d3840293c","study_id":"6197b3f67c2b5cd3b6d9596a","session_id":"619bef0506ef00125c651558","condition":"full-information","relevant_dimensions":["wings","pattern"],"bee_group":{"antennae":"X","wings":"2","pattern":"S","legs":"X"},"bonus":0.920000000000001},{"rt":3314.7999997138977,"stimulus":"bees-with-color/bee-B2SM.svg","response":0,"trial_type":"image-button-response","trial_index":97,"time_elapsed":859868,"internal_node_id":"0.0-4.0-0.43","subject_id":"5f3b95fb505d7b2d3840293c","study_id":"6197b3f67c2b5cd3b6d9596a","session_id":"619bef0506ef00125c651558","condition":"full-information","relevant_dimensions":["wings","pattern"],"bee_group":{"antennae":"X","wings":"2","pattern":"S","legs":"X"},"action":"harvest","summary":"bad-harvest","bonus":0.920000000000001},{"rt":1542.4000000953674,"stimulus":"\n                    <p><b>Action: <em>harvest</em></b></p>\n                    <p>This is the bee that you just saw.</p>\n                    <img src=\"bees-with-color/bee-B2SM.svg\" width=\"200\">\n                    <p><span class=\"redText\">Bad choice, the bee was angry.</span><br><b>You have been stung!</b><br>Your pay has been decreased by $0.10. Your bonus pay is now $0.40.</p>\n            ","response":0,"trial_type":"html-button-response","trial_index":98,"time_elapsed":861420,"internal_node_id":"0.0-4.0-1.43","subject_id":"5f3b95fb505d7b2d3840293c","study_id":"6197b3f67c2b5cd3b6d9596a","session_id":"619bef0506ef00125c651558","condition":"full-information","relevant_dimensions":["wings","pattern"],"bee_group":{"antennae":"X","wings":"2","pattern":"S","legs":"X"},"bonus":0.920000000000001},{"rt":2111.6000003814697,"stimulus":"bees-with-color/bee-B1SF.svg","response":0,"trial_type":"image-button-response","trial_index":99,"time_elapsed":863542,"internal_node_id":"0.0-4.0-0.44","subject_id":"5f3b95fb505d7b2d3840293c","study_id":"6197b3f67c2b5cd3b6d9596a","session_id":"619bef0506ef00125c651558","condition":"full-information","relevant_dimensions":["wings","pattern"],"bee_group":{"antennae":"X","wings":"2","pattern":"S","legs":"X"},"action":"harvest","summary":"good-harvest","bonus":0.920000000000001},{"rt":1286,"stimulus":"\n                    <p><b>Action: <em>harvest</em></b></p>\n                    <p>This is the bee that you just saw.</p>\n                    <img src=\"bees-with-color/bee-B1SF.svg\" width=\"200\">\n                    <p><span class=\"greenText\"><b>Successful harvest!</b></span><br>Your pay has increased by $0.02. Your bonus pay is now $0.42.</p>\n            ","response":0,"trial_type":"html-button-response","trial_index":100,"time_elapsed":864837,"internal_node_id":"0.0-4.0-1.44","subject_id":"5f3b95fb505d7b2d3840293c","study_id":"6197b3f67c2b5cd3b6d9596a","session_id":"619bef0506ef00125c651558","condition":"full-information","relevant_dimensions":["wings","pattern"],"bee_group":{"antennae":"X","wings":"2","pattern":"S","legs":"X"},"bonus":0.920000000000001},{"rt":2064,"stimulus":"bees-with-color/bee-B1DF.svg","response":0,"trial_type":"image-button-response","trial_index":101,"time_elapsed":866913,"internal_node_id":"0.0-4.0-0.45","subject_id":"5f3b95fb505d7b2d3840293c","study_id":"6197b3f67c2b5cd3b6d9596a","session_id":"619bef0506ef00125c651558","condition":"full-information","relevant_dimensions":["wings","pattern"],"bee_group":{"antennae":"X","wings":"2","pattern":"S","legs":"X"},"action":"harvest","summary":"good-harvest","bonus":0.920000000000001},{"rt":1311.4000000953674,"stimulus":"\n                    <p><b>Action: <em>harvest</em></b></p>\n                    <p>This is the bee that you just saw.</p>\n                    <img src=\"bees-with-color/bee-B1DF.svg\" width=\"200\">\n                    <p><span class=\"greenText\"><b>Successful harvest!</b></span><br>Your pay has increased by $0.02. Your bonus pay is now $0.44.</p>\n            ","response":0,"trial_type":"html-button-response","trial_index":102,"time_elapsed":868233,"internal_node_id":"0.0-4.0-1.45","subject_id":"5f3b95fb505d7b2d3840293c","study_id":"6197b3f67c2b5cd3b6d9596a","session_id":"619bef0506ef00125c651558","condition":"full-information","relevant_dimensions":["wings","pattern"],"bee_group":{"antennae":"X","wings":"2","pattern":"S","legs":"X"},"bonus":0.920000000000001},{"rt":1975.2999997138977,"stimulus":"bees-with-color/bee-A1DM.svg","response":0,"trial_type":"image-button-response","trial_index":103,"time_elapsed":870219,"internal_node_id":"0.0-4.0-0.46","subject_id":"5f3b95fb505d7b2d3840293c","study_id":"6197b3f67c2b5cd3b6d9596a","session_id":"619bef0506ef00125c651558","condition":"full-information","relevant_dimensions":["wings","pattern"],"bee_group":{"antennae":"X","wings":"2","pattern":"S","legs":"X"},"action":"harvest","summary":"good-harvest","bonus":0.920000000000001},{"rt":1301.4000000953674,"stimulus":"\n                    <p><b>Action: <em>harvest</em></b></p>\n                    <p>This is the bee that you just saw.</p>\n                    <img src=\"bees-with-color/bee-A1DM.svg\" width=\"200\">\n                    <p><span class=\"greenText\"><b>Successful harvest!</b></span><br>Your pay has increased by $0.02. Your bonus pay is now $0.46.</p>\n            ","response":0,"trial_type":"html-button-response","trial_index":104,"time_elapsed":871530,"internal_node_id":"0.0-4.0-1.46","subject_id":"5f3b95fb505d7b2d3840293c","study_id":"6197b3f67c2b5cd3b6d9596a","session_id":"619bef0506ef00125c651558","condition":"full-information","relevant_dimensions":["wings","pattern"],"bee_group":{"antennae":"X","wings":"2","pattern":"S","legs":"X"},"bonus":0.920000000000001},{"rt":2102.3999996185303,"stimulus":"bees-with-color/bee-A2SM.svg","response":1,"trial_type":"image-button-response","trial_index":105,"time_elapsed":873641,"internal_node_id":"0.0-4.0-0.47","subject_id":"5f3b95fb505d7b2d3840293c","study_id":"6197b3f67c2b5cd3b6d9596a","session_id":"619bef0506ef00125c651558","condition":"full-information","relevant_dimensions":["wings","pattern"],"bee_group":{"antennae":"X","wings":"2","pattern":"S","legs":"X"},"action":"avoid","summary":"good-avoid","bonus":0.920000000000001},{"rt":1669.4000000953674,"stimulus":"\n                    <p><b>Action: <em>avoid</em></b></p>\n                    <p>This is the bee that you just saw.</p>\n                    <img src=\"bees-with-color/bee-A2SM.svg\" width=\"200\">\n                    <p><span class=\"greenText\">Good choice!</span>  This bee would have stung you.<br>Your bonus pay is unchanged, and remains at $0.46.</p>\n            ","response":0,"trial_type":"html-button-response","trial_index":106,"time_elapsed":875319,"internal_node_id":"0.0-4.0-1.47","subject_id":"5f3b95fb505d7b2d3840293c","study_id":"6197b3f67c2b5cd3b6d9596a","session_id":"619bef0506ef00125c651558","condition":"full-information","relevant_dimensions":["wings","pattern"],"bee_group":{"antennae":"X","wings":"2","pattern":"S","legs":"X"},"bonus":0.920000000000001},{"rt":1751.4000000953674,"stimulus":"bees-with-color/bee-B1DM.svg","response":0,"trial_type":"image-button-response","trial_index":107,"time_elapsed":877083,"internal_node_id":"0.0-4.0-0.48","subject_id":"5f3b95fb505d7b2d3840293c","study_id":"6197b3f67c2b5cd3b6d9596a","session_id":"619bef0506ef00125c651558","condition":"full-information","relevant_dimensions":["wings","pattern"],"bee_group":{"antennae":"X","wings":"2","pattern":"S","legs":"X"},"action":"harvest","summary":"good-harvest","bonus":0.920000000000001},{"rt":1459.6999998092651,"stimulus":"\n                    <p><b>Action: <em>harvest</em></b></p>\n                    <p>This is the bee that you just saw.</p>\n                    <img src=\"bees-with-color/bee-B1DM.svg\" width=\"200\">\n                    <p><span class=\"greenText\"><b>Successful harvest!</b></span><br>Your pay has increased by $0.02. Your bonus pay is now $0.48.</p>\n            ","response":0,"trial_type":"html-button-response","trial_index":108,"time_elapsed":878552,"internal_node_id":"0.0-4.0-1.48","subject_id":"5f3b95fb505d7b2d3840293c","study_id":"6197b3f67c2b5cd3b6d9596a","session_id":"619bef0506ef00125c651558","condition":"full-information","relevant_dimensions":["wings","pattern"],"bee_group":{"antennae":"X","wings":"2","pattern":"S","legs":"X"},"bonus":0.920000000000001},{"rt":1880.7999997138977,"stimulus":"bees-with-color/bee-B2SF.svg","response":0,"trial_type":"image-button-response","trial_index":109,"time_elapsed":880440,"internal_node_id":"0.0-4.0-0.49","subject_id":"5f3b95fb505d7b2d3840293c","study_id":"6197b3f67c2b5cd3b6d9596a","session_id":"619bef0506ef00125c651558","condition":"full-information","relevant_dimensions":["wings","pattern"],"bee_group":{"antennae":"X","wings":"2","pattern":"S","legs":"X"},"action":"harvest","summary":"bad-harvest","bonus":0.920000000000001},{"rt":1451.1000003814697,"stimulus":"\n                    <p><b>Action: <em>harvest</em></b></p>\n                    <p>This is the bee that you just saw.</p>\n                    <img src=\"bees-with-color/bee-B2SF.svg\" width=\"200\">\n                    <p><span class=\"redText\">Bad choice, the bee was angry.</span><br><b>You have been stung!</b><br>Your pay has been decreased by $0.10. Your bonus pay is now $0.38.</p>\n            ","response":0,"trial_type":"html-button-response","trial_index":110,"time_elapsed":881901,"internal_node_id":"0.0-4.0-1.49","subject_id":"5f3b95fb505d7b2d3840293c","study_id":"6197b3f67c2b5cd3b6d9596a","session_id":"619bef0506ef00125c651558","condition":"full-information","relevant_dimensions":["wings","pattern"],"bee_group":{"antennae":"X","wings":"2","pattern":"S","legs":"X"},"bonus":0.920000000000001},{"rt":1886.5999999046326,"stimulus":"bees-with-color/bee-A2DF.svg","response":0,"trial_type":"image-button-response","trial_index":111,"time_elapsed":883796,"internal_node_id":"0.0-4.0-0.50","subject_id":"5f3b95fb505d7b2d3840293c","study_id":"6197b3f67c2b5cd3b6d9596a","session_id":"619bef0506ef00125c651558","condition":"full-information","relevant_dimensions":["wings","pattern"],"bee_group":{"antennae":"X","wings":"2","pattern":"S","legs":"X"},"action":"harvest","summary":"good-harvest","bonus":0.920000000000001},{"rt":1591.4000000953674,"stimulus":"\n                    <p><b>Action: <em>harvest</em></b></p>\n                    <p>This is the bee that you just saw.</p>\n                    <img src=\"bees-with-color/bee-A2DF.svg\" width=\"200\">\n                    <p><span class=\"greenText\"><b>Successful harvest!</b></span><br>Your pay has increased by $0.02. Your bonus pay is now $0.40.</p>\n            ","response":0,"trial_type":"html-button-response","trial_index":112,"time_elapsed":885396,"internal_node_id":"0.0-4.0-1.50","subject_id":"5f3b95fb505d7b2d3840293c","study_id":"6197b3f67c2b5cd3b6d9596a","session_id":"619bef0506ef00125c651558","condition":"full-information","relevant_dimensions":["wings","pattern"],"bee_group":{"antennae":"X","wings":"2","pattern":"S","legs":"X"},"bonus":0.920000000000001},{"rt":4114.89999961853,"stimulus":"bees-with-color/bee-B1SM.svg","response":1,"trial_type":"image-button-response","trial_index":113,"time_elapsed":889519,"internal_node_id":"0.0-4.0-0.51","subject_id":"5f3b95fb505d7b2d3840293c","study_id":"6197b3f67c2b5cd3b6d9596a","session_id":"619bef0506ef00125c651558","condition":"full-information","relevant_dimensions":["wings","pattern"],"bee_group":{"antennae":"X","wings":"2","pattern":"S","legs":"X"},"action":"avoid","summary":"bad-avoid","bonus":0.920000000000001},{"rt":1717.8000001907349,"stimulus":"\n                    <p><b>Action: <em>avoid</em></b></p>\n                    <p>This is the bee that you just saw.</p>\n                    <img src=\"bees-with-color/bee-B1SM.svg\" width=\"200\">\n                    <p><span class=\"redText\">Bad choice,</span> the bee was friendly.<br>Your bonus pay is unchanged, and remains at $0.40.</p>\n            ","response":0,"trial_type":"html-button-response","trial_index":114,"time_elapsed":891243,"internal_node_id":"0.0-4.0-1.51","subject_id":"5f3b95fb505d7b2d3840293c","study_id":"6197b3f67c2b5cd3b6d9596a","session_id":"619bef0506ef00125c651558","condition":"full-information","relevant_dimensions":["wings","pattern"],"bee_group":{"antennae":"X","wings":"2","pattern":"S","legs":"X"},"bonus":0.920000000000001},{"rt":1655.9000000953674,"stimulus":"bees-with-color/bee-A2SM.svg","response":1,"trial_type":"image-button-response","trial_index":115,"time_elapsed":892909,"internal_node_id":"0.0-4.0-0.52","subject_id":"5f3b95fb505d7b2d3840293c","study_id":"6197b3f67c2b5cd3b6d9596a","session_id":"619bef0506ef00125c651558","condition":"full-information","relevant_dimensions":["wings","pattern"],"bee_group":{"antennae":"X","wings":"2","pattern":"S","legs":"X"},"action":"avoid","summary":"good-avoid","bonus":0.920000000000001},{"rt":1544.5999999046326,"stimulus":"\n                    <p><b>Action: <em>avoid</em></b></p>\n                    <p>This is the bee that you just saw.</p>\n                    <img src=\"bees-with-color/bee-A2SM.svg\" width=\"200\">\n                    <p><span class=\"greenText\">Good choice!</span>  This bee would have stung you.<br>Your bonus pay is unchanged, and remains at $0.40.</p>\n            ","response":0,"trial_type":"html-button-response","trial_index":116,"time_elapsed":894461,"internal_node_id":"0.0-4.0-1.52","subject_id":"5f3b95fb505d7b2d3840293c","study_id":"6197b3f67c2b5cd3b6d9596a","session_id":"619bef0506ef00125c651558","condition":"full-information","relevant_dimensions":["wings","pattern"],"bee_group":{"antennae":"X","wings":"2","pattern":"S","legs":"X"},"bonus":0.920000000000001},{"rt":2295.199999809265,"stimulus":"bees-with-color/bee-A1DF.svg","response":0,"trial_type":"image-button-response","trial_index":117,"time_elapsed":896763,"internal_node_id":"0.0-4.0-0.53","subject_id":"5f3b95fb505d7b2d3840293c","study_id":"6197b3f67c2b5cd3b6d9596a","session_id":"619bef0506ef00125c651558","condition":"full-information","relevant_dimensions":["wings","pattern"],"bee_group":{"antennae":"X","wings":"2","pattern":"S","legs":"X"},"action":"harvest","summary":"good-harvest","bonus":0.920000000000001},{"rt":1295.7000002861023,"stimulus":"\n                    <p><b>Action: <em>harvest</em></b></p>\n                    <p>This is the bee that you just saw.</p>\n                    <img src=\"bees-with-color/bee-A1DF.svg\" width=\"200\">\n                    <p><span class=\"greenText\"><b>Successful harvest!</b></span><br>Your pay has increased by $0.02. Your bonus pay is now $0.42.</p>\n            ","response":0,"trial_type":"html-button-response","trial_index":118,"time_elapsed":898066,"internal_node_id":"0.0-4.0-1.53","subject_id":"5f3b95fb505d7b2d3840293c","study_id":"6197b3f67c2b5cd3b6d9596a","session_id":"619bef0506ef00125c651558","condition":"full-information","relevant_dimensions":["wings","pattern"],"bee_group":{"antennae":"X","wings":"2","pattern":"S","legs":"X"},"bonus":0.920000000000001},{"rt":2137.199999809265,"stimulus":"bees-with-color/bee-A1SF.svg","response":0,"trial_type":"image-button-response","trial_index":119,"time_elapsed":900212,"internal_node_id":"0.0-4.0-0.54","subject_id":"5f3b95fb505d7b2d3840293c","study_id":"6197b3f67c2b5cd3b6d9596a","session_id":"619bef0506ef00125c651558","condition":"full-information","relevant_dimensions":["wings","pattern"],"bee_group":{"antennae":"X","wings":"2","pattern":"S","legs":"X"},"action":"harvest","summary":"good-harvest","bonus":0.920000000000001},{"rt":1352.6999998092651,"stimulus":"\n                    <p><b>Action: <em>harvest</em></b></p>\n                    <p>This is the bee that you just saw.</p>\n                    <img src=\"bees-with-color/bee-A1SF.svg\" width=\"200\">\n                    <p><span class=\"greenText\"><b>Successful harvest!</b></span><br>Your pay has increased by $0.02. Your bonus pay is now $0.44.</p>\n            ","response":0,"trial_type":"html-button-response","trial_index":120,"time_elapsed":901571,"internal_node_id":"0.0-4.0-1.54","subject_id":"5f3b95fb505d7b2d3840293c","study_id":"6197b3f67c2b5cd3b6d9596a","session_id":"619bef0506ef00125c651558","condition":"full-information","relevant_dimensions":["wings","pattern"],"bee_group":{"antennae":"X","wings":"2","pattern":"S","legs":"X"},"bonus":0.920000000000001},{"rt":1563,"stimulus":"bees-with-color/bee-B1SF.svg","response":0,"trial_type":"image-button-response","trial_index":121,"time_elapsed":903142,"internal_node_id":"0.0-4.0-0.55","subject_id":"5f3b95fb505d7b2d3840293c","study_id":"6197b3f67c2b5cd3b6d9596a","session_id":"619bef0506ef00125c651558","condition":"full-information","relevant_dimensions":["wings","pattern"],"bee_group":{"antennae":"X","wings":"2","pattern":"S","legs":"X"},"action":"harvest","summary":"good-harvest","bonus":0.920000000000001},{"rt":1359,"stimulus":"\n                    <p><b>Action: <em>harvest</em></b></p>\n                    <p>This is the bee that you just saw.</p>\n                    <img src=\"bees-with-color/bee-B1SF.svg\" width=\"200\">\n                    <p><span class=\"greenText\"><b>Successful harvest!</b></span><br>Your pay has increased by $0.02. Your bonus pay is now $0.46.</p>\n            ","response":0,"trial_type":"html-button-response","trial_index":122,"time_elapsed":904510,"internal_node_id":"0.0-4.0-1.55","subject_id":"5f3b95fb505d7b2d3840293c","study_id":"6197b3f67c2b5cd3b6d9596a","session_id":"619bef0506ef00125c651558","condition":"full-information","relevant_dimensions":["wings","pattern"],"bee_group":{"antennae":"X","wings":"2","pattern":"S","legs":"X"},"bonus":0.920000000000001},{"rt":2149.4000000953674,"stimulus":"bees-with-color/bee-B1DF.svg","response":0,"trial_type":"image-button-response","trial_index":123,"time_elapsed":906667,"internal_node_id":"0.0-4.0-0.56","subject_id":"5f3b95fb505d7b2d3840293c","study_id":"6197b3f67c2b5cd3b6d9596a","session_id":"619bef0506ef00125c651558","condition":"full-information","relevant_dimensions":["wings","pattern"],"bee_group":{"antennae":"X","wings":"2","pattern":"S","legs":"X"},"action":"harvest","summary":"good-harvest","bonus":0.920000000000001},{"rt":1334.3000001907349,"stimulus":"\n                    <p><b>Action: <em>harvest</em></b></p>\n                    <p>This is the bee that you just saw.</p>\n                    <img src=\"bees-with-color/bee-B1DF.svg\" width=\"200\">\n                    <p><span class=\"greenText\"><b>Successful harvest!</b></span><br>Your pay has increased by $0.02. Your bonus pay is now $0.48.</p>\n            ","response":0,"trial_type":"html-button-response","trial_index":124,"time_elapsed":908009,"internal_node_id":"0.0-4.0-1.56","subject_id":"5f3b95fb505d7b2d3840293c","study_id":"6197b3f67c2b5cd3b6d9596a","session_id":"619bef0506ef00125c651558","condition":"full-information","relevant_dimensions":["wings","pattern"],"bee_group":{"antennae":"X","wings":"2","pattern":"S","legs":"X"},"bonus":0.920000000000001},{"rt":1702.6999998092651,"stimulus":"bees-with-color/bee-B2DM.svg","response":0,"trial_type":"image-button-response","trial_index":125,"time_elapsed":909719,"internal_node_id":"0.0-4.0-0.57","subject_id":"5f3b95fb505d7b2d3840293c","study_id":"6197b3f67c2b5cd3b6d9596a","session_id":"619bef0506ef00125c651558","condition":"full-information","relevant_dimensions":["wings","pattern"],"bee_group":{"antennae":"X","wings":"2","pattern":"S","legs":"X"},"action":"harvest","summary":"good-harvest","bonus":0.920000000000001},{"rt":1302.7999997138977,"stimulus":"\n                    <p><b>Action: <em>harvest</em></b></p>\n                    <p>This is the bee that you just saw.</p>\n                    <img src=\"bees-with-color/bee-B2DM.svg\" width=\"200\">\n                    <p><span class=\"greenText\"><b>Successful harvest!</b></span><br>Your pay has increased by $0.02. Your bonus pay is now $0.50.</p>\n            ","response":0,"trial_type":"html-button-response","trial_index":126,"time_elapsed":911031,"internal_node_id":"0.0-4.0-1.57","subject_id":"5f3b95fb505d7b2d3840293c","study_id":"6197b3f67c2b5cd3b6d9596a","session_id":"619bef0506ef00125c651558","condition":"full-information","relevant_dimensions":["wings","pattern"],"bee_group":{"antennae":"X","wings":"2","pattern":"S","legs":"X"},"bonus":0.920000000000001},{"rt":3756.7000002861023,"stimulus":"bees-with-color/bee-B2DF.svg","response":0,"trial_type":"image-button-response","trial_index":127,"time_elapsed":914795,"internal_node_id":"0.0-4.0-0.58","subject_id":"5f3b95fb505d7b2d3840293c","study_id":"6197b3f67c2b5cd3b6d9596a","session_id":"619bef0506ef00125c651558","condition":"full-information","relevant_dimensions":["wings","pattern"],"bee_group":{"antennae":"X","wings":"2","pattern":"S","legs":"X"},"action":"harvest","summary":"good-harvest","bonus":0.920000000000001},{"rt":1524.8000001907349,"stimulus":"\n                    <p><b>Action: <em>harvest</em></b></p>\n                    <p>This is the bee that you just saw.</p>\n                    <img src=\"bees-with-color/bee-B2DF.svg\" width=\"200\">\n                    <p><span class=\"greenText\"><b>Successful harvest!</b></span><br>Your pay has increased by $0.02. Your bonus pay is now $0.52.</p>\n            ","response":0,"trial_type":"html-button-response","trial_index":128,"time_elapsed":916327,"internal_node_id":"0.0-4.0-1.58","subject_id":"5f3b95fb505d7b2d3840293c","study_id":"6197b3f67c2b5cd3b6d9596a","session_id":"619bef0506ef00125c651558","condition":"full-information","relevant_dimensions":["wings","pattern"],"bee_group":{"antennae":"X","wings":"2","pattern":"S","legs":"X"},"bonus":0.920000000000001},{"rt":2573.5999999046326,"stimulus":"bees-with-color/bee-A2DM.svg","response":0,"trial_type":"image-button-response","trial_index":129,"time_elapsed":918910,"internal_node_id":"0.0-4.0-0.59","subject_id":"5f3b95fb505d7b2d3840293c","study_id":"6197b3f67c2b5cd3b6d9596a","session_id":"619bef0506ef00125c651558","condition":"full-information","relevant_dimensions":["wings","pattern"],"bee_group":{"antennae":"X","wings":"2","pattern":"S","legs":"X"},"action":"harvest","summary":"good-harvest","bonus":0.920000000000001},{"rt":1450,"stimulus":"\n                    <p><b>Action: <em>harvest</em></b></p>\n                    <p>This is the bee that you just saw.</p>\n                    <img src=\"bees-with-color/bee-A2DM.svg\" width=\"200\">\n                    <p><span class=\"greenText\"><b>Successful harvest!</b></span><br>Your pay has increased by $0.02. Your bonus pay is now $0.54.</p>\n            ","response":0,"trial_type":"html-button-response","trial_index":130,"time_elapsed":920367,"internal_node_id":"0.0-4.0-1.59","subject_id":"5f3b95fb505d7b2d3840293c","study_id":"6197b3f67c2b5cd3b6d9596a","session_id":"619bef0506ef00125c651558","condition":"full-information","relevant_dimensions":["wings","pattern"],"bee_group":{"antennae":"X","wings":"2","pattern":"S","legs":"X"},"bonus":0.920000000000001},{"rt":1962.0999999046326,"stimulus":"bees-with-color/bee-B2SM.svg","response":1,"trial_type":"image-button-response","trial_index":131,"time_elapsed":922338,"internal_node_id":"0.0-4.0-0.60","subject_id":"5f3b95fb505d7b2d3840293c","study_id":"6197b3f67c2b5cd3b6d9596a","session_id":"619bef0506ef00125c651558","condition":"full-information","relevant_dimensions":["wings","pattern"],"bee_group":{"antennae":"X","wings":"2","pattern":"S","legs":"X"},"action":"avoid","summary":"good-avoid","bonus":0.920000000000001},{"rt":1627.3999996185303,"stimulus":"\n                    <p><b>Action: <em>avoid</em></b></p>\n                    <p>This is the bee that you just saw.</p>\n                    <img src=\"bees-with-color/bee-B2SM.svg\" width=\"200\">\n                    <p><span class=\"greenText\">Good choice!</span>  This bee would have stung you.<br>Your bonus pay is unchanged, and remains at $0.54.</p>\n            ","response":0,"trial_type":"html-button-response","trial_index":132,"time_elapsed":923973,"internal_node_id":"0.0-4.0-1.60","subject_id":"5f3b95fb505d7b2d3840293c","study_id":"6197b3f67c2b5cd3b6d9596a","session_id":"619bef0506ef00125c651558","condition":"full-information","relevant_dimensions":["wings","pattern"],"bee_group":{"antennae":"X","wings":"2","pattern":"S","legs":"X"},"bonus":0.920000000000001},{"rt":1713.3000001907349,"stimulus":"bees-with-color/bee-A1DM.svg","response":0,"trial_type":"image-button-response","trial_index":133,"time_elapsed":925695,"internal_node_id":"0.0-4.0-0.61","subject_id":"5f3b95fb505d7b2d3840293c","study_id":"6197b3f67c2b5cd3b6d9596a","session_id":"619bef0506ef00125c651558","condition":"full-information","relevant_dimensions":["wings","pattern"],"bee_group":{"antennae":"X","wings":"2","pattern":"S","legs":"X"},"action":"harvest","summary":"good-harvest","bonus":0.920000000000001},{"rt":1783.5999999046326,"stimulus":"\n                    <p><b>Action: <em>harvest</em></b></p>\n                    <p>This is the bee that you just saw.</p>\n                    <img src=\"bees-with-color/bee-A1DM.svg\" width=\"200\">\n                    <p><span class=\"greenText\"><b>Successful harvest!</b></span><br>Your pay has increased by $0.02. Your bonus pay is now $0.56.</p>\n            ","response":0,"trial_type":"html-button-response","trial_index":134,"time_elapsed":927489,"internal_node_id":"0.0-4.0-1.61","subject_id":"5f3b95fb505d7b2d3840293c","study_id":"6197b3f67c2b5cd3b6d9596a","session_id":"619bef0506ef00125c651558","condition":"full-information","relevant_dimensions":["wings","pattern"],"bee_group":{"antennae":"X","wings":"2","pattern":"S","legs":"X"},"bonus":0.920000000000001},{"rt":2437.2999997138977,"stimulus":"bees-with-color/bee-A1SM.svg","response":1,"trial_type":"image-button-response","trial_index":135,"time_elapsed":929934,"internal_node_id":"0.0-4.0-0.62","subject_id":"5f3b95fb505d7b2d3840293c","study_id":"6197b3f67c2b5cd3b6d9596a","session_id":"619bef0506ef00125c651558","condition":"full-information","relevant_dimensions":["wings","pattern"],"bee_group":{"antennae":"X","wings":"2","pattern":"S","legs":"X"},"action":"avoid","summary":"bad-avoid","bonus":0.920000000000001},{"rt":1559.1999998092651,"stimulus":"\n                    <p><b>Action: <em>avoid</em></b></p>\n                    <p>This is the bee that you just saw.</p>\n                    <img src=\"bees-with-color/bee-A1SM.svg\" width=\"200\">\n                    <p><span class=\"redText\">Bad choice,</span> the bee was friendly.<br>Your bonus pay is unchanged, and remains at $0.56.</p>\n            ","response":0,"trial_type":"html-button-response","trial_index":136,"time_elapsed":931503,"internal_node_id":"0.0-4.0-1.62","subject_id":"5f3b95fb505d7b2d3840293c","study_id":"6197b3f67c2b5cd3b6d9596a","session_id":"619bef0506ef00125c651558","condition":"full-information","relevant_dimensions":["wings","pattern"],"bee_group":{"antennae":"X","wings":"2","pattern":"S","legs":"X"},"bonus":0.920000000000001},{"rt":2410.300000190735,"stimulus":"bees-with-color/bee-A2SF.svg","response":1,"trial_type":"image-button-response","trial_index":137,"time_elapsed":933924,"internal_node_id":"0.0-4.0-0.63","subject_id":"5f3b95fb505d7b2d3840293c","study_id":"6197b3f67c2b5cd3b6d9596a","session_id":"619bef0506ef00125c651558","condition":"full-information","relevant_dimensions":["wings","pattern"],"bee_group":{"antennae":"X","wings":"2","pattern":"S","legs":"X"},"action":"avoid","summary":"good-avoid","bonus":0.920000000000001},{"rt":2127.5,"stimulus":"\n                    <p><b>Action: <em>avoid</em></b></p>\n                    <p>This is the bee that you just saw.</p>\n                    <img src=\"bees-with-color/bee-A2SF.svg\" width=\"200\">\n                    <p><span class=\"greenText\">Good choice!</span>  This bee would have stung you.<br>Your bonus pay is unchanged, and remains at $0.56.</p>\n            ","response":0,"trial_type":"html-button-response","trial_index":138,"time_elapsed":936060,"internal_node_id":"0.0-4.0-1.63","subject_id":"5f3b95fb505d7b2d3840293c","study_id":"6197b3f67c2b5cd3b6d9596a","session_id":"619bef0506ef00125c651558","condition":"full-information","relevant_dimensions":["wings","pattern"],"bee_group":{"antennae":"X","wings":"2","pattern":"S","legs":"X"},"bonus":0.920000000000001},{"rt":6294.300000190735,"stimulus":"You have completed the first part of this experiment.<br><br>You will now begin a shorter second part, in which you will receive no feedback.<br>The same rules regarding bonus pay apply.<br><br>Press any key to begin.","response":" ","trial_type":"html-keyboard-response","trial_index":139,"time_elapsed":942361,"internal_node_id":"0.0-5.0","subject_id":"5f3b95fb505d7b2d3840293c","study_id":"6197b3f67c2b5cd3b6d9596a","session_id":"619bef0506ef00125c651558","condition":"full-information","relevant_dimensions":["wings","pattern"],"bee_group":{"antennae":"X","wings":"2","pattern":"S","legs":"X"},"bonus":0.920000000000001},{"rt":2992.699999809265,"stimulus":"bees-with-color/bee-B2DF.svg","response":0,"trial_type":"image-button-response","trial_index":140,"time_elapsed":945367,"internal_node_id":"0.0-6.0-0.0","subject_id":"5f3b95fb505d7b2d3840293c","study_id":"6197b3f67c2b5cd3b6d9596a","session_id":"619bef0506ef00125c651558","condition":"full-information","relevant_dimensions":["wings","pattern"],"bee_group":{"antennae":"X","wings":"2","pattern":"S","legs":"X"},"bonus":0.920000000000001},{"rt":2302.9000000953674,"stimulus":"bees-with-color/bee-A2SF.svg","response":1,"trial_type":"image-button-response","trial_index":141,"time_elapsed":947683,"internal_node_id":"0.0-6.0-0.1","subject_id":"5f3b95fb505d7b2d3840293c","study_id":"6197b3f67c2b5cd3b6d9596a","session_id":"619bef0506ef00125c651558","condition":"full-information","relevant_dimensions":["wings","pattern"],"bee_group":{"antennae":"X","wings":"2","pattern":"S","legs":"X"},"bonus":0.920000000000001},{"rt":2380.2000002861023,"stimulus":"bees-with-color/bee-B2SM.svg","response":1,"trial_type":"image-button-response","trial_index":142,"time_elapsed":950076,"internal_node_id":"0.0-6.0-0.2","subject_id":"5f3b95fb505d7b2d3840293c","study_id":"6197b3f67c2b5cd3b6d9596a","session_id":"619bef0506ef00125c651558","condition":"full-information","relevant_dimensions":["wings","pattern"],"bee_group":{"antennae":"X","wings":"2","pattern":"S","legs":"X"},"bonus":0.920000000000001},{"rt":979.4000000953674,"stimulus":"bees-with-color/bee-B1SM.svg","response":1,"trial_type":"image-button-response","trial_index":143,"time_elapsed":951066,"internal_node_id":"0.0-6.0-0.3","subject_id":"5f3b95fb505d7b2d3840293c","study_id":"6197b3f67c2b5cd3b6d9596a","session_id":"619bef0506ef00125c651558","condition":"full-information","relevant_dimensions":["wings","pattern"],"bee_group":{"antennae":"X","wings":"2","pattern":"S","legs":"X"},"bonus":0.920000000000001},{"rt":5164.10000038147,"stimulus":"bees-with-color/bee-A1SF.svg","response":0,"trial_type":"image-button-response","trial_index":144,"time_elapsed":956241,"internal_node_id":"0.0-6.0-0.4","subject_id":"5f3b95fb505d7b2d3840293c","study_id":"6197b3f67c2b5cd3b6d9596a","session_id":"619bef0506ef00125c651558","condition":"full-information","relevant_dimensions":["wings","pattern"],"bee_group":{"antennae":"X","wings":"2","pattern":"S","legs":"X"},"bonus":0.920000000000001},{"rt":1431.5,"stimulus":"bees-with-color/bee-B1DF.svg","response":0,"trial_type":"image-button-response","trial_index":145,"time_elapsed":957686,"internal_node_id":"0.0-6.0-0.5","subject_id":"5f3b95fb505d7b2d3840293c","study_id":"6197b3f67c2b5cd3b6d9596a","session_id":"619bef0506ef00125c651558","condition":"full-information","relevant_dimensions":["wings","pattern"],"bee_group":{"antennae":"X","wings":"2","pattern":"S","legs":"X"},"bonus":0.920000000000001},{"rt":1463.0999999046326,"stimulus":"bees-with-color/bee-B1DM.svg","response":0,"trial_type":"image-button-response","trial_index":146,"time_elapsed":959162,"internal_node_id":"0.0-6.0-0.6","subject_id":"5f3b95fb505d7b2d3840293c","study_id":"6197b3f67c2b5cd3b6d9596a","session_id":"619bef0506ef00125c651558","condition":"full-information","relevant_dimensions":["wings","pattern"],"bee_group":{"antennae":"X","wings":"2","pattern":"S","legs":"X"},"bonus":0.920000000000001},{"rt":1645.7000002861023,"stimulus":"bees-with-color/bee-B1SF.svg","response":0,"trial_type":"image-button-response","trial_index":147,"time_elapsed":960818,"internal_node_id":"0.0-6.0-0.7","subject_id":"5f3b95fb505d7b2d3840293c","study_id":"6197b3f67c2b5cd3b6d9596a","session_id":"619bef0506ef00125c651558","condition":"full-information","relevant_dimensions":["wings","pattern"],"bee_group":{"antennae":"X","wings":"2","pattern":"S","legs":"X"},"bonus":0.920000000000001},{"rt":1752.6999998092651,"stimulus":"bees-with-color/bee-A1SM.svg","response":1,"trial_type":"image-button-response","trial_index":148,"time_elapsed":962584,"internal_node_id":"0.0-6.0-0.8","subject_id":"5f3b95fb505d7b2d3840293c","study_id":"6197b3f67c2b5cd3b6d9596a","session_id":"619bef0506ef00125c651558","condition":"full-information","relevant_dimensions":["wings","pattern"],"bee_group":{"antennae":"X","wings":"2","pattern":"S","legs":"X"},"bonus":0.920000000000001},{"rt":1400.2999997138977,"stimulus":"bees-with-color/bee-A1DF.svg","response":0,"trial_type":"image-button-response","trial_index":149,"time_elapsed":963995,"internal_node_id":"0.0-6.0-0.9","subject_id":"5f3b95fb505d7b2d3840293c","study_id":"6197b3f67c2b5cd3b6d9596a","session_id":"619bef0506ef00125c651558","condition":"full-information","relevant_dimensions":["wings","pattern"],"bee_group":{"antennae":"X","wings":"2","pattern":"S","legs":"X"},"bonus":0.920000000000001},{"rt":1317,"stimulus":"bees-with-color/bee-A2DF.svg","response":0,"trial_type":"image-button-response","trial_index":150,"time_elapsed":965322,"internal_node_id":"0.0-6.0-0.10","subject_id":"5f3b95fb505d7b2d3840293c","study_id":"6197b3f67c2b5cd3b6d9596a","session_id":"619bef0506ef00125c651558","condition":"full-information","relevant_dimensions":["wings","pattern"],"bee_group":{"antennae":"X","wings":"2","pattern":"S","legs":"X"},"bonus":0.920000000000001},{"rt":1508.8000001907349,"stimulus":"bees-with-color/bee-B2DM.svg","response":0,"trial_type":"image-button-response","trial_index":151,"time_elapsed":966841,"internal_node_id":"0.0-6.0-0.11","subject_id":"5f3b95fb505d7b2d3840293c","study_id":"6197b3f67c2b5cd3b6d9596a","session_id":"619bef0506ef00125c651558","condition":"full-information","relevant_dimensions":["wings","pattern"],"bee_group":{"antennae":"X","wings":"2","pattern":"S","legs":"X"},"bonus":0.920000000000001},{"rt":1591.8000001907349,"stimulus":"bees-with-color/bee-B2SF.svg","response":1,"trial_type":"image-button-response","trial_index":152,"time_elapsed":968443,"internal_node_id":"0.0-6.0-0.12","subject_id":"5f3b95fb505d7b2d3840293c","study_id":"6197b3f67c2b5cd3b6d9596a","session_id":"619bef0506ef00125c651558","condition":"full-information","relevant_dimensions":["wings","pattern"],"bee_group":{"antennae":"X","wings":"2","pattern":"S","legs":"X"},"bonus":0.920000000000001},{"rt":2143.2999997138977,"stimulus":"bees-with-color/bee-A2DM.svg","response":0,"trial_type":"image-button-response","trial_index":153,"time_elapsed":970597,"internal_node_id":"0.0-6.0-0.13","subject_id":"5f3b95fb505d7b2d3840293c","study_id":"6197b3f67c2b5cd3b6d9596a","session_id":"619bef0506ef00125c651558","condition":"full-information","relevant_dimensions":["wings","pattern"],"bee_group":{"antennae":"X","wings":"2","pattern":"S","legs":"X"},"bonus":0.920000000000001},{"rt":1356.5,"stimulus":"bees-with-color/bee-A1DM.svg","response":0,"trial_type":"image-button-response","trial_index":154,"time_elapsed":971964,"internal_node_id":"0.0-6.0-0.14","subject_id":"5f3b95fb505d7b2d3840293c","study_id":"6197b3f67c2b5cd3b6d9596a","session_id":"619bef0506ef00125c651558","condition":"full-information","relevant_dimensions":["wings","pattern"],"bee_group":{"antennae":"X","wings":"2","pattern":"S","legs":"X"},"bonus":0.920000000000001},{"rt":1428.2999997138977,"stimulus":"bees-with-color/bee-A2SM.svg","response":1,"trial_type":"image-button-response","trial_index":155,"time_elapsed":973403,"internal_node_id":"0.0-6.0-0.15","subject_id":"5f3b95fb505d7b2d3840293c","study_id":"6197b3f67c2b5cd3b6d9596a","session_id":"619bef0506ef00125c6515