[{"success":true,"trial_type":"fullscreen","trial_index":0,"time_elapsed":31515,"internal_node_id":"0.0-0.0","subject_id":"6148baf1d5974f3958c332d2","study_id":"6197b3f67c2b5cd3b6d9596a","session_id":"619bfbdd4eeda715101a460f","condition":"full-information","relevant_dimensions":["wings","pattern"],"bee_group":{"antennae":"X","wings":"2","pattern":"D","legs":"X"},"bonus":1.0200000000000005},{"success":true,"timeout":false,"failed_images":[],"failed_audio":[],"failed_video":[],"trial_type":"preload","trial_index":1,"time_elapsed":33146,"internal_node_id":"0.0-1.0","subject_id":"6148baf1d5974f3958c332d2","study_id":"6197b3f67c2b5cd3b6d9596a","session_id":"619bfbdd4eeda715101a460f","condition":"full-information","relevant_dimensions":["wings","pattern"],"bee_group":{"antennae":"X","wings":"2","pattern":"D","legs":"X"},"bonus":1.0200000000000005},{"rt":7145.300000000745,"stimulus":"Welcome! Press any key to begin.","response":" ","trial_type":"html-keyboard-response","trial_index":2,"time_elapsed":40299,"internal_node_id":"0.0-2.0","subject_id":"6148baf1d5974f3958c332d2","study_id":"6197b3f67c2b5cd3b6d9596a","session_id":"619bfbdd4eeda715101a460f","condition":"full-information","relevant_dimensions":["wings","pattern"],"bee_group":{"antennae":"X","wings":"2","pattern":"D","legs":"X"},"bonus":1.0200000000000005},{"view_history":[{"page_index":0,"viewing_time":13448.699999999255},{"page_index":1,"viewing_time":47004},{"page_index":2,"viewing_time":101161.40000000224},{"page_index":3,"viewing_time":18136.199999999255},{"page_index":4,"viewing_time":9314.800000000745},{"page_index":5,"viewing_time":11990.199999999255},{"page_index":6,"viewing_time":51859.699999999255},{"page_index":7,"viewing_time":14407.60000000149},{"page_index":8,"viewing_time":4918.79999999702},{"page_index":9,"viewing_time":4172.60000000149},{"page_index":10,"viewing_time":2983.5},{"page_index":11,"viewing_time":8435.89999999851},{"page_index":12,"viewing_time":23436.400000002235},{"page_index":13,"viewing_time":1517},{"page_index":14,"viewing_time":2071.099999997765}],"rt":314859.1000000015,"trial_type":"instructions","trial_index":3,"time_elapsed":355163,"internal_node_id":"0.0-3.0-0.0","subject_id":"6148baf1d5974f3958c332d2","study_id":"6197b3f67c2b5cd3b6d9596a","session_id":"619bfbdd4eeda715101a460f","condition":"full-information","relevant_dimensions":["wings","pattern"],"bee_group":{"antennae":"X","wings":"2","pattern":"D","legs":"X"},"bonus":1.0200000000000005},{"rt":12824.39999999851,"response":{"Q0":["Two or six legs","Stripes or spots on body","Single or double wings","Antennae or no antennae"]},"question_order":[0],"trial_type":"survey-multi-select","trial_index":4,"time_elapsed":368004,"internal_node_id":"0.0-3.0-1.0","subject_id":"6148baf1d5974f3958c332d2","study_id":"6197b3f67c2b5cd3b6d9596a","session_id":"619bfbdd4eeda715101a460f","condition":"full-information","relevant_dimensions":["wings","pattern"],"bee_group":{"antennae":"X","wings":"2","pattern":"D","legs":"X"},"correct":true,"bonus":1.0200000000000005},{"rt":24105.800000000745,"response":{"Q1":"No.","Q2":"Based on the four features of the bee.","Q3":"You learn if it was friendly or dangerous, but do not alter your bonus."},"question_order":[0,1,2],"trial_type":"survey-multi-choice","trial_index":5,"time_elapsed":392118,"internal_node_id":"0.0-3.0-2.0","subject_id":"6148baf1d5974f3958c332d2","study_id":"6197b3f67c2b5cd3b6d9596a","session_id":"619bfbdd4eeda715101a460f","condition":"full-information","relevant_dimensions":["wings","pattern"],"bee_group":{"antennae":"X","wings":"2","pattern":"D","legs":"X"},"correct":true,"bonus":1.0200000000000005},{"rt":2703.800000000745,"stimulus":"<p>Congrats, you got everything right<br>When you're ready, click the button below to continue to the experiment.</p>","response":0,"trial_type":"html-button-response","trial_index":6,"time_elapsed":394828,"internal_node_id":"0.0-3.0-3.0","subject_id":"6148baf1d5974f3958c332d2","study_id":"6197b3f67c2b5cd3b6d9596a","session_id":"619bfbdd4eeda715101a460f","condition":"full-information","relevant_dimensions":["wings","pattern"],"bee_group":{"antennae":"X","wings":"2","pattern":"D","legs":"X"},"bonus":1.0200000000000005},{"rt":18728.5,"stimulus":"bees-with-color/bee-A2DF.svg","response":1,"trial_type":"image-button-response","trial_index":7,"time_elapsed":413570,"internal_node_id":"0.0-4.0-0.0","subject_id":"6148baf1d5974f3958c332d2","study_id":"6197b3f67c2b5cd3b6d9596a","session_id":"619bfbdd4eeda715101a460f","condition":"full-information","relevant_dimensions":["wings","pattern"],"bee_group":{"antennae":"X","wings":"2","pattern":"D","legs":"X"},"action":"avoid","summary":"good-avoid","bonus":1.0200000000000005},{"rt":23025.10000000149,"stimulus":"\n                    <p><b>Action: <em>avoid</em></b></p>\n                    <p>This is the bee that you just saw.</p>\n                    <img src=\"bees-with-color/bee-A2DF.svg\" width=\"200\">\n                    <p><span class=\"greenText\">Good choice!</span>  This bee would have stung you.<br>Your bonus pay is unchanged, and remains at $0.54.</p>\n            ","response":0,"trial_type":"html-button-response","trial_index":8,"time_elapsed":436616,"internal_node_id":"0.0-4.0-1.0","subject_id":"6148baf1d5974f3958c332d2","study_id":"6197b3f67c2b5cd3b6d9596a","session_id":"619bfbdd4eeda715101a460f","condition":"full-information","relevant_dimensions":["wings","pattern"],"bee_group":{"antennae":"X","wings":"2","pattern":"D","legs":"X"},"bonus":1.0200000000000005},{"rt":3218.199999999255,"stimulus":"bees-with-color/bee-A2SF.svg","response":0,"trial_type":"image-button-response","trial_index":9,"time_elapsed":439842,"internal_node_id":"0.0-4.0-0.1","subject_id":"6148baf1d5974f3958c332d2","study_id":"6197b3f67c2b5cd3b6d9596a","session_id":"619bfbdd4eeda715101a460f","condition":"full-information","relevant_dimensions":["wings","pattern"],"bee_group":{"antennae":"X","wings":"2","pattern":"D","legs":"X"},"action":"harvest","summary":"good-harvest","bonus":1.0200000000000005},{"rt":6899.400000002235,"stimulus":"\n                    <p><b>Action: <em>harvest</em></b></p>\n                    <p>This is the bee that you just saw.</p>\n                    <img src=\"bees-with-color/bee-A2SF.svg\" width=\"200\">\n                    <p><span class=\"greenText\"><b>Successful harvest!</b></span><br>Your pay has increased by $0.02. Your bonus pay is now $0.56.</p>\n            ","response":0,"trial_type":"html-button-response","trial_index":10,"time_elapsed":446748,"internal_node_id":"0.0-4.0-1.1","subject_id":"6148baf1d5974f3958c332d2","study_id":"6197b3f67c2b5cd3b6d9596a","session_id":"619bfbdd4eeda715101a460f","condition":"full-information","relevant_dimensions":["wings","pattern"],"bee_group":{"antennae":"X","wings":"2","pattern":"D","legs":"X"},"bonus":1.0200000000000005},{"rt":5336.60000000149,"stimulus":"bees-with-color/bee-B1DM.svg","response":1,"trial_type":"image-button-response","trial_index":11,"time_elapsed":452094,"internal_node_id":"0.0-4.0-0.2","subject_id":"6148baf1d5974f3958c332d2","study_id":"6197b3f67c2b5cd3b6d9596a","session_id":"619bfbdd4eeda715101a460f","condition":"full-information","relevant_dimensions":["wings","pattern"],"bee_group":{"antennae":"X","wings":"2","pattern":"D","legs":"X"},"action":"avoid","summary":"bad-avoid","bonus":1.0200000000000005},{"rt":14932.099999997765,"stimulus":"\n                    <p><b>Action: <em>avoid</em></b></p>\n                    <p>This is the bee that you just saw.</p>\n                    <img src=\"bees-with-color/bee-B1DM.svg\" width=\"200\">\n                    <p><span class=\"redText\">Bad choice,</span> the bee was friendly.<br>Your bonus pay is unchanged, and remains at $0.56.</p>\n            ","response":0,"trial_type":"html-button-response","trial_index":12,"time_elapsed":467031,"internal_node_id":"0.0-4.0-1.2","subject_id":"6148baf1d5974f3958c332d2","study_id":"6197b3f67c2b5cd3b6d9596a","session_id":"619bfbdd4eeda715101a460f","condition":"full-information","relevant_dimensions":["wings","pattern"],"bee_group":{"antennae":"X","wings":"2","pattern":"D","legs":"X"},"bonus":1.0200000000000005},{"rt":10617.20000000298,"stimulus":"bees-with-color/bee-A2DM.svg","response":1,"trial_type":"image-button-response","trial_index":13,"time_elapsed":477655,"internal_node_id":"0.0-4.0-0.3","subject_id":"6148baf1d5974f3958c332d2","study_id":"6197b3f67c2b5cd3b6d9596a","session_id":"619bfbdd4eeda715101a460f","condition":"full-information","relevant_dimensions":["wings","pattern"],"bee_group":{"antennae":"X","wings":"2","pattern":"D","legs":"X"},"action":"avoid","summary":"good-avoid","bonus":1.0200000000000005},{"rt":10588.29999999702,"stimulus":"\n                    <p><b>Action: <em>avoid</em></b></p>\n                    <p>This is the bee that you just saw.</p>\n                    <img src=\"bees-with-color/bee-A2DM.svg\" width=\"200\">\n                    <p><span class=\"greenText\">Good choice!</span>  This bee would have stung you.<br>Your bonus pay is unchanged, and remains at $0.56.</p>\n            ","response":0,"trial_type":"html-button-response","trial_index":14,"time_elapsed":488248,"internal_node_id":"0.0-4.0-1.3","subject_id":"6148baf1d5974f3958c332d2","study_id":"6197b3f67c2b5cd3b6d9596a","session_id":"619bfbdd4eeda715101a460f","condition":"full-information","relevant_dimensions":["wings","pattern"],"bee_group":{"antennae":"X","wings":"2","pattern":"D","legs":"X"},"bonus":1.0200000000000005},{"rt":6444.79999999702,"stimulus":"bees-with-color/bee-A1DM.svg","response":0,"trial_type":"image-button-response","trial_index":15,"time_elapsed":494698,"internal_node_id":"0.0-4.0-0.4","subject_id":"6148baf1d5974f3958c332d2","study_id":"6197b3f67c2b5cd3b6d9596a","session_id":"619bfbdd4eeda715101a460f","condition":"full-information","relevant_dimensions":["wings","pattern"],"bee_group":{"antennae":"X","wings":"2","pattern":"D","legs":"X"},"action":"harvest","summary":"good-harvest","bonus":1.0200000000000005},{"rt":9736.89999999851,"stimulus":"\n                    <p><b>Action: <em>harvest</em></b></p>\n                    <p>This is the bee that you just saw.</p>\n                    <img src=\"bees-with-color/bee-A1DM.svg\" width=\"200\">\n                    <p><span class=\"greenText\"><b>Successful harvest!</b></span><br>Your pay has increased by $0.02. Your bonus pay is now $0.58.</p>\n            ","response":0,"trial_type":"html-button-response","trial_index":16,"time_elapsed":504441,"internal_node_id":"0.0-4.0-1.4","subject_id":"6148baf1d5974f3958c332d2","study_id":"6197b3f67c2b5cd3b6d9596a","session_id":"619bfbdd4eeda715101a460f","condition":"full-information","relevant_dimensions":["wings","pattern"],"bee_group":{"antennae":"X","wings":"2","pattern":"D","legs":"X"},"bonus":1.0200000000000005},{"rt":6895,"stimulus":"bees-with-color/bee-A2SM.svg","response":1,"trial_type":"image-button-response","trial_index":17,"time_elapsed":511344,"internal_node_id":"0.0-4.0-0.5","subject_id":"6148baf1d5974f3958c332d2","study_id":"6197b3f67c2b5cd3b6d9596a","session_id":"619bfbdd4eeda715101a460f","condition":"full-information","relevant_dimensions":["wings","pattern"],"bee_group":{"antennae":"X","wings":"2","pattern":"D","legs":"X"},"action":"avoid","summary":"bad-avoid","bonus":1.0200000000000005},{"rt":42585,"stimulus":"\n                    <p><b>Action: <em>avoid</em></b></p>\n                    <p>This is the bee that you just saw.</p>\n                    <img src=\"bees-with-color/bee-A2SM.svg\" width=\"200\">\n                    <p><span class=\"redText\">Bad choice,</span> the bee was friendly.<br>Your bonus pay is unchanged, and remains at $0.58.</p>\n            ","response":0,"trial_type":"html-button-response","trial_index":18,"time_elapsed":553933,"internal_node_id":"0.0-4.0-1.5","subject_id":"6148baf1d5974f3958c332d2","study_id":"6197b3f67c2b5cd3b6d9596a","session_id":"619bfbdd4eeda715101a460f","condition":"full-information","relevant_dimensions":["wings","pattern"],"bee_group":{"antennae":"X","wings":"2","pattern":"D","legs":"X"},"bonus":1.0200000000000005},{"rt":10381.900000002235,"stimulus":"bees-with-color/bee-B1DF.svg","response":1,"trial_type":"image-button-response","trial_index":19,"time_elapsed":564323,"internal_node_id":"0.0-4.0-0.6","subject_id":"6148baf1d5974f3958c332d2","study_id":"6197b3f67c2b5cd3b6d9596a","session_id":"619bfbdd4eeda715101a460f","condition":"full-information","relevant_dimensions":["wings","pattern"],"bee_group":{"antennae":"X","wings":"2","pattern":"D","legs":"X"},"action":"avoid","summary":"bad-avoid","bonus":1.0200000000000005},{"rt":3442.60000000149,"stimulus":"\n                    <p><b>Action: <em>avoid</em></b></p>\n                    <p>This is the bee that you just saw.</p>\n                    <img src=\"bees-with-color/bee-B1DF.svg\" width=\"200\">\n                    <p><span class=\"redText\">Bad choice,</span> the bee was friendly.<br>Your bonus pay is unchanged, and remains at $0.58.</p>\n            ","response":0,"trial_type":"html-button-response","trial_index":20,"time_elapsed":567770,"internal_node_id":"0.0-4.0-1.6","subject_id":"6148baf1d5974f3958c332d2","study_id":"6197b3f67c2b5cd3b6d9596a","session_id":"619bfbdd4eeda715101a460f","condition":"full-information","relevant_dimensions":["wings","pattern"],"bee_group":{"antennae":"X","wings":"2","pattern":"D","legs":"X"},"bonus":1.0200000000000005},{"rt":3259.699999999255,"stimulus":"bees-with-color/bee-B1SF.svg","response":1,"trial_type":"image-button-response","trial_index":21,"time_elapsed":571037,"internal_node_id":"0.0-4.0-0.7","subject_id":"6148baf1d5974f3958c332d2","study_id":"6197b3f67c2b5cd3b6d9596a","session_id":"619bfbdd4eeda715101a460f","condition":"full-information","relevant_dimensions":["wings","pattern"],"bee_group":{"antennae":"X","wings":"2","pattern":"D","legs":"X"},"action":"avoid","summary":"bad-avoid","bonus":1.0200000000000005},{"rt":2115,"stimulus":"\n                    <p><b>Action: <em>avoid</em></b></p>\n                    <p>This is the bee that you just saw.</p>\n                    <img src=\"bees-with-color/bee-B1SF.svg\" width=\"200\">\n                    <p><span class=\"redText\">Bad choice,</span> the bee was friendly.<br>Your bonus pay is unchanged, and remains at $0.58.</p>\n            ","response":0,"trial_type":"html-button-response","trial_index":22,"time_elapsed":573157,"internal_node_id":"0.0-4.0-1.7","subject_id":"6148baf1d5974f3958c332d2","study_id":"6197b3f67c2b5cd3b6d9596a","session_id":"619bfbdd4eeda715101a460f","condition":"full-information","relevant_dimensions":["wings","pattern"],"bee_group":{"antennae":"X","wings":"2","pattern":"D","legs":"X"},"bonus":1.0200000000000005},{"rt":6557.099999997765,"stimulus":"bees-with-color/bee-A1DF.svg","response":0,"trial_type":"image-button-response","trial_index":23,"time_elapsed":579723,"internal_node_id":"0.0-4.0-0.8","subject_id":"6148baf1d5974f3958c332d2","study_id":"6197b3f67c2b5cd3b6d9596a","session_id":"619bfbdd4eeda715101a460f","condition":"full-information","relevant_dimensions":["wings","pattern"],"bee_group":{"antennae":"X","wings":"2","pattern":"D","legs":"X"},"action":"harvest","summary":"good-harvest","bonus":1.0200000000000005},{"rt":3041.800000000745,"stimulus":"\n                    <p><b>Action: <em>harvest</em></b></p>\n                    <p>This is the bee that you just saw.</p>\n                    <img src=\"bees-with-color/bee-A1DF.svg\" width=\"200\">\n                    <p><span class=\"greenText\"><b>Successful harvest!</b></span><br>Your pay has increased by $0.02. Your bonus pay is now $0.60.</p>\n            ","response":0,"trial_type":"html-button-response","trial_index":24,"time_elapsed":582770,"internal_node_id":"0.0-4.0-1.8","subject_id":"6148baf1d5974f3958c332d2","study_id":"6197b3f67c2b5cd3b6d9596a","session_id":"619bfbdd4eeda715101a460f","condition":"full-information","relevant_dimensions":["wings","pattern"],"bee_group":{"antennae":"X","wings":"2","pattern":"D","legs":"X"},"bonus":1.0200000000000005},{"rt":5026.800000000745,"stimulus":"bees-with-color/bee-B2DF.svg","response":1,"trial_type":"image-button-response","trial_index":25,"time_elapsed":587804,"internal_node_id":"0.0-4.0-0.9","subject_id":"6148baf1d5974f3958c332d2","study_id":"6197b3f67c2b5cd3b6d9596a","session_id":"619bfbdd4eeda715101a460f","condition":"full-information","relevant_dimensions":["wings","pattern"],"bee_group":{"antennae":"X","wings":"2","pattern":"D","legs":"X"},"action":"avoid","summary":"good-avoid","bonus":1.0200000000000005},{"rt":2866.099999997765,"stimulus":"\n                    <p><b>Action: <em>avoid</em></b></p>\n                    <p>This is the bee that you just saw.</p>\n                    <img src=\"bees-with-color/bee-B2DF.svg\" width=\"200\">\n                    <p><span class=\"greenText\">Good choice!</span>  This bee would have stung you.<br>Your bonus pay is unchanged, and remains at $0.60.</p>\n            ","response":0,"trial_type":"html-button-response","trial_index":26,"time_elapsed":590676,"internal_node_id":"0.0-4.0-1.9","subject_id":"6148baf1d5974f3958c332d2","study_id":"6197b3f67c2b5cd3b6d9596a","session_id":"619bfbdd4eeda715101a460f","condition":"full-information","relevant_dimensions":["wings","pattern"],"bee_group":{"antennae":"X","wings":"2","pattern":"D","legs":"X"},"bonus":1.0200000000000005},{"rt":5008.5,"stimulus":"bees-with-color/bee-A1SM.svg","response":0,"trial_type":"image-button-response","trial_index":27,"time_elapsed":595692,"internal_node_id":"0.0-4.0-0.10","subject_id":"6148baf1d5974f3958c332d2","study_id":"6197b3f67c2b5cd3b6d9596a","session_id":"619bfbdd4eeda715101a460f","condition":"full-information","relevant_dimensions":["wings","pattern"],"bee_group":{"antennae":"X","wings":"2","pattern":"D","legs":"X"},"action":"harvest","summary":"good-harvest","bonus":1.0200000000000005},{"rt":4287.199999999255,"stimulus":"\n                    <p><b>Action: <em>harvest</em></b></p>\n                    <p>This is the bee that you just saw.</p>\n                    <img src=\"bees-with-color/bee-A1SM.svg\" width=\"200\">\n                    <p><span class=\"greenText\"><b>Successful harvest!</b></span><br>Your pay has increased by $0.02. Your bonus pay is now $0.62.</p>\n            ","response":0,"trial_type":"html-button-response","trial_index":28,"time_elapsed":599985,"internal_node_id":"0.0-4.0-1.10","subject_id":"6148baf1d5974f3958c332d2","study_id":"6197b3f67c2b5cd3b6d9596a","session_id":"619bfbdd4eeda715101a460f","condition":"full-information","relevant_dimensions":["wings","pattern"],"bee_group":{"antennae":"X","wings":"2","pattern":"D","legs":"X"},"bonus":1.0200000000000005},{"rt":49055.60000000149,"stimulus":"bees-with-color/bee-A1SF.svg","response":0,"trial_type":"image-button-response","trial_index":29,"time_elapsed":649048,"internal_node_id":"0.0-4.0-0.11","subject_id":"6148baf1d5974f3958c332d2","study_id":"6197b3f67c2b5cd3b6d9596a","session_id":"619bfbdd4eeda715101a460f","condition":"full-information","relevant_dimensions":["wings","pattern"],"bee_group":{"antennae":"X","wings":"2","pattern":"D","legs":"X"},"action":"harvest","summary":"good-harvest","bonus":1.0200000000000005},{"rt":1919.9000000022352,"stimulus":"\n                    <p><b>Action: <em>harvest</em></b></p>\n                    <p>This is the bee that you just saw.</p>\n                    <img src=\"bees-with-color/bee-A1SF.svg\" width=\"200\">\n                    <p><span class=\"greenText\"><b>Successful harvest!</b></span><br>Your pay has increased by $0.02. Your bonus pay is now $0.64.</p>\n            ","response":0,"trial_type":"html-button-response","trial_index":30,"time_elapsed":650974,"internal_node_id":"0.0-4.0-1.11","subject_id":"6148baf1d5974f3958c332d2","study_id":"6197b3f67c2b5cd3b6d9596a","session_id":"619bfbdd4eeda715101a460f","condition":"full-information","relevant_dimensions":["wings","pattern"],"bee_group":{"antennae":"X","wings":"2","pattern":"D","legs":"X"},"bonus":1.0200000000000005},{"rt":42386,"stimulus":"bees-with-color/bee-B2SM.svg","response":0,"trial_type":"image-button-response","trial_index":31,"time_elapsed":693367,"internal_node_id":"0.0-4.0-0.12","subject_id":"6148baf1d5974f3958c332d2","study_id":"6197b3f67c2b5cd3b6d9596a","session_id":"619bfbdd4eeda715101a460f","condition":"full-information","relevant_dimensions":["wings","pattern"],"bee_group":{"antennae":"X","wings":"2","pattern":"D","legs":"X"},"action":"harvest","summary":"good-harvest","bonus":1.0200000000000005},{"rt":1739.6000000014901,"stimulus":"\n                    <p><b>Action: <em>harvest</em></b></p>\n                    <p>This is the bee that you just saw.</p>\n                    <img src=\"bees-with-color/bee-B2SM.svg\" width=\"200\">\n                    <p><span class=\"greenText\"><b>Successful harvest!</b></span><br>Your pay has increased by $0.02. Your bonus pay is now $0.66.</p>\n            ","response":0,"trial_type":"html-button-response","trial_index":32,"time_elapsed":695116,"internal_node_id":"0.0-4.0-1.12","subject_id":"6148baf1d5974f3958c332d2","study_id":"6197b3f67c2b5cd3b6d9596a","session_id":"619bfbdd4eeda715101a460f","condition":"full-information","relevant_dimensions":["wings","pattern"],"bee_group":{"antennae":"X","wings":"2","pattern":"D","legs":"X"},"bonus":1.0200000000000005},{"rt":5026.199999999255,"stimulus":"bees-with-color/bee-B2SF.svg","response":1,"trial_type":"image-button-response","trial_index":33,"time_elapsed":700150,"internal_node_id":"0.0-4.0-0.13","subject_id":"6148baf1d5974f3958c332d2","study_id":"6197b3f67c2b5cd3b6d9596a","session_id":"619bfbdd4eeda715101a460f","condition":"full-information","relevant_dimensions":["wings","pattern"],"bee_group":{"antennae":"X","wings":"2","pattern":"D","legs":"X"},"action":"avoid","summary":"bad-avoid","bonus":1.0200000000000005},{"rt":2592.60000000149,"stimulus":"\n                    <p><b>Action: <em>avoid</em></b></p>\n                    <p>This is the bee that you just saw.</p>\n                    <img src=\"bees-with-color/bee-B2SF.svg\" width=\"200\">\n                    <p><span class=\"redText\">Bad choice,</span> the bee was friendly.<br>Your bonus pay is unchanged, and remains at $0.66.</p>\n            ","response":0,"trial_type":"html-button-response","trial_index":34,"time_elapsed":702749,"internal_node_id":"0.0-4.0-1.13","subject_id":"6148baf1d5974f3958c332d2","study_id":"6197b3f67c2b5cd3b6d9596a","session_id":"619bfbdd4eeda715101a460f","condition":"full-information","relevant_dimensions":["wings","pattern"],"bee_group":{"antennae":"X","wings":"2","pattern":"D","legs":"X"},"bonus":1.0200000000000005},{"rt":5426,"stimulus":"bees-with-color/bee-B1SM.svg","response":0,"trial_type":"image-button-response","trial_index":35,"time_elapsed":708182,"internal_node_id":"0.0-4.0-0.14","subject_id":"6148baf1d5974f3958c332d2","study_id":"6197b3f67c2b5cd3b6d9596a","session_id":"619bfbdd4eeda715101a460f","condition":"full-information","relevant_dimensions":["wings","pattern"],"bee_group":{"antennae":"X","wings":"2","pattern":"D","legs":"X"},"action":"harvest","summary":"good-harvest","bonus":1.0200000000000005},{"rt":1683,"stimulus":"\n                    <p><b>Action: <em>harvest</em></b></p>\n                    <p>This is the bee that you just saw.</p>\n                    <img src=\"bees-with-color/bee-B1SM.svg\" width=\"200\">\n                    <p><span class=\"greenText\"><b>Successful harvest!</b></span><br>Your pay has increased by $0.02. Your bonus pay is now $0.68.</p>\n            ","response":0,"trial_type":"html-button-response","trial_index":36,"time_elapsed":709870,"internal_node_id":"0.0-4.0-1.14","subject_id":"6148baf1d5974f3958c332d2","study_id":"6197b3f67c2b5cd3b6d9596a","session_id":"619bfbdd4eeda715101a460f","condition":"full-information","relevant_dimensions":["wings","pattern"],"bee_group":{"antennae":"X","wings":"2","pattern":"D","legs":"X"},"bonus":1.0200000000000005},{"rt":4067.599999997765,"stimulus":"bees-with-color/bee-B2DM.svg","response":1,"trial_type":"image-button-response","trial_index":37,"time_elapsed":713946,"internal_node_id":"0.0-4.0-0.15","subject_id":"6148baf1d5974f3958c332d2","study_id":"6197b3f67c2b5cd3b6d9596a","session_id":"619bfbdd4eeda715101a460f","condition":"full-information","relevant_dimensions":["wings","pattern"],"bee_group":{"antennae":"X","wings":"2","pattern":"D","legs":"X"},"action":"avoid","summary":"good-avoid","bonus":1.0200000000000005},{"rt":3002.2000000029802,"stimulus":"\n                    <p><b>Action: <em>avoid</em></b></p>\n                    <p>This is the bee that you just saw.</p>\n                    <img src=\"bees-with-color/bee-B2DM.svg\" width=\"200\">\n                    <p><span class=\"greenText\">Good choice!</span>  This bee would have stung you.<br>Your bonus pay is unchanged, and remains at $0.68.</p>\n            ","response":0,"trial_type":"html-button-response","trial_index":38,"time_elapsed":716954,"internal_node_id":"0.0-4.0-1.15","subject_id":"6148baf1d5974f3958c332d2","study_id":"6197b3f67c2b5cd3b6d9596a","session_id":"619bfbdd4eeda715101a460f","condition":"full-information","relevant_dimensions":["wings","pattern"],"bee_group":{"antennae":"X","wings":"2","pattern":"D","legs":"X"},"bonus":1.0200000000000005},{"rt":5483.89999999851,"stimulus":"bees-with-color/bee-B2SM.svg","response":0,"trial_type":"image-button-response","trial_index":39,"time_elapsed":722446,"internal_node_id":"0.0-4.0-0.16","subject_id":"6148baf1d5974f3958c332d2","study_id":"6197b3f67c2b5cd3b6d9596a","session_id":"619bfbdd4eeda715101a460f","condition":"full-information","relevant_dimensions":["wings","pattern"],"bee_group":{"antennae":"X","wings":"2","pattern":"D","legs":"X"},"action":"harvest","summary":"good-harvest","bonus":1.0200000000000005},{"rt":2904.199999999255,"stimulus":"\n                    <p><b>Action: <em>harvest</em></b></p>\n                    <p>This is the bee that you just saw.</p>\n                    <img src=\"bees-with-color/bee-B2SM.svg\" width=\"200\">\n                    <p><span class=\"greenText\"><b>Successful harvest!</b></span><br>Your pay has increased by $0.02. Your bonus pay is now $0.70.</p>\n            ","response":0,"trial_type":"html-button-response","trial_index":40,"time_elapsed":725357,"internal_node_id":"0.0-4.0-1.16","subject_id":"6148baf1d5974f3958c332d2","study_id":"6197b3f67c2b5cd3b6d9596a","session_id":"619bfbdd4eeda715101a460f","condition":"full-information","relevant_dimensions":["wings","pattern"],"bee_group":{"antennae":"X","wings":"2","pattern":"D","legs":"X"},"bonus":1.0200000000000005},{"rt":34932.099999997765,"stimulus":"bees-with-color/bee-B1SF.svg","response":1,"trial_type":"image-button-response","trial_index":41,"time_elapsed":760295,"internal_node_id":"0.0-4.0-0.17","subject_id":"6148baf1d5974f3958c332d2","study_id":"6197b3f67c2b5cd3b6d9596a","session_id":"619bfbdd4eeda715101a460f","condition":"full-information","relevant_dimensions":["wings","pattern"],"bee_group":{"antennae":"X","wings":"2","pattern":"D","legs":"X"},"action":"avoid","summary":"bad-avoid","bonus":1.0200000000000005},{"rt":30818.599999997765,"stimulus":"\n                    <p><b>Action: <em>avoid</em></b></p>\n                    <p>This is the bee that you just saw.</p>\n                    <img src=\"bees-with-color/bee-B1SF.svg\" width=\"200\">\n                    <p><span class=\"redText\">Bad choice,</span> the bee was friendly.<br>Your bonus pay is unchanged, and remains at $0.70.</p>\n            ","response":0,"trial_type":"html-button-response","trial_index":42,"time_elapsed":791119,"internal_node_id":"0.0-4.0-1.17","subject_id":"6148baf1d5974f3958c332d2","study_id":"6197b3f67c2b5cd3b6d9596a","session_id":"619bfbdd4eeda715101a460f","condition":"full-information","relevant_dimensions":["wings","pattern"],"bee_group":{"antennae":"X","wings":"2","pattern":"D","legs":"X"},"bonus":1.0200000000000005},{"rt":5106.10000000149,"stimulus":"bees-with-color/bee-A1DF.svg","response":0,"trial_type":"image-button-response","trial_index":43,"time_elapsed":796231,"internal_node_id":"0.0-4.0-0.18","subject_id":"6148baf1d5974f3958c332d2","study_id":"6197b3f67c2b5cd3b6d9596a","session_id":"619bfbdd4eeda715101a460f","condition":"full-information","relevant_dimensions":["wings","pattern"],"bee_group":{"antennae":"X","wings":"2","pattern":"D","legs":"X"},"action":"harvest","summary":"good-harvest","bonus":1.0200000000000005},{"rt":2057,"stimulus":"\n                    <p><b>Action: <em>harvest</em></b></p>\n                    <p>This is the bee that you just saw.</p>\n                    <img src=\"bees-with-color/bee-A1DF.svg\" width=\"200\">\n                    <p><span class=\"greenText\"><b>Successful harvest!</b></span><br>Your pay has increased by $0.02. Your bonus pay is now $0.72.</p>\n            ","response":0,"trial_type":"html-button-response","trial_index":44,"time_elapsed":798293,"internal_node_id":"0.0-4.0-1.18","subject_id":"6148baf1d5974f3958c332d2","study_id":"6197b3f67c2b5cd3b6d9596a","session_id":"619bfbdd4eeda715101a460f","condition":"full-information","relevant_dimensions":["wings","pattern"],"bee_group":{"antennae":"X","wings":"2","pattern":"D","legs":"X"},"bonus":1.0200000000000005},{"rt":4480.900000002235,"stimulus":"bees-with-color/bee-A2DF.svg","response":1,"trial_type":"image-button-response","trial_index":45,"time_elapsed":802779,"internal_node_id":"0.0-4.0-0.19","subject_id":"6148baf1d5974f3958c332d2","study_id":"6197b3f67c2b5cd3b6d9596a","session_id":"619bfbdd4eeda715101a460f","condition":"full-information","relevant_dimensions":["wings","pattern"],"bee_group":{"antennae":"X","wings":"2","pattern":"D","legs":"X"},"action":"avoid","summary":"good-avoid","bonus":1.0200000000000005},{"rt":53700.800000000745,"stimulus":"\n                    <p><b>Action: <em>avoid</em></b></p>\n                    <p>This is the bee that you just saw.</p>\n                    <img src=\"bees-with-color/bee-A2DF.svg\" width=\"200\">\n                    <p><span class=\"greenText\">Good choice!</span>  This bee would have stung you.<br>Your bonus pay is unchanged, and remains at $0.72.</p>\n            ","response":0,"trial_type":"html-button-response","trial_index":46,"time_elapsed":856485,"internal_node_id":"0.0-4.0-1.19","subject_id":"6148baf1d5974f3958c332d2","study_id":"6197b3f67c2b5cd3b6d9596a","session_id":"619bfbdd4eeda715101a460f","condition":"full-information","relevant_dimensions":["wings","pattern"],"bee_group":{"antennae":"X","wings":"2","pattern":"D","legs":"X"},"bonus":1.0200000000000005},{"rt":5165.199999999255,"stimulus":"bees-with-color/bee-A1SM.svg","response":0,"trial_type":"image-button-response","trial_index":47,"time_elapsed":861655,"internal_node_id":"0.0-4.0-0.20","subject_id":"6148baf1d5974f3958c332d2","study_id":"6197b3f67c2b5cd3b6d9596a","session_id":"619bfbdd4eeda715101a460f","condition":"full-information","relevant_dimensions":["wings","pattern"],"bee_group":{"antennae":"X","wings":"2","pattern":"D","legs":"X"},"action":"harvest","summary":"good-harvest","bonus":1.0200000000000005},{"rt":6355.5,"stimulus":"\n                    <p><b>Action: <em>harvest</em></b></p>\n                    <p>This is the bee that you just saw.</p>\n                    <img src=\"bees-with-color/bee-A1SM.svg\" width=\"200\">\n                    <p><span class=\"greenText\"><b>Successful harvest!</b></span><br>Your pay has increased by $0.02. Your bonus pay is now $0.74.</p>\n            ","response":0,"trial_type":"html-button-response","trial_index":48,"time_elapsed":868015,"internal_node_id":"0.0-4.0-1.20","subject_id":"6148baf1d5974f3958c332d2","study_id":"6197b3f67c2b5cd3b6d9596a","session_id":"619bfbdd4eeda715101a460f","condition":"full-information","relevant_dimensions":["wings","pattern"],"bee_group":{"antennae":"X","wings":"2","pattern":"D","legs":"X"},"bonus":1.0200000000000005},{"rt":2278.2999999970198,"stimulus":"bees-with-color/bee-B2DF.svg","response":1,"trial_type":"image-button-response","trial_index":49,"time_elapsed":870300,"internal_node_id":"0.0-4.0-0.21","subject_id":"6148baf1d5974f3958c332d2","study_id":"6197b3f67c2b5cd3b6d9596a","session_id":"619bfbdd4eeda715101a460f","condition":"full-information","relevant_dimensions":["wings","pattern"],"bee_group":{"antennae":"X","wings":"2","pattern":"D","legs":"X"},"action":"avoid","summary":"good-avoid","bonus":1.0200000000000005},{"rt":3278.199999999255,"stimulus":"\n                    <p><b>Action: <em>avoid</em></b></p>\n                    <p>This is the bee that you just saw.</p>\n                    <img src=\"bees-with-color/bee-B2DF.svg\" width=\"200\">\n                    <p><span class=\"greenText\">Good choice!</span>  This bee would have stung you.<br>Your bonus pay is unchanged, and remains at $0.74.</p>\n            ","response":0,"trial_type":"html-button-response","trial_index":50,"time_elapsed":873584,"internal_node_id":"0.0-4.0-1.21","subject_id":"6148baf1d5974f3958c332d2","study_id":"6197b3f67c2b5cd3b6d9596a","session_id":"619bfbdd4eeda715101a460f","condition":"full-information","relevant_dimensions":["wings","pattern"],"bee_group":{"antennae":"X","wings":"2","pattern":"D","legs":"X"},"bonus":1.0200000000000005},{"rt":2202.39999999851,"stimulus":"bees-with-color/bee-B2SF.svg","response":0,"trial_type":"image-button-response","trial_index":51,"time_elapsed":875792,"internal_node_id":"0.0-4.0-0.22","subject_id":"6148baf1d5974f3958c332d2","study_id":"6197b3f67c2b5cd3b6d9596a","session_id":"619bfbdd4eeda715101a460f","condition":"full-information","relevant_dimensions":["wings","pattern"],"bee_group":{"antennae":"X","wings":"2","pattern":"D","legs":"X"},"action":"harvest","summary":"good-harvest","bonus":1.0200000000000005},{"rt":2583.199999999255,"stimulus":"\n                    <p><b>Action: <em>harvest</em></b></p>\n                    <p>This is the bee that you just saw.</p>\n                    <img src=\"bees-with-color/bee-B2SF.svg\" width=\"200\">\n                    <p><span class=\"greenText\"><b>Successful harvest!</b></span><br>Your pay has increased by $0.02. Your bonus pay is now $0.76.</p>\n            ","response":0,"trial_type":"html-button-response","trial_index":52,"time_elapsed":878381,"internal_node_id":"0.0-4.0-1.22","subject_id":"6148baf1d5974f3958c332d2","study_id":"6197b3f67c2b5cd3b6d9596a","session_id":"619bfbdd4eeda715101a460f","condition":"full-information","relevant_dimensions":["wings","pattern"],"bee_group":{"antennae":"X","wings":"2","pattern":"D","legs":"X"},"bonus":1.0200000000000005},{"rt":3442.800000000745,"stimulus":"bees-with-color/bee-A1SF.svg","response":1,"trial_type":"image-button-response","trial_index":53,"time_elapsed":881829,"internal_node_id":"0.0-4.0-0.23","subject_id":"6148baf1d5974f3958c332d2","study_id":"6197b3f67c2b5cd3b6d9596a","session_id":"619bfbdd4eeda715101a460f","condition":"full-information","relevant_dimensions":["wings","pattern"],"bee_group":{"antennae":"X","wings":"2","pattern":"D","legs":"X"},"action":"avoid","summary":"bad-avoid","bonus":1.0200000000000005},{"rt":10583.5,"stimulus":"\n                    <p><b>Action: <em>avoid</em></b></p>\n                    <p>This is the bee that you just saw.</p>\n                    <img src=\"bees-with-color/bee-A1SF.svg\" width=\"200\">\n                    <p><span class=\"redText\">Bad choice,</span> the bee was friendly.<br>Your bonus pay is unchanged, and remains at $0.76.</p>\n            ","response":0,"trial_type":"html-button-response","trial_index":54,"time_elapsed":892417,"internal_node_id":"0.0-4.0-1.23","subject_id":"6148baf1d5974f3958c332d2","study_id":"6197b3f67c2b5cd3b6d9596a","session_id":"619bfbdd4eeda715101a460f","condition":"full-information","relevant_dimensions":["wings","pattern"],"bee_group":{"antennae":"X","wings":"2","pattern":"D","legs":"X"},"bonus":1.0200000000000005},{"rt":4028.39999999851,"stimulus":"bees-with-color/bee-A2DM.svg","response":1,"trial_type":"image-button-response","trial_index":55,"time_elapsed":896452,"internal_node_id":"0.0-4.0-0.24","subject_id":"6148baf1d5974f3958c332d2","study_id":"6197b3f67c2b5cd3b6d9596a","session_id":"619bfbdd4eeda715101a460f","condition":"full-information","relevant_dimensions":["wings","pattern"],"bee_group":{"antennae":"X","wings":"2","pattern":"D","legs":"X"},"action":"avoid","summary":"good-avoid","bonus":1.0200000000000005},{"rt":2994.300000000745,"stimulus":"\n                    <p><b>Action: <em>avoid</em></b></p>\n                    <p>This is the bee that you just saw.</p>\n                    <img src=\"bees-with-color/bee-A2DM.svg\" width=\"200\">\n                    <p><span class=\"greenText\">Good choice!</span>  This bee would have stung you.<br>Your bonus pay is unchanged, and remains at $0.76.</p>\n            ","response":0,"trial_type":"html-button-response","trial_index":56,"time_elapsed":899451,"internal_node_id":"0.0-4.0-1.24","subject_id":"6148baf1d5974f3958c332d2","study_id":"6197b3f67c2b5cd3b6d9596a","session_id":"619bfbdd4eeda715101a460f","condition":"full-information","relevant_dimensions":["wings","pattern"],"bee_group":{"antennae":"X","wings":"2","pattern":"D","legs":"X"},"bonus":1.0200000000000005},{"rt":2906.900000002235,"stimulus":"bees-with-color/bee-B1DM.svg","response":0,"trial_type":"image-button-response","trial_index":57,"time_elapsed":902363,"internal_node_id":"0.0-4.0-0.25","subject_id":"6148baf1d5974f3958c332d2","study_id":"6197b3f67c2b5cd3b6d9596a","session_id":"619bfbdd4eeda715101a460f","condition":"full-information","relevant_dimensions":["wings","pattern"],"bee_group":{"antennae":"X","wings":"2","pattern":"D","legs":"X"},"action":"harvest","summary":"good-harvest","bonus":1.0200000000000005},{"rt":3089.599999997765,"stimulus":"\n                    <p><b>Action: <em>harvest</em></b></p>\n                    <p>This is the bee that you just saw.</p>\n                    <img src=\"bees-with-color/bee-B1DM.svg\" width=\"200\">\n                    <p><span class=\"greenText\"><b>Successful harvest!</b></span><br>Your pay has increased by $0.02. Your bonus pay is now $0.78.</p>\n            ","response":0,"trial_type":"html-button-response","trial_index":58,"time_elapsed":905459,"internal_node_id":"0.0-4.0-1.25","subject_id":"6148baf1d5974f3958c332d2","study_id":"6197b3f67c2b5cd3b6d9596a","session_id":"619bfbdd4eeda715101a460f","condition":"full-information","relevant_dimensions":["wings","pattern"],"bee_group":{"antennae":"X","wings":"2","pattern":"D","legs":"X"},"bonus":1.0200000000000005},{"rt":5759.5,"stimulus":"bees-with-color/bee-B2DM.svg","response":0,"trial_type":"image-button-response","trial_index":59,"time_elapsed":911224,"internal_node_id":"0.0-4.0-0.26","subject_id":"6148baf1d5974f3958c332d2","study_id":"6197b3f67c2b5cd3b6d9596a","session_id":"619bfbdd4eeda715101a460f","condition":"full-information","relevant_dimensions":["wings","pattern"],"bee_group":{"antennae":"X","wings":"2","pattern":"D","legs":"X"},"action":"harvest","summary":"bad-harvest","bonus":1.0200000000000005},{"rt":5791.199999999255,"stimulus":"\n                    <p><b>Action: <em>harvest</em></b></p>\n                    <p>This is the bee that you just saw.</p>\n                    <img src=\"bees-with-color/bee-B2DM.svg\" width=\"200\">\n                    <p><span class=\"redText\">Bad choice, the bee was angry.</span><br><b>You have been stung!</b><br>Your pay has been decreased by $0.10. Your bonus pay is now $0.68.</p>\n            ","response":0,"trial_type":"html-button-response","trial_index":60,"time_elapsed":917020,"internal_node_id":"0.0-4.0-1.26","subject_id":"6148baf1d5974f3958c332d2","study_id":"6197b3f67c2b5cd3b6d9596a","session_id":"619bfbdd4eeda715101a460f","condition":"full-information","relevant_dimensions":["wings","pattern"],"bee_group":{"antennae":"X","wings":"2","pattern":"D","legs":"X"},"bonus":1.0200000000000005},{"rt":2870.2999999970198,"stimulus":"bees-with-color/bee-B1DF.svg","response":0,"trial_type":"image-button-response","trial_index":61,"time_elapsed":919896,"internal_node_id":"0.0-4.0-0.27","subject_id":"6148baf1d5974f3958c332d2","study_id":"6197b3f67c2b5cd3b6d9596a","session_id":"619bfbdd4eeda715101a460f","condition":"full-information","relevant_dimensions":["wings","pattern"],"bee_group":{"antennae":"X","wings":"2","pattern":"D","legs":"X"},"action":"harvest","summary":"good-harvest","bonus":1.0200000000000005},{"rt":2007.699999999255,"stimulus":"\n                    <p><b>Action: <em>harvest</em></b></p>\n                    <p>This is the bee that you just saw.</p>\n                    <img src=\"bees-with-color/bee-B1DF.svg\" width=\"200\">\n                    <p><span class=\"greenText\"><b>Successful harvest!</b></span><br>Your pay has increased by $0.02. Your bonus pay is now $0.70.</p>\n            ","response":0,"trial_type":"html-button-response","trial_index":62,"time_elapsed":921910,"internal_node_id":"0.0-4.0-1.27","subject_id":"6148baf1d5974f3958c332d2","study_id":"6197b3f67c2b5cd3b6d9596a","session_id":"619bfbdd4eeda715101a460f","condition":"full-information","relevant_dimensions":["wings","pattern"],"bee_group":{"antennae":"X","wings":"2","pattern":"D","legs":"X"},"bonus":1.0200000000000005},{"rt":2434.2000000029802,"stimulus":"bees-with-color/bee-A2SM.svg","response":1,"trial_type":"image-button-response","trial_index":63,"time_elapsed":924352,"internal_node_id":"0.0-4.0-0.28","subject_id":"6148baf1d5974f3958c332d2","study_id":"6197b3f67c2b5cd3b6d9596a","session_id":"619bfbdd4eeda715101a460f","condition":"full-information","relevant_dimensions":["wings","pattern"],"bee_group":{"antennae":"X","wings":"2","pattern":"D","legs":"X"},"action":"avoid","summary":"bad-avoid","bonus":1.0200000000000005},{"rt":4073.300000000745,"stimulus":"\n                    <p><b>Action: <em>avoid</em></b></p>\n                    <p>This is the bee that you just saw.</p>\n                    <img src=\"bees-with-color/bee-A2SM.svg\" width=\"200\">\n                    <p><span class=\"redText\">Bad choice,</span> the bee was friendly.<br>Your bonus pay is unchanged, and remains at $0.70.</p>\n            ","response":0,"trial_type":"html-button-response","trial_index":64,"time_elapsed":928429,"internal_node_id":"0.0-4.0-1.28","subject_id":"6148baf1d5974f3958c332d2","study_id":"6197b3f67c2b5cd3b6d9596a","session_id":"619bfbdd4eeda715101a460f","condition":"full-information","relevant_dimensions":["wings","pattern"],"bee_group":{"antennae":"X","wings":"2","pattern":"D","legs":"X"},"bonus":1.0200000000000005},{"rt":31608.599999997765,"stimulus":"bees-with-color/bee-A2SF.svg","response":1,"trial_type":"image-button-response","trial_index":65,"time_elapsed":960045,"internal_node_id":"0.0-4.0-0.29","subject_id":"6148baf1d5974f3958c332d2","study_id":"6197b3f67c2b5cd3b6d9596a","session_id":"619bfbdd4eeda715101a460f","condition":"full-information","relevant_dimensions":["wings","pattern"],"bee_group":{"antennae":"X","wings":"2","pattern":"D","legs":"X"},"action":"avoid","summary":"bad-avoid","bonus":1.0200000000000005},{"rt":1576.6000000014901,"stimulus":"\n                    <p><b>Action: <em>avoid</em></b></p>\n                    <p>This is the bee that you just saw.</p>\n                    <img src=\"bees-with-color/bee-A2SF.svg\" width=\"200\">\n                    <p><span class=\"redText\">Bad choice,</span> the bee was friendly.<br>Your bonus pay is unchanged, and remains at $0.70.</p>\n            ","response":0,"trial_type":"html-button-response","trial_index":66,"time_elapsed":961628,"internal_node_id":"0.0-4.0-1.29","subject_id":"6148baf1d5974f3958c332d2","study_id":"6197b3f67c2b5cd3b6d9596a","session_id":"619bfbdd4eeda715101a460f","condition":"full-information","relevant_dimensions":["wings","pattern"],"bee_group":{"antennae":"X","wings":"2","pattern":"D","legs":"X"},"bonus":1.0200000000000005},{"rt":9729.39999999851,"stimulus":"bees-with-color/bee-A1DM.svg","response":1,"trial_type":"image-button-response","trial_index":67,"time_elapsed":971365,"internal_node_id":"0.0-4.0-0.30","subject_id":"6148baf1d5974f3958c332d2","study_id":"6197b3f67c2b5cd3b6d9596a","session_id":"619bfbdd4eeda715101a460f","condition":"full-information","relevant_dimensions":["wings","pattern"],"bee_group":{"antennae":"X","wings":"2","pattern":"D","legs":"X"},"action":"avoid","summary":"bad-avoid","bonus":1.0200000000000005},{"rt":1128.3999999985099,"stimulus":"\n                    <p><b>Action: <em>avoid</em></b></p>\n                    <p>This is the bee that you just saw.</p>\n                    <img src=\"bees-with-color/bee-A1DM.svg\" width=\"200\">\n                    <p><span class=\"redText\">Bad choice,</span> the bee was friendly.<br>Your bonus pay is unchanged, and remains at $0.70.</p>\n            ","response":0,"trial_type":"html-button-response","trial_index":68,"time_elapsed":972500,"internal_node_id":"0.0-4.0-1.30","subject_id":"6148baf1d5974f3958c332d2","study_id":"6197b3f67c2b5cd3b6d9596a","session_id":"619bfbdd4eeda715101a460f","condition":"full-information","relevant_dimensions":["wings","pattern"],"bee_group":{"antennae":"X","wings":"2","pattern":"D","legs":"X"},"bonus":1.0200000000000005},{"rt":5385.400000002235,"stimulus":"bees-with-color/bee-B1SM.svg","response":1,"trial_type":"image-button-response","trial_index":69,"time_elapsed":977894,"internal_node_id":"0.0-4.0-0.31","subject_id":"6148baf1d5974f3958c332d2","study_id":"6197b3f67c2b5cd3b6d9596a","session_id":"619bfbdd4eeda715101a460f","condition":"full-information","relevant_dimensions":["wings","pattern"],"bee_group":{"antennae":"X","wings":"2","pattern":"D","legs":"X"},"action":"avoid","summary":"bad-avoid","bonus":1.0200000000000005},{"rt":1527.9000000022352,"stimulus":"\n                    <p><b>Action: <em>avoid</em></b></p>\n                    <p>This is the bee that you just saw.</p>\n                    <img src=\"bees-with-color/bee-B1SM.svg\" width=\"200\">\n                    <p><span class=\"redText\">Bad choice,</span> the bee was friendly.<br>Your bonus pay is unchanged, and remains at $0.70.</p>\n            ","response":0,"trial_type":"html-button-response","trial_index":70,"time_elapsed":979428,"internal_node_id":"0.0-4.0-1.31","subject_id":"6148baf1d5974f3958c332d2","study_id":"6197b3f67c2b5cd3b6d9596a","session_id":"619bfbdd4eeda715101a460f","condition":"full-information","relevant_dimensions":["wings","pattern"],"bee_group":{"antennae":"X","wings":"2","pattern":"D","legs":"X"},"bonus":1.0200000000000005},{"rt":10521.39999999851,"stimulus":"bees-with-color/bee-A2SM.svg","response":0,"trial_type":"image-button-response","trial_index":71,"time_elapsed":989957,"internal_node_id":"0.0-4.0-0.32","subject_id":"6148baf1d5974f3958c332d2","study_id":"6197b3f67c2b5cd3b6d9596a","session_id":"619bfbdd4eeda715101a460f","condition":"full-information","relevant_dimensions":["wings","pattern"],"bee_group":{"antennae":"X","wings":"2","pattern":"D","legs":"X"},"action":"harvest","summary":"good-harvest","bonus":1.0200000000000005},{"rt":2337.699999999255,"stimulus":"\n                    <p><b>Action: <em>harvest</em></b></p>\n                    <p>This is the bee that you just saw.</p>\n                    <img src=\"bees-with-color/bee-A2SM.svg\" width=\"200\">\n                    <p><span class=\"greenText\"><b>Successful harvest!</b></span><br>Your pay has increased by $0.02. Your bonus pay is now $0.72.</p>\n            ","response":0,"trial_type":"html-button-response","trial_index":72,"time_elapsed":992301,"internal_node_id":"0.0-4.0-1.32","subject_id":"6148baf1d5974f3958c332d2","study_id":"6197b3f67c2b5cd3b6d9596a","session_id":"619bfbdd4eeda715101a460f","condition":"full-information","relevant_dimensions":["wings","pattern"],"bee_group":{"antennae":"X","wings":"2","pattern":"D","legs":"X"},"bonus":1.0200000000000005},{"rt":3756.699999999255,"stimulus":"bees-with-color/bee-B2SF.svg","response":0,"trial_type":"image-button-response","trial_index":73,"time_elapsed":996063,"internal_node_id":"0.0-4.0-0.33","subject_id":"6148baf1d5974f3958c332d2","study_id":"6197b3f67c2b5cd3b6d9596a","session_id":"619bfbdd4eeda715101a460f","condition":"full-information","relevant_dimensions":["wings","pattern"],"bee_group":{"antennae":"X","wings":"2","pattern":"D","legs":"X"},"action":"harvest","summary":"good-harvest","bonus":1.0200000000000005},{"rt":1590.0999999977648,"stimulus":"\n                    <p><b>Action: <em>harvest</em></b></p>\n                    <p>This is the bee that you just saw.</p>\n                    <img src=\"bees-with-color/bee-B2SF.svg\" width=\"200\">\n                    <p><span class=\"greenText\"><b>Successful harvest!</b></span><br>Your pay has increased by $0.02. Your bonus pay is now $0.74.</p>\n            ","response":0,"trial_type":"html-button-response","trial_index":74,"time_elapsed":997657,"internal_node_id":"0.0-4.0-1.33","subject_id":"6148baf1d5974f3958c332d2","study_id":"6197b3f67c2b5cd3b6d9596a","session_id":"619bfbdd4eeda715101a460f","condition":"full-information","relevant_dimensions":["wings","pattern"],"bee_group":{"antennae":"X","wings":"2","pattern":"D","legs":"X"},"bonus":1.0200000000000005},{"rt":3375,"stimulus":"bees-with-color/bee-B1DM.svg","response":1,"trial_type":"image-button-response","trial_index":75,"time_elapsed":1001037,"internal_node_id":"0.0-4.0-0.34","subject_id":"6148baf1d5974f3958c332d2","study_id":"6197b3f67c2b5cd3b6d9596a","session_id":"619bfbdd4eeda715101a460f","condition":"full-information","relevant_dimensions":["wings","pattern"],"bee_group":{"antennae":"X","wings":"2","pattern":"D","legs":"X"},"action":"avoid","summary":"bad-avoid","bonus":1.0200000000000005},{"rt":2615.5,"stimulus":"\n                    <p><b>Action: <em>avoid</em></b></p>\n                    <p>This is the bee that you just saw.</p>\n                    <img src=\"bees-with-color/bee-B1DM.svg\" width=\"200\">\n                    <p><span class=\"redText\">Bad choice,</span> the bee was friendly.<br>Your bonus pay is unchanged, and remains at $0.74.</p>\n            ","response":0,"trial_type":"html-button-response","trial_index":76,"time_elapsed":1003657,"internal_node_id":"0.0-4.0-1.34","subject_id":"6148baf1d5974f3958c332d2","study_id":"6197b3f67c2b5cd3b6d9596a","session_id":"619bfbdd4eeda715101a460f","condition":"full-information","relevant_dimensions":["wings","pattern"],"bee_group":{"antennae":"X","wings":"2","pattern":"D","legs":"X"},"bonus":1.0200000000000005},{"rt":2591.5,"stimulus":"bees-with-color/bee-B1DF.svg","response":0,"trial_type":"image-button-response","trial_index":77,"time_elapsed":1006255,"internal_node_id":"0.0-4.0-0.35","subject_id":"6148baf1d5974f3958c332d2","study_id":"6197b3f67c2b5cd3b6d9596a","session_id":"619bfbdd4eeda715101a460f","condition":"full-information","relevant_dimensions":["wings","pattern"],"bee_group":{"antennae":"X","wings":"2","pattern":"D","legs":"X"},"action":"harvest","summary":"good-harvest","bonus":1.0200000000000005},{"rt":1343.8999999985099,"stimulus":"\n                    <p><b>Action: <em>harvest</em></b></p>\n                    <p>This is the bee that you just saw.</p>\n                    <img src=\"bees-with-color/bee-B1DF.svg\" width=\"200\">\n                    <p><span class=\"greenText\"><b>Successful harvest!</b></span><br>Your pay has increased by $0.02. Your bonus pay is now $0.76.</p>\n            ","response":0,"trial_type":"html-button-response","trial_index":78,"time_elapsed":1007603,"internal_node_id":"0.0-4.0-1.35","subject_id":"6148baf1d5974f3958c332d2","study_id":"6197b3f67c2b5cd3b6d9596a","session_id":"619bfbdd4eeda715101a460f","condition":"full-information","relevant_dimensions":["wings","pattern"],"bee_group":{"antennae":"X","wings":"2","pattern":"D","legs":"X"},"bonus":1.0200000000000005},{"rt":3120.900000002235,"stimulus":"bees-with-color/bee-B2DM.svg","response":1,"trial_type":"image-button-response","trial_index":79,"time_elapsed":1010730,"internal_node_id":"0.0-4.0-0.36","subject_id":"6148baf1d5974f3958c332d2","study_id":"6197b3f67c2b5cd3b6d9596a","session_id":"619bfbdd4eeda715101a460f","condition":"full-information","relevant_dimensions":["wings","pattern"],"bee_group":{"antennae":"X","wings":"2","pattern":"D","legs":"X"},"action":"avoid","summary":"good-avoid","bonus":1.0200000000000005},{"rt":4284,"stimulus":"\n                    <p><b>Action: <em>avoid</em></b></p>\n                    <p>This is the bee that you just saw.</p>\n                    <img src=\"bees-with-color/bee-B2DM.svg\" width=\"200\">\n                    <p><span class=\"greenText\">Good choice!</span>  This bee would have stung you.<br>Your bonus pay is unchanged, and remains at $0.76.</p>\n            ","response":0,"trial_type":"html-button-response","trial_index":80,"time_elapsed":1015019,"internal_node_id":"0.0-4.0-1.36","subject_id":"6148baf1d5974f3958c332d2","study_id":"6197b3f67c2b5cd3b6d9596a","session_id":"619bfbdd4eeda715101a460f","condition":"full-information","relevant_dimensions":["wings","pattern"],"bee_group":{"antennae":"X","wings":"2","pattern":"D","legs":"X"},"bonus":1.0200000000000005},{"rt":14447.5,"stimulus":"bees-with-color/bee-A1DM.svg","response":1,"trial_type":"image-button-response","trial_index":81,"time_elapsed":1029473,"internal_node_id":"0.0-4.0-0.37","subject_id":"6148baf1d5974f3958c332d2","study_id":"6197b3f67c2b5cd3b6d9596a","session_id":"619bfbdd4eeda715101a460f","condition":"full-information","relevant_dimensions":["wings","pattern"],"bee_group":{"antennae":"X","wings":"2","pattern":"D","legs":"X"},"action":"avoid","summary":"bad-avoid","bonus":1.0200000000000005},{"rt":13584.699999999255,"stimulus":"\n                    <p><b>Action: <em>avoid</em></b></p>\n                    <p>This is the bee that you just saw.</p>\n                    <img src=\"bees-with-color/bee-A1DM.svg\" width=\"200\">\n                    <p><span class=\"redText\">Bad choice,</span> the bee was friendly.<br>Your bonus pay is unchanged, and remains at $0.76.</p>\n            ","response":0,"trial_type":"html-button-response","trial_index":82,"time_elapsed":1043061,"internal_node_id":"0.0-4.0-1.37","subject_id":"6148baf1d5974f3958c332d2","study_id":"6197b3f67c2b5cd3b6d9596a","session_id":"619bfbdd4eeda715101a460f","condition":"full-information","relevant_dimensions":["wings","pattern"],"bee_group":{"antennae":"X","wings":"2","pattern":"D","legs":"X"},"bonus":1.0200000000000005},{"rt":3746.800000000745,"stimulus":"bees-with-color/bee-A1SF.svg","response":0,"trial_type":"image-button-response","trial_index":83,"time_elapsed":1046812,"internal_node_id":"0.0-4.0-0.38","subject_id":"6148baf1d5974f3958c332d2","study_id":"6197b3f67c2b5cd3b6d9596a","session_id":"619bfbdd4eeda715101a460f","condition":"full-information","relevant_dimensions":["wings","pattern"],"bee_group":{"antennae":"X","wings":"2","pattern":"D","legs":"X"},"action":"harvest","summary":"good-harvest","bonus":1.0200000000000005},{"rt":2344.599999997765,"stimulus":"\n                    <p><b>Action: <em>harvest</em></b></p>\n                    <p>This is the bee that you just saw.</p>\n                    <img src=\"bees-with-color/bee-A1SF.svg\" width=\"200\">\n                    <p><span class=\"greenText\"><b>Successful harvest!</b></span><br>Your pay has increased by $0.02. Your bonus pay is now $0.78.</p>\n            ","response":0,"trial_type":"html-button-response","trial_index":84,"time_elapsed":1049164,"internal_node_id":"0.0-4.0-1.38","subject_id":"6148baf1d5974f3958c332d2","study_id":"6197b3f67c2b5cd3b6d9596a","session_id":"619bfbdd4eeda715101a460f","condition":"full-information","relevant_dimensions":["wings","pattern"],"bee_group":{"antennae":"X","wings":"2","pattern":"D","legs":"X"},"bonus":1.0200000000000005},{"rt":3260.699999999255,"stimulus":"bees-with-color/bee-A2DF.svg","response":1,"trial_type":"image-button-response","trial_index":85,"time_elapsed":1052432,"internal_node_id":"0.0-4.0-0.39","subject_id":"6148baf1d5974f3958c332d2","study_id":"6197b3f67c2b5cd3b6d9596a","session_id":"619bfbdd4eeda715101a460f","condition":"full-information","relevant_dimensions":["wings","pattern"],"bee_group":{"antennae":"X","wings":"2","pattern":"D","legs":"X"},"action":"avoid","summary":"good-avoid","bonus":1.0200000000000005},{"rt":3143.10000000149,"stimulus":"\n                    <p><b>Action: <em>avoid</em></b></p>\n                    <p>This is the bee that you just saw.</p>\n                    <img src=\"bees-with-color/bee-A2DF.svg\" width=\"200\">\n                    <p><span class=\"greenText\">Good choice!</span>  This bee would have stung you.<br>Your bonus pay is unchanged, and remains at $0.78.</p>\n            ","response":0,"trial_type":"html-button-response","trial_index":86,"time_elapsed":1055583,"internal_node_id":"0.0-4.0-1.39","subject_id":"6148baf1d5974f3958c332d2","study_id":"6197b3f67c2b5cd3b6d9596a","session_id":"619bfbdd4eeda715101a460f","condition":"full-information","relevant_dimensions":["wings","pattern"],"bee_group":{"antennae":"X","wings":"2","pattern":"D","legs":"X"},"bonus":1.0200000000000005},{"rt":4078.699999999255,"stimulus":"bees-with-color/bee-A2SF.svg","response":1,"trial_type":"image-button-response","trial_index":87,"time_elapsed":1059668,"internal_node_id":"0.0-4.0-0.40","subject_id":"6148baf1d5974f3958c332d2","study_id":"6197b3f67c2b5cd3b6d9596a","session_id":"619bfbdd4eeda715101a460f","condition":"full-information","relevant_dimensions":["wings","pattern"],"bee_group":{"antennae":"X","wings":"2","pattern":"D","legs":"X"},"action":"avoid","summary":"bad-avoid","bonus":1.0200000000000005},{"rt":10246.300000000745,"stimulus":"\n                    <p><b>Action: <em>avoid</em></b></p>\n                    <p>This is the bee that you just saw.</p>\n                    <img src=\"bees-with-color/bee-A2SF.svg\" width=\"200\">\n                    <p><span class=\"redText\">Bad choice,</span> the bee was friendly.<br>Your bonus pay is unchanged, and remains at $0.78.</p>\n            ","response":0,"trial_type":"html-button-response","trial_index":88,"time_elapsed":1069919,"internal_node_id":"0.0-4.0-1.40","subject_id":"6148baf1d5974f3958c332d2","study_id":"6197b3f67c2b5cd3b6d9596a","session_id":"619bfbdd4eeda715101a460f","condition":"full-information","relevant_dimensions":["wings","pattern"],"bee_group":{"antennae":"X","wings":"2","pattern":"D","legs":"X"},"bonus":1.0200000000000005},{"rt":5817.800000000745,"stimulus":"bees-with-color/bee-A2DM.svg","response":1,"trial_type":"image-button-response","trial_index":89,"time_elapsed":1075744,"internal_node_id":"0.0-4.0-0.41","subject_id":"6148baf1d5974f3958c332d2","study_id":"6197b3f67c2b5cd3b6d9596a","session_id":"619bfbdd4eeda715101a460f","condition":"full-information","relevant_dimensions":["wings","pattern"],"bee_group":{"antennae":"X","wings":"2","pattern":"D","legs":"X"},"action":"avoid","summary":"good-avoid","bonus":1.0200000000000005},{"rt":9067.199999999255,"stimulus":"\n                    <p><b>Action: <em>avoid</em></b></p>\n                    <p>This is the bee that you just saw.</p>\n                    <img src=\"bees-with-color/bee-A2DM.svg\" width=\"200\">\n                    <p><span class=\"greenText\">Good choice!</span>  This bee would have stung you.<br>Your bonus pay is unchanged, and remains at $0.78.</p>\n            ","response":0,"trial_type":"html-button-response","trial_index":90,"time_elapsed":1084816,"internal_node_id":"0.0-4.0-1.41","subject_id":"6148baf1d5974f3958c332d2","study_id":"6197b3f67c2b5cd3b6d9596a","session_id":"619bfbdd4eeda715101a460f","condition":"full-information","relevant_dimensions":["wings","pattern"],"bee_group":{"antennae":"X","wings":"2","pattern":"D","legs":"X"},"bonus":1.0200000000000005},{"rt":12758.39999999851,"stimulus":"bees-with-color/bee-A1DF.svg","response":0,"trial_type":"image-button-response","trial_index":91,"time_elapsed":1097582,"internal_node_id":"0.0-4.0-0.42","subject_id":"6148baf1d5974f3958c332d2","study_id":"6197b3f67c2b5cd3b6d9596a","session_id":"619bfbdd4eeda715101a460f","condition":"full-information","relevant_dimensions":["wings","pattern"],"bee_group":{"antennae":"X","wings":"2","pattern":"D","legs":"X"},"action":"harvest","summary":"good-harvest","bonus":1.0200000000000005},{"rt":1372,"stimulus":"\n                    <p><b>Action: <em>harvest</em></b></p>\n                    <p>This is the bee that you just saw.</p>\n                    <img src=\"bees-with-color/bee-A1DF.svg\" width=\"200\">\n                    <p><span class=\"greenText\"><b>Successful harvest!</b></span><br>Your pay has increased by $0.02. Your bonus pay is now $0.80.</p>\n            ","response":0,"trial_type":"html-button-response","trial_index":92,"time_elapsed":1098960,"internal_node_id":"0.0-4.0-1.42","subject_id":"6148baf1d5974f3958c332d2","study_id":"6197b3f67c2b5cd3b6d9596a","session_id":"619bfbdd4eeda715101a460f","condition":"full-information","relevant_dimensions":["wings","pattern"],"bee_group":{"antennae":"X","wings":"2","pattern":"D","legs":"X"},"bonus":1.0200000000000005},{"rt":46109,"stimulus":"bees-with-color/bee-B1SM.svg","response":0,"trial_type":"image-button-response","trial_index":93,"time_elapsed":1145076,"internal_node_id":"0.0-4.0-0.43","subject_id":"6148baf1d5974f3958c332d2","study_id":"6197b3f67c2b5cd3b6d9596a","session_id":"619bfbdd4eeda715101a460f","condition":"full-information","relevant_dimensions":["wings","pattern"],"bee_group":{"antennae":"X","wings":"2","pattern":"D","legs":"X"},"action":"harvest","summary":"good-harvest","bonus":1.0200000000000005},{"rt":1987.300000000745,"stimulus":"\n                    <p><b>Action: <em>harvest</em></b></p>\n                    <p>This is the bee that you just saw.</p>\n                    <img src=\"bees-with-color/bee-B1SM.svg\" width=\"200\">\n                    <p><span class=\"greenText\"><b>Successful harvest!</b></span><br>Your pay has increased by $0.02. Your bonus pay is now $0.82.</p>\n            ","response":0,"trial_type":"html-button-response","trial_index":94,"time_elapsed":1147069,"internal_node_id":"0.0-4.0-1.43","subject_id":"6148baf1d5974f3958c332d2","study_id":"6197b3f67c2b5cd3b6d9596a","session_id":"619bfbdd4eeda715101a460f","condition":"full-information","relevant_dimensions":["wings","pattern"],"bee_group":{"antennae":"X","wings":"2","pattern":"D","legs":"X"},"bonus":1.0200000000000005},{"rt":1763.0999999977648,"stimulus":"bees-with-color/bee-B2SM.svg","response":1,"trial_type":"image-button-response","trial_index":95,"time_elapsed":1148840,"internal_node_id":"0.0-4.0-0.44","subject_id":"6148baf1d5974f3958c332d2","study_id":"6197b3f67c2b5cd3b6d9596a","session_id":"619bfbdd4eeda715101a460f","condition":"full-information","relevant_dimensions":["wings","pattern"],"bee_group":{"antennae":"X","wings":"2","pattern":"D","legs":"X"},"action":"avoid","summary":"bad-avoid","bonus":1.0200000000000005},{"rt":2260.5,"stimulus":"\n                    <p><b>Action: <em>avoid</em></b></p>\n                    <p>This is the bee that you just saw.</p>\n                    <img src=\"bees-with-color/bee-B2SM.svg\" width=\"200\">\n                    <p><span class=\"redText\">Bad choice,</span> the bee was friendly.<br>Your bonus pay is unchanged, and remains at $0.82.</p>\n            ","response":0,"trial_type":"html-button-response","trial_index":96,"time_elapsed":1151107,"internal_node_id":"0.0-4.0-1.44","subject_id":"6148baf1d5974f3958c332d2","study_id":"6197b3f67c2b5cd3b6d9596a","session_id":"619bfbdd4eeda715101a460f","condition":"full-information","relevant_dimensions":["wings","pattern"],"bee_group":{"antennae":"X","wings":"2","pattern":"D","legs":"X"},"bonus":1.0200000000000005},{"rt":2533.39999999851,"stimulus":"bees-with-color/bee-A1SM.svg","response":0,"trial_type":"image-button-response","trial_index":97,"time_elapsed":1153646,"internal_node_id":"0.0-4.0-0.45","subject_id":"6148baf1d5974f3958c332d2","study_id":"6197b3f67c2b5cd3b6d9596a","session_id":"619bfbdd4eeda715101a460f","condition":"full-information","relevant_dimensions":["wings","pattern"],"bee_group":{"antennae":"X","wings":"2","pattern":"D","legs":"X"},"action":"harvest","summary":"good-harvest","bonus":1.0200000000000005},{"rt":1559.5,"stimulus":"\n                    <p><b>Action: <em>harvest</em></b></p>\n                    <p>This is the bee that you just saw.</p>\n                    <img src=\"bees-with-color/bee-A1SM.svg\" width=\"200\">\n                    <p><span class=\"greenText\"><b>Successful harvest!</b></span><br>Your pay has increased by $0.02. Your bonus pay is now $0.84.</p>\n            ","response":0,"trial_type":"html-button-response","trial_index":98,"time_elapsed":1155211,"internal_node_id":"0.0-4.0-1.45","subject_id":"6148baf1d5974f3958c332d2","study_id":"6197b3f67c2b5cd3b6d9596a","session_id":"619bfbdd4eeda715101a460f","condition":"full-information","relevant_dimensions":["wings","pattern"],"bee_group":{"antennae":"X","wings":"2","pattern":"D","legs":"X"},"bonus":1.0200000000000005},{"rt":2759.10000000149,"stimulus":"bees-with-color/bee-B1SF.svg","response":0,"trial_type":"image-button-response","trial_index":99,"time_elapsed":1157977,"internal_node_id":"0.0-4.0-0.46","subject_id":"6148baf1d5974f3958c332d2","study_id":"6197b3f67c2b5cd3b6d9596a","session_id":"619bfbdd4eeda715101a460f","condition":"full-information","relevant_dimensions":["wings","pattern"],"bee_group":{"antennae":"X","wings":"2","pattern":"D","legs":"X"},"action":"harvest","summary":"good-harvest","bonus":1.0200000000000005},{"rt":1538.699999999255,"stimulus":"\n                    <p><b>Action: <em>harvest</em></b></p>\n                    <p>This is the bee that you just saw.</p>\n                    <img src=\"bees-with-color/bee-B1SF.svg\" width=\"200\">\n                    <p><span class=\"greenText\"><b>Successful harvest!</b></span><br>Your pay has increased by $0.02. Your bonus pay is now $0.86.</p>\n            ","response":0,"trial_type":"html-button-response","trial_index":100,"time_elapsed":1159521,"internal_node_id":"0.0-4.0-1.46","subject_id":"6148baf1d5974f3958c332d2","study_id":"6197b3f67c2b5cd3b6d9596a","session_id":"619bfbdd4eeda715101a460f","condition":"full-information","relevant_dimensions":["wings","pattern"],"bee_group":{"antennae":"X","wings":"2","pattern":"D","legs":"X"},"bonus":1.0200000000000005},{"rt":2143.10000000149,"stimulus":"bees-with-color/bee-B2DF.svg","response":1,"trial_type":"image-button-response","trial_index":101,"time_elapsed":1161671,"internal_node_id":"0.0-4.0-0.47","subject_id":"6148baf1d5974f3958c332d2","study_id":"6197b3f67c2b5cd3b6d9596a","session_id":"619bfbdd4eeda715101a460f","condition":"full-information","relevant_dimensions":["wings","pattern"],"bee_group":{"antennae":"X","wings":"2","pattern":"D","legs":"X"},"action":"avoid","summary":"good-avoid","bonus":1.0200000000000005},{"rt":3471.900000002235,"stimulus":"\n                    <p><b>Action: <em>avoid</em></b></p>\n                    <p>This is the bee that you just saw.</p>\n                    <img src=\"bees-with-color/bee-B2DF.svg\" width=\"200\">\n                    <p><span class=\"greenText\">Good choice!</span>  This bee would have stung you.<br>Your bonus pay is unchanged, and remains at $0.86.</p>\n            ","response":0,"trial_type":"html-button-response","trial_index":102,"time_elapsed":1165150,"internal_node_id":"0.0-4.0-1.47","subject_id":"6148baf1d5974f3958c332d2","study_id":"6197b3f67c2b5cd3b6d9596a","session_id":"619bfbdd4eeda715101a460f","condition":"full-information","relevant_dimensions":["wings","pattern"],"bee_group":{"antennae":"X","wings":"2","pattern":"D","legs":"X"},"bonus":1.0200000000000005},{"rt":19100.5,"stimulus":"bees-with-color/bee-B1DM.svg","response":0,"trial_type":"image-button-response","trial_index":103,"time_elapsed":1184257,"internal_node_id":"0.0-4.0-0.48","subject_id":"6148baf1d5974f3958c332d2","study_id":"6197b3f67c2b5cd3b6d9596a","session_id":"619bfbdd4eeda715101a460f","condition":"full-information","relevant_dimensions":["wings","pattern"],"bee_group":{"antennae":"X","wings":"2","pattern":"D","legs":"X"},"action":"harvest","summary":"good-harvest","bonus":1.0200000000000005},{"rt":2036.5999999977648,"stimulus":"\n                    <p><b>Action: <em>harvest</em></b></p>\n                    <p>This is the bee that you just saw.</p>\n                    <img src=\"bees-with-color/bee-B1DM.svg\" width=\"200\">\n                    <p><span class=\"greenText\"><b>Successful harvest!</b></span><br>Your pay has increased by $0.02. Your bonus pay is now $0.88.</p>\n            ","response":0,"trial_type":"html-button-response","trial_index":104,"time_elapsed":1186300,"internal_node_id":"0.0-4.0-1.48","subject_id":"6148baf1d5974f3958c332d2","study_id":"6197b3f67c2b5cd3b6d9596a","session_id":"619bfbdd4eeda715101a460f","condition":"full-information","relevant_dimensions":["wings","pattern"],"bee_group":{"antennae":"X","wings":"2","pattern":"D","legs":"X"},"bonus":1.0200000000000005},{"rt":4252.300000000745,"stimulus":"bees-with-color/bee-A2DF.svg","response":1,"trial_type":"image-button-response","trial_index":105,"time_elapsed":1190561,"internal_node_id":"0.0-4.0-0.49","subject_id":"6148baf1d5974f3958c332d2","study_id":"6197b3f67c2b5cd3b6d9596a","session_id":"619bfbdd4eeda715101a460f","condition":"full-information","relevant_dimensions":["wings","pattern"],"bee_group":{"antennae":"X","wings":"2","pattern":"D","legs":"X"},"action":"avoid","summary":"good-avoid","bonus":1.0200000000000005},{"rt":2202.39999999851,"stimulus":"\n                    <p><b>Action: <em>avoid</em></b></p>\n                    <p>This is the bee that you just saw.</p>\n                    <img src=\"bees-with-color/bee-A2DF.svg\" width=\"200\">\n                    <p><span class=\"greenText\">Good choice!</span>  This bee would have stung you.<br>Your bonus pay is unchanged, and remains at $0.88.</p>\n            ","response":0,"trial_type":"html-button-response","trial_index":106,"time_elapsed":1192769,"internal_node_id":"0.0-4.0-1.49","subject_id":"6148baf1d5974f3958c332d2","study_id":"6197b3f67c2b5cd3b6d9596a","session_id":"619bfbdd4eeda715101a460f","condition":"full-information","relevant_dimensions":["wings","pattern"],"bee_group":{"antennae":"X","wings":"2","pattern":"D","legs":"X"},"bonus":1.0200000000000005},{"rt":2396.7999999970198,"stimulus":"bees-with-color/bee-A2SM.svg","response":0,"trial_type":"image-button-response","trial_index":107,"time_elapsed":1195173,"internal_node_id":"0.0-4.0-0.50","subject_id":"6148baf1d5974f3958c332d2","study_id":"6197b3f67c2b5cd3b6d9596a","session_id":"619bfbdd4eeda715101a460f","condition":"full-information","relevant_dimensions":["wings","pattern"],"bee_group":{"antennae":"X","wings":"2","pattern":"D","legs":"X"},"action":"harvest","summary":"good-harvest","bonus":1.0200000000000005},{"rt":2142,"stimulus":"\n                    <p><b>Action: <em>harvest</em></b></p>\n                    <p>This is the bee that you just saw.</p>\n                    <img src=\"bees-with-color/bee-A2SM.svg\" width=\"200\">\n                    <p><span class=\"greenText\"><b>Successful harvest!</b></span><br>Your pay has increased by $0.02. Your bonus pay is now $0.90.</p>\n            ","response":0,"trial_type":"html-button-response","trial_index":108,"time_elapsed":1197322,"internal_node_id":"0.0-4.0-1.50","subject_id":"6148baf1d5974f3958c332d2","study_id":"6197b3f67c2b5cd3b6d9596a","session_id":"619bfbdd4eeda715101a460f","condition":"full-information","relevant_dimensions":["wings","pattern"],"bee_group":{"antennae":"X","wings":"2","pattern":"D","legs":"X"},"bonus":1.0200000000000005},{"rt":13899.099999997765,"stimulus":"bees-with-color/bee-B1DF.svg","response":0,"trial_type":"image-button-response","trial_index":109,"time_elapsed":1211225,"internal_node_id":"0.0-4.0-0.51","subject_id":"6148baf1d5974f3958c332d2","study_id":"6197b3f67c2b5cd3b6d9596a","session_id":"619bfbdd4eeda715101a460f","condition":"full-information","relevant_dimensions":["wings","pattern"],"bee_group":{"antennae":"X","wings":"2","pattern":"D","legs":"X"},"action":"harvest","summary":"good-harvest","bonus":1.0200000000000005},{"rt":1314,"stimulus":"\n                    <p><b>Action: <em>harvest</em></b></p>\n                    <p>This is the bee that you just saw.</p>\n                    <img src=\"bees-with-color/bee-B1DF.svg\" width=\"200\">\n                    <p><span class=\"greenText\"><b>Successful harvest!</b></span><br>Your pay has increased by $0.02. Your bonus pay is now $0.92.</p>\n            ","response":0,"trial_type":"html-button-response","trial_index":110,"time_elapsed":1212544,"internal_node_id":"0.0-4.0-1.51","subject_id":"6148baf1d5974f3958c332d2","study_id":"6197b3f67c2b5cd3b6d9596a","session_id":"619bfbdd4eeda715101a460f","condition":"full-information","relevant_dimensions":["wings","pattern"],"bee_group":{"antennae":"X","wings":"2","pattern":"D","legs":"X"},"bonus":1.0200000000000005},{"rt":3335.300000000745,"stimulus":"bees-with-color/bee-B2SM.svg","response":1,"trial_type":"image-button-response","trial_index":111,"time_elapsed":1215885,"internal_node_id":"0.0-4.0-0.52","subject_id":"6148baf1d5974f3958c332d2","study_id":"6197b3f67c2b5cd3b6d9596a","session_id":"619bfbdd4eeda715101a460f","condition":"full-information","relevant_dimensions":["wings","pattern"],"bee_group":{"antennae":"X","wings":"2","pattern":"D","legs":"X"},"action":"avoid","summary":"bad-avoid","bonus":1.0200000000000005},{"rt":2252.89999999851,"stimulus":"\n                    <p><b>Action: <em>avoid</em></b></p>\n                    <p>This is the bee that you just saw.</p>\n                    <img src=\"bees-with-color/bee-B2SM.svg\" width=\"200\">\n                    <p><span class=\"redText\">Bad choice,</span> the bee was friendly.<br>Your bonus pay is unchanged, and remains at $0.92.</p>\n            ","response":0,"trial_type":"html-button-response","trial_index":112,"time_elapsed":1218142,"internal_node_id":"0.0-4.0-1.52","subject_id":"6148baf1d5974f3958c332d2","study_id":"6197b3f67c2b5cd3b6d9596a","session_id":"619bfbdd4eeda715101a460f","condition":"full-information","relevant_dimensions":["wings","pattern"],"bee_group":{"antennae":"X","wings":"2","pattern":"D","legs":"X"},"bonus":1.0200000000000005},{"rt":17858.300000000745,"stimulus":"bees-with-color/bee-A1DM.svg","response":0,"trial_type":"image-button-response","trial_index":113,"time_elapsed":1236006,"internal_node_id":"0.0-4.0-0.53","subject_id":"6148baf1d5974f3958c332d2","study_id":"6197b3f67c2b5cd3b6d9596a","session_id":"619bfbdd4eeda715101a460f","condition":"full-information","relevant_dimensions":["wings","pattern"],"bee_group":{"antennae":"X","wings":"2","pattern":"D","legs":"X"},"action":"harvest","summary":"good-harvest","bonus":1.0200000000000005},{"rt":2104.5,"stimulus":"\n                    <p><b>Action: <em>harvest</em></b></p>\n                    <p>This is the bee that you just saw.</p>\n                    <img src=\"bees-with-color/bee-A1DM.svg\" width=\"200\">\n                    <p><span class=\"greenText\"><b>Successful harvest!</b></span><br>Your pay has increased by $0.02. Your bonus pay is now $0.94.</p>\n            ","response":0,"trial_type":"html-button-response","trial_index":114,"time_elapsed":1238115,"internal_node_id":"0.0-4.0-1.53","subject_id":"6148baf1d5974f3958c332d2","study_id":"6197b3f67c2b5cd3b6d9596a","session_id":"619bfbdd4eeda715101a460f","condition":"full-information","relevant_dimensions":["wings","pattern"],"bee_group":{"antennae":"X","wings":"2","pattern":"D","legs":"X"},"bonus":1.0200000000000005},{"rt":7310.20000000298,"stimulus":"bees-with-color/bee-A2DM.svg","response":1,"trial_type":"image-button-response","trial_index":115,"time_elapsed":1245431,"internal_node_id":"0.0-4.0-0.54","subject_id":"6148baf1d5974f3958c332d2","study_id":"6197b3f67c2b5cd3b6d9596a","session_id":"619bfbdd4eeda715101a460f","condition":"full-information","relevant_dimensions":["wings","pattern"],"bee_group":{"antennae":"X","wings":"2","pattern":"D","legs":"X"},"action":"avoid","summary":"good-avoid","bonus":1.0200000000000005},{"rt":25449,"stimulus":"\n                    <p><b>Action: <em>avoid</em></b></p>\n                    <p>This is the bee that you just saw.</p>\n                    <img src=\"bees-with-color/bee-A2DM.svg\" width=\"200\">\n                    <p><span class=\"greenText\">Good choice!</span>  This bee would have stung you.<br>Your bonus pay is unchanged, and remains at $0.94.</p>\n            ","response":0,"trial_type":"html-button-response","trial_index":116,"time_elapsed":1270885,"internal_node_id":"0.0-4.0-1.54","subject_id":"6148baf1d5974f3958c332d2","study_id":"6197b3f67c2b5cd3b6d9596a","session_id":"619bfbdd4eeda715101a460f","condition":"full-information","relevant_dimensions":["wings","pattern"],"bee_group":{"antennae":"X","wings":"2","pattern":"D","legs":"X"},"bonus":1.0200000000000005},{"rt":2231.2000000029802,"stimulus":"bees-with-color/bee-B2SF.svg","response":1,"trial_type":"image-button-response","trial_index":117,"time_elapsed":1273122,"internal_node_id":"0.0-4.0-0.55","subject_id":"6148baf1d5974f3958c332d2","study_id":"6197b3f67c2b5cd3b6d9596a","session_id":"619bfbdd4eeda715101a460f","condition":"full-information","relevant_dimensions":["wings","pattern"],"bee_group":{"antennae":"X","wings":"2","pattern":"D","legs":"X"},"action":"avoid","summary":"bad-avoid","bonus":1.0200000000000005},{"rt":1647.3999999985099,"stimulus":"\n                    <p><b>Action: <em>avoid</em></b></p>\n                    <p>This is the bee that you just saw.</p>\n                    <img src=\"bees-with-color/bee-B2SF.svg\" width=\"200\">\n                    <p><span class=\"redText\">Bad choice,</span> the bee was friendly.<br>Your bonus pay is unchanged, and remains at $0.94.</p>\n            ","response":0,"trial_type":"html-button-response","trial_index":118,"time_elapsed":1274774,"internal_node_id":"0.0-4.0-1.55","subject_id":"6148baf1d5974f3958c332d2","study_id":"6197b3f67c2b5cd3b6d9596a","session_id":"619bfbdd4eeda715101a460f","condition":"full-information","relevant_dimensions":["wings","pattern"],"bee_group":{"antennae":"X","wings":"2","pattern":"D","legs":"X"},"bonus":1.0200000000000005},{"rt":2888.89999999851,"stimulus":"bees-with-color/bee-B1SF.svg","response":0,"trial_type":"image-button-response","trial_index":119,"time_elapsed":1277667,"internal_node_id":"0.0-4.0-0.56","subject_id":"6148baf1d5974f3958c332d2","study_id":"6197b3f67c2b5cd3b6d9596a","session_id":"619bfbdd4eeda715101a460f","condition":"full-information","relevant_dimensions":["wings","pattern"],"bee_group":{"antennae":"X","wings":"2","pattern":"D","legs":"X"},"action":"harvest","summary":"good-harvest","bonus":1.0200000000000005},{"rt":1899.300000000745,"stimulus":"\n                    <p><b>Action: <em>harvest</em></b></p>\n                    <p>This is the bee that you just saw.</p>\n                    <img src=\"bees-with-color/bee-B1SF.svg\" width=\"200\">\n                    <p><span class=\"greenText\"><b>Successful harvest!</b></span><br>Your pay has increased by $0.02. Your bonus pay is now $0.96.</p>\n            ","response":0,"trial_type":"html-button-response","trial_index":120,"time_elapsed":1279572,"internal_node_id":"0.0-4.0-1.56","subject_id":"6148baf1d5974f3958c332d2","study_id":"6197b3f67c2b5cd3b6d9596a","session_id":"619bfbdd4eeda715101a460f","condition":"full-information","relevant_dimensions":["wings","pattern"],"bee_group":{"antennae":"X","wings":"2","pattern":"D","legs":"X"},"bonus":1.0200000000000005},{"rt":2680.89999999851,"stimulus":"bees-with-color/bee-B2DF.svg","response":1,"trial_type":"image-button-response","trial_index":121,"time_elapsed":1282260,"internal_node_id":"0.0-4.0-0.57","subject_id":"6148baf1d5974f3958c332d2","study_id":"6197b3f67c2b5cd3b6d9596a","session_id":"619bfbdd4eeda715101a460f","condition":"full-information","relevant_dimensions":["wings","pattern"],"bee_group":{"antennae":"X","wings":"2","pattern":"D","legs":"X"},"action":"avoid","summary":"good-avoid","bonus":1.0200000000000005},{"rt":1967.9000000022352,"stimulus":"\n                    <p><b>Action: <em>avoid</em></b></p>\n                    <p>This is the bee that you just saw.</p>\n                    <img src=\"bees-with-color/bee-B2DF.svg\" width=\"200\">\n                    <p><span class=\"greenText\">Good choice!</span>  This bee would have stung you.<br>Your bonus pay is unchanged, and remains at $0.96.</p>\n            ","response":0,"trial_type":"html-button-response","trial_index":122,"time_elapsed":1284234,"internal_node_id":"0.0-4.0-1.57","subject_id":"6148baf1d5974f3958c332d2","study_id":"6197b3f67c2b5cd3b6d9596a","session_id":"619bfbdd4eeda715101a460f","condition":"full-information","relevant_dimensions":["wings","pattern"],"bee_group":{"antennae":"X","wings":"2","pattern":"D","legs":"X"},"bonus":1.0200000000000005},{"rt":2916,"stimulus":"bees-with-color/bee-A2SF.svg","response":1,"trial_type":"image-button-response","trial_index":123,"time_elapsed":1287155,"internal_node_id":"0.0-4.0-0.58","subject_id":"6148baf1d5974f3958c332d2","study_id":"6197b3f67c2b5cd3b6d9596a","session_id":"619bfbdd4eeda715101a460f","condition":"full-information","relevant_dimensions":["wings","pattern"],"bee_group":{"antennae":"X","wings":"2","pattern":"D","legs":"X"},"action":"avoid","summary":"bad-avoid","bonus":1.0200000000000005},{"rt":2038.300000000745,"stimulus":"\n                    <p><b>Action: <em>avoid</em></b></p>\n                    <p>This is the bee that you just saw.</p>\n                    <img src=\"bees-with-color/bee-A2SF.svg\" width=\"200\">\n                    <p><span class=\"redText\">Bad choice,</span> the bee was friendly.<br>Your bonus pay is unchanged, and remains at $0.96.</p>\n            ","response":0,"trial_type":"html-button-response","trial_index":124,"time_elapsed":1289198,"internal_node_id":"0.0-4.0-1.58","subject_id":"6148baf1d5974f3958c332d2","study_id":"6197b3f67c2b5cd3b6d9596a","session_id":"619bfbdd4eeda715101a460f","condition":"full-information","relevant_dimensions":["wings","pattern"],"bee_group":{"antennae":"X","wings":"2","pattern":"D","legs":"X"},"bonus":1.0200000000000005},{"rt":2798.300000000745,"stimulus":"bees-with-color/bee-B1SM.svg","response":0,"trial_type":"image-button-response","trial_index":125,"time_elapsed":1292003,"internal_node_id":"0.0-4.0-0.59","subject_id":"6148baf1d5974f3958c332d2","study_id":"6197b3f67c2b5cd3b6d9596a","session_id":"619bfbdd4eeda715101a460f","condition":"full-information","relevant_dimensions":["wings","pattern"],"bee_group":{"antennae":"X","wings":"2","pattern":"D","legs":"X"},"action":"harvest","summary":"good-harvest","bonus":1.0200000000000005},{"rt":1706.300000000745,"stimulus":"\n                    <p><b>Action: <em>harvest</em></b></p>\n                    <p>This is the bee that you just saw.</p>\n                    <img src=\"bees-with-color/bee-B1SM.svg\" width=\"200\">\n                    <p><span class=\"greenText\"><b>Successful harvest!</b></span><br>Your pay has increased by $0.02. Your bonus pay is now $0.98.</p>\n            ","response":0,"trial_type":"html-button-response","trial_index":126,"time_elapsed":1293714,"internal_node_id":"0.0-4.0-1.59","subject_id":"6148baf1d5974f3958c332d2","study_id":"6197b3f67c2b5cd3b6d9596a","session_id":"619bfbdd4eeda715101a460f","condition":"full-information","relevant_dimensions":["wings","pattern"],"bee_group":{"antennae":"X","wings":"2","pattern":"D","legs":"X"},"bonus":1.0200000000000005},{"rt":2885.199999999255,"stimulus":"bees-with-color/bee-A1DF.svg","response":1,"trial_type":"image-button-response","trial_index":127,"time_elapsed":1296606,"internal_node_id":"0.0-4.0-0.60","subject_id":"6148baf1d5974f3958c332d2","study_id":"6197b3f67c2b5cd3b6d9596a","session_id":"619bfbdd4eeda715101a460f","condition":"full-information","relevant_dimensions":["wings","pattern"],"bee_group":{"antennae":"X","wings":"2","pattern":"D","legs":"X"},"action":"avoid","summary":"bad-avoid","bonus":1.0200000000000005},{"rt":42399.5,"stimulus":"\n                    <p><b>Action: <em>avoid</em></b></p>\n                    <p>This is the bee that you just saw.</p>\n                    <img src=\"bees-with-color/bee-A1DF.svg\" width=\"200\">\n                    <p><span class=\"redText\">Bad choice,</span> the bee was friendly.<br>Your bonus pay is unchanged, and remains at $0.98.</p>\n            ","response":0,"trial_type":"html-button-response","trial_index":128,"time_elapsed":1339011,"internal_node_id":"0.0-4.0-1.60","subject_id":"6148baf1d5974f3958c332d2","study_id":"6197b3f67c2b5cd3b6d9596a","session_id":"619bfbdd4eeda715101a460f","condition":"full-information","relevant_dimensions":["wings","pattern"],"bee_group":{"antennae":"X","wings":"2","pattern":"D","legs":"X"},"bonus":1.0200000000000005},{"rt":14986.60000000149,"stimulus":"bees-with-color/bee-B2DM.svg","response":1,"trial_type":"image-button-response","trial_index":129,"time_elapsed":1354005,"internal_node_id":"0.0-4.0-0.61","subject_id":"6148baf1d5974f3958c332d2","study_id":"6197b3f67c2b5cd3b6d9596a","session_id":"619bfbdd4eeda715101a460f","condition":"full-information","relevant_dimensions":["wings","pattern"],"bee_group":{"antennae":"X","wings":"2","pattern":"D","legs":"X"},"action":"avoid","summary":"good-avoid","bonus":1.0200000000000005},{"rt":2319.699999999255,"stimulus":"\n                    <p><b>Action: <em>avoid</em></b></p>\n                    <p>This is the bee that you just saw.</p>\n                    <img src=\"bees-with-color/bee-B2DM.svg\" width=\"200\">\n                    <p><span class=\"greenText\">Good choice!</span>  This bee would have stung you.<br>Your bonus pay is unchanged, and remains at $0.98.</p>\n            ","response":0,"trial_type":"html-button-response","trial_index":130,"time_elapsed":1356331,"internal_node_id":"0.0-4.0-1.61","subject_id":"6148baf1d5974f3958c332d2","study_id":"6197b3f67c2b5cd3b6d9596a","session_id":"619bfbdd4eeda715101a460f","condition":"full-information","relevant_dimensions":["wings","pattern"],"bee_group":{"antennae":"X","wings":"2","pattern":"D","legs":"X"},"bonus":1.0200000000000005},{"rt":1703.5,"stimulus":"bees-with-color/bee-A1SF.svg","response":0,"trial_type":"image-button-response","trial_index":131,"time_elapsed":1358041,"internal_node_id":"0.0-4.0-0.62","subject_id":"6148baf1d5974f3958c332d2","study_id":"6197b3f67c2b5cd3b6d9596a","session_id":"619bfbdd4eeda715101a460f","condition":"full-information","relevant_dimensions":["wings","pattern"],"bee_group":{"antennae":"X","wings":"2","pattern":"D","legs":"X"},"action":"harvest","summary":"good-harvest","bonus":1.0200000000000005},{"rt":1606.3999999985099,"stimulus":"\n                    <p><b>Action: <em>harvest</em></b></p>\n                    <p>This is the bee that you just saw.</p>\n                    <img src=\"bees-with-color/bee-A1SF.svg\" width=\"200\">\n                    <p><span class=\"greenText\"><b>Successful harvest!</b></span><br>Your pay has increased by $0.02. Your bonus pay is now $1.00.</p>\n            ","response":0,"trial_type":"html-button-response","trial_index":132,"time_elapsed":1359653,"internal_node_id":"0.0-4.0-1.62","subject_id":"6148baf1d5974f3958c332d2","study_id":"6197b3f67c2b5cd3b6d9596a","session_id":"619bfbdd4eeda715101a460f","condition":"full-information","relevant_dimensions":["wings","pattern"],"bee_group":{"antennae":"X","wings":"2","pattern":"D","legs":"X"},"bonus":1.0200000000000005},{"rt":1540.300000000745,"stimulus":"bees-with-color/bee-A1SM.svg","response":0,"trial_type":"image-button-response","trial_index":133,"time_elapsed":1361198,"internal_node_id":"0.0-4.0-0.63","subject_id":"6148baf1d5974f3958c332d2","study_id":"6197b3f67c2b5cd3b6d9596a","session_id":"619bfbdd4eeda715101a460f","condition":"full-information","relevant_dimensions":["wings","pattern"],"bee_group":{"antennae":"X","wings":"2","pattern":"D","legs":"X"},"action":"harvest","summary":"good-harvest","bonus":1.0200000000000005},{"rt":1176,"stimulus":"\n                    <p><b>Action: <em>harvest</em></b></p>\n                    <p>This is the bee that you just saw.</p>\n                    <img src=\"bees-with-color/bee-A1SM.svg\" width=\"200\">\n                    <p><span class=\"greenText\"><b>Successful harvest!</b></span><br>Your pay has increased by $0.02. Your bonus pay is now $1.02.</p>\n            ","response":0,"trial_type":"html-button-response","trial_index":134,"time_elapsed":1362381,"internal_node_id":"0.0-4.0-1.63","subject_id":"6148baf1d5974f3958c332d2","study_id":"6197b3f67c2b5cd3b6d9596a","session_id":"619bfbdd4eeda715101a460f","condition":"full-information","relevant_dimensions":["wings","pattern"],"bee_group":{"antennae":"X","wings":"2","pattern":"D","legs":"X"},"bonus":1.0200000000000005},{"rt":6852.89999999851,"stimulus":"You have completed the first part of this experiment.<br><br>You will now begin a shorter second part, in which you will receive no feedback.<br>The same rules regarding bonus pay apply.<br><br>Press any key to begin.","response":" ","trial_type":"html-keyboard-response","trial_index":135,"time_elapsed":1369240,"internal_node_id":"0.0-5.0","subject_id":"6148baf1d5974f3958c332d2","study_id":"6197b3f67c2b5cd3b6d9596a","session_id":"619bfbdd4eeda715101a460f","condition":"full-information","relevant_dimensions":["wings","pattern"],"bee_group":{"antennae":"X","wings":"2","pattern":"D","legs":"X"},"bonus":1.0200000000000005},{"rt":39281.5,"stimulus":"bees-with-color/bee-A1DM.svg","response":0,"trial_type":"image-button-response","trial_index":136,"time_elapsed":1408567,"internal_node_id":"0.0-6.0-0.0","subject_id":"6148baf1d5974f3958c332d2","study_id":"6197b3f67c2b5cd3b6d9596a","session_id":"619bfbdd4eeda715101a460f","condition":"full-information","relevant_dimensions":["wings","pattern"],"bee_group":{"antennae":"X","wings":"2","pattern":"D","legs":"X"},"bonus":1.0200000000000005},{"rt":3517.099999997765,"stimulus":"bees-with-color/bee-A1DF.svg","response":0,"trial_type":"image-button-response","trial_index":137,"time_elapsed":1412095,"internal_node_id":"0.0-6.0-0.1","subject_id":"6148baf1d5974f3958c332d2","study_id":"6197b3f67c2b5cd3b6d9596a","session_id":"619bfbdd4eeda715101a460f","condition":"full-information","relevant_dimensions":["wings","pattern"],"bee_group":{"antennae":"X","wings":"2","pattern":"D","legs":"X"},"bonus":1.0200000000000005},{"rt":2786.099999997765,"stimulus":"bees-with-color/bee-B2SF.svg","response":1,"trial_type":"image-button-response","trial_index":138,"time_elapsed":1414890,"internal_node_id":"0.0-6.0-0.2","subject_id":"6148baf1d5974f3958c332d2","study_id":"6197b3f67c2b5cd3b6d9596a","session_id":"619bfbdd4eeda715101a460f","condition":"full-information","relevant_dimensions":["wings","pattern"],"bee_group":{"antennae":"X","wings":"2","pattern":"D","legs":"X"},"bonus":1.0200000000000005},{"rt":10647.60000000149,"stimulus":"bees-with-color/bee-A2SM.svg","response":1,"trial_type":"image-button-response","trial_index":139,"time_elapsed":1425547,"internal_node_id":"0.0-6.0-0.3","subject_id":"6148baf1d5974f3958c332d2","study_id":"6197b3f67c2b5cd3b6d9596a","session_id":"619bfbdd4eeda715101a460f","condition":"full-information","relevant_dimensions":["wings","pattern"],"bee_group":{"antennae":"X","wings":"2","pattern":"D","legs":"X"},"bonus":1.0200000000000005},{"rt":2658.60000000149,"stimulus":"bees-with-color/bee-B1DF.svg","response":0,"trial_type":"image-button-response","trial_index":140,"time_elapsed":1428215,"internal_node_id":"0.0-6.0-0.4","subject_id":"6148baf1d5974f3958c332d2","study_id":"6197b3f67c2b5cd3b6d9596a","session_id":"619bfbdd4eeda715101a460f","condition":"full-information","relevant_dimensions":["wings","pattern"],"bee_group":{"antennae":"X","wings":"2","pattern":"D","legs":"X"},"bonus":1.0200000000000005},{"rt":1600,"stimulus":"bees-with-color/bee-B2SM.svg","response":1,"trial_type":"image-button-response","trial_index":141,"time_elapsed":1429826,"internal_node_id":"0.0-6.0-0.5","subject_id":"6148baf1d5974f3958c332d2","study_id":"6197b3f67c2b5cd3b6d9596a","session_id":"619bfbdd4eeda715101a460f","condition":"full-information","relevant_dimensions":["wings","pattern"],"bee_group":{"antennae":"X","wings":"2","pattern":"D","legs":"X"},"bonus":1.0200000000000005},{"rt":2981.400000002235,"stimulus":"bees-with-color/bee-A2DM.svg","response":0,"trial_type":"image-button-response","trial_index":142,"time_elapsed":1432816,"internal_node_id":"0.0-6.0-0.6","subject_id":"6148baf1d5974f3958c332d2","study_id":"6197b3f67c2b5cd3b6d9596a","session_id":"619bfbdd4eeda715101a460f","condition":"full-information","relevant_dimensions":["wings","pattern"],"bee_group":{"antennae":"X","wings":"2","pattern":"D","legs":"X"},"bonus":1.0200000000000005},{"rt":1349.3999999985099,"stimulus":"bees-with-color/bee-A2DF.svg","response":1,"trial_type":"image-button-response","trial_index":143,"time_elapsed":1434174,"internal_node_id":"0.0-6.0-0.7","subject_id":"6148baf1d5974f3958c332d2","study_id":"6197b3f67c2b5cd3b6d9596a","session_id":"619bfbdd4eeda715101a460f","condition":"full-information","relevant_dimensions":["wings","pattern"],"bee_group":{"antennae":"X","wings":"2","pattern":"D","legs":"X"},"bonus":1.0200000000000005},{"rt":1581,"stimulus":"bees-with-color/bee-B1SF.svg","response":1,"trial_type":"image-button-response","trial_index":144,"time_elapsed":1435765,"internal_node_id":"0.0-6.0-0.8","subject_id":"6148baf1d5974f3958c332d2","study_id":"6197b3f67c2b5cd3b6d9596a","session_id":"619bfbdd4eeda715101a460f","condition":"full-information","relevant_dimensions":["wings","pattern"],"bee_group":{"antennae":"X","wings":"2","pattern":"D","legs":"X"},"bonus":1.0200000000000005},{"rt":1682.199999999255,"stimulus":"bees-with-color/bee-A2SF.svg","response":1,"trial_type":"image-button-response","trial_index":145,"time_elapsed":1437455,"internal_node_id":"0.0-6.0-0.9","subject_id":"6148baf1d5974f3958c332d2","study_id":"6197b3f67c2b5cd3b6d9596a","session_id":"619bfbdd4eeda715101a460f","condition":"full-information","relevant_dimensions":["wings","pattern"],"bee_group":{"antennae":"X","wings":"2","pattern":"D","legs":"X"},"bonus":1.0200000000000005},{"rt":2770.5,"stimulus":"bees-with-color/bee-B2DM.svg","response":1,"trial_type":"image-button-response","trial_index":146,"time_elapsed":1440234,"internal_node_id":"0.0-6.0-0.10","subject_id":"6148baf1d5974f3958c332d2","study_id":"6197b3f67c2b5cd3b6d9596a","session_id":"619bfbdd4eeda715101a460f","condition":"full-information","relevant_dimensions":["wings","pattern"],"bee_group":{"antennae":"X","wings":"2","pattern":"D","legs":"X"},"bonus":1.0200000000000005},{"rt":1046.7000000029802,"stimulus":"bees-with-color/bee-B1SM.svg","response":1,"trial_type":"image-button-response","trial_index":147,"time_elapsed":1441299,"internal_node_id":"0.0-6.0-0.11","subject_id":"6148baf1d5974f3958c332d2","study_id":"6197b3f67c2b5cd3b6d9596a","session_id":"619bfbdd4eeda715101a460f","condition":"full-information","relevant_dimensions":["wings","pattern"],"bee_group":{"antennae":"X","wings":"2","pattern":"D","legs":"X"},"bonus":1.0200000000000005},{"rt":1918,"stimulus":"bees-with-color/bee-A1SM.svg","response":1,"trial_type":"image-button-response","trial_index":148,"time_elapsed":1443223,"internal_node_id":"0.0-6.0-0.12","subject_id":"6148baf1d5974f3958c332d2","study_id":"6197b3f67c2b5cd3b6d9596a","session_id":"619bfbdd4eeda715101a460f","condition":"full-information","relevant_dimensions":["wings","pattern"],"bee_group":{"antennae":"X","wings":"2","pattern":"D","legs":"X"},"bonus":1.0200000000000005},{"rt":2000.6000000014901,"stimulus":"bees-with-color/bee-B2DF.svg","response":1,"trial_type":"image-button-response","trial_index":149,"time_elapsed":1445231,"internal_node_id":"0.0-6.0-0.13","subject_id":"6148baf1d5974f3958c332d2","study_id":"6197b3f67c2b5cd3b6d9596a","session_id":"619bfbdd4eeda715101a460f","condition":"full-information","relevant_dimensions":["wings","pattern"],"bee_group":{"antennae":"X","wings":"2","pattern":"D","legs":"X"},"bonus":1.0200000000000005},{"rt":1596.699999999255,"stimulus":"bees-with-color/bee-B1DM.svg","response":0,"trial_type":"image-button-response","trial_index":150,"time_elapsed":1446834,"internal_node_id":"0.0-6.0-0.14","subject_id":"6148baf1d5974f3958c332d2","study_id":"6197b3f67c2b5cd3b6d9596a","session_id":"619bfbdd4eeda715101a460f","condition":"full-information","relevant_dimensions":["wings","pattern"],"bee_group":{"antennae":"X","wings":"2","pattern":"D","legs":"X"},"bonus":1.0200000000000005},{"rt":1937.5,"stimulus":"bees-with-color/bee-A1SF.svg","response":0,"trial_type":"image-button-response","trial_index":151,"time_elapsed":1448778,"internal_node_id":"0.0-6.0-0.15","subject_id":"6148baf1d5974f3958c332d2","study_id":"6197b3f67c2b5cd3b6d9596a","session_id":"619bfbdd4eeda715101a460f","condition":"full-information","relevant_dimensions":["wings","pattern"],"bee_group":{"antennae":"X","wings":"2","pattern":"D","legs":"X"},"bonus":1.0200000000000005},{"rt":1597.7000000029802,"stimulus":"bees-with-color/bee-A1SF.svg","response":1,"trial_type":"image-button-response","trial_index":152,"time_elapsed":1450381,"internal_node_id":"0.0-6.0-0.16","subject_id":"6148baf1d5974f3958c332d2","study_id":"6197b3f67c2b5cd3b6d9596a","session_id":"619bfbdd4eeda715101a460f","condition":"full-information","relevant_dimensions":["wings","pattern"],"bee_group":{"antennae":"X","wings":"2","pattern":"D","legs":"X"},"bonus":1.0200000000000005},{"rt":1351.3999999985099,"stimulus":"bees-with-color/bee-A2SM.svg","response":1,"trial_type":"image-button-response","trial_index":153,"time_elapsed":1451737,"internal_node_id":"0.0-6.0-0.17","subject_id":"6148baf1d5974f3958c332d2","study_id":"6197b3f67c2b5cd3b6d9596a","session_id":"619bfbdd4eeda715101a460f","condition":"full-information","relevant_dimensions":["wings","pattern"],"bee_group":{"antennae":"X","wings":"2","pattern":"D","legs":"X"},"bonus":1.0200000000000005},{"rt":1313.5,"stimulus":"bees-with-color/bee-A1DF.svg","response":1,"trial_type":"image-button-response","trial_index":154,"time_elapsed":1453056,"internal_node_id":"0.0-6.0-0.18","subject_id":"6148baf1d5974f3958c332d2","study_id":"6197b3f67c2b5cd3b6d9596a","session_id":"619bfbdd4eeda715101a460f","condition":"full-information","relevant_dimensions":["wings","pattern"],"bee_group":{"antennae":"X","wings":"2","pattern":"D","legs":"X"},"bonus":1.0200000000000005},{"rt":2962,"stimulus":"bees-with-color/bee-A1DM.svg","response":0,"trial_type":"image-button-response","trial_index":155,"time_elapsed":1456023,"internal_node_id":"0.0-6.0-0.19","subject_id":"6148baf1d5974f3958c332d2","study_id":"6197b3f67c2b5cd3b6d9596a","session_id":"619bfbdd4eeda715101a460f","condition":"full-information","relevant_dimensions":["wings","pattern"],"bee_group":{"antennae":"X","wings":"2","pattern":"D","legs":"X"},"bonus":1.0200000000000005},{"rt":1429.2000000029802,"stimulus":"bees-with-color/bee-B2DF.svg","response":1,"trial_type":"image-button-response","trial_index":156,"time_elapsed":1457459,"internal_node_id":"0.0-6.0-0.20","subject_id":"6148baf1d5974f3958c332d2","study_id":"6197b3f67c2b5cd3b6d9596a","session_id":"619bfbdd4eeda715101a460f","condition":"full-information","relevant_dimensions":["wings","pattern"],"bee_group":{"antennae":"X","wings":"2","pattern":"D","legs":"X"},"bonus":1.0200000000000005},{"rt":1489.8999999985099,"stimulus":"bees-with-color/bee-B1DF.svg","response":0,"trial_type":"image-button-response","trial_index":157,"time_elapsed":1458955,"internal_node_id":"0.0-6.0-0.21","subject_id":"6148baf1d5974f3958c332d2","study_id":"6197b3f67c2b5cd3b6d9596a","session_id":"619bfbdd4eeda715101a460f","condition":"full-information","relevant_dimensions":["wings","pattern"],"bee_group":{"antennae":"X","wings":"2","pattern":"D","legs":"X"},"bonus":1.0200000000000005},{"rt":1929.300000000745,"stimulus":"bees