[{"success":true,"trial_type":"fullscreen","trial_index":0,"time_elapsed":25822,"internal_node_id":"0.0-0.0","subject_id":"5f330016a5e57f0d8ce4e77a","study_id":"60edd13110225f80f9f3709b","session_id":"6196c1f1846ea7c085e146d1","condition":"full-information","relevant_dimensions":["antennae","pattern"],"bee_group":{"antennae":"B","wings":"X","pattern":"D","legs":"X"},"bonus":1.0200000000000005},{"success":true,"timeout":false,"failed_images":[],"failed_audio":[],"failed_video":[],"trial_type":"preload","trial_index":1,"time_elapsed":27403,"internal_node_id":"0.0-1.0","subject_id":"5f330016a5e57f0d8ce4e77a","study_id":"60edd13110225f80f9f3709b","session_id":"6196c1f1846ea7c085e146d1","condition":"full-information","relevant_dimensions":["antennae","pattern"],"bee_group":{"antennae":"B","wings":"X","pattern":"D","legs":"X"},"bonus":1.0200000000000005},{"rt":2944,"stimulus":"Welcome! Press any key to begin.","response":"enter","trial_type":"html-keyboard-response","trial_index":2,"time_elapsed":30348,"internal_node_id":"0.0-2.0","subject_id":"5f330016a5e57f0d8ce4e77a","study_id":"60edd13110225f80f9f3709b","session_id":"6196c1f1846ea7c085e146d1","condition":"full-information","relevant_dimensions":["antennae","pattern"],"bee_group":{"antennae":"B","wings":"X","pattern":"D","legs":"X"},"bonus":1.0200000000000005},{"view_history":[{"page_index":0,"viewing_time":3695},{"page_index":1,"viewing_time":38991},{"page_index":2,"viewing_time":14525},{"page_index":3,"viewing_time":17993},{"page_index":4,"viewing_time":9313},{"page_index":5,"viewing_time":6441},{"page_index":6,"viewing_time":999},{"page_index":5,"viewing_time":5819},{"page_index":6,"viewing_time":15163},{"page_index":7,"viewing_time":5543},{"page_index":8,"viewing_time":2769},{"page_index":9,"viewing_time":2316},{"page_index":10,"viewing_time":2925},{"page_index":11,"viewing_time":13557},{"page_index":12,"viewing_time":12052},{"page_index":13,"viewing_time":1107},{"page_index":14,"viewing_time":1102}],"rt":154310,"trial_type":"instructions","trial_index":3,"time_elapsed":184658,"internal_node_id":"0.0-3.0-0.0","subject_id":"5f330016a5e57f0d8ce4e77a","study_id":"60edd13110225f80f9f3709b","session_id":"6196c1f1846ea7c085e146d1","condition":"full-information","relevant_dimensions":["antennae","pattern"],"bee_group":{"antennae":"B","wings":"X","pattern":"D","legs":"X"},"bonus":1.0200000000000005},{"rt":19060,"response":{"Q0":["Two or six legs","Stripes or spots on body","Single or double wings","Antennae or no antennae"]},"question_order":[0],"trial_type":"survey-multi-select","trial_index":4,"time_elapsed":203722,"internal_node_id":"0.0-3.0-1.0","subject_id":"5f330016a5e57f0d8ce4e77a","study_id":"60edd13110225f80f9f3709b","session_id":"6196c1f1846ea7c085e146d1","condition":"full-information","relevant_dimensions":["antennae","pattern"],"bee_group":{"antennae":"B","wings":"X","pattern":"D","legs":"X"},"correct":true,"bonus":1.0200000000000005},{"rt":26979,"response":{"Q1":"No.","Q2":"Based on the four features of the bee.","Q3":"You learn if it was friendly or dangerous, but do not alter your bonus."},"question_order":[0,1,2],"trial_type":"survey-multi-choice","trial_index":5,"time_elapsed":230702,"internal_node_id":"0.0-3.0-2.0","subject_id":"5f330016a5e57f0d8ce4e77a","study_id":"60edd13110225f80f9f3709b","session_id":"6196c1f1846ea7c085e146d1","condition":"full-information","relevant_dimensions":["antennae","pattern"],"bee_group":{"antennae":"B","wings":"X","pattern":"D","legs":"X"},"correct":true,"bonus":1.0200000000000005},{"rt":1934,"stimulus":"<p>Congrats, you got everything right<br>When you're ready, click the button below to continue to the experiment.</p>","response":0,"trial_type":"html-button-response","trial_index":6,"time_elapsed":232637,"internal_node_id":"0.0-3.0-3.0","subject_id":"5f330016a5e57f0d8ce4e77a","study_id":"60edd13110225f80f9f3709b","session_id":"6196c1f1846ea7c085e146d1","condition":"full-information","relevant_dimensions":["antennae","pattern"],"bee_group":{"antennae":"B","wings":"X","pattern":"D","legs":"X"},"bonus":1.0200000000000005},{"rt":18953,"stimulus":"bees-with-color/bee-B2DM.svg","response":1,"trial_type":"image-button-response","trial_index":7,"time_elapsed":251592,"internal_node_id":"0.0-4.0-0.0","subject_id":"5f330016a5e57f0d8ce4e77a","study_id":"60edd13110225f80f9f3709b","session_id":"6196c1f1846ea7c085e146d1","condition":"full-information","relevant_dimensions":["antennae","pattern"],"bee_group":{"antennae":"B","wings":"X","pattern":"D","legs":"X"},"action":"avoid","summary":"good-avoid","bonus":1.0200000000000005},{"rt":10805,"stimulus":"\n                    <p><b>Action: <em>avoid</em></b></p>\n                    <p>This is the bee that you just saw.</p>\n                    <img src=\"bees-with-color/bee-B2DM.svg\" width=\"200\">\n                    <p><span class=\"greenText\">Good choice!</span>  This bee would have stung you.<br>Your bonus pay is unchanged, and remains at $0.54.</p>\n            ","response":0,"trial_type":"html-button-response","trial_index":8,"time_elapsed":262398,"internal_node_id":"0.0-4.0-1.0","subject_id":"5f330016a5e57f0d8ce4e77a","study_id":"60edd13110225f80f9f3709b","session_id":"6196c1f1846ea7c085e146d1","condition":"full-information","relevant_dimensions":["antennae","pattern"],"bee_group":{"antennae":"B","wings":"X","pattern":"D","legs":"X"},"bonus":1.0200000000000005},{"rt":14792,"stimulus":"bees-with-color/bee-B2SF.svg","response":0,"trial_type":"image-button-response","trial_index":9,"time_elapsed":277192,"internal_node_id":"0.0-4.0-0.1","subject_id":"5f330016a5e57f0d8ce4e77a","study_id":"60edd13110225f80f9f3709b","session_id":"6196c1f1846ea7c085e146d1","condition":"full-information","relevant_dimensions":["antennae","pattern"],"bee_group":{"antennae":"B","wings":"X","pattern":"D","legs":"X"},"action":"harvest","summary":"good-harvest","bonus":1.0200000000000005},{"rt":7906,"stimulus":"\n                    <p><b>Action: <em>harvest</em></b></p>\n                    <p>This is the bee that you just saw.</p>\n                    <img src=\"bees-with-color/bee-B2SF.svg\" width=\"200\">\n                    <p><span class=\"greenText\"><b>Successful harvest!</b></span><br>Your pay has increased by $0.02. Your bonus pay is now $0.56.</p>\n            ","response":0,"trial_type":"html-button-response","trial_index":10,"time_elapsed":285099,"internal_node_id":"0.0-4.0-1.1","subject_id":"5f330016a5e57f0d8ce4e77a","study_id":"60edd13110225f80f9f3709b","session_id":"6196c1f1846ea7c085e146d1","condition":"full-information","relevant_dimensions":["antennae","pattern"],"bee_group":{"antennae":"B","wings":"X","pattern":"D","legs":"X"},"bonus":1.0200000000000005},{"rt":11423,"stimulus":"bees-with-color/bee-A1SM.svg","response":0,"trial_type":"image-button-response","trial_index":11,"time_elapsed":296524,"internal_node_id":"0.0-4.0-0.2","subject_id":"5f330016a5e57f0d8ce4e77a","study_id":"60edd13110225f80f9f3709b","session_id":"6196c1f1846ea7c085e146d1","condition":"full-information","relevant_dimensions":["antennae","pattern"],"bee_group":{"antennae":"B","wings":"X","pattern":"D","legs":"X"},"action":"harvest","summary":"good-harvest","bonus":1.0200000000000005},{"rt":4815,"stimulus":"\n                    <p><b>Action: <em>harvest</em></b></p>\n                    <p>This is the bee that you just saw.</p>\n                    <img src=\"bees-with-color/bee-A1SM.svg\" width=\"200\">\n                    <p><span class=\"greenText\"><b>Successful harvest!</b></span><br>Your pay has increased by $0.02. Your bonus pay is now $0.58.</p>\n            ","response":0,"trial_type":"html-button-response","trial_index":12,"time_elapsed":301340,"internal_node_id":"0.0-4.0-1.2","subject_id":"5f330016a5e57f0d8ce4e77a","study_id":"60edd13110225f80f9f3709b","session_id":"6196c1f1846ea7c085e146d1","condition":"full-information","relevant_dimensions":["antennae","pattern"],"bee_group":{"antennae":"B","wings":"X","pattern":"D","legs":"X"},"bonus":1.0200000000000005},{"rt":18608,"stimulus":"bees-with-color/bee-A1SF.svg","response":1,"trial_type":"image-button-response","trial_index":13,"time_elapsed":319948,"internal_node_id":"0.0-4.0-0.3","subject_id":"5f330016a5e57f0d8ce4e77a","study_id":"60edd13110225f80f9f3709b","session_id":"6196c1f1846ea7c085e146d1","condition":"full-information","relevant_dimensions":["antennae","pattern"],"bee_group":{"antennae":"B","wings":"X","pattern":"D","legs":"X"},"action":"avoid","summary":"bad-avoid","bonus":1.0200000000000005},{"rt":9134,"stimulus":"\n                    <p><b>Action: <em>avoid</em></b></p>\n                    <p>This is the bee that you just saw.</p>\n                    <img src=\"bees-with-color/bee-A1SF.svg\" width=\"200\">\n                    <p><span class=\"redText\">Bad choice,</span> the bee was friendly.<br>Your bonus pay is unchanged, and remains at $0.58.</p>\n            ","response":0,"trial_type":"html-button-response","trial_index":14,"time_elapsed":329082,"internal_node_id":"0.0-4.0-1.3","subject_id":"5f330016a5e57f0d8ce4e77a","study_id":"60edd13110225f80f9f3709b","session_id":"6196c1f1846ea7c085e146d1","condition":"full-information","relevant_dimensions":["antennae","pattern"],"bee_group":{"antennae":"B","wings":"X","pattern":"D","legs":"X"},"bonus":1.0200000000000005},{"rt":2128,"stimulus":"bees-with-color/bee-B1DF.svg","response":1,"trial_type":"image-button-response","trial_index":15,"time_elapsed":331212,"internal_node_id":"0.0-4.0-0.4","subject_id":"5f330016a5e57f0d8ce4e77a","study_id":"60edd13110225f80f9f3709b","session_id":"6196c1f1846ea7c085e146d1","condition":"full-information","relevant_dimensions":["antennae","pattern"],"bee_group":{"antennae":"B","wings":"X","pattern":"D","legs":"X"},"action":"avoid","summary":"good-avoid","bonus":1.0200000000000005},{"rt":13228,"stimulus":"\n                    <p><b>Action: <em>avoid</em></b></p>\n                    <p>This is the bee that you just saw.</p>\n                    <img src=\"bees-with-color/bee-B1DF.svg\" width=\"200\">\n                    <p><span class=\"greenText\">Good choice!</span>  This bee would have stung you.<br>Your bonus pay is unchanged, and remains at $0.58.</p>\n            ","response":0,"trial_type":"html-button-response","trial_index":16,"time_elapsed":344440,"internal_node_id":"0.0-4.0-1.4","subject_id":"5f330016a5e57f0d8ce4e77a","study_id":"60edd13110225f80f9f3709b","session_id":"6196c1f1846ea7c085e146d1","condition":"full-information","relevant_dimensions":["antennae","pattern"],"bee_group":{"antennae":"B","wings":"X","pattern":"D","legs":"X"},"bonus":1.0200000000000005},{"rt":3042,"stimulus":"bees-with-color/bee-A2DM.svg","response":1,"trial_type":"image-button-response","trial_index":17,"time_elapsed":347484,"internal_node_id":"0.0-4.0-0.5","subject_id":"5f330016a5e57f0d8ce4e77a","study_id":"60edd13110225f80f9f3709b","session_id":"6196c1f1846ea7c085e146d1","condition":"full-information","relevant_dimensions":["antennae","pattern"],"bee_group":{"antennae":"B","wings":"X","pattern":"D","legs":"X"},"action":"avoid","summary":"bad-avoid","bonus":1.0200000000000005},{"rt":15836,"stimulus":"\n                    <p><b>Action: <em>avoid</em></b></p>\n                    <p>This is the bee that you just saw.</p>\n                    <img src=\"bees-with-color/bee-A2DM.svg\" width=\"200\">\n                    <p><span class=\"redText\">Bad choice,</span> the bee was friendly.<br>Your bonus pay is unchanged, and remains at $0.58.</p>\n            ","response":0,"trial_type":"html-button-response","trial_index":18,"time_elapsed":363320,"internal_node_id":"0.0-4.0-1.5","subject_id":"5f330016a5e57f0d8ce4e77a","study_id":"60edd13110225f80f9f3709b","session_id":"6196c1f1846ea7c085e146d1","condition":"full-information","relevant_dimensions":["antennae","pattern"],"bee_group":{"antennae":"B","wings":"X","pattern":"D","legs":"X"},"bonus":1.0200000000000005},{"rt":8917,"stimulus":"bees-with-color/bee-B2SM.svg","response":0,"trial_type":"image-button-response","trial_index":19,"time_elapsed":372239,"internal_node_id":"0.0-4.0-0.6","subject_id":"5f330016a5e57f0d8ce4e77a","study_id":"60edd13110225f80f9f3709b","session_id":"6196c1f1846ea7c085e146d1","condition":"full-information","relevant_dimensions":["antennae","pattern"],"bee_group":{"antennae":"B","wings":"X","pattern":"D","legs":"X"},"action":"harvest","summary":"good-harvest","bonus":1.0200000000000005},{"rt":4909,"stimulus":"\n                    <p><b>Action: <em>harvest</em></b></p>\n                    <p>This is the bee that you just saw.</p>\n                    <img src=\"bees-with-color/bee-B2SM.svg\" width=\"200\">\n                    <p><span class=\"greenText\"><b>Successful harvest!</b></span><br>Your pay has increased by $0.02. Your bonus pay is now $0.60.</p>\n            ","response":0,"trial_type":"html-button-response","trial_index":20,"time_elapsed":377148,"internal_node_id":"0.0-4.0-1.6","subject_id":"5f330016a5e57f0d8ce4e77a","study_id":"60edd13110225f80f9f3709b","session_id":"6196c1f1846ea7c085e146d1","condition":"full-information","relevant_dimensions":["antennae","pattern"],"bee_group":{"antennae":"B","wings":"X","pattern":"D","legs":"X"},"bonus":1.0200000000000005},{"rt":7211,"stimulus":"bees-with-color/bee-B1SM.svg","response":1,"trial_type":"image-button-response","trial_index":21,"time_elapsed":384360,"internal_node_id":"0.0-4.0-0.7","subject_id":"5f330016a5e57f0d8ce4e77a","study_id":"60edd13110225f80f9f3709b","session_id":"6196c1f1846ea7c085e146d1","condition":"full-information","relevant_dimensions":["antennae","pattern"],"bee_group":{"antennae":"B","wings":"X","pattern":"D","legs":"X"},"action":"avoid","summary":"bad-avoid","bonus":1.0200000000000005},{"rt":8102,"stimulus":"\n                    <p><b>Action: <em>avoid</em></b></p>\n                    <p>This is the bee that you just saw.</p>\n                    <img src=\"bees-with-color/bee-B1SM.svg\" width=\"200\">\n                    <p><span class=\"redText\">Bad choice,</span> the bee was friendly.<br>Your bonus pay is unchanged, and remains at $0.60.</p>\n            ","response":0,"trial_type":"html-button-response","trial_index":22,"time_elapsed":392462,"internal_node_id":"0.0-4.0-1.7","subject_id":"5f330016a5e57f0d8ce4e77a","study_id":"60edd13110225f80f9f3709b","session_id":"6196c1f1846ea7c085e146d1","condition":"full-information","relevant_dimensions":["antennae","pattern"],"bee_group":{"antennae":"B","wings":"X","pattern":"D","legs":"X"},"bonus":1.0200000000000005},{"rt":16055,"stimulus":"bees-with-color/bee-B2DF.svg","response":1,"trial_type":"image-button-response","trial_index":23,"time_elapsed":408518,"internal_node_id":"0.0-4.0-0.8","subject_id":"5f330016a5e57f0d8ce4e77a","study_id":"60edd13110225f80f9f3709b","session_id":"6196c1f1846ea7c085e146d1","condition":"full-information","relevant_dimensions":["antennae","pattern"],"bee_group":{"antennae":"B","wings":"X","pattern":"D","legs":"X"},"action":"avoid","summary":"good-avoid","bonus":1.0200000000000005},{"rt":4487,"stimulus":"\n                    <p><b>Action: <em>avoid</em></b></p>\n                    <p>This is the bee that you just saw.</p>\n                    <img src=\"bees-with-color/bee-B2DF.svg\" width=\"200\">\n                    <p><span class=\"greenText\">Good choice!</span>  This bee would have stung you.<br>Your bonus pay is unchanged, and remains at $0.60.</p>\n            ","response":0,"trial_type":"html-button-response","trial_index":24,"time_elapsed":413007,"internal_node_id":"0.0-4.0-1.8","subject_id":"5f330016a5e57f0d8ce4e77a","study_id":"60edd13110225f80f9f3709b","session_id":"6196c1f1846ea7c085e146d1","condition":"full-information","relevant_dimensions":["antennae","pattern"],"bee_group":{"antennae":"B","wings":"X","pattern":"D","legs":"X"},"bonus":1.0200000000000005},{"rt":7197,"stimulus":"bees-with-color/bee-A2SM.svg","response":0,"trial_type":"image-button-response","trial_index":25,"time_elapsed":420204,"internal_node_id":"0.0-4.0-0.9","subject_id":"5f330016a5e57f0d8ce4e77a","study_id":"60edd13110225f80f9f3709b","session_id":"6196c1f1846ea7c085e146d1","condition":"full-information","relevant_dimensions":["antennae","pattern"],"bee_group":{"antennae":"B","wings":"X","pattern":"D","legs":"X"},"action":"harvest","summary":"good-harvest","bonus":1.0200000000000005},{"rt":1020,"stimulus":"\n                    <p><b>Action: <em>harvest</em></b></p>\n                    <p>This is the bee that you just saw.</p>\n                    <img src=\"bees-with-color/bee-A2SM.svg\" width=\"200\">\n                    <p><span class=\"greenText\"><b>Successful harvest!</b></span><br>Your pay has increased by $0.02. Your bonus pay is now $0.62.</p>\n            ","response":0,"trial_type":"html-button-response","trial_index":26,"time_elapsed":421226,"internal_node_id":"0.0-4.0-1.9","subject_id":"5f330016a5e57f0d8ce4e77a","study_id":"60edd13110225f80f9f3709b","session_id":"6196c1f1846ea7c085e146d1","condition":"full-information","relevant_dimensions":["antennae","pattern"],"bee_group":{"antennae":"B","wings":"X","pattern":"D","legs":"X"},"bonus":1.0200000000000005},{"rt":8405,"stimulus":"bees-with-color/bee-B1SF.svg","response":0,"trial_type":"image-button-response","trial_index":27,"time_elapsed":429633,"internal_node_id":"0.0-4.0-0.10","subject_id":"5f330016a5e57f0d8ce4e77a","study_id":"60edd13110225f80f9f3709b","session_id":"6196c1f1846ea7c085e146d1","condition":"full-information","relevant_dimensions":["antennae","pattern"],"bee_group":{"antennae":"B","wings":"X","pattern":"D","legs":"X"},"action":"harvest","summary":"good-harvest","bonus":1.0200000000000005},{"rt":7795,"stimulus":"\n                    <p><b>Action: <em>harvest</em></b></p>\n                    <p>This is the bee that you just saw.</p>\n                    <img src=\"bees-with-color/bee-B1SF.svg\" width=\"200\">\n                    <p><span class=\"greenText\"><b>Successful harvest!</b></span><br>Your pay has increased by $0.02. Your bonus pay is now $0.64.</p>\n            ","response":0,"trial_type":"html-button-response","trial_index":28,"time_elapsed":437429,"internal_node_id":"0.0-4.0-1.10","subject_id":"5f330016a5e57f0d8ce4e77a","study_id":"60edd13110225f80f9f3709b","session_id":"6196c1f1846ea7c085e146d1","condition":"full-information","relevant_dimensions":["antennae","pattern"],"bee_group":{"antennae":"B","wings":"X","pattern":"D","legs":"X"},"bonus":1.0200000000000005},{"rt":17991,"stimulus":"bees-with-color/bee-B1DM.svg","response":1,"trial_type":"image-button-response","trial_index":29,"time_elapsed":455422,"internal_node_id":"0.0-4.0-0.11","subject_id":"5f330016a5e57f0d8ce4e77a","study_id":"60edd13110225f80f9f3709b","session_id":"6196c1f1846ea7c085e146d1","condition":"full-information","relevant_dimensions":["antennae","pattern"],"bee_group":{"antennae":"B","wings":"X","pattern":"D","legs":"X"},"action":"avoid","summary":"good-avoid","bonus":1.0200000000000005},{"rt":4399,"stimulus":"\n                    <p><b>Action: <em>avoid</em></b></p>\n                    <p>This is the bee that you just saw.</p>\n                    <img src=\"bees-with-color/bee-B1DM.svg\" width=\"200\">\n                    <p><span class=\"greenText\">Good choice!</span>  This bee would have stung you.<br>Your bonus pay is unchanged, and remains at $0.64.</p>\n            ","response":0,"trial_type":"html-button-response","trial_index":30,"time_elapsed":459822,"internal_node_id":"0.0-4.0-1.11","subject_id":"5f330016a5e57f0d8ce4e77a","study_id":"60edd13110225f80f9f3709b","session_id":"6196c1f1846ea7c085e146d1","condition":"full-information","relevant_dimensions":["antennae","pattern"],"bee_group":{"antennae":"B","wings":"X","pattern":"D","legs":"X"},"bonus":1.0200000000000005},{"rt":26052,"stimulus":"bees-with-color/bee-A2SF.svg","response":0,"trial_type":"image-button-response","trial_index":31,"time_elapsed":485875,"internal_node_id":"0.0-4.0-0.12","subject_id":"5f330016a5e57f0d8ce4e77a","study_id":"60edd13110225f80f9f3709b","session_id":"6196c1f1846ea7c085e146d1","condition":"full-information","relevant_dimensions":["antennae","pattern"],"bee_group":{"antennae":"B","wings":"X","pattern":"D","legs":"X"},"action":"harvest","summary":"good-harvest","bonus":1.0200000000000005},{"rt":6512,"stimulus":"\n                    <p><b>Action: <em>harvest</em></b></p>\n                    <p>This is the bee that you just saw.</p>\n                    <img src=\"bees-with-color/bee-A2SF.svg\" width=\"200\">\n                    <p><span class=\"greenText\"><b>Successful harvest!</b></span><br>Your pay has increased by $0.02. Your bonus pay is now $0.66.</p>\n            ","response":0,"trial_type":"html-button-response","trial_index":32,"time_elapsed":492389,"internal_node_id":"0.0-4.0-1.12","subject_id":"5f330016a5e57f0d8ce4e77a","study_id":"60edd13110225f80f9f3709b","session_id":"6196c1f1846ea7c085e146d1","condition":"full-information","relevant_dimensions":["antennae","pattern"],"bee_group":{"antennae":"B","wings":"X","pattern":"D","legs":"X"},"bonus":1.0200000000000005},{"rt":23628,"stimulus":"bees-with-color/bee-A2DF.svg","response":1,"trial_type":"image-button-response","trial_index":33,"time_elapsed":516018,"internal_node_id":"0.0-4.0-0.13","subject_id":"5f330016a5e57f0d8ce4e77a","study_id":"60edd13110225f80f9f3709b","session_id":"6196c1f1846ea7c085e146d1","condition":"full-information","relevant_dimensions":["antennae","pattern"],"bee_group":{"antennae":"B","wings":"X","pattern":"D","legs":"X"},"action":"avoid","summary":"bad-avoid","bonus":1.0200000000000005},{"rt":15991,"stimulus":"\n                    <p><b>Action: <em>avoid</em></b></p>\n                    <p>This is the bee that you just saw.</p>\n                    <img src=\"bees-with-color/bee-A2DF.svg\" width=\"200\">\n                    <p><span class=\"redText\">Bad choice,</span> the bee was friendly.<br>Your bonus pay is unchanged, and remains at $0.66.</p>\n            ","response":0,"trial_type":"html-button-response","trial_index":34,"time_elapsed":532009,"internal_node_id":"0.0-4.0-1.13","subject_id":"5f330016a5e57f0d8ce4e77a","study_id":"60edd13110225f80f9f3709b","session_id":"6196c1f1846ea7c085e146d1","condition":"full-information","relevant_dimensions":["antennae","pattern"],"bee_group":{"antennae":"B","wings":"X","pattern":"D","legs":"X"},"bonus":1.0200000000000005},{"rt":17897,"stimulus":"bees-with-color/bee-A1DF.svg","response":1,"trial_type":"image-button-response","trial_index":35,"time_elapsed":549907,"internal_node_id":"0.0-4.0-0.14","subject_id":"5f330016a5e57f0d8ce4e77a","study_id":"60edd13110225f80f9f3709b","session_id":"6196c1f1846ea7c085e146d1","condition":"full-information","relevant_dimensions":["antennae","pattern"],"bee_group":{"antennae":"B","wings":"X","pattern":"D","legs":"X"},"action":"avoid","summary":"bad-avoid","bonus":1.0200000000000005},{"rt":10056,"stimulus":"\n                    <p><b>Action: <em>avoid</em></b></p>\n                    <p>This is the bee that you just saw.</p>\n                    <img src=\"bees-with-color/bee-A1DF.svg\" width=\"200\">\n                    <p><span class=\"redText\">Bad choice,</span> the bee was friendly.<br>Your bonus pay is unchanged, and remains at $0.66.</p>\n            ","response":0,"trial_type":"html-button-response","trial_index":36,"time_elapsed":559964,"internal_node_id":"0.0-4.0-1.14","subject_id":"5f330016a5e57f0d8ce4e77a","study_id":"60edd13110225f80f9f3709b","session_id":"6196c1f1846ea7c085e146d1","condition":"full-information","relevant_dimensions":["antennae","pattern"],"bee_group":{"antennae":"B","wings":"X","pattern":"D","legs":"X"},"bonus":1.0200000000000005},{"rt":13681,"stimulus":"bees-with-color/bee-A1DM.svg","response":0,"trial_type":"image-button-response","trial_index":37,"time_elapsed":573646,"internal_node_id":"0.0-4.0-0.15","subject_id":"5f330016a5e57f0d8ce4e77a","study_id":"60edd13110225f80f9f3709b","session_id":"6196c1f1846ea7c085e146d1","condition":"full-information","relevant_dimensions":["antennae","pattern"],"bee_group":{"antennae":"B","wings":"X","pattern":"D","legs":"X"},"action":"harvest","summary":"good-harvest","bonus":1.0200000000000005},{"rt":5365,"stimulus":"\n                    <p><b>Action: <em>harvest</em></b></p>\n                    <p>This is the bee that you just saw.</p>\n                    <img src=\"bees-with-color/bee-A1DM.svg\" width=\"200\">\n                    <p><span class=\"greenText\"><b>Successful harvest!</b></span><br>Your pay has increased by $0.02. Your bonus pay is now $0.68.</p>\n            ","response":0,"trial_type":"html-button-response","trial_index":38,"time_elapsed":579013,"internal_node_id":"0.0-4.0-1.15","subject_id":"5f330016a5e57f0d8ce4e77a","study_id":"60edd13110225f80f9f3709b","session_id":"6196c1f1846ea7c085e146d1","condition":"full-information","relevant_dimensions":["antennae","pattern"],"bee_group":{"antennae":"B","wings":"X","pattern":"D","legs":"X"},"bonus":1.0200000000000005},{"rt":28541,"stimulus":"bees-with-color/bee-B2SF.svg","response":0,"trial_type":"image-button-response","trial_index":39,"time_elapsed":607554,"internal_node_id":"0.0-4.0-0.16","subject_id":"5f330016a5e57f0d8ce4e77a","study_id":"60edd13110225f80f9f3709b","session_id":"6196c1f1846ea7c085e146d1","condition":"full-information","relevant_dimensions":["antennae","pattern"],"bee_group":{"antennae":"B","wings":"X","pattern":"D","legs":"X"},"action":"harvest","summary":"good-harvest","bonus":1.0200000000000005},{"rt":1016,"stimulus":"\n                    <p><b>Action: <em>harvest</em></b></p>\n                    <p>This is the bee that you just saw.</p>\n                    <img src=\"bees-with-color/bee-B2SF.svg\" width=\"200\">\n                    <p><span class=\"greenText\"><b>Successful harvest!</b></span><br>Your pay has increased by $0.02. Your bonus pay is now $0.70.</p>\n            ","response":0,"trial_type":"html-button-response","trial_index":40,"time_elapsed":608572,"internal_node_id":"0.0-4.0-1.16","subject_id":"5f330016a5e57f0d8ce4e77a","study_id":"60edd13110225f80f9f3709b","session_id":"6196c1f1846ea7c085e146d1","condition":"full-information","relevant_dimensions":["antennae","pattern"],"bee_group":{"antennae":"B","wings":"X","pattern":"D","legs":"X"},"bonus":1.0200000000000005},{"rt":12883,"stimulus":"bees-with-color/bee-A2DF.svg","response":1,"trial_type":"image-button-response","trial_index":41,"time_elapsed":621455,"internal_node_id":"0.0-4.0-0.17","subject_id":"5f330016a5e57f0d8ce4e77a","study_id":"60edd13110225f80f9f3709b","session_id":"6196c1f1846ea7c085e146d1","condition":"full-information","relevant_dimensions":["antennae","pattern"],"bee_group":{"antennae":"B","wings":"X","pattern":"D","legs":"X"},"action":"avoid","summary":"bad-avoid","bonus":1.0200000000000005},{"rt":13994,"stimulus":"\n                    <p><b>Action: <em>avoid</em></b></p>\n                    <p>This is the bee that you just saw.</p>\n                    <img src=\"bees-with-color/bee-A2DF.svg\" width=\"200\">\n                    <p><span class=\"redText\">Bad choice,</span> the bee was friendly.<br>Your bonus pay is unchanged, and remains at $0.70.</p>\n            ","response":0,"trial_type":"html-button-response","trial_index":42,"time_elapsed":635450,"internal_node_id":"0.0-4.0-1.17","subject_id":"5f330016a5e57f0d8ce4e77a","study_id":"60edd13110225f80f9f3709b","session_id":"6196c1f1846ea7c085e146d1","condition":"full-information","relevant_dimensions":["antennae","pattern"],"bee_group":{"antennae":"B","wings":"X","pattern":"D","legs":"X"},"bonus":1.0200000000000005},{"rt":10661,"stimulus":"bees-with-color/bee-B1DM.svg","response":1,"trial_type":"image-button-response","trial_index":43,"time_elapsed":646111,"internal_node_id":"0.0-4.0-0.18","subject_id":"5f330016a5e57f0d8ce4e77a","study_id":"60edd13110225f80f9f3709b","session_id":"6196c1f1846ea7c085e146d1","condition":"full-information","relevant_dimensions":["antennae","pattern"],"bee_group":{"antennae":"B","wings":"X","pattern":"D","legs":"X"},"action":"avoid","summary":"good-avoid","bonus":1.0200000000000005},{"rt":1277,"stimulus":"\n                    <p><b>Action: <em>avoid</em></b></p>\n                    <p>This is the bee that you just saw.</p>\n                    <img src=\"bees-with-color/bee-B1DM.svg\" width=\"200\">\n                    <p><span class=\"greenText\">Good choice!</span>  This bee would have stung you.<br>Your bonus pay is unchanged, and remains at $0.70.</p>\n            ","response":0,"trial_type":"html-button-response","trial_index":44,"time_elapsed":647389,"internal_node_id":"0.0-4.0-1.18","subject_id":"5f330016a5e57f0d8ce4e77a","study_id":"60edd13110225f80f9f3709b","session_id":"6196c1f1846ea7c085e146d1","condition":"full-information","relevant_dimensions":["antennae","pattern"],"bee_group":{"antennae":"B","wings":"X","pattern":"D","legs":"X"},"bonus":1.0200000000000005},{"rt":6828,"stimulus":"bees-with-color/bee-A2SF.svg","response":0,"trial_type":"image-button-response","trial_index":45,"time_elapsed":654217,"internal_node_id":"0.0-4.0-0.19","subject_id":"5f330016a5e57f0d8ce4e77a","study_id":"60edd13110225f80f9f3709b","session_id":"6196c1f1846ea7c085e146d1","condition":"full-information","relevant_dimensions":["antennae","pattern"],"bee_group":{"antennae":"B","wings":"X","pattern":"D","legs":"X"},"action":"harvest","summary":"good-harvest","bonus":1.0200000000000005},{"rt":944,"stimulus":"\n                    <p><b>Action: <em>harvest</em></b></p>\n                    <p>This is the bee that you just saw.</p>\n                    <img src=\"bees-with-color/bee-A2SF.svg\" width=\"200\">\n                    <p><span class=\"greenText\"><b>Successful harvest!</b></span><br>Your pay has increased by $0.02. Your bonus pay is now $0.72.</p>\n            ","response":0,"trial_type":"html-button-response","trial_index":46,"time_elapsed":655162,"internal_node_id":"0.0-4.0-1.19","subject_id":"5f330016a5e57f0d8ce4e77a","study_id":"60edd13110225f80f9f3709b","session_id":"6196c1f1846ea7c085e146d1","condition":"full-information","relevant_dimensions":["antennae","pattern"],"bee_group":{"antennae":"B","wings":"X","pattern":"D","legs":"X"},"bonus":1.0200000000000005},{"rt":17361,"stimulus":"bees-with-color/bee-A1SM.svg","response":0,"trial_type":"image-button-response","trial_index":47,"time_elapsed":672523,"internal_node_id":"0.0-4.0-0.20","subject_id":"5f330016a5e57f0d8ce4e77a","study_id":"60edd13110225f80f9f3709b","session_id":"6196c1f1846ea7c085e146d1","condition":"full-information","relevant_dimensions":["antennae","pattern"],"bee_group":{"antennae":"B","wings":"X","pattern":"D","legs":"X"},"action":"harvest","summary":"good-harvest","bonus":1.0200000000000005},{"rt":11887,"stimulus":"\n                    <p><b>Action: <em>harvest</em></b></p>\n                    <p>This is the bee that you just saw.</p>\n                    <img src=\"bees-with-color/bee-A1SM.svg\" width=\"200\">\n                    <p><span class=\"greenText\"><b>Successful harvest!</b></span><br>Your pay has increased by $0.02. Your bonus pay is now $0.74.</p>\n            ","response":0,"trial_type":"html-button-response","trial_index":48,"time_elapsed":684411,"internal_node_id":"0.0-4.0-1.20","subject_id":"5f330016a5e57f0d8ce4e77a","study_id":"60edd13110225f80f9f3709b","session_id":"6196c1f1846ea7c085e146d1","condition":"full-information","relevant_dimensions":["antennae","pattern"],"bee_group":{"antennae":"B","wings":"X","pattern":"D","legs":"X"},"bonus":1.0200000000000005},{"rt":18856,"stimulus":"bees-with-color/bee-B1SM.svg","response":0,"trial_type":"image-button-response","trial_index":49,"time_elapsed":703269,"internal_node_id":"0.0-4.0-0.21","subject_id":"5f330016a5e57f0d8ce4e77a","study_id":"60edd13110225f80f9f3709b","session_id":"6196c1f1846ea7c085e146d1","condition":"full-information","relevant_dimensions":["antennae","pattern"],"bee_group":{"antennae":"B","wings":"X","pattern":"D","legs":"X"},"action":"harvest","summary":"good-harvest","bonus":1.0200000000000005},{"rt":1146,"stimulus":"\n                    <p><b>Action: <em>harvest</em></b></p>\n                    <p>This is the bee that you just saw.</p>\n                    <img src=\"bees-with-color/bee-B1SM.svg\" width=\"200\">\n                    <p><span class=\"greenText\"><b>Successful harvest!</b></span><br>Your pay has increased by $0.02. Your bonus pay is now $0.76.</p>\n            ","response":0,"trial_type":"html-button-response","trial_index":50,"time_elapsed":704415,"internal_node_id":"0.0-4.0-1.21","subject_id":"5f330016a5e57f0d8ce4e77a","study_id":"60edd13110225f80f9f3709b","session_id":"6196c1f1846ea7c085e146d1","condition":"full-information","relevant_dimensions":["antennae","pattern"],"bee_group":{"antennae":"B","wings":"X","pattern":"D","legs":"X"},"bonus":1.0200000000000005},{"rt":9355,"stimulus":"bees-with-color/bee-A2SM.svg","response":0,"trial_type":"image-button-response","trial_index":51,"time_elapsed":713772,"internal_node_id":"0.0-4.0-0.22","subject_id":"5f330016a5e57f0d8ce4e77a","study_id":"60edd13110225f80f9f3709b","session_id":"6196c1f1846ea7c085e146d1","condition":"full-information","relevant_dimensions":["antennae","pattern"],"bee_group":{"antennae":"B","wings":"X","pattern":"D","legs":"X"},"action":"harvest","summary":"good-harvest","bonus":1.0200000000000005},{"rt":907,"stimulus":"\n                    <p><b>Action: <em>harvest</em></b></p>\n                    <p>This is the bee that you just saw.</p>\n                    <img src=\"bees-with-color/bee-A2SM.svg\" width=\"200\">\n                    <p><span class=\"greenText\"><b>Successful harvest!</b></span><br>Your pay has increased by $0.02. Your bonus pay is now $0.78.</p>\n            ","response":0,"trial_type":"html-button-response","trial_index":52,"time_elapsed":714679,"internal_node_id":"0.0-4.0-1.22","subject_id":"5f330016a5e57f0d8ce4e77a","study_id":"60edd13110225f80f9f3709b","session_id":"6196c1f1846ea7c085e146d1","condition":"full-information","relevant_dimensions":["antennae","pattern"],"bee_group":{"antennae":"B","wings":"X","pattern":"D","legs":"X"},"bonus":1.0200000000000005},{"rt":9171,"stimulus":"bees-with-color/bee-B2DM.svg","response":1,"trial_type":"image-button-response","trial_index":53,"time_elapsed":723852,"internal_node_id":"0.0-4.0-0.23","subject_id":"5f330016a5e57f0d8ce4e77a","study_id":"60edd13110225f80f9f3709b","session_id":"6196c1f1846ea7c085e146d1","condition":"full-information","relevant_dimensions":["antennae","pattern"],"bee_group":{"antennae":"B","wings":"X","pattern":"D","legs":"X"},"action":"avoid","summary":"good-avoid","bonus":1.0200000000000005},{"rt":941,"stimulus":"\n                    <p><b>Action: <em>avoid</em></b></p>\n                    <p>This is the bee that you just saw.</p>\n                    <img src=\"bees-with-color/bee-B2DM.svg\" width=\"200\">\n                    <p><span class=\"greenText\">Good choice!</span>  This bee would have stung you.<br>Your bonus pay is unchanged, and remains at $0.78.</p>\n            ","response":0,"trial_type":"html-button-response","trial_index":54,"time_elapsed":724794,"internal_node_id":"0.0-4.0-1.23","subject_id":"5f330016a5e57f0d8ce4e77a","study_id":"60edd13110225f80f9f3709b","session_id":"6196c1f1846ea7c085e146d1","condition":"full-information","relevant_dimensions":["antennae","pattern"],"bee_group":{"antennae":"B","wings":"X","pattern":"D","legs":"X"},"bonus":1.0200000000000005},{"rt":13094,"stimulus":"bees-with-color/bee-B2SM.svg","response":0,"trial_type":"image-button-response","trial_index":55,"time_elapsed":737889,"internal_node_id":"0.0-4.0-0.24","subject_id":"5f330016a5e57f0d8ce4e77a","study_id":"60edd13110225f80f9f3709b","session_id":"6196c1f1846ea7c085e146d1","condition":"full-information","relevant_dimensions":["antennae","pattern"],"bee_group":{"antennae":"B","wings":"X","pattern":"D","legs":"X"},"action":"harvest","summary":"good-harvest","bonus":1.0200000000000005},{"rt":897,"stimulus":"\n                    <p><b>Action: <em>harvest</em></b></p>\n                    <p>This is the bee that you just saw.</p>\n                    <img src=\"bees-with-color/bee-B2SM.svg\" width=\"200\">\n                    <p><span class=\"greenText\"><b>Successful harvest!</b></span><br>Your pay has increased by $0.02. Your bonus pay is now $0.80.</p>\n            ","response":0,"trial_type":"html-button-response","trial_index":56,"time_elapsed":738787,"internal_node_id":"0.0-4.0-1.24","subject_id":"5f330016a5e57f0d8ce4e77a","study_id":"60edd13110225f80f9f3709b","session_id":"6196c1f1846ea7c085e146d1","condition":"full-information","relevant_dimensions":["antennae","pattern"],"bee_group":{"antennae":"B","wings":"X","pattern":"D","legs":"X"},"bonus":1.0200000000000005},{"rt":4025,"stimulus":"bees-with-color/bee-B1DF.svg","response":1,"trial_type":"image-button-response","trial_index":57,"time_elapsed":742812,"internal_node_id":"0.0-4.0-0.25","subject_id":"5f330016a5e57f0d8ce4e77a","study_id":"60edd13110225f80f9f3709b","session_id":"6196c1f1846ea7c085e146d1","condition":"full-information","relevant_dimensions":["antennae","pattern"],"bee_group":{"antennae":"B","wings":"X","pattern":"D","legs":"X"},"action":"avoid","summary":"good-avoid","bonus":1.0200000000000005},{"rt":764,"stimulus":"\n                    <p><b>Action: <em>avoid</em></b></p>\n                    <p>This is the bee that you just saw.</p>\n                    <img src=\"bees-with-color/bee-B1DF.svg\" width=\"200\">\n                    <p><span class=\"greenText\">Good choice!</span>  This bee would have stung you.<br>Your bonus pay is unchanged, and remains at $0.80.</p>\n            ","response":0,"trial_type":"html-button-response","trial_index":58,"time_elapsed":743577,"internal_node_id":"0.0-4.0-1.25","subject_id":"5f330016a5e57f0d8ce4e77a","study_id":"60edd13110225f80f9f3709b","session_id":"6196c1f1846ea7c085e146d1","condition":"full-information","relevant_dimensions":["antennae","pattern"],"bee_group":{"antennae":"B","wings":"X","pattern":"D","legs":"X"},"bonus":1.0200000000000005},{"rt":17003,"stimulus":"bees-with-color/bee-A1DF.svg","response":1,"trial_type":"image-button-response","trial_index":59,"time_elapsed":760580,"internal_node_id":"0.0-4.0-0.26","subject_id":"5f330016a5e57f0d8ce4e77a","study_id":"60edd13110225f80f9f3709b","session_id":"6196c1f1846ea7c085e146d1","condition":"full-information","relevant_dimensions":["antennae","pattern"],"bee_group":{"antennae":"B","wings":"X","pattern":"D","legs":"X"},"action":"avoid","summary":"bad-avoid","bonus":1.0200000000000005},{"rt":10765,"stimulus":"\n                    <p><b>Action: <em>avoid</em></b></p>\n                    <p>This is the bee that you just saw.</p>\n                    <img src=\"bees-with-color/bee-A1DF.svg\" width=\"200\">\n                    <p><span class=\"redText\">Bad choice,</span> the bee was friendly.<br>Your bonus pay is unchanged, and remains at $0.80.</p>\n            ","response":0,"trial_type":"html-button-response","trial_index":60,"time_elapsed":771345,"internal_node_id":"0.0-4.0-1.26","subject_id":"5f330016a5e57f0d8ce4e77a","study_id":"60edd13110225f80f9f3709b","session_id":"6196c1f1846ea7c085e146d1","condition":"full-information","relevant_dimensions":["antennae","pattern"],"bee_group":{"antennae":"B","wings":"X","pattern":"D","legs":"X"},"bonus":1.0200000000000005},{"rt":12003,"stimulus":"bees-with-color/bee-A1DM.svg","response":0,"trial_type":"image-button-response","trial_index":61,"time_elapsed":783350,"internal_node_id":"0.0-4.0-0.27","subject_id":"5f330016a5e57f0d8ce4e77a","study_id":"60edd13110225f80f9f3709b","session_id":"6196c1f1846ea7c085e146d1","condition":"full-information","relevant_dimensions":["antennae","pattern"],"bee_group":{"antennae":"B","wings":"X","pattern":"D","legs":"X"},"action":"harvest","summary":"good-harvest","bonus":1.0200000000000005},{"rt":793,"stimulus":"\n                    <p><b>Action: <em>harvest</em></b></p>\n                    <p>This is the bee that you just saw.</p>\n                    <img src=\"bees-with-color/bee-A1DM.svg\" width=\"200\">\n                    <p><span class=\"greenText\"><b>Successful harvest!</b></span><br>Your pay has increased by $0.02. Your bonus pay is now $0.82.</p>\n            ","response":0,"trial_type":"html-button-response","trial_index":62,"time_elapsed":784143,"internal_node_id":"0.0-4.0-1.27","subject_id":"5f330016a5e57f0d8ce4e77a","study_id":"60edd13110225f80f9f3709b","session_id":"6196c1f1846ea7c085e146d1","condition":"full-information","relevant_dimensions":["antennae","pattern"],"bee_group":{"antennae":"B","wings":"X","pattern":"D","legs":"X"},"bonus":1.0200000000000005},{"rt":13905,"stimulus":"bees-with-color/bee-B2DF.svg","response":1,"trial_type":"image-button-response","trial_index":63,"time_elapsed":798049,"internal_node_id":"0.0-4.0-0.28","subject_id":"5f330016a5e57f0d8ce4e77a","study_id":"60edd13110225f80f9f3709b","session_id":"6196c1f1846ea7c085e146d1","condition":"full-information","relevant_dimensions":["antennae","pattern"],"bee_group":{"antennae":"B","wings":"X","pattern":"D","legs":"X"},"action":"avoid","summary":"good-avoid","bonus":1.0200000000000005},{"rt":988,"stimulus":"\n                    <p><b>Action: <em>avoid</em></b></p>\n                    <p>This is the bee that you just saw.</p>\n                    <img src=\"bees-with-color/bee-B2DF.svg\" width=\"200\">\n                    <p><span class=\"greenText\">Good choice!</span>  This bee would have stung you.<br>Your bonus pay is unchanged, and remains at $0.82.</p>\n            ","response":0,"trial_type":"html-button-response","trial_index":64,"time_elapsed":799039,"internal_node_id":"0.0-4.0-1.28","subject_id":"5f330016a5e57f0d8ce4e77a","study_id":"60edd13110225f80f9f3709b","session_id":"6196c1f1846ea7c085e146d1","condition":"full-information","relevant_dimensions":["antennae","pattern"],"bee_group":{"antennae":"B","wings":"X","pattern":"D","legs":"X"},"bonus":1.0200000000000005},{"rt":7119,"stimulus":"bees-with-color/bee-A2DM.svg","response":0,"trial_type":"image-button-response","trial_index":65,"time_elapsed":806158,"internal_node_id":"0.0-4.0-0.29","subject_id":"5f330016a5e57f0d8ce4e77a","study_id":"60edd13110225f80f9f3709b","session_id":"6196c1f1846ea7c085e146d1","condition":"full-information","relevant_dimensions":["antennae","pattern"],"bee_group":{"antennae":"B","wings":"X","pattern":"D","legs":"X"},"action":"harvest","summary":"good-harvest","bonus":1.0200000000000005},{"rt":715,"stimulus":"\n                    <p><b>Action: <em>harvest</em></b></p>\n                    <p>This is the bee that you just saw.</p>\n                    <img src=\"bees-with-color/bee-A2DM.svg\" width=\"200\">\n                    <p><span class=\"greenText\"><b>Successful harvest!</b></span><br>Your pay has increased by $0.02. Your bonus pay is now $0.84.</p>\n            ","response":0,"trial_type":"html-button-response","trial_index":66,"time_elapsed":806874,"internal_node_id":"0.0-4.0-1.29","subject_id":"5f330016a5e57f0d8ce4e77a","study_id":"60edd13110225f80f9f3709b","session_id":"6196c1f1846ea7c085e146d1","condition":"full-information","relevant_dimensions":["antennae","pattern"],"bee_group":{"antennae":"B","wings":"X","pattern":"D","legs":"X"},"bonus":1.0200000000000005},{"rt":12547,"stimulus":"bees-with-color/bee-B1SF.svg","response":0,"trial_type":"image-button-response","trial_index":67,"time_elapsed":819421,"internal_node_id":"0.0-4.0-0.30","subject_id":"5f330016a5e57f0d8ce4e77a","study_id":"60edd13110225f80f9f3709b","session_id":"6196c1f1846ea7c085e146d1","condition":"full-information","relevant_dimensions":["antennae","pattern"],"bee_group":{"antennae":"B","wings":"X","pattern":"D","legs":"X"},"action":"harvest","summary":"good-harvest","bonus":1.0200000000000005},{"rt":858,"stimulus":"\n                    <p><b>Action: <em>harvest</em></b></p>\n                    <p>This is the bee that you just saw.</p>\n                    <img src=\"bees-with-color/bee-B1SF.svg\" width=\"200\">\n                    <p><span class=\"greenText\"><b>Successful harvest!</b></span><br>Your pay has increased by $0.02. Your bonus pay is now $0.86.</p>\n            ","response":0,"trial_type":"html-button-response","trial_index":68,"time_elapsed":820280,"internal_node_id":"0.0-4.0-1.30","subject_id":"5f330016a5e57f0d8ce4e77a","study_id":"60edd13110225f80f9f3709b","session_id":"6196c1f1846ea7c085e146d1","condition":"full-information","relevant_dimensions":["antennae","pattern"],"bee_group":{"antennae":"B","wings":"X","pattern":"D","legs":"X"},"bonus":1.0200000000000005},{"rt":16200,"stimulus":"bees-with-color/bee-A1SF.svg","response":0,"trial_type":"image-button-response","trial_index":69,"time_elapsed":836480,"internal_node_id":"0.0-4.0-0.31","subject_id":"5f330016a5e57f0d8ce4e77a","study_id":"60edd13110225f80f9f3709b","session_id":"6196c1f1846ea7c085e146d1","condition":"full-information","relevant_dimensions":["antennae","pattern"],"bee_group":{"antennae":"B","wings":"X","pattern":"D","legs":"X"},"action":"harvest","summary":"good-harvest","bonus":1.0200000000000005},{"rt":820,"stimulus":"\n                    <p><b>Action: <em>harvest</em></b></p>\n                    <p>This is the bee that you just saw.</p>\n                    <img src=\"bees-with-color/bee-A1SF.svg\" width=\"200\">\n                    <p><span class=\"greenText\"><b>Successful harvest!</b></span><br>Your pay has increased by $0.02. Your bonus pay is now $0.88.</p>\n            ","response":0,"trial_type":"html-button-response","trial_index":70,"time_elapsed":837301,"internal_node_id":"0.0-4.0-1.31","subject_id":"5f330016a5e57f0d8ce4e77a","study_id":"60edd13110225f80f9f3709b","session_id":"6196c1f1846ea7c085e146d1","condition":"full-information","relevant_dimensions":["antennae","pattern"],"bee_group":{"antennae":"B","wings":"X","pattern":"D","legs":"X"},"bonus":1.0200000000000005},{"rt":2203,"stimulus":"bees-with-color/bee-A1SF.svg","response":0,"trial_type":"image-button-response","trial_index":71,"time_elapsed":839504,"internal_node_id":"0.0-4.0-0.32","subject_id":"5f330016a5e57f0d8ce4e77a","study_id":"60edd13110225f80f9f3709b","session_id":"6196c1f1846ea7c085e146d1","condition":"full-information","relevant_dimensions":["antennae","pattern"],"bee_group":{"antennae":"B","wings":"X","pattern":"D","legs":"X"},"action":"harvest","summary":"good-harvest","bonus":1.0200000000000005},{"rt":821,"stimulus":"\n                    <p><b>Action: <em>harvest</em></b></p>\n                    <p>This is the bee that you just saw.</p>\n                    <img src=\"bees-with-color/bee-A1SF.svg\" width=\"200\">\n                    <p><span class=\"greenText\"><b>Successful harvest!</b></span><br>Your pay has increased by $0.02. Your bonus pay is now $0.90.</p>\n            ","response":0,"trial_type":"html-button-response","trial_index":72,"time_elapsed":840327,"internal_node_id":"0.0-4.0-1.32","subject_id":"5f330016a5e57f0d8ce4e77a","study_id":"60edd13110225f80f9f3709b","session_id":"6196c1f1846ea7c085e146d1","condition":"full-information","relevant_dimensions":["antennae","pattern"],"bee_group":{"antennae":"B","wings":"X","pattern":"D","legs":"X"},"bonus":1.0200000000000005},{"rt":8547,"stimulus":"bees-with-color/bee-B2DM.svg","response":1,"trial_type":"image-button-response","trial_index":73,"time_elapsed":848873,"internal_node_id":"0.0-4.0-0.33","subject_id":"5f330016a5e57f0d8ce4e77a","study_id":"60edd13110225f80f9f3709b","session_id":"6196c1f1846ea7c085e146d1","condition":"full-information","relevant_dimensions":["antennae","pattern"],"bee_group":{"antennae":"B","wings":"X","pattern":"D","legs":"X"},"action":"avoid","summary":"good-avoid","bonus":1.0200000000000005},{"rt":1135,"stimulus":"\n                    <p><b>Action: <em>avoid</em></b></p>\n                    <p>This is the bee that you just saw.</p>\n                    <img src=\"bees-with-color/bee-B2DM.svg\" width=\"200\">\n                    <p><span class=\"greenText\">Good choice!</span>  This bee would have stung you.<br>Your bonus pay is unchanged, and remains at $0.90.</p>\n            ","response":0,"trial_type":"html-button-response","trial_index":74,"time_elapsed":850009,"internal_node_id":"0.0-4.0-1.33","subject_id":"5f330016a5e57f0d8ce4e77a","study_id":"60edd13110225f80f9f3709b","session_id":"6196c1f1846ea7c085e146d1","condition":"full-information","relevant_dimensions":["antennae","pattern"],"bee_group":{"antennae":"B","wings":"X","pattern":"D","legs":"X"},"bonus":1.0200000000000005},{"rt":34735,"stimulus":"bees-with-color/bee-B2DF.svg","response":1,"trial_type":"image-button-response","trial_index":75,"time_elapsed":884744,"internal_node_id":"0.0-4.0-0.34","subject_id":"5f330016a5e57f0d8ce4e77a","study_id":"60edd13110225f80f9f3709b","session_id":"6196c1f1846ea7c085e146d1","condition":"full-information","relevant_dimensions":["antennae","pattern"],"bee_group":{"antennae":"B","wings":"X","pattern":"D","legs":"X"},"action":"avoid","summary":"good-avoid","bonus":1.0200000000000005},{"rt":7591,"stimulus":"\n                    <p><b>Action: <em>avoid</em></b></p>\n                    <p>This is the bee that you just saw.</p>\n                    <img src=\"bees-with-color/bee-B2DF.svg\" width=\"200\">\n                    <p><span class=\"greenText\">Good choice!</span>  This bee would have stung you.<br>Your bonus pay is unchanged, and remains at $0.90.</p>\n            ","response":0,"trial_type":"html-button-response","trial_index":76,"time_elapsed":892336,"internal_node_id":"0.0-4.0-1.34","subject_id":"5f330016a5e57f0d8ce4e77a","study_id":"60edd13110225f80f9f3709b","session_id":"6196c1f1846ea7c085e146d1","condition":"full-information","relevant_dimensions":["antennae","pattern"],"bee_group":{"antennae":"B","wings":"X","pattern":"D","legs":"X"},"bonus":1.0200000000000005},{"rt":17417,"stimulus":"bees-with-color/bee-A2DM.svg","response":1,"trial_type":"image-button-response","trial_index":77,"time_elapsed":909753,"internal_node_id":"0.0-4.0-0.35","subject_id":"5f330016a5e57f0d8ce4e77a","study_id":"60edd13110225f80f9f3709b","session_id":"6196c1f1846ea7c085e146d1","condition":"full-information","relevant_dimensions":["antennae","pattern"],"bee_group":{"antennae":"B","wings":"X","pattern":"D","legs":"X"},"action":"avoid","summary":"bad-avoid","bonus":1.0200000000000005},{"rt":5801,"stimulus":"\n                    <p><b>Action: <em>avoid</em></b></p>\n                    <p>This is the bee that you just saw.</p>\n                    <img src=\"bees-with-color/bee-A2DM.svg\" width=\"200\">\n                    <p><span class=\"redText\">Bad choice,</span> the bee was friendly.<br>Your bonus pay is unchanged, and remains at $0.90.</p>\n            ","response":0,"trial_type":"html-button-response","trial_index":78,"time_elapsed":915556,"internal_node_id":"0.0-4.0-1.35","subject_id":"5f330016a5e57f0d8ce4e77a","study_id":"60edd13110225f80f9f3709b","session_id":"6196c1f1846ea7c085e146d1","condition":"full-information","relevant_dimensions":["antennae","pattern"],"bee_group":{"antennae":"B","wings":"X","pattern":"D","legs":"X"},"bonus":1.0200000000000005},{"rt":4469,"stimulus":"bees-with-color/bee-A2SM.svg","response":0,"trial_type":"image-button-response","trial_index":79,"time_elapsed":920026,"internal_node_id":"0.0-4.0-0.36","subject_id":"5f330016a5e57f0d8ce4e77a","study_id":"60edd13110225f80f9f3709b","session_id":"6196c1f1846ea7c085e146d1","condition":"full-information","relevant_dimensions":["antennae","pattern"],"bee_group":{"antennae":"B","wings":"X","pattern":"D","legs":"X"},"action":"harvest","summary":"good-harvest","bonus":1.0200000000000005},{"rt":1532,"stimulus":"\n                    <p><b>Action: <em>harvest</em></b></p>\n                    <p>This is the bee that you just saw.</p>\n                    <img src=\"bees-with-color/bee-A2SM.svg\" width=\"200\">\n                    <p><span class=\"greenText\"><b>Successful harvest!</b></span><br>Your pay has increased by $0.02. Your bonus pay is now $0.92.</p>\n            ","response":0,"trial_type":"html-button-response","trial_index":80,"time_elapsed":921559,"internal_node_id":"0.0-4.0-1.36","subject_id":"5f330016a5e57f0d8ce4e77a","study_id":"60edd13110225f80f9f3709b","session_id":"6196c1f1846ea7c085e146d1","condition":"full-information","relevant_dimensions":["antennae","pattern"],"bee_group":{"antennae":"B","wings":"X","pattern":"D","legs":"X"},"bonus":1.0200000000000005},{"rt":20578,"stimulus":"bees-with-color/bee-B2SF.svg","response":0,"trial_type":"image-button-response","trial_index":81,"time_elapsed":942137,"internal_node_id":"0.0-4.0-0.37","subject_id":"5f330016a5e57f0d8ce4e77a","study_id":"60edd13110225f80f9f3709b","session_id":"6196c1f1846ea7c085e146d1","condition":"full-information","relevant_dimensions":["antennae","pattern"],"bee_group":{"antennae":"B","wings":"X","pattern":"D","legs":"X"},"action":"harvest","summary":"good-harvest","bonus":1.0200000000000005},{"rt":1159,"stimulus":"\n                    <p><b>Action: <em>harvest</em></b></p>\n                    <p>This is the bee that you just saw.</p>\n                    <img src=\"bees-with-color/bee-B2SF.svg\" width=\"200\">\n                    <p><span class=\"greenText\"><b>Successful harvest!</b></span><br>Your pay has increased by $0.02. Your bonus pay is now $0.94.</p>\n            ","response":0,"trial_type":"html-button-response","trial_index":82,"time_elapsed":943297,"internal_node_id":"0.0-4.0-1.37","subject_id":"5f330016a5e57f0d8ce4e77a","study_id":"60edd13110225f80f9f3709b","session_id":"6196c1f1846ea7c085e146d1","condition":"full-information","relevant_dimensions":["antennae","pattern"],"bee_group":{"antennae":"B","wings":"X","pattern":"D","legs":"X"},"bonus":1.0200000000000005},{"rt":17529,"stimulus":"bees-with-color/bee-A2SF.svg","response":0,"trial_type":"image-button-response","trial_index":83,"time_elapsed":960828,"internal_node_id":"0.0-4.0-0.38","subject_id":"5f330016a5e57f0d8ce4e77a","study_id":"60edd13110225f80f9f3709b","session_id":"6196c1f1846ea7c085e146d1","condition":"full-information","relevant_dimensions":["antennae","pattern"],"bee_group":{"antennae":"B","wings":"X","pattern":"D","legs":"X"},"action":"harvest","summary":"good-harvest","bonus":1.0200000000000005},{"rt":897,"stimulus":"\n                    <p><b>Action: <em>harvest</em></b></p>\n                    <p>This is the bee that you just saw.</p>\n                    <img src=\"bees-with-color/bee-A2SF.svg\" width=\"200\">\n                    <p><span class=\"greenText\"><b>Successful harvest!</b></span><br>Your pay has increased by $0.02. Your bonus pay is now $0.96.</p>\n            ","response":0,"trial_type":"html-button-response","trial_index":84,"time_elapsed":961726,"internal_node_id":"0.0-4.0-1.38","subject_id":"5f330016a5e57f0d8ce4e77a","study_id":"60edd13110225f80f9f3709b","session_id":"6196c1f1846ea7c085e146d1","condition":"full-information","relevant_dimensions":["antennae","pattern"],"bee_group":{"antennae":"B","wings":"X","pattern":"D","legs":"X"},"bonus":1.0200000000000005},{"rt":13805,"stimulus":"bees-with-color/bee-B1SM.svg","response":1,"trial_type":"image-button-response","trial_index":85,"time_elapsed":975533,"internal_node_id":"0.0-4.0-0.39","subject_id":"5f330016a5e57f0d8ce4e77a","study_id":"60edd13110225f80f9f3709b","session_id":"6196c1f1846ea7c085e146d1","condition":"full-information","relevant_dimensions":["antennae","pattern"],"bee_group":{"antennae":"B","wings":"X","pattern":"D","legs":"X"},"action":"avoid","summary":"bad-avoid","bonus":1.0200000000000005},{"rt":17905,"stimulus":"\n                    <p><b>Action: <em>avoid</em></b></p>\n                    <p>This is the bee that you just saw.</p>\n                    <img src=\"bees-with-color/bee-B1SM.svg\" width=\"200\">\n                    <p><span class=\"redText\">Bad choice,</span> the bee was friendly.<br>Your bonus pay is unchanged, and remains at $0.96.</p>\n            ","response":0,"trial_type":"html-button-response","trial_index":86,"time_elapsed":993439,"internal_node_id":"0.0-4.0-1.39","subject_id":"5f330016a5e57f0d8ce4e77a","study_id":"60edd13110225f80f9f3709b","session_id":"6196c1f1846ea7c085e146d1","condition":"full-information","relevant_dimensions":["antennae","pattern"],"bee_group":{"antennae":"B","wings":"X","pattern":"D","legs":"X"},"bonus":1.0200000000000005},{"rt":11060,"stimulus":"bees-with-color/bee-A1DF.svg","response":1,"trial_type":"image-button-response","trial_index":87,"time_elapsed":1004499,"internal_node_id":"0.0-4.0-0.40","subject_id":"5f330016a5e57f0d8ce4e77a","study_id":"60edd13110225f80f9f3709b","session_id":"6196c1f1846ea7c085e146d1","condition":"full-information","relevant_dimensions":["antennae","pattern"],"bee_group":{"antennae":"B","wings":"X","pattern":"D","legs":"X"},"action":"avoid","summary":"bad-avoid","bonus":1.0200000000000005},{"rt":1487,"stimulus":"\n                    <p><b>Action: <em>avoid</em></b></p>\n                    <p>This is the bee that you just saw.</p>\n                    <img src=\"bees-with-color/bee-A1DF.svg\" width=\"200\">\n                    <p><span class=\"redText\">Bad choice,</span> the bee was friendly.<br>Your bonus pay is unchanged, and remains at $0.96.</p>\n            ","response":0,"trial_type":"html-button-response","trial_index":88,"time_elapsed":1005986,"internal_node_id":"0.0-4.0-1.40","subject_id":"5f330016a5e57f0d8ce4e77a","study_id":"60edd13110225f80f9f3709b","session_id":"6196c1f1846ea7c085e146d1","condition":"full-information","relevant_dimensions":["antennae","pattern"],"bee_group":{"antennae":"B","wings":"X","pattern":"D","legs":"X"},"bonus":1.0200000000000005},{"rt":16601,"stimulus":"bees-with-color/bee-B1SF.svg","response":0,"trial_type":"image-button-response","trial_index":89,"time_elapsed":1022588,"internal_node_id":"0.0-4.0-0.41","subject_id":"5f330016a5e57f0d8ce4e77a","study_id":"60edd13110225f80f9f3709b","session_id":"6196c1f1846ea7c085e146d1","condition":"full-information","relevant_dimensions":["antennae","pattern"],"bee_group":{"antennae":"B","wings":"X","pattern":"D","legs":"X"},"action":"harvest","summary":"good-harvest","bonus":1.0200000000000005},{"rt":1120,"stimulus":"\n                    <p><b>Action: <em>harvest</em></b></p>\n                    <p>This is the bee that you just saw.</p>\n                    <img src=\"bees-with-color/bee-B1SF.svg\" width=\"200\">\n                    <p><span class=\"greenText\"><b>Successful harvest!</b></span><br>Your pay has increased by $0.02. Your bonus pay is now $0.98.</p>\n            ","response":0,"trial_type":"html-button-response","trial_index":90,"time_elapsed":1023708,"internal_node_id":"0.0-4.0-1.41","subject_id":"5f330016a5e57f0d8ce4e77a","study_id":"60edd13110225f80f9f3709b","session_id":"6196c1f1846ea7c085e146d1","condition":"full-information","relevant_dimensions":["antennae","pattern"],"bee_group":{"antennae":"B","wings":"X","pattern":"D","legs":"X"},"bonus":1.0200000000000005},{"rt":1913,"stimulus":"bees-with-color/bee-B2SM.svg","response":0,"trial_type":"image-button-response","trial_index":91,"time_elapsed":1025621,"internal_node_id":"0.0-4.0-0.42","subject_id":"5f330016a5e57f0d8ce4e77a","study_id":"60edd13110225f80f9f3709b","session_id":"6196c1f1846ea7c085e146d1","condition":"full-information","relevant_dimensions":["antennae","pattern"],"bee_group":{"antennae":"B","wings":"X","pattern":"D","legs":"X"},"action":"harvest","summary":"good-harvest","bonus":1.0200000000000005},{"rt":920,"stimulus":"\n                    <p><b>Action: <em>harvest</em></b></p>\n                    <p>This is the bee that you just saw.</p>\n                    <img src=\"bees-with-color/bee-B2SM.svg\" width=\"200\">\n                    <p><span class=\"greenText\"><b>Successful harvest!</b></span><br>Your pay has increased by $0.02. Your bonus pay is now $1.00.</p>\n            ","response":0,"trial_type":"html-button-response","trial_index":92,"time_elapsed":1026543,"internal_node_id":"0.0-4.0-1.42","subject_id":"5f330016a5e57f0d8ce4e77a","study_id":"60edd13110225f80f9f3709b","session_id":"6196c1f1846ea7c085e146d1","condition":"full-information","relevant_dimensions":["antennae","pattern"],"bee_group":{"antennae":"B","wings":"X","pattern":"D","legs":"X"},"bonus":1.0200000000000005},{"rt":2185,"stimulus":"bees-with-color/bee-B1DF.svg","response":1,"trial_type":"image-button-response","trial_index":93,"time_elapsed":1028727,"internal_node_id":"0.0-4.0-0.43","subject_id":"5f330016a5e57f0d8ce4e77a","study_id":"60edd13110225f80f9f3709b","session_id":"6196c1f1846ea7c085e146d1","condition":"full-information","relevant_dimensions":["antennae","pattern"],"bee_group":{"antennae":"B","wings":"X","pattern":"D","legs":"X"},"action":"avoid","summary":"good-avoid","bonus":1.0200000000000005},{"rt":1172,"stimulus":"\n                    <p><b>Action: <em>avoid</em></b></p>\n                    <p>This is the bee that you just saw.</p>\n                    <img src=\"bees-with-color/bee-B1DF.svg\" width=\"200\">\n                    <p><span class=\"greenText\">Good choice!</span>  This bee would have stung you.<br>Your bonus pay is unchanged, and remains at $1.00.</p>\n            ","response":0,"trial_type":"html-button-response","trial_index":94,"time_elapsed":1029901,"internal_node_id":"0.0-4.0-1.43","subject_id":"5f330016a5e57f0d8ce4e77a","study_id":"60edd13110225f80f9f3709b","session_id":"6196c1f1846ea7c085e146d1","condition":"full-information","relevant_dimensions":["antennae","pattern"],"bee_group":{"antennae":"B","wings":"X","pattern":"D","legs":"X"},"bonus":1.0200000000000005},{"rt":32425,"stimulus":"bees-with-color/bee-A1DM.svg","response":0,"trial_type":"image-button-response","trial_index":95,"time_elapsed":1062325,"internal_node_id":"0.0-4.0-0.44","subject_id":"5f330016a5e57f0d8ce4e77a","study_id":"60edd13110225f80f9f3709b","session_id":"6196c1f1846ea7c085e146d1","condition":"full-information","relevant_dimensions":["antennae","pattern"],"bee_group":{"antennae":"B","wings":"X","pattern":"D","legs":"X"},"action":"harvest","summary":"good-harvest","bonus":1.0200000000000005},{"rt":891,"stimulus":"\n                    <p><b>Action: <em>harvest</em></b></p>\n                    <p>This is the bee that you just saw.</p>\n                    <img src=\"bees-with-color/bee-A1DM.svg\" width=\"200\">\n                    <p><span class=\"greenText\"><b>Successful harvest!</b></span><br>Your pay has increased by $0.02. Your bonus pay is now $1.02.</p>\n            ","response":0,"trial_type":"html-button-response","trial_index":96,"time_elapsed":1063218,"internal_node_id":"0.0-4.0-1.44","subject_id":"5f330016a5e57f0d8ce4e77a","study_id":"60edd13110225f80f9f3709b","session_id":"6196c1f1846ea7c085e146d1","condition":"full-information","relevant_dimensions":["antennae","pattern"],"bee_group":{"antennae":"B","wings":"X","pattern":"D","legs":"X"},"bonus":1.0200000000000005},{"rt":2277,"stimulus":"bees-with-color/bee-A2DF.svg","response":1,"trial_type":"image-button-response","trial_index":97,"time_elapsed":1065496,"internal_node_id":"0.0-4.0-0.45","subject_id":"5f330016a5e57f0d8ce4e77a","study_id":"60edd13110225f80f9f3709b","session_id":"6196c1f1846ea7c085e146d1","condition":"full-information","relevant_dimensions":["antennae","pattern"],"bee_group":{"antennae":"B","wings":"X","pattern":"D","legs":"X"},"action":"avoid","summary":"bad-avoid","bonus":1.0200000000000005},{"rt":1058,"stimulus":"\n                    <p><b>Action: <em>avoid</em></b></p>\n                    <p>This is the bee that you just saw.</p>\n                    <img src=\"bees-with-color/bee-A2DF.svg\" width=\"200\">\n                    <p><span class=\"redText\">Bad choice,</span> the bee was friendly.<br>Your bonus pay is unchanged, and remains at $1.02.</p>\n            ","response":0,"trial_type":"html-button-response","trial_index":98,"time_elapsed":1066555,"internal_node_id":"0.0-4.0-1.45","subject_id":"5f330016a5e57f0d8ce4e77a","study_id":"60edd13110225f80f9f3709b","session_id":"6196c1f1846ea7c085e146d1","condition":"full-information","relevant_dimensions":["antennae","pattern"],"bee_group":{"antennae":"B","wings":"X","pattern":"D","legs":"X"},"bonus":1.0200000000000005},{"rt":503,"stimulus":"bees-with-color/bee-B1DM.svg","response":1,"trial_type":"image-button-response","trial_index":99,"time_elapsed":1067058,"internal_node_id":"0.0-4.0-0.46","subject_id":"5f330016a5e57f0d8ce4e77a","study_id":"60edd13110225f80f9f3709b","session_id":"6196c1f1846ea7c085e146d1","condition":"full-information","relevant_dimensions":["antennae","pattern"],"bee_group":{"antennae":"B","wings":"X","pattern":"D","legs":"X"},"action":"avoid","summary":"good-avoid","bonus":1.0200000000000005},{"rt":463,"stimulus":"\n                    <p><b>Action: <em>avoid</em></b></p>\n                    <p>This is the bee that you just saw.</p>\n                    <img src=\"bees-with-color/bee-B1DM.svg\" width=\"200\">\n                    <p><span class=\"greenText\">Good choice!</span>  This bee would have stung you.<br>Your bonus pay is unchanged, and remains at $1.02.</p>\n            ","response":0,"trial_type":"html-button-response","trial_index":100,"time_elapsed":1067524,"internal_node_id":"0.0-4.0-1.46","subject_id":"5f330016a5e57f0d8ce4e77a","study_id":"60edd13110225f80f9f3709b","session_id":"6196c1f1846ea7c085e146d1","condition":"full-information","relevant_dimensions":["antennae","pattern"],"bee_group":{"antennae":"B","wings":"X","pattern":"D","legs":"X"},"bonus":1.0200000000000005},{"rt":448,"stimulus":"bees-with-color/bee-A1SM.svg","response":1,"trial_type":"image-button-response","trial_index":101,"time_elapsed":1067973,"internal_node_id":"0.0-4.0-0.47","subject_id":"5f330016a5e57f0d8ce4e77a","study_id":"60edd13110225f80f9f3709b","session_id":"6196c1f1846ea7c085e146d1","condition":"full-information","relevant_dimensions":["antennae","pattern"],"bee_group":{"antennae":"B","wings":"X","pattern":"D","legs":"X"},"action":"avoid","summary":"bad-avoid","bonus":1.0200000000000005},{"rt":388,"stimulus":"\n                    <p><b>Action: <em>avoid</em></b></p>\n                    <p>This is the bee that you just saw.</p>\n                    <img src=\"bees-with-color/bee-A1SM.svg\" width=\"200\">\n                    <p><span class=\"redText\">Bad choice,</span> the bee was friendly.<br>Your bonus pay is unchanged, and remains at $1.02.</p>\n            ","response":0,"trial_type":"html-button-response","trial_index":102,"time_elapsed":1068361,"internal_node_id":"0.0-4.0-1.47","subject_id":"5f330016a5e57f0d8ce4e77a","study_id":"60edd13110225f80f9f3709b","session_id":"6196c1f1846ea7c085e146d1","condition":"full-information","relevant_dimensions":["antennae","pattern"],"bee_group":{"antennae":"B","wings":"X","pattern":"D","legs":"X"},"bonus":1.0200000000000005},{"rt":362,"stimulus":"bees-with-color/bee-B1DM.svg","response":1,"trial_type":"image-button-response","trial_index":103,"time_elapsed":1068723,"internal_node_id":"0.0-4.0-0.48","subject_id":"5f330016a5e57f0d8ce4e77a","study_id":"60edd13110225f80f9f3709b","session_id":"6196c1f1846ea7c085e146d1","condition":"full-information","relevant_dimensions":["antennae","pattern"],"bee_group":{"antennae":"B","wings":"X","pattern":"D","legs":"X"},"action":"avoid","summary":"good-avoid","bonus":1.0200000000000005},{"rt":338,"stimulus":"\n                    <p><b>Action: <em>avoid</em></b></p>\n                    <p>This is the bee that you just saw.</p>\n                    <img src=\"bees-with-color/bee-B1DM.svg\" width=\"200\">\n                    <p><span class=\"greenText\">Good choice!</span>  This bee would have stung you.<br>Your bonus pay is unchanged, and remains at $1.02.</p>\n            ","response":0,"trial_type":"html-button-response","trial_index":104,"time_elapsed":1069061,"internal_node_id":"0.0-4.0-1.48","subject_id":"5f330016a5e57f0d8ce4e77a","study_id":"60edd13110225f80f9f3709b","session_id":"6196c1f1846ea7c085e146d1","condition":"full-information","relevant_dimensions":["antennae","pattern"],"bee_group":{"antennae":"B","wings":"X","pattern":"D","legs":"X"},"bonus":1.0200000000000005},{"rt":377,"stimulus":"bees-with-color/bee-B2SM.svg","response":1,"trial_type":"image-button-response","trial_index":105,"time_elapsed":1069438,"internal_node_id":"0.0-4.0-0.49","subject_id":"5f330016a5e57f0d8ce4e77a","study_id":"60edd13110225f80f9f3709b","session_id":"6196c1f1846ea7c085e146d1","condition":"full-information","relevant_dimensions":["antennae","pattern"],"bee_group":{"antennae":"B","wings":"X","pattern":"D","legs":"X"},"action":"avoid","summary":"bad-avoid","bonus":1.0200000000000005},{"rt":320,"stimulus":"\n                    <p><b>Action: <em>avoid</em></b></p>\n                    <p>This is the bee that you just saw.</p>\n                    <img src=\"bees-with-color/bee-B2SM.svg\" width=\"200\">\n                    <p><span class=\"redText\">Bad choice,</span> the bee was friendly.<br>Your bonus pay is unchanged, and remains at $1.02.</p>\n            ","response":0,"trial_type":"html-button-response","trial_index":106,"time_elapsed":1069759,"internal_node_id":"0.0-4.0-1.49","subject_id":"5f330016a5e57f0d8ce4e77a","study_id":"60edd13110225f80f9f3709b","session_id":"6196c1f1846ea7c085e146d1","condition":"full-information","relevant_dimensions":["antennae","pattern"],"bee_group":{"antennae":"B","wings":"X","pattern":"D","legs":"X"},"bonus":1.0200000000000005},{"rt":363,"stimulus":"bees-with-color/bee-A1SM.svg","response":1,"trial_type":"image-button-response","trial_index":107,"time_elapsed":1070123,"internal_node_id":"0.0-4.0-0.50","subject_id":"5f330016a5e57f0d8ce4e77a","study_id":"60edd13110225f80f9f3709b","session_id":"6196c1f1846ea7c085e146d1","condition":"full-information","relevant_dimensions":["antennae","pattern"],"bee_group":{"antennae":"B","wings":"X","pattern":"D","legs":"X"},"action":"avoid","summary":"bad-avoid","bonus":1.0200000000000005},{"rt":326,"stimulus":"\n                    <p><b>Action: <em>avoid</em></b></p>\n                    <p>This is the bee that you just saw.</p>\n                    <img src=\"bees-with-color/bee-A1SM.svg\" width=\"200\">\n                    <p><span class=\"redText\">Bad choice,</span> the bee was friendly.<br>Your bonus pay is unchanged, and remains at $1.02.</p>\n            ","response":0,"trial_type":"html-button-response","trial_index":108,"time_elapsed":1070450,"internal_node_id":"0.0-4.0-1.50","subject_id":"5f330016a5e57f0d8ce4e77a","study_id":"60edd13110225f80f9f3709b","session_id":"6196c1f1846ea7c085e146d1","condition":"full-information","relevant_dimensions":["antennae","pattern"],"bee_group":{"antennae":"B","wings":"X","pattern":"D","legs":"X"},"bonus":1.0200000000000005},{"rt":326,"stimulus":"bees-with-color/bee-A2DM.svg","response":1,"trial_type":"image-button-response","trial_index":109,"time_elapsed":1070777,"internal_node_id":"0.0-4.0-0.51","subject_id":"5f330016a5e57f0d8ce4e77a","study_id":"60edd13110225f80f9f3709b","session_id":"6196c1f1846ea7c085e146d1","condition":"full-information","relevant_dimensions":["antennae","pattern"],"bee_group":{"antennae":"B","wings":"X","pattern":"D","legs":"X"},"action":"avoid","summary":"bad-avoid","bonus":1.0200000000000005},{"rt":302,"stimulus":"\n                    <p><b>Action: <em>avoid</em></b></p>\n                    <p>This is the bee that you just saw.</p>\n                    <img src=\"bees-with-color/bee-A2DM.svg\" width=\"200\">\n                    <p><span class=\"redText\">Bad choice,</span> the bee was friendly.<br>Your bonus pay is unchanged, and remains at $1.02.</p>\n            ","response":0,"trial_type":"html-button-response","trial_index":110,"time_elapsed":1071080,"internal_node_id":"0.0-4.0-1.51","subject_id":"5f330016a5e57f0d8ce4e77a","study_id":"60edd13110225f80f9f3709b","session_id":"6196c1f1846ea7c085e146d1","condition":"full-information","relevant_dimensions":["antennae","pattern"],"bee_group":{"antennae":"B","wings":"X","pattern":"D","legs":"X"},"bonus":1.0200000000000005},{"rt":297,"stimulus":"bees-with-color/bee-B2SF.svg","response":1,"trial_type":"image-button-response","trial_index":111,"time_elapsed":1071379,"internal_node_id":"0.0-4.0-0.52","subject_id":"5f330016a5e57f0d8ce4e77a","study_id":"60edd13110225f80f9f3709b","session_id":"6196c1f1846ea7c085e146d1","condition":"full-information","relevant_dimensions":["antennae","pattern"],"bee_group":{"antennae":"B","wings":"X","pattern":"D","legs":"X"},"action":"avoid","summary":"bad-avoid","bonus":1.0200000000000005},{"rt":265,"stimulus":"\n                    <p><b>Action: <em>avoid</em></b></p>\n                    <p>This is the bee that you just saw.</p>\n                    <img src=\"bees-with-color/bee-B2SF.svg\" width=\"200\">\n                    <p><span class=\"redText\">Bad choice,</span> the bee was friendly.<br>Your bonus pay is unchanged, and remains at $1.02.</p>\n            ","response":0,"trial_type":"html-button-response","trial_index":112,"time_elapsed":1071645,"internal_node_id":"0.0-4.0-1.52","subject_id":"5f330016a5e57f0d8ce4e77a","study_id":"60edd13110225f80f9f3709b","session_id":"6196c1f1846ea7c085e146d1","condition":"full-information","relevant_dimensions":["antennae","pattern"],"bee_group":{"antennae":"B","wings":"X","pattern":"D","legs":"X"},"bonus":1.0200000000000005},{"rt":261,"stimulus":"bees-with-color/bee-A2DF.svg","response":1,"trial_type":"image-button-response","trial_index":113,"time_elapsed":1071908,"internal_node_id":"0.0-4.0-0.53","subject_id":"5f330016a5e57f0d8ce4e77a","study_id":"60edd13110225f80f9f3709b","session_id":"6196c1f1846ea7c085e146d1","condition":"full-information","relevant_dimensions":["antennae","pattern"],"bee_group":{"antennae":"B","wings":"X","pattern":"D","legs":"X"},"action":"avoid","summary":"bad-avoid","bonus":1.0200000000000005},{"rt":256,"stimulus":"\n                    <p><b>Action: <em>avoid</em></b></p>\n                    <p>This is the bee that you just saw.</p>\n                    <img src=\"bees-with-color/bee-A2DF.svg\" width=\"200\">\n                    <p><span class=\"redText\">Bad choice,</span> the bee was friendly.<br>Your bonus pay is unchanged, and remains at $1.02.</p>\n            ","response":0,"trial_type":"html-button-response","trial_index":114,"time_elapsed":1072166,"internal_node_id":"0.0-4.0-1.53","subject_id":"5f330016a5e57f0d8ce4e77a","study_id":"60edd13110225f80f9f3709b","session_id":"6196c1f1846ea7c085e146d1","condition":"full-information","relevant_dimensions":["antennae","pattern"],"bee_group":{"antennae":"B","wings":"X","pattern":"D","legs":"X"},"bonus":1.0200000000000005},{"rt":287,"stimulus":"bees-with-color/bee-B2DM.svg","response":1,"trial_type":"image-button-response","trial_index":115,"time_elapsed":1072453,"internal_node_id":"0.0-4.0-0.54","subject_id":"5f330016a5e57f0d8ce4e77a","study_id":"60edd13110225f80f9f3709b","session_id":"6196c1f1846ea7c085e146d1","condition":"full-information","relevant_dimensions":["antennae","pattern"],"bee_group":{"antennae":"B","wings":"X","pattern":"D","legs":"X"},"action":"avoid","summary":"good-avoid","bonus":1.0200000000000005},{"rt":213,"stimulus":"\n                    <p><b>Action: <em>avoid</em></b></p>\n                    <p>This is the bee that you just saw.</p>\n                    <img src=\"bees-with-color/bee-B2DM.svg\" width=\"200\">\n                    <p><span class=\"greenText\">Good choice!</span>  This bee would have stung you.<br>Your bonus pay is unchanged, and remains at $1.02.</p>\n            ","response":0,"trial_type":"html-button-response","trial_index":116,"time_elapsed":1072667,"internal_node_id":"0.0-4.0-1.54","subject_id":"5f330016a5e57f0d8ce4e77a","study_id":"60edd13110225f80f9f3709b","session_id":"6196c1f1846ea7c085e146d1","condition":"full-information","relevant_dimensions":["antennae","pattern"],"bee_group":{"antennae":"B","wings":"X","pattern":"D","legs":"X"},"bonus":1.0200000000000005},{"rt":619,"stimulus":"bees-with-color/bee-A1SF.svg","response":1,"trial_type":"image-button-response","trial_index":117,"time_elapsed":1073287,"internal_node_id":"0.0-4.0-0.55","subject_id":"5f330016a5e57f0d8ce4e77a","study_id":"60edd13110225f80f9f3709b","session_id":"6196c1f1846ea7c085e146d1","condition":"full-information","relevant_dimensions":["antennae","pattern"],"bee_group":{"antennae":"B","wings":"X","pattern":"D","legs":"X"},"action":"avoid","summary":"bad-avoid","bonus":1.0200000000000005},{"rt":717,"stimulus":"\n                    <p><b>Action: <em>avoid</em></b></p>\n                    <p>This is the bee that you just saw.</p>\n                    <img src=\"bees-with-color/bee-A1SF.svg\" width=\"200\">\n                    <p><span class=\"redText\">Bad choice,</span> the bee was friendly.<br>Your bonus pay is unchanged, and remains at $1.02.</p>\n            ","response":0,"trial_type":"html-button-response","trial_index":118,"time_elapsed":1074005,"internal_node_id":"0.0-4.0-1.55","subject_id":"5f330016a5e57f0d8ce4e77a","study_id":"60edd13110225f80f9f3709b","session_id":"6196c1f1846ea7c085e146d1","condition":"full-information","relevant_dimensions":["antennae","pattern"],"bee_group":{"antennae":"B","wings":"X","pattern":"D","legs":"X"},"bonus":1.0200000000000005},{"rt":218,"stimulus":"bees-with-color/bee-A1DF.svg","response":1,"trial_type":"image-button-response","trial_index":119,"time_elapsed":1074223,"internal_node_id":"0.0-4.0-0.56","subject_id":"5f330016a5e57f0d8ce4e77a","study_id":"60edd13110225f80f9f3709b","session_id":"6196c1f1846ea7c085e146d1","condition":"full-information","relevant_dimensions":["antennae","pattern"],"bee_group":{"antennae":"B","wings":"X","pattern":"D","legs":"X"},"action":"avoid","summary":"bad-avoid","bonus":1.0200000000000005},{"rt":249,"stimulus":"\n                    <p><b>Action: <em>avoid</em></b></p>\n                    <p>This is the bee that you just saw.</p>\n                    <img src=\"bees-with-color/bee-A1DF.svg\" width=\"200\">\n                    <p><span class=\"redText\">Bad choice,</span> the bee was friendly.<br>Your bonus pay is unchanged, and remains at $1.02.</p>\n            ","response":0,"trial_type":"html-button-response","trial_index":120,"time_elapsed":1074474,"internal_node_id":"0.0-4.0-1.56","subject_id":"5f330016a5e57f0d8ce4e77a","study_id":"60edd13110225f80f9f3709b","session_id":"6196c1f1846ea7c085e146d1","condition":"full-information","relevant_dimensions":["antennae","pattern"],"bee_group":{"antennae":"B","wings":"X","pattern":"D","legs":"X"},"bonus":1.0200000000000005},{"rt":302,"stimulus":"bees-with-color/bee-A2SM.svg","response":1,"trial_type":"image-button-response","trial_index":121,"time_elapsed":1074777,"internal_node_id":"0.0-4.0-0.57","subject_id":"5f330016a5e57f0d8ce4e77a","study_id":"60edd13110225f80f9f3709b","session_id":"6196c1f1846ea7c085e146d1","condition":"full-information","relevant_dimensions":["antennae","pattern"],"bee_group":{"antennae":"B","wings":"X","pattern":"D","legs":"X"},"action":"avoid","summary":"bad-avoid","bonus":1.0200000000000005},{"rt":217,"stimulus":"\n                    <p><b>Action: <em>avoid</em></b></p>\n                    <p>This is the bee that you just saw.</p>\n                    <img src=\"bees-with-color/bee-A2SM.svg\" width=\"200\">\n                    <p><span class=\"redText\">Bad choice,</span> the bee was friendly.<br>Your bonus pay is unchanged, and remains at $1.02.</p>\n            ","response":0,"trial_type":"html-button-response","trial_index":122,"time_elapsed":1074995,"internal_node_id":"0.0-4.0-1.57","subject_id":"5f330016a5e57f0d8ce4e77a","study_id":"60edd13110225f80f9f3709b","session_id":"6196c1f1846ea7c085e146d1","condition":"full-information","relevant_dimensions":["antennae","pattern"],"bee_group":{"antennae":"B","wings":"X","pattern":"D","legs":"X"},"bonus":1.0200000000000005},{"rt":280,"stimulus":"bees-with-color/bee-A2SF.svg","response":1,"trial_type":"image-button-response","trial_index":123,"time_elapsed":1075276,"internal_node_id":"0.0-4.0-0.58","subject_id":"5f330016a5e57f0d8ce4e77a","study_id":"60edd13110225f80f9f3709b","session_id":"6196c1f1846ea7c085e146d1","condition":"full-information","relevant_dimensions":["antennae","pattern"],"bee_group":{"antennae":"B","wings":"X","pattern":"D","legs":"X"},"action":"avoid","summary":"bad-avoid","bonus":1.0200000000000005},{"rt":211,"stimulus":"\n                    <p><b>Action: <em>avoid</em></b></p>\n                    <p>This is the bee that you just saw.</p>\n                    <img src=\"bees-with-color/bee-A2SF.svg\" width=\"200\">\n                    <p><span class=\"redText\">Bad choice,</span> the bee was friendly.<br>Your bonus pay is unchanged, and remains at $1.02.</p>\n            ","response":0,"trial_type":"html-button-response","trial_index":124,"time_elapsed":1075488,"internal_node_id":"0.0-4.0-1.58","subject_id":"5f330016a5e57f0d8ce4e77a","study_id":"60edd13110225f80f9f3709b","session_id":"6196c1f1846ea7c085e146d1","condition":"full-information","relevant_dimensions":["antennae","pattern"],"bee_group":{"antennae":"B","wings":"X","pattern":"D","legs":"X"},"bonus":1.0200000000000005},{"rt":264,"stimulus":"bees-with-color/bee-B1DF.svg","response":1,"trial_type":"image-button-response","trial_index":125,"time_elapsed":1075753,"internal_node_id":"0.0-4.0-0.59","subject_id":"5f330016a5e57f0d8ce4e77a","study_id":"60edd13110225f80f9f3709b","session_id":"6196c1f1846ea7c085e146d1","condition":"full-information","relevant_dimensions":["antennae","pattern"],"bee_group":{"antennae":"B","wings":"X","pattern":"D","legs":"X"},"action":"avoid","summary":"good-avoid","bonus":1.0200000000000005},{"rt":744,"stimulus":"\n                    <p><b>Action: <em>avoid</em></b></p>\n                    <p>This is the bee that you just saw.</p>\n                    <img src=\"bees-with-color/bee-B1DF.svg\" width=\"200\">\n                    <p><span class=\"greenText\">Good choice!</span>  This bee would have stung you.<br>Your bonus pay is unchanged, and remains at $1.02.</p>\n            ","response":0,"trial_type":"html-button-response","trial_index":126,"time_elapsed":1076498,"internal_node_id":"0.0-4.0-1.59","subject_id":"5f330016a5e57f0d8ce4e77a","study_id":"60edd13110225f80f9f3709b","session_id":"6196c1f1846ea7c085e146d1","condition":"full-information","relevant_dimensions":["antennae","pattern"],"bee_group":{"antennae":"B","wings":"X","pattern":"D","legs":"X"},"bonus":1.0200000000000005},{"rt":301,"stimulus":"bees-with-color/bee-B1SF.svg","response":1,"trial_type":"image-button-response","trial_index":127,"time_elapsed":1076800,"internal_node_id":"0.0-4.0-0.60","subject_id":"5f330016a5e57f0d8ce4e77a","study_id":"60edd13110225f80f9f3709b","session_id":"6196c1f1846ea7c085e146d1","condition":"full-information","relevant_dimensions":["antennae","pattern"],"bee_group":{"antennae":"B","wings":"X","pattern":"D","legs":"X"},"action":"avoid","summary":"bad-avoid","bonus":1.0200000000000005},{"rt":349,"stimulus":"\n                    <p><b>Action: <em>avoid</em></b></p>\n                    <p>This is the bee that you just saw.</p>\n                    <img src=\"bees-with-color/bee-B1SF.svg\" width=\"200\">\n                    <p><span class=\"redText\">Bad choice,</span> the bee was friendly.<br>Your bonus pay is unchanged, and remains at $1.02.</p>\n            ","response":0,"trial_type":"html-button-response","trial_index":128,"time_elapsed":1077149,"internal_node_id":"0.0-4.0-1.60","subject_id":"5f330016a5e57f0d8ce4e77a","study_id":"60edd13110225f80f9f3709b","session_id":"6196c1f1846ea7c085e146d1","condition":"full-information","relevant_dimensions":["antennae","pattern"],"bee_group":{"antennae":"B","wings":"X","pattern":"D","legs":"X"},"bonus":1.0200000000000005},{"rt":421,"stimulus":"bees-with-color/bee-B1SM.svg","response":1,"trial_type":"image-button-response","trial_index":129,"time_elapsed":1077570,"internal_node_id":"0.0-4.0-0.61","subject_id":"5f330016a5e57f0d8ce4e77a","study_id":"60edd13110225f80f9f3709b","session_id":"6196c1f1846ea7c085e146d1","condition":"full-information","relevant_dimensions":["antennae","pattern"],"bee_group":{"antennae":"B","wings":"X","pattern":"D","legs":"X"},"action":"avoid","summary":"bad-avoid","bonus":1.0200000000000005},{"rt":317,"stimulus":"\n                    <p><b>Action: <em>avoid</em></b></p>\n                    <p>This is the bee that you just saw.</p>\n                    <img src=\"bees-with-color/bee-B1SM.svg\" width=\"200\">\n                    <p><span class=\"redText\">Bad choice,</span> the bee was friendly.<br>Your bonus pay is unchanged, and remains at $1.02.</p>\n            ","response":0,"trial_type":"html-button-response","trial_index":130,"time_elapsed":1077887,"internal_node_id":"0.0-4.0-1.61","subject_id":"5f330016a5e57f0d8ce4e77a","study_id":"60edd13110225f80f9f3709b","session_id":"6196c1f1846ea7c085e146d1","condition":"full-information","relevant_dimensions":["antennae","pattern"],"bee_group":{"antennae":"B","wings":"X","pattern":"D","legs":"X"},"bonus":1.0200000000000005},{"rt":319,"stimulus":"bees-with-color/bee-B2DF.svg","response":1,"trial_type":"image-button-response","trial_index":131,"time_elapsed":1078208,"internal_node_id":"0.0-4.0-0.62","subject_id":"5f330016a5e57f0d8ce4e77a","study_id":"60edd13110225f80f9f3709b","session_id":"6196c1f1846ea7c085e146d1","condition":"full-information","relevant_dimensions":["antennae","pattern"],"bee_group":{"antennae":"B","wings":"X","pattern":"D","legs":"X"},"action":"avoid","summary":"good-avoid","bonus":1.0200000000000005},{"rt":383,"stimulus":"\n                    <p><b>Action: <em>avoid</em></b></p>\n                    <p>This is the bee that you just saw.</p>\n                    <img src=\"bees-with-color/bee-B2DF.svg\" width=\"200\">\n                    <p><span class=\"greenText\">Good choice!</span>  This bee would have stung you.<br>Your bonus pay is unchanged, and remains at $1.02.</p>\n            ","response":0,"trial_type":"html-button-response","trial_index":132,"time_elapsed":1078591,"internal_node_id":"0.0-4.0-1.62","subject_id":"5f330016a5e57f0d8ce4e77a","study_id":"60edd13110225f80f9f3709b","session_id":"6196c1f1846ea7c085e146d1","condition":"full-information","relevant_dimensions":["antennae","pattern"],"bee_group":{"antennae":"B","wings":"X","pattern":"D","legs":"X"},"bonus":1.0200000000000005},{"rt":401,"stimulus":"bees-with-color/bee-A1DM.svg","response":1,"trial_type":"image-button-response","trial_index":133,"time_elapsed":1078992,"internal_node_id":"0.0-4.0-0.63","subject_id":"5f330016a5e57f0d8ce4e77a","study_id":"60edd13110225f80f9f3709b","session_id":"6196c1f1846ea7c085e146d1","condition":"full-information","relevant_dimensions":["antennae","pattern"],"bee_group":{"antennae":"B","wings":"X","pattern":"D","legs":"X"},"action":"avoid","summary":"bad-avoid","bonus":1.0200000000000005},{"rt":725,"stimulus":"\n                    <p><b>Action: <em>avoid</em></b></p>\n                    <p>This is the bee that you just saw.</p>\n                    <img src=\"bees-with-color/bee-A1DM.svg\" width=\"200\">\n                    <p><span class=\"redText\">Bad choice,</span> the bee was friendly.<br>Your bonus pay is unchanged, and remains at $1.02.</p>\n            ","response":0,"trial_type":"html-button-response","trial_index":134,"time_elapsed":1079718,"internal_node_id":"0.0-4.0-1.63","subject_id":"5f330016a5e57f0d8ce4e77a","study_id":"60edd13110225f80f9f3709b","session_id":"6196c1f1846ea7c085e146d1","condition":"full-information","relevant_dimensions":["antennae","pattern"],"bee_group":{"antennae":"B","wings":"X","pattern":"D","legs":"X"},"bonus":1.0200000000000005},{"rt":6724,"stimulus":"You have completed the first part of this experiment.<br><br>You will now begin a shorter second part, in which you will receive no feedback.<br>The same rules regarding bonus pay apply.<br><br>Press any key to begin.","response":" ","trial_type":"html-keyboard-response","trial_index":135,"time_elapsed":1086443,"internal_node_id":"0.0-5.0","subject_id":"5f330016a5e57f0d8ce4e77a","study_id":"60edd13110225f80f9f3709b","session_id":"6196c1f1846ea7c085e146d1","condition":"full-information","relevant_dimensions":["antennae","pattern"],"bee_group":{"antennae":"B","wings":"X","pattern":"D","legs":"X"},"bonus":1.0200000000000005},{"rt":3717,"stimulus":"bees-with-color/bee-B2SF.svg","response":1,"trial_type":"image-button-response","trial_index":136,"time_elapsed":1090161,"internal_node_id":"0.0-6.0-0.0","subject_id":"5f330016a5e57f0d8ce4e77a","study_id":"60edd13110225f80f9f3709b","session_id":"6196c1f1846ea7c085e146d1","condition":"full-information","relevant_dimensions":["antennae","pattern"],"bee_group":{"antennae":"B","wings":"X","pattern":"D","legs":"X"},"bonus":1.0200000000000005},{"rt":1377,"stimulus":"bees-with-color/bee-A1SF.svg","response":1,"trial_type":"image-button-response","trial_index":137,"time_elapsed":1091540,"internal_node_id":"0.0-6.0-0.1","subject_id":"5f330016a5e57f0d8ce4e77a","study_id":"60edd13110225f80f9f3709b","session_id":"6196c1f1846ea7c085e146d1","condition":"full-information","relevant_dimensions":["antennae","pattern"],"bee_group":{"antennae":"B","wings":"X","pattern":"D","legs":"X"},"bonus":1.0200000000000005},{"rt":955,"stimulus":"bees-with-color/bee-B1SM.svg","response":1,"trial_type":"image-button-response","trial_index":138,"time_elapsed":1092495,"internal_node_id":"0.0-6.0-0.2","subject_id":"5f330016a5e57f0d8ce4e77a","study_id":"60edd13110225f80f9f3709b","session_id":"6196c1f1846ea7c085e146d1","condition":"full-information","relevant_dimensions":["antennae","pattern"],"bee_group":{"antennae":"B","wings":"X","pattern":"D","legs":"X"},"bonus":1.0200000000000005},{"rt":213,"stimulus":"bees-with-color/bee-A2DM.svg","response":1,"trial_type":"image-button-response","trial_index":139,"time_elapsed":1092708,"internal_node_id":"0.0-6.0-0.3","subject_id":"5f330016a5e57f0d8ce4e77a","study_id":"60edd13110225f80f9f3709b","session_id":"6196c1f1846ea7c085e146d1","condition":"full-information","relevant_dimensions":["antennae","pattern"],"bee_group":{"antennae":"B","wings":"X","pattern":"D","legs":"X"},"bonus":1.0200000000000005},{"rt":172,"stimulus":"bees-with-color/bee-B2DF.svg","response":1,"trial_type":"image-button-response","trial_index":140,"time_elapsed":1092882,"internal_node_id":"0.0-6.0-0.4","subject_id":"5f330016a5e57f0d8ce4e77a","study_id":"60edd13110225f80f9f3709b","session_id":"6196c1f1846ea7c085e146d1","condition":"full-information","relevant_dimensions":["antennae","pattern"],"bee_group":{"antennae":"B","wings":"X","pattern":"D","legs":"X"},"bonus":1.0200000000000005},{"rt":163,"stimulus":"bees-with-color/bee-B1DF.svg","response":1,"trial_type":"image-button-response","trial_index":141,"time_elapsed":1093045,"internal_node_id":"0.0-6.0-0.5","subject_id":"5f330016a5e57f0d8ce4e77a","study_id":"60edd13110225f80f9f3709b","session_id":"6196c1f1846ea7c085e146d1","condition":"full-information","relevant_dimensions":["antennae","pattern"],"bee_group":{"antennae":"B","wings":"X","pattern":"D","legs":"X"},"bonus":1.0200000000000005},{"rt":151,"stimulus":"bees-with-color/bee-A1DM.svg","response":1,"trial_type":"image-button-response","trial_index":142,"time_elapsed":1093196,"internal_node_id":"0.0-6.0-0.6","subject_id":"5f330016a5e57f0d8ce4e77a","study_id":"60edd13110225f80f9f3709b","session_id":"6196c1f1846ea7c085e146d1","condition":"full-information","relevant_dimensions":["antennae","pattern"],"bee_group":{"antennae":"B","wings":"X","pattern":"D","legs":"X"},"bonus":1.0200000000000005},{"rt":149,"stimulus":"bees-with-color/bee-A2SF.svg","response":1,"trial_type":"image-button-response","trial_index":143,"time_elapsed":1093345,"internal_node_id":"0.0-6.0-0.7","subject_id":"5f330016a5e57f0d8ce4e77a","study_id":"60edd13110225f80f9f3709b","session_id":"6196c1f1846ea7c085e146d1","condition":"full-information","relevant_dimensions":["antennae","pattern"],"bee_group":{"antennae":"B","wings":"X","pattern":"D","legs":"X"},"bonus":1.0200000000000005},{"rt":148,"stimulus":"bees-with-color/bee-A2DF.svg","response":1,"trial_type":"image-button-response","trial_index":144,"time_elapsed":1093496,"internal_node_id":"0.0-6.0-0.8","subject_id":"5f330016a5e57f0d8ce4e77a","study_id":"60edd13110225f80f9f3709b","session_id":"6196c1f1846ea7c085e146d1","condition":"full-information","relevant_dimensions":["antennae","pattern"],"bee_group":{"antennae":"B","wings":"X","pattern":"D","legs":"X"},"bonus":1.0200000000000005},{"rt":151,"stimulus":"bees-with-color/bee-A1SM.svg","response":1,"trial_type":"image-button-response","trial_index":145,"time_elapsed":1093647,"internal_node_id":"0.0-6.0-0.9","subject_id":"5f330016a5e57f0d8ce4e77a","study_id":"60edd13110225f80f9f3709b","session_id":"6196c1f1846ea7c085e146d1","condition":"full-information","relevant_dimensions":["antennae","pattern"],"bee_group":{"antennae":"B","wings":"X","pattern":"D","legs":"X"},"bonus":1.0200000000000005},{"rt":170,"stimulus":"bees-with-color/bee-A2SM.svg","response":1,"trial_type":"image-button-response","trial_index":146,"time_elapsed":1093819,"internal_node_id":"0.0-6.0-0.10","subject_id":"5f330016a5e57f0d8ce4e77a","study_id":"60edd13110225f80f9f3709b","session_id":"6196c1f1846ea7c085e146d1","condition":"full-information","relevant_dimensions":["antennae","pattern"],"bee_group":{"antennae":"B","wings":"X","pattern":"D","legs":"X"},"bonus":1.0200000000000005},{"rt":146,"stimulus":"bees-with-color/bee-B2SM.svg","response":1,"trial_type":"image-button-response","trial_index":147,"time_elapsed":1093965,"internal_node_id":"0.0-6.0-0.11","subject_id":"5f330016a5e57f0d8ce4e77a","study_id":"60edd13110225f80f9f3709b","session_id":"6196c1f1846ea7c085e146d1","condition":"full-information","relevant_dimensions":["antennae","pattern"],"bee_group":{"antennae":"B","wings":"X","pattern":"D","legs":"X"},"bonus":1.0200000000000005},{"rt":171,"stimulus":"bees-with-color/bee-B1DM.svg","response":1,"trial_type":"image-button-response","trial_index":148,"time_elapsed":1094136,"internal_node_id":"0.0-6.0-0.12","subject_id":"5f330016a5e57f0d8ce4e77a","study_id":"60edd13110225f80f9f3709b","session_id":"6196c1f1846ea7c085e146d1","condition":"full-information","relevant_dimensions":["antennae","pattern"],"bee_group":{"antennae":"B","wings":"X","pattern":"D","legs":"X"},"bonus":1.0200000000000005},{"rt":115,"stimulus":"bees-with-color/bee-B2DM.svg","response":1,"trial_type":"image-button-response","trial_index":149,"time_elapsed":1094253,"internal_node_id":"0.0-6.0-0.13","subject_id":"5f330016a5e57f0d8ce4e77a","study_id":"60edd13110225f80f9f3709b","session_id":"6196c1f1846ea7c085e146d1","condition":"full-information","relevant_dimensions":["antennae","pattern"],"bee_group":{"antennae":"B","wings":"X","pattern":"D","legs":"X"},"bonus":1.0200000000000005},{"rt":155,"stimulus":"bees-with-color/bee-B1SF.svg","response":1,"trial_type":"image-button-response","trial_index":150,"time_elapsed":1094410,"internal_node_id":"0.0-6.0-0.14","subject_id":"5f330016a5e57f0d8ce4e77a","study_id":"60edd13110225f80f9f3709b","session_id":"6196c1f1846ea7c085e146d1","condition":"full-information","relevant_dimensions":["antennae","pattern"],"bee_group":{"antennae":"B","wings":"X","pattern":"D","legs":"X"},"bonus":1.0200000000000005},{"rt":136,"stimulus":"bees-with-color/bee-A1DF.svg","response":1,"trial_type":"image-button-response","trial_index":151,"time_elapsed":1094547,"internal_node_id":"0.0-6.0-0.15","subject_id":"5f330016a5e57f0d8ce4e77a","study_id":"60edd13110225f80f9f3709b","session_id":"6196c1f1846ea7c085e146d1","condition":"full-information","relevant_dimensions":["antennae","pattern"],"bee_group":{"antennae":"B","wings":"X","pattern":"D","legs":"X"},"bonus":1.0200000000000005},{"rt":152,"stimulus":"bees-with-color/bee-A2DF.svg","response":1,"trial_type":"image-button-response","trial_index":152,"time_elapsed":1094698,"internal_node_id":"0.0-6.0-0.16","subject_id":"5f330016a5e57f0d8ce4e77a","study_id":"60edd13110225f80f9f3709b","session_id":"6196c1f1846ea7c085e146d1","condition":"full-information","relevant_dimensions":["antennae","pattern"],"bee_group":{"antennae":"B","wings":"X","pattern":"D","legs":"X"},"bonus":1.0200000000000005},{"rt":156,"stimulus":"bees-with-color/bee-A1SM.svg","response":1,"trial_type":"image-button-response","trial_index":153,"time_elapsed":1094857,"internal_node_id":"0.0-6.0-0.17","subject_id":"5f330016a5e57f0d8ce4e77a","study_id":"60edd13110225f80f9f3709b","session_id":"6196c1f1846ea7c085e146d1","condition":"full-information","relevant_dimensions":["antennae","pattern"],"bee_group":{"antennae":"B","wings":"X","pattern":"D","legs":"X"},"bonus":1.0200000000000005},{"rt":281,"stimulus":"bees-with-color/bee-A2SM.svg","response":1,"trial_type":"image-button-response","trial_index":154,"time_elapsed":1095139,"internal_node_id":"0.0-6.0-0.18","subject_id":"5f330016a5e57f0d8ce4e77a","study_id":"60edd13110225f80f9f3709b","session_id":"6196c1f1846ea7c085e146d1","condition":"full-information","relevant_dimensions":["antennae","pattern"],"bee_group":{"antennae":"B","wings":"X","pattern":"D","legs":"X"},"bonus":1.0200000000000005},{"rt":164,"stimulus":"bees-with-color/bee-B1DF.svg","response":1,"trial_type":"image-button-response","trial_index":155,"time_elapsed":1095304,"internal_node_id":"0.0-6.0-0.19","subject_id":"5f330016a5e57f0d8ce4e77a","study_id":"60edd13110225f80f9f3709b","session_id":"6196c1f1846ea7c085e146d1","condition":"full-information","relevant_dimensions":["antennae","pattern"],"bee_group":{"antennae":"B","wings":"X","pattern":"D","legs":"X"},"bonus":1.0200000000000005},{"rt":155,"stimulus":"bees-with-color/bee-B2DM.svg","response":1,"trial_type":"image-button-response","trial_index":156,"time_elapsed":1095461,"internal_node_id":"0.0-6.0-0.20","subject_id":"5f330016a5e57f0d8ce4e77a","study_id":"60edd13110225f80f9f3709b","session_id":"6196c1f1846ea7c085e146d1","condition":"full-information","relevant_dimensions":["antennae","pattern"],"bee_group":{"antennae":"B","wings":"X","pattern":"D","legs":"X"},"bonus":1.0200000000000005},{"rt":159,"stimulus":"bees-with-color/bee-A1DF.svg","response":1,"trial_type":"image-button-response","trial_index":157,"time_elapsed":1095620,"internal_node_id":"0.0-6.0-0.21","subject_id":"5f330016a5e57f0d8ce4e77a","study_id":"60edd13110225f80f9f3709b","session_id":"6196c1f1846ea7c085e146d1","condition":"full-information","relevant_dimensions":["antennae","pattern"],"bee_group":{"antennae":"B","wings":"X","pattern":"D","legs":"X"},"bonus":1.0200000000000005},{"rt":159,"stimulus":"bees-with-color/bee-B1SM.svg","response":1,"trial_type":"image-button-response","trial_index":158,"time_elapsed":1095779,"internal_node_id":"0.0-6.0-0.22","subject_id":"5f330016a5e57f0d8ce4e77a","study_id":"60edd13110225f80f9f3709b","session_id":"6196c1f1846ea7c085e146d1","condition":"full-information","relevant_dimensions":["antennae","pattern"],"bee_group":{"antennae":"B","wings":"X","pattern":"D","legs":"X"},"bonus":1.0200000000000005},{"rt":153,"stimulus":"bees-with-color/bee-A2SF.svg","response":1,"trial_type":"image-button-response","trial_index":159,"time_elapsed":1095932,"internal_node_id":"0.0-6.0-0.23","subject_id":"5f330016a5e57f0d8ce4e77a","study_id":"60edd13110225f80f9f3709b","session_id":"6196c1f1846ea7c085e146d1","condition":"full-information","relevant_dimensions":["antennae","pattern"],"bee_group":{"antennae":"B","wings":"X","pattern":"D","legs":"X"},"bonus":1.0200000000000005},{"rt":159,"stimulus":"bees-with-color/bee-B2SM.svg","response":1,"trial_type":"image-button-response","trial_index":160,"time_elapsed":1096093,"internal_node_id":"0.0-6.0-0.24","subject_id":"5f330016a5e57f0d8ce4e77a","study_id":"60edd13110225f80f9f3709b","session_id":"6196c1f1846ea7c085e146d1","condition":"full-information","relevant_dimensions":["antennae","pattern"],"bee_group":{"antennae":"B","wings":"X","pattern":"D","legs":"X"},"bonus":1.0200