[{"success":true,"trial_type":"fullscreen","trial_index":0,"time_elapsed":47362,"internal_node_id":"0.0-0.0","subject_id":"5d66f23706e589000157e7ec","study_id":"6197b3f67c2b5cd3b6d9596a","session_id":"619beefca948f20676e857bb","condition":"full-information","relevant_dimensions":["antennae","wings"],"bee_group":{"antennae":"A","wings":"2","pattern":"X","legs":"X"},"bonus":1.0800000000000005},{"success":true,"timeout":false,"failed_images":[],"failed_audio":[],"failed_video":[],"trial_type":"preload","trial_index":1,"time_elapsed":49046,"internal_node_id":"0.0-1.0","subject_id":"5d66f23706e589000157e7ec","study_id":"6197b3f67c2b5cd3b6d9596a","session_id":"619beefca948f20676e857bb","condition":"full-information","relevant_dimensions":["antennae","wings"],"bee_group":{"antennae":"A","wings":"2","pattern":"X","legs":"X"},"bonus":1.0800000000000005},{"rt":1333.9000000059605,"stimulus":"Welcome! Press any key to begin.","response":" ","trial_type":"html-keyboard-response","trial_index":2,"time_elapsed":50383,"internal_node_id":"0.0-2.0","subject_id":"5d66f23706e589000157e7ec","study_id":"6197b3f67c2b5cd3b6d9596a","session_id":"619beefca948f20676e857bb","condition":"full-information","relevant_dimensions":["antennae","wings"],"bee_group":{"antennae":"A","wings":"2","pattern":"X","legs":"X"},"bonus":1.0800000000000005},{"view_history":[{"page_index":0,"viewing_time":6518.29999999702},{"page_index":1,"viewing_time":16752.5},{"page_index":2,"viewing_time":19308.70000000298},{"page_index":3,"viewing_time":28706.89999999106},{"page_index":4,"viewing_time":9437.10000000894},{"page_index":5,"viewing_time":23205.70000000298},{"page_index":6,"viewing_time":10074},{"page_index":7,"viewing_time":8265.699999988079},{"page_index":8,"viewing_time":4806.70000000298},{"page_index":9,"viewing_time":23079},{"page_index":10,"viewing_time":11495.5},{"page_index":11,"viewing_time":15840.20000000298},{"page_index":12,"viewing_time":64403.90000000596},{"page_index":13,"viewing_time":6280.5999999940395},{"page_index":14,"viewing_time":2299.2000000029802}],"rt":250474.29999999702,"trial_type":"instructions","trial_index":3,"time_elapsed":300859,"internal_node_id":"0.0-3.0-0.0","subject_id":"5d66f23706e589000157e7ec","study_id":"6197b3f67c2b5cd3b6d9596a","session_id":"619beefca948f20676e857bb","condition":"full-information","relevant_dimensions":["antennae","wings"],"bee_group":{"antennae":"A","wings":"2","pattern":"X","legs":"X"},"bonus":1.0800000000000005},{"rt":24739.20000000298,"response":{"Q0":["Two or six legs","Stripes or spots on body","Single or double wings","Antennae or no antennae"]},"question_order":[0],"trial_type":"survey-multi-select","trial_index":4,"time_elapsed":325604,"internal_node_id":"0.0-3.0-1.0","subject_id":"5d66f23706e589000157e7ec","study_id":"6197b3f67c2b5cd3b6d9596a","session_id":"619beefca948f20676e857bb","condition":"full-information","relevant_dimensions":["antennae","wings"],"bee_group":{"antennae":"A","wings":"2","pattern":"X","legs":"X"},"correct":true,"bonus":1.0800000000000005},{"rt":39820.40000000596,"response":{"Q1":"No.","Q2":"Based on the four features of the bee.","Q3":"You learn if it was friendly or dangerous, but do not alter your bonus."},"question_order":[0,1,2],"trial_type":"survey-multi-choice","trial_index":5,"time_elapsed":365427,"internal_node_id":"0.0-3.0-2.0","subject_id":"5d66f23706e589000157e7ec","study_id":"6197b3f67c2b5cd3b6d9596a","session_id":"619beefca948f20676e857bb","condition":"full-information","relevant_dimensions":["antennae","wings"],"bee_group":{"antennae":"A","wings":"2","pattern":"X","legs":"X"},"correct":true,"bonus":1.0800000000000005},{"rt":38756.59999999404,"stimulus":"<p>Congrats, you got everything right<br>When you're ready, click the button below to continue to the experiment.</p>","response":0,"trial_type":"html-button-response","trial_index":6,"time_elapsed":404185,"internal_node_id":"0.0-3.0-3.0","subject_id":"5d66f23706e589000157e7ec","study_id":"6197b3f67c2b5cd3b6d9596a","session_id":"619beefca948f20676e857bb","condition":"full-information","relevant_dimensions":["antennae","wings"],"bee_group":{"antennae":"A","wings":"2","pattern":"X","legs":"X"},"bonus":1.0800000000000005},{"rt":12846.09999999404,"stimulus":"bees-with-color/bee-A2DM.svg","response":1,"trial_type":"image-button-response","trial_index":7,"time_elapsed":417034,"internal_node_id":"0.0-4.0-0.0","subject_id":"5d66f23706e589000157e7ec","study_id":"6197b3f67c2b5cd3b6d9596a","session_id":"619beefca948f20676e857bb","condition":"full-information","relevant_dimensions":["antennae","wings"],"bee_group":{"antennae":"A","wings":"2","pattern":"X","legs":"X"},"action":"avoid","summary":"good-avoid","bonus":1.0800000000000005},{"rt":13189.5,"stimulus":"\n                    <p><b>Action: <em>avoid</em></b></p>\n                    <p>This is the bee that you just saw.</p>\n                    <img src=\"bees-with-color/bee-A2DM.svg\" width=\"200\">\n                    <p><span class=\"greenText\">Good choice!</span>  This bee would have stung you.<br>Your bonus pay is unchanged, and remains at $0.54.</p>\n            ","response":0,"trial_type":"html-button-response","trial_index":8,"time_elapsed":430227,"internal_node_id":"0.0-4.0-1.0","subject_id":"5d66f23706e589000157e7ec","study_id":"6197b3f67c2b5cd3b6d9596a","session_id":"619beefca948f20676e857bb","condition":"full-information","relevant_dimensions":["antennae","wings"],"bee_group":{"antennae":"A","wings":"2","pattern":"X","legs":"X"},"bonus":1.0800000000000005},{"rt":4017.5,"stimulus":"bees-with-color/bee-A1DF.svg","response":1,"trial_type":"image-button-response","trial_index":9,"time_elapsed":434247,"internal_node_id":"0.0-4.0-0.1","subject_id":"5d66f23706e589000157e7ec","study_id":"6197b3f67c2b5cd3b6d9596a","session_id":"619beefca948f20676e857bb","condition":"full-information","relevant_dimensions":["antennae","wings"],"bee_group":{"antennae":"A","wings":"2","pattern":"X","legs":"X"},"action":"avoid","summary":"bad-avoid","bonus":1.0800000000000005},{"rt":20672.80000001192,"stimulus":"\n                    <p><b>Action: <em>avoid</em></b></p>\n                    <p>This is the bee that you just saw.</p>\n                    <img src=\"bees-with-color/bee-A1DF.svg\" width=\"200\">\n                    <p><span class=\"redText\">Bad choice,</span> the bee was friendly.<br>Your bonus pay is unchanged, and remains at $0.54.</p>\n            ","response":0,"trial_type":"html-button-response","trial_index":10,"time_elapsed":454922,"internal_node_id":"0.0-4.0-1.1","subject_id":"5d66f23706e589000157e7ec","study_id":"6197b3f67c2b5cd3b6d9596a","session_id":"619beefca948f20676e857bb","condition":"full-information","relevant_dimensions":["antennae","wings"],"bee_group":{"antennae":"A","wings":"2","pattern":"X","legs":"X"},"bonus":1.0800000000000005},{"rt":3173.2999999970198,"stimulus":"bees-with-color/bee-A2SF.svg","response":1,"trial_type":"image-button-response","trial_index":11,"time_elapsed":458098,"internal_node_id":"0.0-4.0-0.2","subject_id":"5d66f23706e589000157e7ec","study_id":"6197b3f67c2b5cd3b6d9596a","session_id":"619beefca948f20676e857bb","condition":"full-information","relevant_dimensions":["antennae","wings"],"bee_group":{"antennae":"A","wings":"2","pattern":"X","legs":"X"},"action":"avoid","summary":"good-avoid","bonus":1.0800000000000005},{"rt":3630.3999999910593,"stimulus":"\n                    <p><b>Action: <em>avoid</em></b></p>\n                    <p>This is the bee that you just saw.</p>\n                    <img src=\"bees-with-color/bee-A2SF.svg\" width=\"200\">\n                    <p><span class=\"greenText\">Good choice!</span>  This bee would have stung you.<br>Your bonus pay is unchanged, and remains at $0.54.</p>\n            ","response":0,"trial_type":"html-button-response","trial_index":12,"time_elapsed":461730,"internal_node_id":"0.0-4.0-1.2","subject_id":"5d66f23706e589000157e7ec","study_id":"6197b3f67c2b5cd3b6d9596a","session_id":"619beefca948f20676e857bb","condition":"full-information","relevant_dimensions":["antennae","wings"],"bee_group":{"antennae":"A","wings":"2","pattern":"X","legs":"X"},"bonus":1.0800000000000005},{"rt":3027.7999999970198,"stimulus":"bees-with-color/bee-B2DF.svg","response":1,"trial_type":"image-button-response","trial_index":13,"time_elapsed":464760,"internal_node_id":"0.0-4.0-0.3","subject_id":"5d66f23706e589000157e7ec","study_id":"6197b3f67c2b5cd3b6d9596a","session_id":"619beefca948f20676e857bb","condition":"full-information","relevant_dimensions":["antennae","wings"],"bee_group":{"antennae":"A","wings":"2","pattern":"X","legs":"X"},"action":"avoid","summary":"bad-avoid","bonus":1.0800000000000005},{"rt":2042.8999999910593,"stimulus":"\n                    <p><b>Action: <em>avoid</em></b></p>\n                    <p>This is the bee that you just saw.</p>\n                    <img src=\"bees-with-color/bee-B2DF.svg\" width=\"200\">\n                    <p><span class=\"redText\">Bad choice,</span> the bee was friendly.<br>Your bonus pay is unchanged, and remains at $0.54.</p>\n            ","response":0,"trial_type":"html-button-response","trial_index":14,"time_elapsed":466805,"internal_node_id":"0.0-4.0-1.3","subject_id":"5d66f23706e589000157e7ec","study_id":"6197b3f67c2b5cd3b6d9596a","session_id":"619beefca948f20676e857bb","condition":"full-information","relevant_dimensions":["antennae","wings"],"bee_group":{"antennae":"A","wings":"2","pattern":"X","legs":"X"},"bonus":1.0800000000000005},{"rt":4605.5999999940395,"stimulus":"bees-with-color/bee-A1DM.svg","response":1,"trial_type":"image-button-response","trial_index":15,"time_elapsed":471412,"internal_node_id":"0.0-4.0-0.4","subject_id":"5d66f23706e589000157e7ec","study_id":"6197b3f67c2b5cd3b6d9596a","session_id":"619beefca948f20676e857bb","condition":"full-information","relevant_dimensions":["antennae","wings"],"bee_group":{"antennae":"A","wings":"2","pattern":"X","legs":"X"},"action":"avoid","summary":"bad-avoid","bonus":1.0800000000000005},{"rt":1863.5,"stimulus":"\n                    <p><b>Action: <em>avoid</em></b></p>\n                    <p>This is the bee that you just saw.</p>\n                    <img src=\"bees-with-color/bee-A1DM.svg\" width=\"200\">\n                    <p><span class=\"redText\">Bad choice,</span> the bee was friendly.<br>Your bonus pay is unchanged, and remains at $0.54.</p>\n            ","response":0,"trial_type":"html-button-response","trial_index":16,"time_elapsed":473278,"internal_node_id":"0.0-4.0-1.4","subject_id":"5d66f23706e589000157e7ec","study_id":"6197b3f67c2b5cd3b6d9596a","session_id":"619beefca948f20676e857bb","condition":"full-information","relevant_dimensions":["antennae","wings"],"bee_group":{"antennae":"A","wings":"2","pattern":"X","legs":"X"},"bonus":1.0800000000000005},{"rt":4000.2999999970198,"stimulus":"bees-with-color/bee-A1SM.svg","response":1,"trial_type":"image-button-response","trial_index":17,"time_elapsed":477280,"internal_node_id":"0.0-4.0-0.5","subject_id":"5d66f23706e589000157e7ec","study_id":"6197b3f67c2b5cd3b6d9596a","session_id":"619beefca948f20676e857bb","condition":"full-information","relevant_dimensions":["antennae","wings"],"bee_group":{"antennae":"A","wings":"2","pattern":"X","legs":"X"},"action":"avoid","summary":"bad-avoid","bonus":1.0800000000000005},{"rt":2066.300000011921,"stimulus":"\n                    <p><b>Action: <em>avoid</em></b></p>\n                    <p>This is the bee that you just saw.</p>\n                    <img src=\"bees-with-color/bee-A1SM.svg\" width=\"200\">\n                    <p><span class=\"redText\">Bad choice,</span> the bee was friendly.<br>Your bonus pay is unchanged, and remains at $0.54.</p>\n            ","response":0,"trial_type":"html-button-response","trial_index":18,"time_elapsed":479349,"internal_node_id":"0.0-4.0-1.5","subject_id":"5d66f23706e589000157e7ec","study_id":"6197b3f67c2b5cd3b6d9596a","session_id":"619beefca948f20676e857bb","condition":"full-information","relevant_dimensions":["antennae","wings"],"bee_group":{"antennae":"A","wings":"2","pattern":"X","legs":"X"},"bonus":1.0800000000000005},{"rt":7422.70000000298,"stimulus":"bees-with-color/bee-B2SF.svg","response":1,"trial_type":"image-button-response","trial_index":19,"time_elapsed":486774,"internal_node_id":"0.0-4.0-0.6","subject_id":"5d66f23706e589000157e7ec","study_id":"6197b3f67c2b5cd3b6d9596a","session_id":"619beefca948f20676e857bb","condition":"full-information","relevant_dimensions":["antennae","wings"],"bee_group":{"antennae":"A","wings":"2","pattern":"X","legs":"X"},"action":"avoid","summary":"bad-avoid","bonus":1.0800000000000005},{"rt":11131.89999999106,"stimulus":"\n                    <p><b>Action: <em>avoid</em></b></p>\n                    <p>This is the bee that you just saw.</p>\n                    <img src=\"bees-with-color/bee-B2SF.svg\" width=\"200\">\n                    <p><span class=\"redText\">Bad choice,</span> the bee was friendly.<br>Your bonus pay is unchanged, and remains at $0.54.</p>\n            ","response":0,"trial_type":"html-button-response","trial_index":20,"time_elapsed":497908,"internal_node_id":"0.0-4.0-1.6","subject_id":"5d66f23706e589000157e7ec","study_id":"6197b3f67c2b5cd3b6d9596a","session_id":"619beefca948f20676e857bb","condition":"full-information","relevant_dimensions":["antennae","wings"],"bee_group":{"antennae":"A","wings":"2","pattern":"X","legs":"X"},"bonus":1.0800000000000005},{"rt":5408.9000000059605,"stimulus":"bees-with-color/bee-A1SF.svg","response":1,"trial_type":"image-button-response","trial_index":21,"time_elapsed":503319,"internal_node_id":"0.0-4.0-0.7","subject_id":"5d66f23706e589000157e7ec","study_id":"6197b3f67c2b5cd3b6d9596a","session_id":"619beefca948f20676e857bb","condition":"full-information","relevant_dimensions":["antennae","wings"],"bee_group":{"antennae":"A","wings":"2","pattern":"X","legs":"X"},"action":"avoid","summary":"bad-avoid","bonus":1.0800000000000005},{"rt":28842.20000000298,"stimulus":"\n                    <p><b>Action: <em>avoid</em></b></p>\n                    <p>This is the bee that you just saw.</p>\n                    <img src=\"bees-with-color/bee-A1SF.svg\" width=\"200\">\n                    <p><span class=\"redText\">Bad choice,</span> the bee was friendly.<br>Your bonus pay is unchanged, and remains at $0.54.</p>\n            ","response":0,"trial_type":"html-button-response","trial_index":22,"time_elapsed":532163,"internal_node_id":"0.0-4.0-1.7","subject_id":"5d66f23706e589000157e7ec","study_id":"6197b3f67c2b5cd3b6d9596a","session_id":"619beefca948f20676e857bb","condition":"full-information","relevant_dimensions":["antennae","wings"],"bee_group":{"antennae":"A","wings":"2","pattern":"X","legs":"X"},"bonus":1.0800000000000005},{"rt":9357.60000000894,"stimulus":"bees-with-color/bee-B1DM.svg","response":0,"trial_type":"image-button-response","trial_index":23,"time_elapsed":541524,"internal_node_id":"0.0-4.0-0.8","subject_id":"5d66f23706e589000157e7ec","study_id":"6197b3f67c2b5cd3b6d9596a","session_id":"619beefca948f20676e857bb","condition":"full-information","relevant_dimensions":["antennae","wings"],"bee_group":{"antennae":"A","wings":"2","pattern":"X","legs":"X"},"action":"harvest","summary":"good-harvest","bonus":1.0800000000000005},{"rt":6616,"stimulus":"\n                    <p><b>Action: <em>harvest</em></b></p>\n                    <p>This is the bee that you just saw.</p>\n                    <img src=\"bees-with-color/bee-B1DM.svg\" width=\"200\">\n                    <p><span class=\"greenText\"><b>Successful harvest!</b></span><br>Your pay has increased by $0.02. Your bonus pay is now $0.56.</p>\n            ","response":0,"trial_type":"html-button-response","trial_index":24,"time_elapsed":548142,"internal_node_id":"0.0-4.0-1.8","subject_id":"5d66f23706e589000157e7ec","study_id":"6197b3f67c2b5cd3b6d9596a","session_id":"619beefca948f20676e857bb","condition":"full-information","relevant_dimensions":["antennae","wings"],"bee_group":{"antennae":"A","wings":"2","pattern":"X","legs":"X"},"bonus":1.0800000000000005},{"rt":3542.4000000059605,"stimulus":"bees-with-color/bee-B1DF.svg","response":1,"trial_type":"image-button-response","trial_index":25,"time_elapsed":551686,"internal_node_id":"0.0-4.0-0.9","subject_id":"5d66f23706e589000157e7ec","study_id":"6197b3f67c2b5cd3b6d9596a","session_id":"619beefca948f20676e857bb","condition":"full-information","relevant_dimensions":["antennae","wings"],"bee_group":{"antennae":"A","wings":"2","pattern":"X","legs":"X"},"action":"avoid","summary":"bad-avoid","bonus":1.0800000000000005},{"rt":6642.29999999702,"stimulus":"\n                    <p><b>Action: <em>avoid</em></b></p>\n                    <p>This is the bee that you just saw.</p>\n                    <img src=\"bees-with-color/bee-B1DF.svg\" width=\"200\">\n                    <p><span class=\"redText\">Bad choice,</span> the bee was friendly.<br>Your bonus pay is unchanged, and remains at $0.56.</p>\n            ","response":0,"trial_type":"html-button-response","trial_index":26,"time_elapsed":558331,"internal_node_id":"0.0-4.0-1.9","subject_id":"5d66f23706e589000157e7ec","study_id":"6197b3f67c2b5cd3b6d9596a","session_id":"619beefca948f20676e857bb","condition":"full-information","relevant_dimensions":["antennae","wings"],"bee_group":{"antennae":"A","wings":"2","pattern":"X","legs":"X"},"bonus":1.0800000000000005},{"rt":4292.5999999940395,"stimulus":"bees-with-color/bee-B1SF.svg","response":1,"trial_type":"image-button-response","trial_index":27,"time_elapsed":562626,"internal_node_id":"0.0-4.0-0.10","subject_id":"5d66f23706e589000157e7ec","study_id":"6197b3f67c2b5cd3b6d9596a","session_id":"619beefca948f20676e857bb","condition":"full-information","relevant_dimensions":["antennae","wings"],"bee_group":{"antennae":"A","wings":"2","pattern":"X","legs":"X"},"action":"avoid","summary":"bad-avoid","bonus":1.0800000000000005},{"rt":15644.70000000298,"stimulus":"\n                    <p><b>Action: <em>avoid</em></b></p>\n                    <p>This is the bee that you just saw.</p>\n                    <img src=\"bees-with-color/bee-B1SF.svg\" width=\"200\">\n                    <p><span class=\"redText\">Bad choice,</span> the bee was friendly.<br>Your bonus pay is unchanged, and remains at $0.56.</p>\n            ","response":0,"trial_type":"html-button-response","trial_index":28,"time_elapsed":578272,"internal_node_id":"0.0-4.0-1.10","subject_id":"5d66f23706e589000157e7ec","study_id":"6197b3f67c2b5cd3b6d9596a","session_id":"619beefca948f20676e857bb","condition":"full-information","relevant_dimensions":["antennae","wings"],"bee_group":{"antennae":"A","wings":"2","pattern":"X","legs":"X"},"bonus":1.0800000000000005},{"rt":6063.199999988079,"stimulus":"bees-with-color/bee-B2SM.svg","response":1,"trial_type":"image-button-response","trial_index":29,"time_elapsed":584338,"internal_node_id":"0.0-4.0-0.11","subject_id":"5d66f23706e589000157e7ec","study_id":"6197b3f67c2b5cd3b6d9596a","session_id":"619beefca948f20676e857bb","condition":"full-information","relevant_dimensions":["antennae","wings"],"bee_group":{"antennae":"A","wings":"2","pattern":"X","legs":"X"},"action":"avoid","summary":"bad-avoid","bonus":1.0800000000000005},{"rt":4135.9000000059605,"stimulus":"\n                    <p><b>Action: <em>avoid</em></b></p>\n                    <p>This is the bee that you just saw.</p>\n                    <img src=\"bees-with-color/bee-B2SM.svg\" width=\"200\">\n                    <p><span class=\"redText\">Bad choice,</span> the bee was friendly.<br>Your bonus pay is unchanged, and remains at $0.56.</p>\n            ","response":0,"trial_type":"html-button-response","trial_index":30,"time_elapsed":588475,"internal_node_id":"0.0-4.0-1.11","subject_id":"5d66f23706e589000157e7ec","study_id":"6197b3f67c2b5cd3b6d9596a","session_id":"619beefca948f20676e857bb","condition":"full-information","relevant_dimensions":["antennae","wings"],"bee_group":{"antennae":"A","wings":"2","pattern":"X","legs":"X"},"bonus":1.0800000000000005},{"rt":3529.1000000089407,"stimulus":"bees-with-color/bee-A2DF.svg","response":1,"trial_type":"image-button-response","trial_index":31,"time_elapsed":592006,"internal_node_id":"0.0-4.0-0.12","subject_id":"5d66f23706e589000157e7ec","study_id":"6197b3f67c2b5cd3b6d9596a","session_id":"619beefca948f20676e857bb","condition":"full-information","relevant_dimensions":["antennae","wings"],"bee_group":{"antennae":"A","wings":"2","pattern":"X","legs":"X"},"action":"avoid","summary":"good-avoid","bonus":1.0800000000000005},{"rt":7809.800000011921,"stimulus":"\n                    <p><b>Action: <em>avoid</em></b></p>\n                    <p>This is the bee that you just saw.</p>\n                    <img src=\"bees-with-color/bee-A2DF.svg\" width=\"200\">\n                    <p><span class=\"greenText\">Good choice!</span>  This bee would have stung you.<br>Your bonus pay is unchanged, and remains at $0.56.</p>\n            ","response":0,"trial_type":"html-button-response","trial_index":32,"time_elapsed":599818,"internal_node_id":"0.0-4.0-1.12","subject_id":"5d66f23706e589000157e7ec","study_id":"6197b3f67c2b5cd3b6d9596a","session_id":"619beefca948f20676e857bb","condition":"full-information","relevant_dimensions":["antennae","wings"],"bee_group":{"antennae":"A","wings":"2","pattern":"X","legs":"X"},"bonus":1.0800000000000005},{"rt":1859.0999999940395,"stimulus":"bees-with-color/bee-B2DM.svg","response":1,"trial_type":"image-button-response","trial_index":33,"time_elapsed":601679,"internal_node_id":"0.0-4.0-0.13","subject_id":"5d66f23706e589000157e7ec","study_id":"6197b3f67c2b5cd3b6d9596a","session_id":"619beefca948f20676e857bb","condition":"full-information","relevant_dimensions":["antennae","wings"],"bee_group":{"antennae":"A","wings":"2","pattern":"X","legs":"X"},"action":"avoid","summary":"bad-avoid","bonus":1.0800000000000005},{"rt":1477.2000000029802,"stimulus":"\n                    <p><b>Action: <em>avoid</em></b></p>\n                    <p>This is the bee that you just saw.</p>\n                    <img src=\"bees-with-color/bee-B2DM.svg\" width=\"200\">\n                    <p><span class=\"redText\">Bad choice,</span> the bee was friendly.<br>Your bonus pay is unchanged, and remains at $0.56.</p>\n            ","response":0,"trial_type":"html-button-response","trial_index":34,"time_elapsed":603158,"internal_node_id":"0.0-4.0-1.13","subject_id":"5d66f23706e589000157e7ec","study_id":"6197b3f67c2b5cd3b6d9596a","session_id":"619beefca948f20676e857bb","condition":"full-information","relevant_dimensions":["antennae","wings"],"bee_group":{"antennae":"A","wings":"2","pattern":"X","legs":"X"},"bonus":1.0800000000000005},{"rt":1625.7999999970198,"stimulus":"bees-with-color/bee-A2SM.svg","response":1,"trial_type":"image-button-response","trial_index":35,"time_elapsed":604786,"internal_node_id":"0.0-4.0-0.14","subject_id":"5d66f23706e589000157e7ec","study_id":"6197b3f67c2b5cd3b6d9596a","session_id":"619beefca948f20676e857bb","condition":"full-information","relevant_dimensions":["antennae","wings"],"bee_group":{"antennae":"A","wings":"2","pattern":"X","legs":"X"},"action":"avoid","summary":"good-avoid","bonus":1.0800000000000005},{"rt":3348.2000000029802,"stimulus":"\n                    <p><b>Action: <em>avoid</em></b></p>\n                    <p>This is the bee that you just saw.</p>\n                    <img src=\"bees-with-color/bee-A2SM.svg\" width=\"200\">\n                    <p><span class=\"greenText\">Good choice!</span>  This bee would have stung you.<br>Your bonus pay is unchanged, and remains at $0.56.</p>\n            ","response":0,"trial_type":"html-button-response","trial_index":36,"time_elapsed":608136,"internal_node_id":"0.0-4.0-1.14","subject_id":"5d66f23706e589000157e7ec","study_id":"6197b3f67c2b5cd3b6d9596a","session_id":"619beefca948f20676e857bb","condition":"full-information","relevant_dimensions":["antennae","wings"],"bee_group":{"antennae":"A","wings":"2","pattern":"X","legs":"X"},"bonus":1.0800000000000005},{"rt":5031.699999988079,"stimulus":"bees-with-color/bee-B1SM.svg","response":1,"trial_type":"image-button-response","trial_index":37,"time_elapsed":613169,"internal_node_id":"0.0-4.0-0.15","subject_id":"5d66f23706e589000157e7ec","study_id":"6197b3f67c2b5cd3b6d9596a","session_id":"619beefca948f20676e857bb","condition":"full-information","relevant_dimensions":["antennae","wings"],"bee_group":{"antennae":"A","wings":"2","pattern":"X","legs":"X"},"action":"avoid","summary":"bad-avoid","bonus":1.0800000000000005},{"rt":24209.79999999702,"stimulus":"\n                    <p><b>Action: <em>avoid</em></b></p>\n                    <p>This is the bee that you just saw.</p>\n                    <img src=\"bees-with-color/bee-B1SM.svg\" width=\"200\">\n                    <p><span class=\"redText\">Bad choice,</span> the bee was friendly.<br>Your bonus pay is unchanged, and remains at $0.56.</p>\n            ","response":0,"trial_type":"html-button-response","trial_index":38,"time_elapsed":637381,"internal_node_id":"0.0-4.0-1.15","subject_id":"5d66f23706e589000157e7ec","study_id":"6197b3f67c2b5cd3b6d9596a","session_id":"619beefca948f20676e857bb","condition":"full-information","relevant_dimensions":["antennae","wings"],"bee_group":{"antennae":"A","wings":"2","pattern":"X","legs":"X"},"bonus":1.0800000000000005},{"rt":1693.2000000029802,"stimulus":"bees-with-color/bee-A2SM.svg","response":1,"trial_type":"image-button-response","trial_index":39,"time_elapsed":639076,"internal_node_id":"0.0-4.0-0.16","subject_id":"5d66f23706e589000157e7ec","study_id":"6197b3f67c2b5cd3b6d9596a","session_id":"619beefca948f20676e857bb","condition":"full-information","relevant_dimensions":["antennae","wings"],"bee_group":{"antennae":"A","wings":"2","pattern":"X","legs":"X"},"action":"avoid","summary":"good-avoid","bonus":1.0800000000000005},{"rt":1359.7999999970198,"stimulus":"\n                    <p><b>Action: <em>avoid</em></b></p>\n                    <p>This is the bee that you just saw.</p>\n                    <img src=\"bees-with-color/bee-A2SM.svg\" width=\"200\">\n                    <p><span class=\"greenText\">Good choice!</span>  This bee would have stung you.<br>Your bonus pay is unchanged, and remains at $0.56.</p>\n            ","response":0,"trial_type":"html-button-response","trial_index":40,"time_elapsed":640437,"internal_node_id":"0.0-4.0-1.16","subject_id":"5d66f23706e589000157e7ec","study_id":"6197b3f67c2b5cd3b6d9596a","session_id":"619beefca948f20676e857bb","condition":"full-information","relevant_dimensions":["antennae","wings"],"bee_group":{"antennae":"A","wings":"2","pattern":"X","legs":"X"},"bonus":1.0800000000000005},{"rt":2850.7000000029802,"stimulus":"bees-with-color/bee-B2DF.svg","response":1,"trial_type":"image-button-response","trial_index":41,"time_elapsed":643290,"internal_node_id":"0.0-4.0-0.17","subject_id":"5d66f23706e589000157e7ec","study_id":"6197b3f67c2b5cd3b6d9596a","session_id":"619beefca948f20676e857bb","condition":"full-information","relevant_dimensions":["antennae","wings"],"bee_group":{"antennae":"A","wings":"2","pattern":"X","legs":"X"},"action":"avoid","summary":"bad-avoid","bonus":1.0800000000000005},{"rt":1145,"stimulus":"\n                    <p><b>Action: <em>avoid</em></b></p>\n                    <p>This is the bee that you just saw.</p>\n                    <img src=\"bees-with-color/bee-B2DF.svg\" width=\"200\">\n                    <p><span class=\"redText\">Bad choice,</span> the bee was friendly.<br>Your bonus pay is unchanged, and remains at $0.56.</p>\n            ","response":0,"trial_type":"html-button-response","trial_index":42,"time_elapsed":644436,"internal_node_id":"0.0-4.0-1.17","subject_id":"5d66f23706e589000157e7ec","study_id":"6197b3f67c2b5cd3b6d9596a","session_id":"619beefca948f20676e857bb","condition":"full-information","relevant_dimensions":["antennae","wings"],"bee_group":{"antennae":"A","wings":"2","pattern":"X","legs":"X"},"bonus":1.0800000000000005},{"rt":4062.5999999940395,"stimulus":"bees-with-color/bee-B2SF.svg","response":0,"trial_type":"image-button-response","trial_index":43,"time_elapsed":648501,"internal_node_id":"0.0-4.0-0.18","subject_id":"5d66f23706e589000157e7ec","study_id":"6197b3f67c2b5cd3b6d9596a","session_id":"619beefca948f20676e857bb","condition":"full-information","relevant_dimensions":["antennae","wings"],"bee_group":{"antennae":"A","wings":"2","pattern":"X","legs":"X"},"action":"harvest","summary":"good-harvest","bonus":1.0800000000000005},{"rt":1541.0999999940395,"stimulus":"\n                    <p><b>Action: <em>harvest</em></b></p>\n                    <p>This is the bee that you just saw.</p>\n                    <img src=\"bees-with-color/bee-B2SF.svg\" width=\"200\">\n                    <p><span class=\"greenText\"><b>Successful harvest!</b></span><br>Your pay has increased by $0.02. Your bonus pay is now $0.58.</p>\n            ","response":0,"trial_type":"html-button-response","trial_index":44,"time_elapsed":650044,"internal_node_id":"0.0-4.0-1.18","subject_id":"5d66f23706e589000157e7ec","study_id":"6197b3f67c2b5cd3b6d9596a","session_id":"619beefca948f20676e857bb","condition":"full-information","relevant_dimensions":["antennae","wings"],"bee_group":{"antennae":"A","wings":"2","pattern":"X","legs":"X"},"bonus":1.0800000000000005},{"rt":3412.5,"stimulus":"bees-with-color/bee-A1SF.svg","response":0,"trial_type":"image-button-response","trial_index":45,"time_elapsed":653458,"internal_node_id":"0.0-4.0-0.19","subject_id":"5d66f23706e589000157e7ec","study_id":"6197b3f67c2b5cd3b6d9596a","session_id":"619beefca948f20676e857bb","condition":"full-information","relevant_dimensions":["antennae","wings"],"bee_group":{"antennae":"A","wings":"2","pattern":"X","legs":"X"},"action":"harvest","summary":"good-harvest","bonus":1.0800000000000005},{"rt":1298.6000000089407,"stimulus":"\n                    <p><b>Action: <em>harvest</em></b></p>\n                    <p>This is the bee that you just saw.</p>\n                    <img src=\"bees-with-color/bee-A1SF.svg\" width=\"200\">\n                    <p><span class=\"greenText\"><b>Successful harvest!</b></span><br>Your pay has increased by $0.02. Your bonus pay is now $0.60.</p>\n            ","response":0,"trial_type":"html-button-response","trial_index":46,"time_elapsed":654758,"internal_node_id":"0.0-4.0-1.19","subject_id":"5d66f23706e589000157e7ec","study_id":"6197b3f67c2b5cd3b6d9596a","session_id":"619beefca948f20676e857bb","condition":"full-information","relevant_dimensions":["antennae","wings"],"bee_group":{"antennae":"A","wings":"2","pattern":"X","legs":"X"},"bonus":1.0800000000000005},{"rt":3049.5999999940395,"stimulus":"bees-with-color/bee-A1SM.svg","response":0,"trial_type":"image-button-response","trial_index":47,"time_elapsed":657810,"internal_node_id":"0.0-4.0-0.20","subject_id":"5d66f23706e589000157e7ec","study_id":"6197b3f67c2b5cd3b6d9596a","session_id":"619beefca948f20676e857bb","condition":"full-information","relevant_dimensions":["antennae","wings"],"bee_group":{"antennae":"A","wings":"2","pattern":"X","legs":"X"},"action":"harvest","summary":"good-harvest","bonus":1.0800000000000005},{"rt":8337.20000000298,"stimulus":"\n                    <p><b>Action: <em>harvest</em></b></p>\n                    <p>This is the bee that you just saw.</p>\n                    <img src=\"bees-with-color/bee-A1SM.svg\" width=\"200\">\n                    <p><span class=\"greenText\"><b>Successful harvest!</b></span><br>Your pay has increased by $0.02. Your bonus pay is now $0.62.</p>\n            ","response":0,"trial_type":"html-button-response","trial_index":48,"time_elapsed":666149,"internal_node_id":"0.0-4.0-1.20","subject_id":"5d66f23706e589000157e7ec","study_id":"6197b3f67c2b5cd3b6d9596a","session_id":"619beefca948f20676e857bb","condition":"full-information","relevant_dimensions":["antennae","wings"],"bee_group":{"antennae":"A","wings":"2","pattern":"X","legs":"X"},"bonus":1.0800000000000005},{"rt":2656.7999999970198,"stimulus":"bees-with-color/bee-A2DM.svg","response":1,"trial_type":"image-button-response","trial_index":49,"time_elapsed":668808,"internal_node_id":"0.0-4.0-0.21","subject_id":"5d66f23706e589000157e7ec","study_id":"6197b3f67c2b5cd3b6d9596a","session_id":"619beefca948f20676e857bb","condition":"full-information","relevant_dimensions":["antennae","wings"],"bee_group":{"antennae":"A","wings":"2","pattern":"X","legs":"X"},"action":"avoid","summary":"good-avoid","bonus":1.0800000000000005},{"rt":1106.3999999910593,"stimulus":"\n                    <p><b>Action: <em>avoid</em></b></p>\n                    <p>This is the bee that you just saw.</p>\n                    <img src=\"bees-with-color/bee-A2DM.svg\" width=\"200\">\n                    <p><span class=\"greenText\">Good choice!</span>  This bee would have stung you.<br>Your bonus pay is unchanged, and remains at $0.62.</p>\n            ","response":0,"trial_type":"html-button-response","trial_index":50,"time_elapsed":669916,"internal_node_id":"0.0-4.0-1.21","subject_id":"5d66f23706e589000157e7ec","study_id":"6197b3f67c2b5cd3b6d9596a","session_id":"619beefca948f20676e857bb","condition":"full-information","relevant_dimensions":["antennae","wings"],"bee_group":{"antennae":"A","wings":"2","pattern":"X","legs":"X"},"bonus":1.0800000000000005},{"rt":3464.2000000029802,"stimulus":"bees-with-color/bee-B2DM.svg","response":1,"trial_type":"image-button-response","trial_index":51,"time_elapsed":673382,"internal_node_id":"0.0-4.0-0.22","subject_id":"5d66f23706e589000157e7ec","study_id":"6197b3f67c2b5cd3b6d9596a","session_id":"619beefca948f20676e857bb","condition":"full-information","relevant_dimensions":["antennae","wings"],"bee_group":{"antennae":"A","wings":"2","pattern":"X","legs":"X"},"action":"avoid","summary":"bad-avoid","bonus":1.0800000000000005},{"rt":1074.7000000029802,"stimulus":"\n                    <p><b>Action: <em>avoid</em></b></p>\n                    <p>This is the bee that you just saw.</p>\n                    <img src=\"bees-with-color/bee-B2DM.svg\" width=\"200\">\n                    <p><span class=\"redText\">Bad choice,</span> the bee was friendly.<br>Your bonus pay is unchanged, and remains at $0.62.</p>\n            ","response":0,"trial_type":"html-button-response","trial_index":52,"time_elapsed":674458,"internal_node_id":"0.0-4.0-1.22","subject_id":"5d66f23706e589000157e7ec","study_id":"6197b3f67c2b5cd3b6d9596a","session_id":"619beefca948f20676e857bb","condition":"full-information","relevant_dimensions":["antennae","wings"],"bee_group":{"antennae":"A","wings":"2","pattern":"X","legs":"X"},"bonus":1.0800000000000005},{"rt":3668.2000000029802,"stimulus":"bees-with-color/bee-B1SM.svg","response":1,"trial_type":"image-button-response","trial_index":53,"time_elapsed":678128,"internal_node_id":"0.0-4.0-0.23","subject_id":"5d66f23706e589000157e7ec","study_id":"6197b3f67c2b5cd3b6d9596a","session_id":"619beefca948f20676e857bb","condition":"full-information","relevant_dimensions":["antennae","wings"],"bee_group":{"antennae":"A","wings":"2","pattern":"X","legs":"X"},"action":"avoid","summary":"bad-avoid","bonus":1.0800000000000005},{"rt":12023.09999999404,"stimulus":"\n                    <p><b>Action: <em>avoid</em></b></p>\n                    <p>This is the bee that you just saw.</p>\n                    <img src=\"bees-with-color/bee-B1SM.svg\" width=\"200\">\n                    <p><span class=\"redText\">Bad choice,</span> the bee was friendly.<br>Your bonus pay is unchanged, and remains at $0.62.</p>\n            ","response":0,"trial_type":"html-button-response","trial_index":54,"time_elapsed":690153,"internal_node_id":"0.0-4.0-1.23","subject_id":"5d66f23706e589000157e7ec","study_id":"6197b3f67c2b5cd3b6d9596a","session_id":"619beefca948f20676e857bb","condition":"full-information","relevant_dimensions":["antennae","wings"],"bee_group":{"antennae":"A","wings":"2","pattern":"X","legs":"X"},"bonus":1.0800000000000005},{"rt":3320.5,"stimulus":"bees-with-color/bee-B1DM.svg","response":1,"trial_type":"image-button-response","trial_index":55,"time_elapsed":693476,"internal_node_id":"0.0-4.0-0.24","subject_id":"5d66f23706e589000157e7ec","study_id":"6197b3f67c2b5cd3b6d9596a","session_id":"619beefca948f20676e857bb","condition":"full-information","relevant_dimensions":["antennae","wings"],"bee_group":{"antennae":"A","wings":"2","pattern":"X","legs":"X"},"action":"avoid","summary":"bad-avoid","bonus":1.0800000000000005},{"rt":2429.9000000059605,"stimulus":"\n                    <p><b>Action: <em>avoid</em></b></p>\n                    <p>This is the bee that you just saw.</p>\n                    <img src=\"bees-with-color/bee-B1DM.svg\" width=\"200\">\n                    <p><span class=\"redText\">Bad choice,</span> the bee was friendly.<br>Your bonus pay is unchanged, and remains at $0.62.</p>\n            ","response":0,"trial_type":"html-button-response","trial_index":56,"time_elapsed":695907,"internal_node_id":"0.0-4.0-1.24","subject_id":"5d66f23706e589000157e7ec","study_id":"6197b3f67c2b5cd3b6d9596a","session_id":"619beefca948f20676e857bb","condition":"full-information","relevant_dimensions":["antennae","wings"],"bee_group":{"antennae":"A","wings":"2","pattern":"X","legs":"X"},"bonus":1.0800000000000005},{"rt":4321.20000000298,"stimulus":"bees-with-color/bee-A2DF.svg","response":1,"trial_type":"image-button-response","trial_index":57,"time_elapsed":700231,"internal_node_id":"0.0-4.0-0.25","subject_id":"5d66f23706e589000157e7ec","study_id":"6197b3f67c2b5cd3b6d9596a","session_id":"619beefca948f20676e857bb","condition":"full-information","relevant_dimensions":["antennae","wings"],"bee_group":{"antennae":"A","wings":"2","pattern":"X","legs":"X"},"action":"avoid","summary":"good-avoid","bonus":1.0800000000000005},{"rt":1438.9000000059605,"stimulus":"\n                    <p><b>Action: <em>avoid</em></b></p>\n                    <p>This is the bee that you just saw.</p>\n                    <img src=\"bees-with-color/bee-A2DF.svg\" width=\"200\">\n                    <p><span class=\"greenText\">Good choice!</span>  This bee would have stung you.<br>Your bonus pay is unchanged, and remains at $0.62.</p>\n            ","response":0,"trial_type":"html-button-response","trial_index":58,"time_elapsed":701671,"internal_node_id":"0.0-4.0-1.25","subject_id":"5d66f23706e589000157e7ec","study_id":"6197b3f67c2b5cd3b6d9596a","session_id":"619beefca948f20676e857bb","condition":"full-information","relevant_dimensions":["antennae","wings"],"bee_group":{"antennae":"A","wings":"2","pattern":"X","legs":"X"},"bonus":1.0800000000000005},{"rt":5000.399999991059,"stimulus":"bees-with-color/bee-B1DF.svg","response":1,"trial_type":"image-button-response","trial_index":59,"time_elapsed":706674,"internal_node_id":"0.0-4.0-0.26","subject_id":"5d66f23706e589000157e7ec","study_id":"6197b3f67c2b5cd3b6d9596a","session_id":"619beefca948f20676e857bb","condition":"full-information","relevant_dimensions":["antennae","wings"],"bee_group":{"antennae":"A","wings":"2","pattern":"X","legs":"X"},"action":"avoid","summary":"bad-avoid","bonus":1.0800000000000005},{"rt":962.3000000119209,"stimulus":"\n                    <p><b>Action: <em>avoid</em></b></p>\n                    <p>This is the bee that you just saw.</p>\n                    <img src=\"bees-with-color/bee-B1DF.svg\" width=\"200\">\n                    <p><span class=\"redText\">Bad choice,</span> the bee was friendly.<br>Your bonus pay is unchanged, and remains at $0.62.</p>\n            ","response":0,"trial_type":"html-button-response","trial_index":60,"time_elapsed":707638,"internal_node_id":"0.0-4.0-1.26","subject_id":"5d66f23706e589000157e7ec","study_id":"6197b3f67c2b5cd3b6d9596a","session_id":"619beefca948f20676e857bb","condition":"full-information","relevant_dimensions":["antennae","wings"],"bee_group":{"antennae":"A","wings":"2","pattern":"X","legs":"X"},"bonus":1.0800000000000005},{"rt":2573.800000011921,"stimulus":"bees-with-color/bee-A1DM.svg","response":1,"trial_type":"image-button-response","trial_index":61,"time_elapsed":710214,"internal_node_id":"0.0-4.0-0.27","subject_id":"5d66f23706e589000157e7ec","study_id":"6197b3f67c2b5cd3b6d9596a","session_id":"619beefca948f20676e857bb","condition":"full-information","relevant_dimensions":["antennae","wings"],"bee_group":{"antennae":"A","wings":"2","pattern":"X","legs":"X"},"action":"avoid","summary":"bad-avoid","bonus":1.0800000000000005},{"rt":1417,"stimulus":"\n                    <p><b>Action: <em>avoid</em></b></p>\n                    <p>This is the bee that you just saw.</p>\n                    <img src=\"bees-with-color/bee-A1DM.svg\" width=\"200\">\n                    <p><span class=\"redText\">Bad choice,</span> the bee was friendly.<br>Your bonus pay is unchanged, and remains at $0.62.</p>\n            ","response":0,"trial_type":"html-button-response","trial_index":62,"time_elapsed":711632,"internal_node_id":"0.0-4.0-1.27","subject_id":"5d66f23706e589000157e7ec","study_id":"6197b3f67c2b5cd3b6d9596a","session_id":"619beefca948f20676e857bb","condition":"full-information","relevant_dimensions":["antennae","wings"],"bee_group":{"antennae":"A","wings":"2","pattern":"X","legs":"X"},"bonus":1.0800000000000005},{"rt":9191.70000000298,"stimulus":"bees-with-color/bee-A2SF.svg","response":1,"trial_type":"image-button-response","trial_index":63,"time_elapsed":720826,"internal_node_id":"0.0-4.0-0.28","subject_id":"5d66f23706e589000157e7ec","study_id":"6197b3f67c2b5cd3b6d9596a","session_id":"619beefca948f20676e857bb","condition":"full-information","relevant_dimensions":["antennae","wings"],"bee_group":{"antennae":"A","wings":"2","pattern":"X","legs":"X"},"action":"avoid","summary":"good-avoid","bonus":1.0800000000000005},{"rt":2783.7000000029802,"stimulus":"\n                    <p><b>Action: <em>avoid</em></b></p>\n                    <p>This is the bee that you just saw.</p>\n                    <img src=\"bees-with-color/bee-A2SF.svg\" width=\"200\">\n                    <p><span class=\"greenText\">Good choice!</span>  This bee would have stung you.<br>Your bonus pay is unchanged, and remains at $0.62.</p>\n            ","response":0,"trial_type":"html-button-response","trial_index":64,"time_elapsed":723611,"internal_node_id":"0.0-4.0-1.28","subject_id":"5d66f23706e589000157e7ec","study_id":"6197b3f67c2b5cd3b6d9596a","session_id":"619beefca948f20676e857bb","condition":"full-information","relevant_dimensions":["antennae","wings"],"bee_group":{"antennae":"A","wings":"2","pattern":"X","legs":"X"},"bonus":1.0800000000000005},{"rt":4411.20000000298,"stimulus":"bees-with-color/bee-B1SF.svg","response":0,"trial_type":"image-button-response","trial_index":65,"time_elapsed":728025,"internal_node_id":"0.0-4.0-0.29","subject_id":"5d66f23706e589000157e7ec","study_id":"6197b3f67c2b5cd3b6d9596a","session_id":"619beefca948f20676e857bb","condition":"full-information","relevant_dimensions":["antennae","wings"],"bee_group":{"antennae":"A","wings":"2","pattern":"X","legs":"X"},"action":"harvest","summary":"good-harvest","bonus":1.0800000000000005},{"rt":2150.199999988079,"stimulus":"\n                    <p><b>Action: <em>harvest</em></b></p>\n                    <p>This is the bee that you just saw.</p>\n                    <img src=\"bees-with-color/bee-B1SF.svg\" width=\"200\">\n                    <p><span class=\"greenText\"><b>Successful harvest!</b></span><br>Your pay has increased by $0.02. Your bonus pay is now $0.64.</p>\n            ","response":0,"trial_type":"html-button-response","trial_index":66,"time_elapsed":730177,"internal_node_id":"0.0-4.0-1.29","subject_id":"5d66f23706e589000157e7ec","study_id":"6197b3f67c2b5cd3b6d9596a","session_id":"619beefca948f20676e857bb","condition":"full-information","relevant_dimensions":["antennae","wings"],"bee_group":{"antennae":"A","wings":"2","pattern":"X","legs":"X"},"bonus":1.0800000000000005},{"rt":4527.9000000059605,"stimulus":"bees-with-color/bee-A1DF.svg","response":1,"trial_type":"image-button-response","trial_index":67,"time_elapsed":734707,"internal_node_id":"0.0-4.0-0.30","subject_id":"5d66f23706e589000157e7ec","study_id":"6197b3f67c2b5cd3b6d9596a","session_id":"619beefca948f20676e857bb","condition":"full-information","relevant_dimensions":["antennae","wings"],"bee_group":{"antennae":"A","wings":"2","pattern":"X","legs":"X"},"action":"avoid","summary":"bad-avoid","bonus":1.0800000000000005},{"rt":1459.9000000059605,"stimulus":"\n                    <p><b>Action: <em>avoid</em></b></p>\n                    <p>This is the bee that you just saw.</p>\n                    <img src=\"bees-with-color/bee-A1DF.svg\" width=\"200\">\n                    <p><span class=\"redText\">Bad choice,</span> the bee was friendly.<br>Your bonus pay is unchanged, and remains at $0.64.</p>\n            ","response":0,"trial_type":"html-button-response","trial_index":68,"time_elapsed":736168,"internal_node_id":"0.0-4.0-1.30","subject_id":"5d66f23706e589000157e7ec","study_id":"6197b3f67c2b5cd3b6d9596a","session_id":"619beefca948f20676e857bb","condition":"full-information","relevant_dimensions":["antennae","wings"],"bee_group":{"antennae":"A","wings":"2","pattern":"X","legs":"X"},"bonus":1.0800000000000005},{"rt":5365.899999991059,"stimulus":"bees-with-color/bee-B2SM.svg","response":0,"trial_type":"image-button-response","trial_index":69,"time_elapsed":741536,"internal_node_id":"0.0-4.0-0.31","subject_id":"5d66f23706e589000157e7ec","study_id":"6197b3f67c2b5cd3b6d9596a","session_id":"619beefca948f20676e857bb","condition":"full-information","relevant_dimensions":["antennae","wings"],"bee_group":{"antennae":"A","wings":"2","pattern":"X","legs":"X"},"action":"harvest","summary":"good-harvest","bonus":1.0800000000000005},{"rt":2833.1000000089407,"stimulus":"\n                    <p><b>Action: <em>harvest</em></b></p>\n                    <p>This is the bee that you just saw.</p>\n                    <img src=\"bees-with-color/bee-B2SM.svg\" width=\"200\">\n                    <p><span class=\"greenText\"><b>Successful harvest!</b></span><br>Your pay has increased by $0.02. Your bonus pay is now $0.66.</p>\n            ","response":0,"trial_type":"html-button-response","trial_index":70,"time_elapsed":744371,"internal_node_id":"0.0-4.0-1.31","subject_id":"5d66f23706e589000157e7ec","study_id":"6197b3f67c2b5cd3b6d9596a","session_id":"619beefca948f20676e857bb","condition":"full-information","relevant_dimensions":["antennae","wings"],"bee_group":{"antennae":"A","wings":"2","pattern":"X","legs":"X"},"bonus":1.0800000000000005},{"rt":3856.4000000059605,"stimulus":"bees-with-color/bee-A1DM.svg","response":0,"trial_type":"image-button-response","trial_index":71,"time_elapsed":748230,"internal_node_id":"0.0-4.0-0.32","subject_id":"5d66f23706e589000157e7ec","study_id":"6197b3f67c2b5cd3b6d9596a","session_id":"619beefca948f20676e857bb","condition":"full-information","relevant_dimensions":["antennae","wings"],"bee_group":{"antennae":"A","wings":"2","pattern":"X","legs":"X"},"action":"harvest","summary":"good-harvest","bonus":1.0800000000000005},{"rt":1409.5,"stimulus":"\n                    <p><b>Action: <em>harvest</em></b></p>\n                    <p>This is the bee that you just saw.</p>\n                    <img src=\"bees-with-color/bee-A1DM.svg\" width=\"200\">\n                    <p><span class=\"greenText\"><b>Successful harvest!</b></span><br>Your pay has increased by $0.02. Your bonus pay is now $0.68.</p>\n            ","response":0,"trial_type":"html-button-response","trial_index":72,"time_elapsed":749641,"internal_node_id":"0.0-4.0-1.32","subject_id":"5d66f23706e589000157e7ec","study_id":"6197b3f67c2b5cd3b6d9596a","session_id":"619beefca948f20676e857bb","condition":"full-information","relevant_dimensions":["antennae","wings"],"bee_group":{"antennae":"A","wings":"2","pattern":"X","legs":"X"},"bonus":1.0800000000000005},{"rt":2677.1000000089407,"stimulus":"bees-with-color/bee-B2SF.svg","response":0,"trial_type":"image-button-response","trial_index":73,"time_elapsed":752320,"internal_node_id":"0.0-4.0-0.33","subject_id":"5d66f23706e589000157e7ec","study_id":"6197b3f67c2b5cd3b6d9596a","session_id":"619beefca948f20676e857bb","condition":"full-information","relevant_dimensions":["antennae","wings"],"bee_group":{"antennae":"A","wings":"2","pattern":"X","legs":"X"},"action":"harvest","summary":"good-harvest","bonus":1.0800000000000005},{"rt":1933.5,"stimulus":"\n                    <p><b>Action: <em>harvest</em></b></p>\n                    <p>This is the bee that you just saw.</p>\n                    <img src=\"bees-with-color/bee-B2SF.svg\" width=\"200\">\n                    <p><span class=\"greenText\"><b>Successful harvest!</b></span><br>Your pay has increased by $0.02. Your bonus pay is now $0.70.</p>\n            ","response":0,"trial_type":"html-button-response","trial_index":74,"time_elapsed":754255,"internal_node_id":"0.0-4.0-1.33","subject_id":"5d66f23706e589000157e7ec","study_id":"6197b3f67c2b5cd3b6d9596a","session_id":"619beefca948f20676e857bb","condition":"full-information","relevant_dimensions":["antennae","wings"],"bee_group":{"antennae":"A","wings":"2","pattern":"X","legs":"X"},"bonus":1.0800000000000005},{"rt":5362.4000000059605,"stimulus":"bees-with-color/bee-A1SM.svg","response":0,"trial_type":"image-button-response","trial_index":75,"time_elapsed":759619,"internal_node_id":"0.0-4.0-0.34","subject_id":"5d66f23706e589000157e7ec","study_id":"6197b3f67c2b5cd3b6d9596a","session_id":"619beefca948f20676e857bb","condition":"full-information","relevant_dimensions":["antennae","wings"],"bee_group":{"antennae":"A","wings":"2","pattern":"X","legs":"X"},"action":"harvest","summary":"good-harvest","bonus":1.0800000000000005},{"rt":1711.9000000059605,"stimulus":"\n                    <p><b>Action: <em>harvest</em></b></p>\n                    <p>This is the bee that you just saw.</p>\n                    <img src=\"bees-with-color/bee-A1SM.svg\" width=\"200\">\n                    <p><span class=\"greenText\"><b>Successful harvest!</b></span><br>Your pay has increased by $0.02. Your bonus pay is now $0.72.</p>\n            ","response":0,"trial_type":"html-button-response","trial_index":76,"time_elapsed":761333,"internal_node_id":"0.0-4.0-1.34","subject_id":"5d66f23706e589000157e7ec","study_id":"6197b3f67c2b5cd3b6d9596a","session_id":"619beefca948f20676e857bb","condition":"full-information","relevant_dimensions":["antennae","wings"],"bee_group":{"antennae":"A","wings":"2","pattern":"X","legs":"X"},"bonus":1.0800000000000005},{"rt":3250.4000000059605,"stimulus":"bees-with-color/bee-A2DF.svg","response":1,"trial_type":"image-button-response","trial_index":77,"time_elapsed":764585,"internal_node_id":"0.0-4.0-0.35","subject_id":"5d66f23706e589000157e7ec","study_id":"6197b3f67c2b5cd3b6d9596a","session_id":"619beefca948f20676e857bb","condition":"full-information","relevant_dimensions":["antennae","wings"],"bee_group":{"antennae":"A","wings":"2","pattern":"X","legs":"X"},"action":"avoid","summary":"good-avoid","bonus":1.0800000000000005},{"rt":1714.5999999940395,"stimulus":"\n                    <p><b>Action: <em>avoid</em></b></p>\n                    <p>This is the bee that you just saw.</p>\n                    <img src=\"bees-with-color/bee-A2DF.svg\" width=\"200\">\n                    <p><span class=\"greenText\">Good choice!</span>  This bee would have stung you.<br>Your bonus pay is unchanged, and remains at $0.72.</p>\n            ","response":0,"trial_type":"html-button-response","trial_index":78,"time_elapsed":766302,"internal_node_id":"0.0-4.0-1.35","subject_id":"5d66f23706e589000157e7ec","study_id":"6197b3f67c2b5cd3b6d9596a","session_id":"619beefca948f20676e857bb","condition":"full-information","relevant_dimensions":["antennae","wings"],"bee_group":{"antennae":"A","wings":"2","pattern":"X","legs":"X"},"bonus":1.0800000000000005},{"rt":6648.9000000059605,"stimulus":"bees-with-color/bee-A2SM.svg","response":1,"trial_type":"image-button-response","trial_index":79,"time_elapsed":772953,"internal_node_id":"0.0-4.0-0.36","subject_id":"5d66f23706e589000157e7ec","study_id":"6197b3f67c2b5cd3b6d9596a","session_id":"619beefca948f20676e857bb","condition":"full-information","relevant_dimensions":["antennae","wings"],"bee_group":{"antennae":"A","wings":"2","pattern":"X","legs":"X"},"action":"avoid","summary":"good-avoid","bonus":1.0800000000000005},{"rt":1739.6000000089407,"stimulus":"\n                    <p><b>Action: <em>avoid</em></b></p>\n                    <p>This is the bee that you just saw.</p>\n                    <img src=\"bees-with-color/bee-A2SM.svg\" width=\"200\">\n                    <p><span class=\"greenText\">Good choice!</span>  This bee would have stung you.<br>Your bonus pay is unchanged, and remains at $0.72.</p>\n            ","response":0,"trial_type":"html-button-response","trial_index":80,"time_elapsed":774694,"internal_node_id":"0.0-4.0-1.36","subject_id":"5d66f23706e589000157e7ec","study_id":"6197b3f67c2b5cd3b6d9596a","session_id":"619beefca948f20676e857bb","condition":"full-information","relevant_dimensions":["antennae","wings"],"bee_group":{"antennae":"A","wings":"2","pattern":"X","legs":"X"},"bonus":1.0800000000000005},{"rt":4019.6000000089407,"stimulus":"bees-with-color/bee-B2DM.svg","response":1,"trial_type":"image-button-response","trial_index":81,"time_elapsed":778716,"internal_node_id":"0.0-4.0-0.37","subject_id":"5d66f23706e589000157e7ec","study_id":"6197b3f67c2b5cd3b6d9596a","session_id":"619beefca948f20676e857bb","condition":"full-information","relevant_dimensions":["antennae","wings"],"bee_group":{"antennae":"A","wings":"2","pattern":"X","legs":"X"},"action":"avoid","summary":"bad-avoid","bonus":1.0800000000000005},{"rt":1597.9000000059605,"stimulus":"\n                    <p><b>Action: <em>avoid</em></b></p>\n                    <p>This is the bee that you just saw.</p>\n                    <img src=\"bees-with-color/bee-B2DM.svg\" width=\"200\">\n                    <p><span class=\"redText\">Bad choice,</span> the bee was friendly.<br>Your bonus pay is unchanged, and remains at $0.72.</p>\n            ","response":0,"trial_type":"html-button-response","trial_index":82,"time_elapsed":780316,"internal_node_id":"0.0-4.0-1.37","subject_id":"5d66f23706e589000157e7ec","study_id":"6197b3f67c2b5cd3b6d9596a","session_id":"619beefca948f20676e857bb","condition":"full-information","relevant_dimensions":["antennae","wings"],"bee_group":{"antennae":"A","wings":"2","pattern":"X","legs":"X"},"bonus":1.0800000000000005},{"rt":5580.9000000059605,"stimulus":"bees-with-color/bee-A1DF.svg","response":1,"trial_type":"image-button-response","trial_index":83,"time_elapsed":785899,"internal_node_id":"0.0-4.0-0.38","subject_id":"5d66f23706e589000157e7ec","study_id":"6197b3f67c2b5cd3b6d9596a","session_id":"619beefca948f20676e857bb","condition":"full-information","relevant_dimensions":["antennae","wings"],"bee_group":{"antennae":"A","wings":"2","pattern":"X","legs":"X"},"action":"avoid","summary":"bad-avoid","bonus":1.0800000000000005},{"rt":1161.7000000029802,"stimulus":"\n                    <p><b>Action: <em>avoid</em></b></p>\n                    <p>This is the bee that you just saw.</p>\n                    <img src=\"bees-with-color/bee-A1DF.svg\" width=\"200\">\n                    <p><span class=\"redText\">Bad choice,</span> the bee was friendly.<br>Your bonus pay is unchanged, and remains at $0.72.</p>\n            ","response":0,"trial_type":"html-button-response","trial_index":84,"time_elapsed":787063,"internal_node_id":"0.0-4.0-1.38","subject_id":"5d66f23706e589000157e7ec","study_id":"6197b3f67c2b5cd3b6d9596a","session_id":"619beefca948f20676e857bb","condition":"full-information","relevant_dimensions":["antennae","wings"],"bee_group":{"antennae":"A","wings":"2","pattern":"X","legs":"X"},"bonus":1.0800000000000005},{"rt":2021.1000000089407,"stimulus":"bees-with-color/bee-B1SF.svg","response":0,"trial_type":"image-button-response","trial_index":85,"time_elapsed":789087,"internal_node_id":"0.0-4.0-0.39","subject_id":"5d66f23706e589000157e7ec","study_id":"6197b3f67c2b5cd3b6d9596a","session_id":"619beefca948f20676e857bb","condition":"full-information","relevant_dimensions":["antennae","wings"],"bee_group":{"antennae":"A","wings":"2","pattern":"X","legs":"X"},"action":"harvest","summary":"good-harvest","bonus":1.0800000000000005},{"rt":1511,"stimulus":"\n                    <p><b>Action: <em>harvest</em></b></p>\n                    <p>This is the bee that you just saw.</p>\n                    <img src=\"bees-with-color/bee-B1SF.svg\" width=\"200\">\n                    <p><span class=\"greenText\"><b>Successful harvest!</b></span><br>Your pay has increased by $0.02. Your bonus pay is now $0.74.</p>\n            ","response":0,"trial_type":"html-button-response","trial_index":86,"time_elapsed":790600,"internal_node_id":"0.0-4.0-1.39","subject_id":"5d66f23706e589000157e7ec","study_id":"6197b3f67c2b5cd3b6d9596a","session_id":"619beefca948f20676e857bb","condition":"full-information","relevant_dimensions":["antennae","wings"],"bee_group":{"antennae":"A","wings":"2","pattern":"X","legs":"X"},"bonus":1.0800000000000005},{"rt":3129.7999999970198,"stimulus":"bees-with-color/bee-A2DM.svg","response":1,"trial_type":"image-button-response","trial_index":87,"time_elapsed":793732,"internal_node_id":"0.0-4.0-0.40","subject_id":"5d66f23706e589000157e7ec","study_id":"6197b3f67c2b5cd3b6d9596a","session_id":"619beefca948f20676e857bb","condition":"full-information","relevant_dimensions":["antennae","wings"],"bee_group":{"antennae":"A","wings":"2","pattern":"X","legs":"X"},"action":"avoid","summary":"good-avoid","bonus":1.0800000000000005},{"rt":1390.2000000029802,"stimulus":"\n                    <p><b>Action: <em>avoid</em></b></p>\n                    <p>This is the bee that you just saw.</p>\n                    <img src=\"bees-with-color/bee-A2DM.svg\" width=\"200\">\n                    <p><span class=\"greenText\">Good choice!</span>  This bee would have stung you.<br>Your bonus pay is unchanged, and remains at $0.74.</p>\n            ","response":0,"trial_type":"html-button-response","trial_index":88,"time_elapsed":795124,"internal_node_id":"0.0-4.0-1.40","subject_id":"5d66f23706e589000157e7ec","study_id":"6197b3f67c2b5cd3b6d9596a","session_id":"619beefca948f20676e857bb","condition":"full-information","relevant_dimensions":["antennae","wings"],"bee_group":{"antennae":"A","wings":"2","pattern":"X","legs":"X"},"bonus":1.0800000000000005},{"rt":7274,"stimulus":"bees-with-color/bee-B1DF.svg","response":1,"trial_type":"image-button-response","trial_index":89,"time_elapsed":802400,"internal_node_id":"0.0-4.0-0.41","subject_id":"5d66f23706e589000157e7ec","study_id":"6197b3f67c2b5cd3b6d9596a","session_id":"619beefca948f20676e857bb","condition":"full-information","relevant_dimensions":["antennae","wings"],"bee_group":{"antennae":"A","wings":"2","pattern":"X","legs":"X"},"action":"avoid","summary":"bad-avoid","bonus":1.0800000000000005},{"rt":3097.5,"stimulus":"\n                    <p><b>Action: <em>avoid</em></b></p>\n                    <p>This is the bee that you just saw.</p>\n                    <img src=\"bees-with-color/bee-B1DF.svg\" width=\"200\">\n                    <p><span class=\"redText\">Bad choice,</span> the bee was friendly.<br>Your bonus pay is unchanged, and remains at $0.74.</p>\n            ","response":0,"trial_type":"html-button-response","trial_index":90,"time_elapsed":805499,"internal_node_id":"0.0-4.0-1.41","subject_id":"5d66f23706e589000157e7ec","study_id":"6197b3f67c2b5cd3b6d9596a","session_id":"619beefca948f20676e857bb","condition":"full-information","relevant_dimensions":["antennae","wings"],"bee_group":{"antennae":"A","wings":"2","pattern":"X","legs":"X"},"bonus":1.0800000000000005},{"rt":6715.70000000298,"stimulus":"bees-with-color/bee-A2SF.svg","response":1,"trial_type":"image-button-response","trial_index":91,"time_elapsed":812217,"internal_node_id":"0.0-4.0-0.42","subject_id":"5d66f23706e589000157e7ec","study_id":"6197b3f67c2b5cd3b6d9596a","session_id":"619beefca948f20676e857bb","condition":"full-information","relevant_dimensions":["antennae","wings"],"bee_group":{"antennae":"A","wings":"2","pattern":"X","legs":"X"},"action":"avoid","summary":"good-avoid","bonus":1.0800000000000005},{"rt":1878,"stimulus":"\n                    <p><b>Action: <em>avoid</em></b></p>\n                    <p>This is the bee that you just saw.</p>\n                    <img src=\"bees-with-color/bee-A2SF.svg\" width=\"200\">\n                    <p><span class=\"greenText\">Good choice!</span>  This bee would have stung you.<br>Your bonus pay is unchanged, and remains at $0.74.</p>\n            ","response":0,"trial_type":"html-button-response","trial_index":92,"time_elapsed":814097,"internal_node_id":"0.0-4.0-1.42","subject_id":"5d66f23706e589000157e7ec","study_id":"6197b3f67c2b5cd3b6d9596a","session_id":"619beefca948f20676e857bb","condition":"full-information","relevant_dimensions":["antennae","wings"],"bee_group":{"antennae":"A","wings":"2","pattern":"X","legs":"X"},"bonus":1.0800000000000005},{"rt":5018.79999999702,"stimulus":"bees-with-color/bee-B1SM.svg","response":0,"trial_type":"image-button-response","trial_index":93,"time_elapsed":819117,"internal_node_id":"0.0-4.0-0.43","subject_id":"5d66f23706e589000157e7ec","study_id":"6197b3f67c2b5cd3b6d9596a","session_id":"619beefca948f20676e857bb","condition":"full-information","relevant_dimensions":["antennae","wings"],"bee_group":{"antennae":"A","wings":"2","pattern":"X","legs":"X"},"action":"harvest","summary":"good-harvest","bonus":1.0800000000000005},{"rt":1548.5999999940395,"stimulus":"\n                    <p><b>Action: <em>harvest</em></b></p>\n                    <p>This is the bee that you just saw.</p>\n                    <img src=\"bees-with-color/bee-B1SM.svg\" width=\"200\">\n                    <p><span class=\"greenText\"><b>Successful harvest!</b></span><br>Your pay has increased by $0.02. Your bonus pay is now $0.76.</p>\n            ","response":0,"trial_type":"html-button-response","trial_index":94,"time_elapsed":820668,"internal_node_id":"0.0-4.0-1.43","subject_id":"5d66f23706e589000157e7ec","study_id":"6197b3f67c2b5cd3b6d9596a","session_id":"619beefca948f20676e857bb","condition":"full-information","relevant_dimensions":["antennae","wings"],"bee_group":{"antennae":"A","wings":"2","pattern":"X","legs":"X"},"bonus":1.0800000000000005},{"rt":4177.70000000298,"stimulus":"bees-with-color/bee-B1DM.svg","response":1,"trial_type":"image-button-response","trial_index":95,"time_elapsed":824848,"internal_node_id":"0.0-4.0-0.44","subject_id":"5d66f23706e589000157e7ec","study_id":"6197b3f67c2b5cd3b6d9596a","session_id":"619beefca948f20676e857bb","condition":"full-information","relevant_dimensions":["antennae","wings"],"bee_group":{"antennae":"A","wings":"2","pattern":"X","legs":"X"},"action":"avoid","summary":"bad-avoid","bonus":1.0800000000000005},{"rt":2368.7999999970198,"stimulus":"\n                    <p><b>Action: <em>avoid</em></b></p>\n                    <p>This is the bee that you just saw.</p>\n                    <img src=\"bees-with-color/bee-B1DM.svg\" width=\"200\">\n                    <p><span class=\"redText\">Bad choice,</span> the bee was friendly.<br>Your bonus pay is unchanged, and remains at $0.76.</p>\n            ","response":0,"trial_type":"html-button-response","trial_index":96,"time_elapsed":827218,"internal_node_id":"0.0-4.0-1.44","subject_id":"5d66f23706e589000157e7ec","study_id":"6197b3f67c2b5cd3b6d9596a","session_id":"619beefca948f20676e857bb","condition":"full-information","relevant_dimensions":["antennae","wings"],"bee_group":{"antennae":"A","wings":"2","pattern":"X","legs":"X"},"bonus":1.0800000000000005},{"rt":8507.40000000596,"stimulus":"bees-with-color/bee-A1SF.svg","response":0,"trial_type":"image-button-response","trial_index":97,"time_elapsed":835728,"internal_node_id":"0.0-4.0-0.45","subject_id":"5d66f23706e589000157e7ec","study_id":"6197b3f67c2b5cd3b6d9596a","session_id":"619beefca948f20676e857bb","condition":"full-information","relevant_dimensions":["antennae","wings"],"bee_group":{"antennae":"A","wings":"2","pattern":"X","legs":"X"},"action":"harvest","summary":"good-harvest","bonus":1.0800000000000005},{"rt":1931.7000000029802,"stimulus":"\n                    <p><b>Action: <em>harvest</em></b></p>\n                    <p>This is the bee that you just saw.</p>\n                    <img src=\"bees-with-color/bee-A1SF.svg\" width=\"200\">\n                    <p><span class=\"greenText\"><b>Successful harvest!</b></span><br>Your pay has increased by $0.02. Your bonus pay is now $0.78.</p>\n            ","response":0,"trial_type":"html-button-response","trial_index":98,"time_elapsed":837661,"internal_node_id":"0.0-4.0-1.45","subject_id":"5d66f23706e589000157e7ec","study_id":"6197b3f67c2b5cd3b6d9596a","session_id":"619beefca948f20676e857bb","condition":"full-information","relevant_dimensions":["antennae","wings"],"bee_group":{"antennae":"A","wings":"2","pattern":"X","legs":"X"},"bonus":1.0800000000000005},{"rt":3750.5,"stimulus":"bees-with-color/bee-B2DF.svg","response":1,"trial_type":"image-button-response","trial_index":99,"time_elapsed":841414,"internal_node_id":"0.0-4.0-0.46","subject_id":"5d66f23706e589000157e7ec","study_id":"6197b3f67c2b5cd3b6d9596a","session_id":"619beefca948f20676e857bb","condition":"full-information","relevant_dimensions":["antennae","wings"],"bee_group":{"antennae":"A","wings":"2","pattern":"X","legs":"X"},"action":"avoid","summary":"bad-avoid","bonus":1.0800000000000005},{"rt":1154.0999999940395,"stimulus":"\n                    <p><b>Action: <em>avoid</em></b></p>\n                    <p>This is the bee that you just saw.</p>\n                    <img src=\"bees-with-color/bee-B2DF.svg\" width=\"200\">\n                    <p><span class=\"redText\">Bad choice,</span> the bee was friendly.<br>Your bonus pay is unchanged, and remains at $0.78.</p>\n            ","response":0,"trial_type":"html-button-response","trial_index":100,"time_elapsed":842570,"internal_node_id":"0.0-4.0-1.46","subject_id":"5d66f23706e589000157e7ec","study_id":"6197b3f67c2b5cd3b6d9596a","session_id":"619beefca948f20676e857bb","condition":"full-information","relevant_dimensions":["antennae","wings"],"bee_group":{"antennae":"A","wings":"2","pattern":"X","legs":"X"},"bonus":1.0800000000000005},{"rt":4297.4000000059605,"stimulus":"bees-with-color/bee-B2SM.svg","response":1,"trial_type":"image-button-response","trial_index":101,"time_elapsed":846870,"internal_node_id":"0.0-4.0-0.47","subject_id":"5d66f23706e589000157e7ec","study_id":"6197b3f67c2b5cd3b6d9596a","session_id":"619beefca948f20676e857bb","condition":"full-information","relevant_dimensions":["antennae","wings"],"bee_group":{"antennae":"A","wings":"2","pattern":"X","legs":"X"},"action":"avoid","summary":"bad-avoid","bonus":1.0800000000000005},{"rt":1008.1999999880791,"stimulus":"\n                    <p><b>Action: <em>avoid</em></b></p>\n                    <p>This is the bee that you just saw.</p>\n                    <img src=\"bees-with-color/bee-B2SM.svg\" width=\"200\">\n                    <p><span class=\"redText\">Bad choice,</span> the bee was friendly.<br>Your bonus pay is unchanged, and remains at $0.78.</p>\n            ","response":0,"trial_type":"html-button-response","trial_index":102,"time_elapsed":847880,"internal_node_id":"0.0-4.0-1.47","subject_id":"5d66f23706e589000157e7ec","study_id":"6197b3f67c2b5cd3b6d9596a","session_id":"619beefca948f20676e857bb","condition":"full-information","relevant_dimensions":["antennae","wings"],"bee_group":{"antennae":"A","wings":"2","pattern":"X","legs":"X"},"bonus":1.0800000000000005},{"rt":13779.59999999404,"stimulus":"bees-with-color/bee-B1SM.svg","response":1,"trial_type":"image-button-response","trial_index":103,"time_elapsed":861661,"internal_node_id":"0.0-4.0-0.48","subject_id":"5d66f23706e589000157e7ec","study_id":"6197b3f67c2b5cd3b6d9596a","session_id":"619beefca948f20676e857bb","condition":"full-information","relevant_dimensions":["antennae","wings"],"bee_group":{"antennae":"A","wings":"2","pattern":"X","legs":"X"},"action":"avoid","summary":"bad-avoid","bonus":1.0800000000000005},{"rt":1203.2000000029802,"stimulus":"\n                    <p><b>Action: <em>avoid</em></b></p>\n                    <p>This is the bee that you just saw.</p>\n                    <img src=\"bees-with-color/bee-B1SM.svg\" width=\"200\">\n                    <p><span class=\"redText\">Bad choice,</span> the bee was friendly.<br>Your bonus pay is unchanged, and remains at $0.78.</p>\n            ","response":0,"trial_type":"html-button-response","trial_index":104,"time_elapsed":862866,"internal_node_id":"0.0-4.0-1.48","subject_id":"5d66f23706e589000157e7ec","study_id":"6197b3f67c2b5cd3b6d9596a","session_id":"619beefca948f20676e857bb","condition":"full-information","relevant_dimensions":["antennae","wings"],"bee_group":{"antennae":"A","wings":"2","pattern":"X","legs":"X"},"bonus":1.0800000000000005},{"rt":3222.4000000059605,"stimulus":"bees-with-color/bee-B2SM.svg","response":0,"trial_type":"image-button-response","trial_index":105,"time_elapsed":866091,"internal_node_id":"0.0-4.0-0.49","subject_id":"5d66f23706e589000157e7ec","study_id":"6197b3f67c2b5cd3b6d9596a","session_id":"619beefca948f20676e857bb","condition":"full-information","relevant_dimensions":["antennae","wings"],"bee_group":{"antennae":"A","wings":"2","pattern":"X","legs":"X"},"action":"harvest","summary":"good-harvest","bonus":1.0800000000000005},{"rt":1529.2999999970198,"stimulus":"\n                    <p><b>Action: <em>harvest</em></b></p>\n                    <p>This is the bee that you just saw.</p>\n                    <img src=\"bees-with-color/bee-B2SM.svg\" width=\"200\">\n                    <p><span class=\"greenText\"><b>Successful harvest!</b></span><br>Your pay has increased by $0.02. Your bonus pay is now $0.80.</p>\n            ","response":0,"trial_type":"html-button-response","trial_index":106,"time_elapsed":867622,"internal_node_id":"0.0-4.0-1.49","subject_id":"5d66f23706e589000157e7ec","study_id":"6197b3f67c2b5cd3b6d9596a","session_id":"619beefca948f20676e857bb","condition":"full-information","relevant_dimensions":["antennae","wings"],"bee_group":{"antennae":"A","wings":"2","pattern":"X","legs":"X"},"bonus":1.0800000000000005},{"rt":4346.0999999940395,"stimulus":"bees-with-color/bee-A1DM.svg","response":0,"trial_type":"image-button-response","trial_index":107,"time_elapsed":871970,"internal_node_id":"0.0-4.0-0.50","subject_id":"5d66f23706e589000157e7ec","study_id":"6197b3f67c2b5cd3b6d9596a","session_id":"619beefca948f20676e857bb","condition":"full-information","relevant_dimensions":["antennae","wings"],"bee_group":{"antennae":"A","wings":"2","pattern":"X","legs":"X"},"action":"harvest","summary":"good-harvest","bonus":1.0800000000000005},{"rt":1446.1000000089407,"stimulus":"\n                    <p><b>Action: <em>harvest</em></b></p>\n                    <p>This is the bee that you just saw.</p>\n                    <img src=\"bees-with-color/bee-A1DM.svg\" width=\"200\">\n                    <p><span class=\"greenText\"><b>Successful harvest!</b></span><br>Your pay has increased by $0.02. Your bonus pay is now $0.82.</p>\n            ","response":0,"trial_type":"html-button-response","trial_index":108,"time_elapsed":873418,"internal_node_id":"0.0-4.0-1.50","subject_id":"5d66f23706e589000157e7ec","study_id":"6197b3f67c2b5cd3b6d9596a","session_id":"619beefca948f20676e857bb","condition":"full-information","relevant_dimensions":["antennae","wings"],"bee_group":{"antennae":"A","wings":"2","pattern":"X","legs":"X"},"bonus":1.0800000000000005},{"rt":4028.3999999910593,"stimulus":"bees-with-color/bee-B1DM.svg","response":0,"trial_type":"image-button-response","trial_index":109,"time_elapsed":877449,"internal_node_id":"0.0-4.0-0.51","subject_id":"5d66f23706e589000157e7ec","study_id":"6197b3f67c2b5cd3b6d9596a","session_id":"619beefca948f20676e857bb","condition":"full-information","relevant_dimensions":["antennae","wings"],"bee_group":{"antennae":"A","wings":"2","pattern":"X","legs":"X"},"action":"harvest","summary":"good-harvest","bonus":1.0800000000000005},{"rt":1561.5,"stimulus":"\n                    <p><b>Action: <em>harvest</em></b></p>\n                    <p>This is the bee that you just saw.</p>\n                    <img src=\"bees-with-color/bee-B1DM.svg\" width=\"200\">\n                    <p><span class=\"greenText\"><b>Successful harvest!</b></span><br>Your pay has increased by $0.02. Your bonus pay is now $0.84.</p>\n            ","response":0,"trial_type":"html-button-response","trial_index":110,"time_elapsed":879013,"internal_node_id":"0.0-4.0-1.51","subject_id":"5d66f23706e589000157e7ec","study_id":"6197b3f67c2b5cd3b6d9596a","session_id":"619beefca948f20676e857bb","condition":"full-information","relevant_dimensions":["antennae","wings"],"bee_group":{"antennae":"A","wings":"2","pattern":"X","legs":"X"},"bonus":1.0800000000000005},{"rt":4239.600000008941,"stimulus":"bees-with-color/bee-B2DF.svg","response":0,"trial_type":"image-button-response","trial_index":111,"time_elapsed":883254,"internal_node_id":"0.0-4.0-0.52","subject_id":"5d66f23706e589000157e7ec","study_id":"6197b3f67c2b5cd3b6d9596a","session_id":"619beefca948f20676e857bb","condition":"full-information","relevant_dimensions":["antennae","wings"],"bee_group":{"antennae":"A","wings":"2","pattern":"X","legs":"X"},"action":"harvest","summary":"good-harvest","bonus":1.0800000000000005},{"rt":1397.0999999940395,"stimulus":"\n                    <p><b>Action: <em>harvest</em></b></p>\n                    <p>This is the bee that you just saw.</p>\n                    <img src=\"bees-with-color/bee-B2DF.svg\" width=\"200\">\n                    <p><span class=\"greenText\"><b>Successful harvest!</b></span><br>Your pay has increased by $0.02. Your bonus pay is now $0.86.</p>\n            ","response":0,"trial_type":"html-button-response","trial_index":112,"time_elapsed":884653,"internal_node_id":"0.0-4.0-1.52","subject_id":"5d66f23706e589000157e7ec","study_id":"6197b3f67c2b5cd3b6d9596a","session_id":"619beefca948f20676e857bb","condition":"full-information","relevant_dimensions":["antennae","wings"],"bee_group":{"antennae":"A","wings":"2","pattern":"X","legs":"X"},"bonus":1.0800000000000005},{"rt":4684.0999999940395,"stimulus":"bees-with-color/bee-A2SM.svg","response":1,"trial_type":"image-button-response","trial_index":113,"time_elapsed":889339,"internal_node_id":"0.0-4.0-0.53","subject_id":"5d66f23706e589000157e7ec","study_id":"6197b3f67c2b5cd3b6d9596a","session_id":"619beefca948f20676e857bb","condition":"full-information","relevant_dimensions":["antennae","wings"],"bee_group":{"antennae":"A","wings":"2","pattern":"X","legs":"X"},"action":"avoid","summary":"good-avoid","bonus":1.0800000000000005},{"rt":1484.8999999910593,"stimulus":"\n                    <p><b>Action: <em>avoid</em></b></p>\n                    <p>This is the bee that you just saw.</p>\n                    <img src=\"bees-with-color/bee-A2SM.svg\" width=\"200\">\n                    <p><span class=\"greenText\">Good choice!</span>  This bee would have stung you.<br>Your bonus pay is unchanged, and remains at $0.86.</p>\n            ","response":0,"trial_type":"html-button-response","trial_index":114,"time_elapsed":890826,"internal_node_id":"0.0-4.0-1.53","subject_id":"5d66f23706e589000157e7ec","study_id":"6197b3f67c2b5cd3b6d9596a","session_id":"619beefca948f20676e857bb","condition":"full-information","relevant_dimensions":["antennae","wings"],"bee_group":{"antennae":"A","wings":"2","pattern":"X","legs":"X"},"bonus":1.0800000000000005},{"rt":2954.2000000029802,"stimulus":"bees-with-color/bee-B2SF.svg","response":0,"trial_type":"image-button-response","trial_index":115,"time_elapsed":893782,"internal_node_id":"0.0-4.0-0.54","subject_id":"5d66f23706e589000157e7ec","study_id":"6197b3f67c2b5cd3b6d9596a","session_id":"619beefca948f20676e857bb","condition":"full-information","relevant_dimensions":["antennae","wings"],"bee_group":{"antennae":"A","wings":"2","pattern":"X","legs":"X"},"action":"harvest","summary":"good-harvest","bonus":1.0800000000000005},{"rt":1484.6000000089407,"stimulus":"\n                    <p><b>Action: <em>harvest</em></b></p>\n                    <p>This is the bee that you just saw.</p>\n                    <img src=\"bees-with-color/bee-B2SF.svg\" width=\"200\">\n                    <p><span class=\"greenText\"><b>Successful harvest!</b></span><br>Your pay has increased by $0.02. Your bonus pay is now $0.88.</p>\n            ","response":0,"trial_type":"html-button-response","trial_index":116,"time_elapsed":895268,"internal_node_id":"0.0-4.0-1.54","subject_id":"5d66f23706e589000157e7ec","study_id":"6197b3f67c2b5cd3b6d9596a","session_id":"619beefca948f20676e857bb","condition":"full-information","relevant_dimensions":["antennae","wings"],"bee_group":{"antennae":"A","wings":"2","pattern":"X","legs":"X"},"bonus":1.0800000000000005},{"rt":4231.5,"stimulus":"bees-with-color/bee-A2SF.svg","response":1,"trial_type":"image-button-response","trial_index":117,"time_elapsed":899502,"internal_node_id":"0.0-4.0-0.55","subject_id":"5d66f23706e589000157e7ec","study_id":"6197b3f67c2b5cd3b6d9596a","session_id":"619beefca948f20676e857bb","condition":"full-information","relevant_dimensions":["antennae","wings"],"bee_group":{"antennae":"A","wings":"2","pattern":"X","legs":"X"},"action":"avoid","summary":"good-avoid","bonus":1.0800000000000005},{"rt":1204.300000011921,"stimulus":"\n                    <p><b>Action: <em>avoid</em></b></p>\n                    <p>This is the bee that you just saw.</p>\n                    <img src=\"bees-with-color/bee-A2SF.svg\" width=\"200\">\n                    <p><span class=\"greenText\">Good choice!</span>  This bee would have stung you.<br>Your bonus pay is unchanged, and remains at $0.88.</p>\n            ","response":0,"trial_type":"html-button-response","trial_index":118,"time_elapsed":900708,"internal_node_id":"0.0-4.0-1.55","subject_id":"5d66f23706e589000157e7ec","study_id":"6197b3f67c2b5cd3b6d9596a","session_id":"619beefca948f20676e857bb","condition":"full-information","relevant_dimensions":["antennae","wings"],"bee_group":{"antennae":"A","wings":"2","pattern":"X","legs":"X"},"bonus":1.0800000000000005},{"rt":4909,"stimulus":"bees-with-color/bee-A2DM.svg","response":0,"trial_type":"image-button-response","trial_index":119,"time_elapsed":905619,"internal_node_id":"0.0-4.0-0.56","subject_id":"5d66f23706e589000157e7ec","study_id":"6197b3f67c2b5cd3b6d9596a","session_id":"619beefca948f20676e857bb","condition":"full-information","relevant_dimensions":["antennae","wings"],"bee_group":{"antennae":"A","wings":"2","pattern":"X","legs":"X"},"action":"harvest","summary":"bad-harvest","bonus":1.0800000000000005},{"rt":2114.800000011921,"stimulus":"\n                    <p><b>Action: <em>harvest</em></b></p>\n                    <p>This is the bee that you just saw.</p>\n                    <img src=\"bees-with-color/bee-A2DM.svg\" width=\"200\">\n                    <p><span class=\"redText\">Bad choice, the bee was angry.</span><br><b>You have been stung!</b><br>Your pay has been decreased by $0.10. Your bonus pay is now $0.78.</p>\n            ","response":0,"trial_type":"html-button-response","trial_index":120,"time_elapsed":907734,"internal_node_id":"0.0-4.0-1.56","subject_id":"5d66f23706e589000157e7ec","study_id":"6197b3f67c2b5cd3b6d9596a","session_id":"619beefca948f20676e857bb","condition":"full-information","relevant_dimensions":["antennae","wings"],"bee_group":{"antennae":"A","wings":"2","pattern":"X","legs":"X"},"bonus":1.0800000000000005},{"rt":3001.2000000029802,"stimulus":"bees-with-color/bee-A1SM.svg","response":1,"trial_type":"image-button-response","trial_index":121,"time_elapsed":910738,"internal_node_id":"0.0-4.0-0.57","subject_id":"5d66f23706e589000157e7ec","study_id":"6197b3f67c2b5cd3b6d9596a","session_id":"619beefca948f20676e857bb","condition":"full-information","relevant_dimensions":["antennae","wings"],"bee_group":{"antennae":"A","wings":"2","pattern":"X","legs":"X"},"action":"avoid","summary":"bad-avoid","bonus":1.0800000000000005},{"rt":870.2999999970198,"stimulus":"\n                    <p><b>Action: <em>avoid</em></b></p>\n                    <p>This is the bee that you just saw.</p>\n                    <img src=\"bees-with-color/bee-A1SM.svg\" width=\"200\">\n                    <p><span class=\"redText\">Bad choice,</span> the bee was friendly.<br>Your bonus pay is unchanged, and remains at $0.78.</p>\n            ","response":0,"trial_type":"html-button-response","trial_index":122,"time_elapsed":911609,"internal_node_id":"0.0-4.0-1.57","subject_id":"5d66f23706e589000157e7ec","study_id":"6197b3f67c2b5cd3b6d9596a","session_id":"619beefca948f20676e857bb","condition":"full-information","relevant_dimensions":["antennae","wings"],"bee_group":{"antennae":"A","wings":"2","pattern":"X","legs":"X"},"bonus":1.0800000000000005},{"rt":2049.5999999940395,"stimulus":"bees-with-color/bee-A1DF.svg","response":0,"trial_type":"image-button-response","trial_index":123,"time_elapsed":913661,"internal_node_id":"0.0-4.0-0.58","subject_id":"5d66f23706e589000157e7ec","study_id":"6197b3f67c2b5cd3b6d9596a","session_id":"619beefca948f20676e857bb","condition":"full-information","relevant_dimensions":["antennae","wings"],"bee_group":{"antennae":"A","wings":"2","pattern":"X","legs":"X"},"action":"harvest","summary":"good-harvest","bonus":1.0800000000000005},{"rt":1010,"stimulus":"\n                    <p><b>Action: <em>harvest</em></b></p>\n                    <p>This is the bee that you just saw.</p>\n                    <img src=\"bees-with-color/bee-A1DF.svg\" width=\"200\">\n                    <p><span class=\"greenText\"><b>Successful harvest!</b></span><br>Your pay has increased by $0.02. Your bonus pay is now $0.80.</p>\n            ","response":0,"trial_type":"html-button-response","trial_index":124,"time_elapsed":914673,"internal_node_id":"0.0-4.0-1.58","subject_id":"5d66f23706e589000157e7ec","study_id":"6197b3f67c2b5cd3b6d9596a","session_id":"619beefca948f20676e857bb","condition":"full-information","relevant_dimensions":["antennae","wings"],"bee_group":{"antennae":"A","wings":"2","pattern":"X","legs":"X"},"bonus":1.0800000000000005},{"rt":4494.70000000298,"stimulus":"bees-with-color/bee-B1SF.svg","response":0,"trial_type":"image-button-response","trial_index":125,"time_elapsed":919169,"internal_node_id":"0.0-4.0-0.59","subject_id":"5d66f23706e589000157e7ec","study_id":"6197b3f67c2b5cd3b6d9596a","session_id":"619beefca948f20676e857bb","condition":"full-information","relevant_dimensions":["antennae","wings"],"bee_group":{"antennae":"A","wings":"2","pattern":"X","legs":"X"},"action":"harvest","summary":"good-harvest","bonus":1.0800000000000005},{"rt":1049.5,"stimulus":"\n                    <p><b>Action: <em>harvest</em></b></p>\n                    <p>This is the bee that you just saw.</p>\n                    <img src=\"bees-with-color/bee-B1SF.svg\" width=\"200\">\n                    <p><span class=\"greenText\"><b>Successful harvest!</b></span><br>Your pay has increased by $0.02. Your bonus pay is now $0.82.</p>\n            ","response":0,"trial_type":"html-button-response","trial_index":126,"time_elapsed":920220,"internal_node_id":"0.0-4.0-1.59","subject_id":"5d66f23706e589000157e7ec","study_id":"6197b3f67c2b5cd3b6d9596a","session_id":"619beefca948f20676e857bb","condition":"full-information","relevant_dimensions":["antennae","wings"],"bee_group":{"antennae":"A","wings":"2","pattern":"X","legs":"X"},"bonus":1.0800000000000005},{"rt":2784.1000000089407,"stimulus":"bees-with-color/bee-B1DF.svg","response":0,"trial_type":"image-button-response","trial_index":127,"time_elapsed":923007,"internal_node_id":"0.0-4.0-0.60","subject_id":"5d66f23706e589000157e7ec","study_id":"6197b3f67c2b5cd3b6d9596a","session_id":"619beefca948f20676e857bb","condition":"full-information","relevant_dimensions":["antennae","wings"],"bee_group":{"antennae":"A","wings":"2","pattern":"X","legs":"X"},"action":"harvest","summary":"good-harvest","bonus":1.0800000000000005},{"rt":1422.0999999940395,"stimulus":"\n                    <p><b>Action: <em>harvest</em></b></p>\n                    <p>This is the bee that you just saw.</p>\n                    <img src=\"bees-with-color/bee-B1DF.svg\" width=\"200\">\n                    <p><span class=\"greenText\"><b>Successful harvest!</b></span><br>Your pay has increased by $0.02. Your bonus pay is now $0.84.</p>\n            ","response":0,"trial_type":"html-button-response","trial_index":128,"time_elapsed":924430,"internal_node_id":"0.0-4.0-1.60","subject_id":"5d66f23706e589000157e7ec","study_id":"6197b3f67c2b5cd3b6d9596a","session_id":"619beefca948f20676e857bb","condition":"full-information","relevant_dimensions":["antennae","wings"],"bee_group":{"antennae":"A","wings":"2","pattern":"X","legs":"X"},"bonus":1.0800000000000005},{"rt":4708,"stimulus":"bees-with-color/bee-A1SF.svg","response":1,"trial_type":"image-button-response","trial_index":129,"time_elapsed":929140,"internal_node_id":"0.0-4.0-0.61","subject_id":"5d66f23706e589000157e7ec","study_id":"6197b3f67c2b5cd3b6d9596a","session_id":"619beefca948f20676e857bb","condition":"full-information","relevant_dimensions":["antennae","wings"],"bee_group":{"antennae":"A","wings":"2","pattern":"X","legs":"X"},"action":"avoid","summary":"bad-avoid","bonus":1.0800000000000005},{"rt":1136.5,"stimulus":"\n                    <p><b>Action: <em>avoid</em></b></p>\n                    <p>This is the bee that you just saw.</p>\n                    <img src=\"bees-with-color/bee-A1SF.svg\" width=\"200\">\n                    <p><span class=\"redText\">Bad choice,</span> the bee was friendly.<br>Your bonus pay is unchanged, and remains at $0.84.</p>\n            ","response":0,"trial_type":"html-button-response","trial_index":130,"time_elapsed":930279,"internal_node_id":"0.0-4.0-1.61","subject_id":"5d66f23706e589000157e7ec","study_id":"6197b3f67c2b5cd3b6d9596a","session_id":"619beefca948f20676e857bb","condition":"full-information","relevant_dimensions":["antennae","wings"],"bee_group":{"antennae":"A","wings":"2","pattern":"X","legs":"X"},"bonus":1.0800000000000005},{"rt":2531.7999999970198,"stimulus":"bees-with-color/bee-A2DF.svg","response":1,"trial_type":"image-button-response","trial_index":131,"time_elapsed":932813,"internal_node_id":"0.0-4.0-0.62","subject_id":"5d66f23706e589000157e7ec","study_id":"6197b3f67c2b5cd3b6d9596a","session_id":"619beefca948f20676e857bb","condition":"full-information","relevant_dimensions":["antennae","wings"],"bee_group":{"antennae":"A","wings":"2","pattern":"X","legs":"X"},"action":"avoid","summary":"good-avoid","bonus":1.0800000000000005},{"rt":1041.5999999940395,"stimulus":"\n                    <p><b>Action: <em>avoid</em></b></p>\n                    <p>This is the bee that you just saw.</p>\n                    <img src=\"bees-with-color/bee-A2DF.svg\" width=\"200\">\n                    <p><span class=\"greenText\">Good choice!</span>  This bee would have stung you.<br>Your bonus pay is unchanged, and remains at $0.84.</p>\n            ","response":0,"trial_type":"html-button-response","trial_index":132,"time_elapsed":933856,"internal_node_id":"0.0-4.0-1.62","subject_id":"5d66f23706e589000157e7ec","study_id":"6197b3f67c2b5cd3b6d9596a","session_id":"619beefca948f20676e857bb","condition":"full-information","relevant_dimensions":["antennae","wings"],"bee_group":{"antennae":"A","wings":"2","pattern":"X","legs":"X"},"bonus":1.0800000000000005},{"rt":2099.5,"stimulus":"bees-with-color/bee-B2DM.svg","response":1,"trial_type":"image-button-response","trial_index":133,"time_elapsed":935957,"internal_node_id":"0.0-4.0-0.63","subject_id":"5d66f23706e589000157e7ec","study_id":"6197b3f67c2b5cd3b6d9596a","session_id":"619beefca948f20676e857bb","condition":"full-information","relevant_dimensions":["antennae","wings"],"bee_group":{"antennae":"A","wings":"2","pattern":"X","legs":"X"},"action":"avoid","summary":"bad-avoid","bonus":1.0800000000000005},{"rt":1162.5999999940395,"stimulus":"\n                    <p><b>Action: <em>avoid</em></b></p>\n                    <p>This is the bee that you just saw.</p>\n                    <img src=\"bees-with-color/bee-B2DM.svg\" width=\"200\">\n                    <p><span class=\"redText\">Bad choice,</span> the bee was friendly.<br>Your bonus pay is unchanged, and remains at $0.84.</p>\n            ","response":0,"trial_type":"html-button-response","trial_index":134,"time_elapsed":937121,"internal_node_id":"0.0-4.0-1.63","subject_id":"5d66f23706e589000157e7ec","study_id":"6197b3f67c2b5cd3b6d9596a","session_id":"619beefca948f20676e857bb","condition":"full-information","relevant_dimensions":["antennae","wings"],"bee_group":{"antennae":"A","wings":"2","pattern":"X","legs":"X"},"bonus":1.0800000000000005},{"rt":13261.5,"stimulus":"You have completed the first part of this experiment.<br><br>You will now begin a shorter second part, in which you will receive no feedback.<br>The same rules regarding bonus pay apply.<br><br>Press any key to begin.","response":" ","trial_type":"html-keyboard-response","trial_index":135,"time_elapsed":950385,"internal_node_id":"0.0-5.0","subject_id":"5d66f23706e589000157e7ec","study_id":"6197b3f67c2b5cd3b6d9596a","session_id":"619beefca948f20676e857bb","condition":"full-information","relevant_dimensions":["antennae","wings"],"bee_group":{"antennae":"A","wings":"2","pattern":"X","legs":"X"},"bonus":1.0800000000000005},{"rt":12921.70000000298,"stimulus":"bees-with-color/bee-A1DM.svg","response":1,"trial_type":"image-button-response","trial_index":136,"time_elapsed":963333,"internal_node_id":"0.0-6.0-0.0","subject_id":"5d66f23706e589000157e7ec","study_id":"6197b3f67c2b5cd3b6d9596a","session_id":"619beefca948f20676e857bb","condition":"full-information","relevant_dimensions":["antennae","wings"],"bee_group":{"antennae":"A","wings":"2","pattern":"X","legs":"X"},"bonus":1.0800000000000005},{"rt":2002.1000000089407,"stimulus":"bees-with-color/bee-A2SM.svg","response":1,"trial_type":"image-button-response","trial_index":137,"time_elapsed":965339,"internal_node_id":"0.0-6.0-0.1","subject_id":"5d66f23706e589000157e7ec","study_id":"6197b3f67c2b5cd3b6d9596a","session_id":"619beefca948f20676e857bb","condition":"full-information","relevant_dimensions":["antennae","wings"],"bee_group":{"antennae":"A","wings":"2","pattern":"X","legs":"X"},"bonus":1.0800000000000005},{"rt":1128.5,"stimulus":"bees-with-color/bee-A2DM.svg","response":1,"trial_type":"image-button-response","trial_index":138,"time_elapsed":966470,"internal_node_id":"0.0-6.0-0.2","subject_id":"5d66f23706e589000157e7ec","study_id":"6197b3f67c2b5cd3b6d9596a","session_id":"619beefca948f20676e857bb","condition":"full-information","relevant_dimensions":["antennae","wings"],"bee_group":{"antennae":"A","wings":"2","pattern":"X","legs":"X"},"bonus":1.0800000000000005},{"rt":4353.100000008941,"stimulus":"bees-with-color/bee-B2DM.svg","response":1,"trial_type":"image-button-response","trial_index":139,"time_elapsed":970826,"internal_node_id":"0.0-6.0-0.3","subject_id":"5d66f23706e589000157e7ec","study_id":"6197b3f67c2b5cd3b6d9596a","session_id":"619beefca948f20676e857bb","condition":"full-information","relevant_dimensions":["antennae","wings"],"bee_group":{"antennae":"A","wings":"2","pattern":"X","legs":"X"},"bonus":1.0800000000000005},{"rt":1390.4000000059605,"stimulus":"bees-with-color/bee-B1DM.svg","response":1,"trial_type":"image-button-response","trial_index":140,"time_elapsed":972219,"internal_node_id":"0.0-6.0-0.4","subject_id":"5d66f23706e589000157e7ec","study_id":"6197b3f67c2b5cd3b6d9596a","session_id":"619beefca948f20676e857bb","condition":"full-information","relevant_dimensions":["antennae","wings"],"bee_group":{"antennae":"A","wings":"2","pattern":"X","legs":"X"},"bonus":1.0800000000000005},{"rt":1835.699999988079,"stimulus":"bees-with-color/bee-A1SM.svg","response":1,"trial_type":"image-button-response","trial_index":141,"time_elapsed":974057,"internal_node_id":"0.0-6.0-0.5","subject_id":"5d66f23706e589000157e7ec","study_id":"6197b3f67c2b5cd3b6d9596a","session_id":"619beefca948f20676e857bb","condition":"full-information","relevant_dimensions":["antennae","wings"],"bee_group":{"antennae":"A","wings":"2","pattern":"X","legs":"X"},"bonus":1.0800000000000005},{"rt":2355.7999999970198,"stimulus":"bees-with-color/bee-B2SF.svg","response":0,"trial_type":"image-button-response","trial_index":142,"time_elapsed":976415,"internal_node_id":"0.0-6.0-0.6","subject_id":"5d66f23706e589000157e7ec","study_id":"6197b3f67c2b5cd3b6d9596a","session_id":"619beefca948f20676e857bb","condition":"full-information","relevant_dimensions":["antennae","wings"],"bee_group":{"antennae":"A","wings":"2","pattern":"X","legs":"X"},"bonus":1.0800000000000005},{"rt":2733.1000000089407,"stimulus":"bees-with-color/bee-B2DF.svg","response":0,"trial_type":"image-button-response","trial_index":143,"time_elapsed":979151,"internal_node_id":"0.0-6.0-0.7","subject_id":"5d66f23706e589000157e7ec","study_id":"6197b3f67c2b5cd3b6d9596a","session_id":"619beefca948f20676e857bb","condition":"full-information","relevant_dimensions":["antennae","wings"],"bee_group":{"antennae":"A","wings":"2","pattern":"X","legs":"X"},"bonus":1.0800000000000005},{"rt":6737,"stimulus":"bees-with-color/bee-A2SF.svg","response":1,"trial_type":"image-button-response","trial_index":144,"time_elapsed":985890,"internal_node_id":"0.0-6.0-0.8","subject_id":"5d66f23706e589000157e7ec","study_id":"6197b3f67c2b5cd3b6d9596a","session_id":"619beefca948f20676e857bb","condition":"full-information","relevant_dimensions":["antennae","wings"],"bee_group":{"antennae":"A","wings":"2","pattern":"X","legs":"X"},"bonus":1.0800000000000005},{"rt":6800.29999999702,"stimulus":"bees-with-color/bee-A1SF.svg","response":1,"trial_type":"image-button-response","trial_index":145,"time_elapsed":992694,"internal_node_id":"0.0-6.0-0.9","subject_id":"5d66f23706e589000157e7ec","study_id":"6197b3f67c2b5cd3b6d9596a","session_id":"619beefca948f20676e857bb","condition":"full-information","relevant_dimensions":["antennae","wings"],"bee_group":{"antennae":"A","wings":"2","pattern":"X","legs":"X"},"bonus":1.0800000000000005},{"rt":3291,"stimulus":"bees-with-color/bee-B2SM.svg","response":0,"trial_type":"image-button-response","trial_index":146,"time_elapsed":995988,"internal_node_id":"0.0-6.0-0.10","subject_id":"5d66f23706e589000157e7ec","study_id":"6197b3f67c2b5cd3b6d9596a","session_id":"619beefca948f20676e857bb","condition":"full-information","relevant_dimensions":["antennae","wings"],"bee_group":{"antennae":"A","wings":"2","pattern":"X","legs":"X"},"bonus":1.0800000000000005},{"rt":3740.0999999940395,"stimulus":"bees-with-color/bee-A1DF.svg","response":0,"trial_type":"image-button-response","trial_index":147,"time_elapsed":999732,"internal_node_id":"0.0-6.0-0.11","subject_id":"5d66f23706e589000157e7ec","study_id":"6197b3f67c2b5cd3b6d9596a","session_id":"619beefca948f20676e857bb","condition":"full-information","relevant_dimensions":["antennae","wings"],"bee_group":{"antennae":"A","wings":"2","pattern":"X","legs":"X"},"bonus":1.0800000000000005},{"rt":2129.800000011921,"stimulus":"bees-with-color/bee-A2DF.svg","response":1,"trial_type":"image-button-response","trial_index":148,"time_elapsed":1001865,"internal_node_id":"0.0-6.0-0.12","subject_id":"5d66f23706e589000157e7ec","study_id":"6197b3f67c2b5cd3b6d9596a","session_id":"619beefca948f20676e857bb","condition":"full-information","relevant_dimensions":["antennae","wings"],"bee_group":{"antennae":"A","wings":"2","pattern":"X","legs":"X"},"bonus":1.0800000000000005},{"rt":2163.4000000059605,"stimulus":"bees-with-color/bee-B1SF.svg","response":0,"trial_type":"image-button-response","trial_index":149,"time_elapsed":1004031,"internal_node_id":"0.0-6.0-0.13","subject_id":"5d66f23706e589000157e7ec","study_id":"6197b3f67c2b5cd3b6d9596a","session_id":"619beefca948f20676e857bb","condition":"full-information","relevant_dimensions":["antennae","wings"],"bee_group":{"antennae":"A","wings":"2","pattern":"X","legs":"X"},"bonus":1.0800000000000005},{"rt":2847.2000000029802,"stimulus":"bees-with-color/bee-B1DF.svg","response":0,"trial_type":"image-button-response","trial_index":150,"time_elapsed":1006880,"internal_node_id":"0.0-6.0-0.14","subject_id":"5d66f23706e589000157e7ec","study_id":"6197b3f67c2b5cd3b6d9596a","session_id":"619beefca948f20676e857bb","condition":"full-information","relevant_dimensions":["antennae","wings"],"bee_group":{"antennae":"A","wings":"2","pattern":"X","legs":"X"},"bonus":1.0800000000000005},{"rt":2671.2999999970198,"stimulus":"bees-with-color/bee-B1SM.svg","response":0,"trial_type":"image-button-response","trial_index":151,"time_elapsed":1009554,"internal_node_id":"0.0-6.0-0.15","subject_id":"5d66f23706e589000157e7ec","study_id":"6197b3f67c2b5cd3b6d9596a","session_id":"619beefca948f20676e857bb","condition":"full-information","relevant_dimensions":["antennae","wings"],"bee_group":{"antennae":"A","wings":"2","pattern":"X","legs":"X"},"bonus":1.0800000000000005},{"rt":2866.9000000059605,"stimulus":"bees-with-color/bee-B2DM.svg","response":1,"trial_type":"image-button-response","trial_index":152,"time_elapsed":1012423,"internal_node_id":"0.0-6.0-0.16","subject_id":"5d66f23706e589000157e7ec","study_id":"6197b3f67c2b5cd3b6d9596a","session_id":"619beefca948f20676e857bb","condition":"full-information","relevant_dimensions":["antennae","wings"],"bee_group":{"antennae":"A","wings":"2","pattern":"X","legs":"X"},"bonus":1.0800000000000005},{"rt":4759.29999999702,"stimulus":"bees-with-color/bee-A1DF.svg","response":0,"trial_type":"image-button-response","trial_index":153,"time_elapsed":1017185,"internal_node_id":"0.0-6.0-0.17","subject_id":"5d66f23706e589000157e7ec","study_id":"6197b3f67c2b5cd3b6d9596a","session_id":"619beefca948f20676e857bb","condition":"full-information","relevant_dimensions":["antennae","wings"],"bee_group":{"antennae":"A","wings":"2","pattern":"X","legs":"X"},"bonus":1.0800000000000005},{"rt":4362,"stimulus":"bees-with-color/bee-A2DF.svg","response":1,"trial_type":"image-button-response","trial_index":154,"time_elapsed":1021549,"internal_node_id":"0.0-6.0-0.18","subject_id":"5d66f23706e589000157e7ec","study_id":"6197b3f67c2b5cd3b6d9596a","session_id":"619beefca948f20676e857bb","condition":"full-information","relevant_dimensions":["antennae","wings"],"bee_group":{"antennae":"A","wings":"2","pattern":"X","legs":"X"},"bonus":1.0800000000000005},{"rt":2572.7999999970198,"stimulus":"bees-with-color/bee-B1SM.svg","response":1,"trial_type":"image-button-response","trial_index":155,"time_elapsed":1024124,"internal_node_id":"0.0-6.0-0.19","subject_id":"5d66f23706e589000157e7ec","study_id":"6197b3f67c2b5cd3b6d9596a","session_id":"619beefca948f20676e857bb","condition":"full-information","relevant_dimensions":["antennae","wings"],"bee_group":{"antennae":"A","wings":"2","pattern":"X","legs":"X"},"bonus":1.0800000000000005},{"rt":1245.2000000029802,"stimulus":"bees-with-color/bee-B1DM.svg","response":1,"trial_type":"image-button-response","trial_index":156,"time_elapsed":1025372,"internal_node_id":"0.0-6.0-0.20","subject_id":"5d66f23706e589000157e7ec","study_id":"6197b3f67c2b5cd3b6d9596a","session_id":"619beefca948f20676e857bb","condition":"full-information","relevant_dimensions":["antennae","wings"],"bee_group":{"antennae":"A","wings":"2","pattern":"X","legs":"X"},"bonus":1.0800000000000005},{"rt":3286.5999999940395,"stimulus":"bees-with-color/bee-B2SM.svg","response":0,"trial_type":"image-button-response","trial_index":157,"time_elapsed":1028660,"internal_node_id":"0.0-6.0-0.21","subject_id":"5d66f23706e589000157e7ec","study_id":"6197b3f67c2b5cd3b6d9596a","session_id":"619beefca948f20676e857bb","condition":"full-information","relevant_dimensions":["antennae","wings"],"be