[{"success":true,"trial_type":"fullscreen","trial_index":0,"time_elapsed":2365,"internal_node_id":"0.0-0.0","subject_id":"6103ec2bf88328284fd894bc","study_id":"60edd13110225f80f9f3709b","session_id":"6196c1ed957f7a6c0ee674c3","condition":"full-information","relevant_dimensions":["antennae","legs"],"bee_group":{"antennae":"B","wings":"X","pattern":"X","legs":"M"},"bonus":0.2800000000000004},{"success":true,"timeout":false,"failed_images":[],"failed_audio":[],"failed_video":[],"trial_type":"preload","trial_index":1,"time_elapsed":2411,"internal_node_id":"0.0-1.0","subject_id":"6103ec2bf88328284fd894bc","study_id":"60edd13110225f80f9f3709b","session_id":"6196c1ed957f7a6c0ee674c3","condition":"full-information","relevant_dimensions":["antennae","legs"],"bee_group":{"antennae":"B","wings":"X","pattern":"X","legs":"M"},"bonus":0.2800000000000004},{"rt":2681,"stimulus":"Welcome! Press any key to begin.","response":" ","trial_type":"html-keyboard-response","trial_index":2,"time_elapsed":5093,"internal_node_id":"0.0-2.0","subject_id":"6103ec2bf88328284fd894bc","study_id":"60edd13110225f80f9f3709b","session_id":"6196c1ed957f7a6c0ee674c3","condition":"full-information","relevant_dimensions":["antennae","legs"],"bee_group":{"antennae":"B","wings":"X","pattern":"X","legs":"M"},"bonus":0.2800000000000004},{"view_history":[{"page_index":0,"viewing_time":773.1999999880791},{"page_index":1,"viewing_time":10776.100000023842},{"page_index":2,"viewing_time":2195},{"page_index":3,"viewing_time":2960},{"page_index":4,"viewing_time":2723},{"page_index":5,"viewing_time":1215.7999999821186},{"page_index":6,"viewing_time":1881},{"page_index":7,"viewing_time":2035.0999999940395},{"page_index":6,"viewing_time":1741.9000000059605},{"page_index":7,"viewing_time":1549.9000000059605},{"page_index":8,"viewing_time":1589.199999988079},{"page_index":9,"viewing_time":3145.100000023842},{"page_index":10,"viewing_time":1080},{"page_index":11,"viewing_time":2247.5999999940395},{"page_index":12,"viewing_time":1135.2999999821186},{"page_index":13,"viewing_time":743.5},{"page_index":14,"viewing_time":652.1000000238419}],"rt":38444.19999998808,"trial_type":"instructions","trial_index":3,"time_elapsed":43538,"internal_node_id":"0.0-3.0-0.0","subject_id":"6103ec2bf88328284fd894bc","study_id":"60edd13110225f80f9f3709b","session_id":"6196c1ed957f7a6c0ee674c3","condition":"full-information","relevant_dimensions":["antennae","legs"],"bee_group":{"antennae":"B","wings":"X","pattern":"X","legs":"M"},"bonus":0.2800000000000004},{"rt":10767.699999988079,"response":{"Q0":["Two or six legs","Stripes or spots on body","Single or double wings","Antennae or no antennae"]},"question_order":[0],"trial_type":"survey-multi-select","trial_index":4,"time_elapsed":54311,"internal_node_id":"0.0-3.0-1.0","subject_id":"6103ec2bf88328284fd894bc","study_id":"60edd13110225f80f9f3709b","session_id":"6196c1ed957f7a6c0ee674c3","condition":"full-information","relevant_dimensions":["antennae","legs"],"bee_group":{"antennae":"B","wings":"X","pattern":"X","legs":"M"},"correct":true,"bonus":0.2800000000000004},{"rt":24062,"response":{"Q1":"No.","Q2":"Based on the four features of the bee.","Q3":"You learn if it was friendly or dangerous, but do not alter your bonus."},"question_order":[0,1,2],"trial_type":"survey-multi-choice","trial_index":5,"time_elapsed":78375,"internal_node_id":"0.0-3.0-2.0","subject_id":"6103ec2bf88328284fd894bc","study_id":"60edd13110225f80f9f3709b","session_id":"6196c1ed957f7a6c0ee674c3","condition":"full-information","relevant_dimensions":["antennae","legs"],"bee_group":{"antennae":"B","wings":"X","pattern":"X","legs":"M"},"correct":true,"bonus":0.2800000000000004},{"rt":1237.1000000238419,"stimulus":"<p>Congrats, you got everything right<br>When you're ready, click the button below to continue to the experiment.</p>","response":0,"trial_type":"html-button-response","trial_index":6,"time_elapsed":79614,"internal_node_id":"0.0-3.0-3.0","subject_id":"6103ec2bf88328284fd894bc","study_id":"60edd13110225f80f9f3709b","session_id":"6196c1ed957f7a6c0ee674c3","condition":"full-information","relevant_dimensions":["antennae","legs"],"bee_group":{"antennae":"B","wings":"X","pattern":"X","legs":"M"},"bonus":0.2800000000000004},{"rt":4319.799999982119,"stimulus":"bees-with-color/bee-A2SF.svg","response":0,"trial_type":"image-button-response","trial_index":7,"time_elapsed":83937,"internal_node_id":"0.0-4.0-0.0","subject_id":"6103ec2bf88328284fd894bc","study_id":"60edd13110225f80f9f3709b","session_id":"6196c1ed957f7a6c0ee674c3","condition":"full-information","relevant_dimensions":["antennae","legs"],"bee_group":{"antennae":"B","wings":"X","pattern":"X","legs":"M"},"action":"harvest","summary":"good-harvest","bonus":0.2800000000000004},{"rt":2044.7999999821186,"stimulus":"\n                    <p><b>Action: <em>harvest</em></b></p>\n                    <p>This is the bee that you just saw.</p>\n                    <img src=\"bees-with-color/bee-A2SF.svg\" width=\"200\">\n                    <p><span class=\"greenText\"><b>Successful harvest!</b></span><br>Your pay has increased by $0.02. Your bonus pay is now $0.56.</p>\n            ","response":0,"trial_type":"html-button-response","trial_index":8,"time_elapsed":85996,"internal_node_id":"0.0-4.0-1.0","subject_id":"6103ec2bf88328284fd894bc","study_id":"60edd13110225f80f9f3709b","session_id":"6196c1ed957f7a6c0ee674c3","condition":"full-information","relevant_dimensions":["antennae","legs"],"bee_group":{"antennae":"B","wings":"X","pattern":"X","legs":"M"},"bonus":0.2800000000000004},{"rt":5316.5999999940395,"stimulus":"bees-with-color/bee-A1SF.svg","response":0,"trial_type":"image-button-response","trial_index":9,"time_elapsed":91314,"internal_node_id":"0.0-4.0-0.1","subject_id":"6103ec2bf88328284fd894bc","study_id":"60edd13110225f80f9f3709b","session_id":"6196c1ed957f7a6c0ee674c3","condition":"full-information","relevant_dimensions":["antennae","legs"],"bee_group":{"antennae":"B","wings":"X","pattern":"X","legs":"M"},"action":"harvest","summary":"good-harvest","bonus":0.2800000000000004},{"rt":1787.5,"stimulus":"\n                    <p><b>Action: <em>harvest</em></b></p>\n                    <p>This is the bee that you just saw.</p>\n                    <img src=\"bees-with-color/bee-A1SF.svg\" width=\"200\">\n                    <p><span class=\"greenText\"><b>Successful harvest!</b></span><br>Your pay has increased by $0.02. Your bonus pay is now $0.58.</p>\n            ","response":0,"trial_type":"html-button-response","trial_index":10,"time_elapsed":93104,"internal_node_id":"0.0-4.0-1.1","subject_id":"6103ec2bf88328284fd894bc","study_id":"60edd13110225f80f9f3709b","session_id":"6196c1ed957f7a6c0ee674c3","condition":"full-information","relevant_dimensions":["antennae","legs"],"bee_group":{"antennae":"B","wings":"X","pattern":"X","legs":"M"},"bonus":0.2800000000000004},{"rt":3647.0999999940395,"stimulus":"bees-with-color/bee-A2SM.svg","response":0,"trial_type":"image-button-response","trial_index":11,"time_elapsed":96753,"internal_node_id":"0.0-4.0-0.2","subject_id":"6103ec2bf88328284fd894bc","study_id":"60edd13110225f80f9f3709b","session_id":"6196c1ed957f7a6c0ee674c3","condition":"full-information","relevant_dimensions":["antennae","legs"],"bee_group":{"antennae":"B","wings":"X","pattern":"X","legs":"M"},"action":"harvest","summary":"good-harvest","bonus":0.2800000000000004},{"rt":783.0999999940395,"stimulus":"\n                    <p><b>Action: <em>harvest</em></b></p>\n                    <p>This is the bee that you just saw.</p>\n                    <img src=\"bees-with-color/bee-A2SM.svg\" width=\"200\">\n                    <p><span class=\"greenText\"><b>Successful harvest!</b></span><br>Your pay has increased by $0.02. Your bonus pay is now $0.60.</p>\n            ","response":0,"trial_type":"html-button-response","trial_index":12,"time_elapsed":97537,"internal_node_id":"0.0-4.0-1.2","subject_id":"6103ec2bf88328284fd894bc","study_id":"60edd13110225f80f9f3709b","session_id":"6196c1ed957f7a6c0ee674c3","condition":"full-information","relevant_dimensions":["antennae","legs"],"bee_group":{"antennae":"B","wings":"X","pattern":"X","legs":"M"},"bonus":0.2800000000000004},{"rt":1734.5,"stimulus":"bees-with-color/bee-A2DM.svg","response":0,"trial_type":"image-button-response","trial_index":13,"time_elapsed":99273,"internal_node_id":"0.0-4.0-0.3","subject_id":"6103ec2bf88328284fd894bc","study_id":"60edd13110225f80f9f3709b","session_id":"6196c1ed957f7a6c0ee674c3","condition":"full-information","relevant_dimensions":["antennae","legs"],"bee_group":{"antennae":"B","wings":"X","pattern":"X","legs":"M"},"action":"harvest","summary":"good-harvest","bonus":0.2800000000000004},{"rt":811.5,"stimulus":"\n                    <p><b>Action: <em>harvest</em></b></p>\n                    <p>This is the bee that you just saw.</p>\n                    <img src=\"bees-with-color/bee-A2DM.svg\" width=\"200\">\n                    <p><span class=\"greenText\"><b>Successful harvest!</b></span><br>Your pay has increased by $0.02. Your bonus pay is now $0.62.</p>\n            ","response":0,"trial_type":"html-button-response","trial_index":14,"time_elapsed":100086,"internal_node_id":"0.0-4.0-1.3","subject_id":"6103ec2bf88328284fd894bc","study_id":"60edd13110225f80f9f3709b","session_id":"6196c1ed957f7a6c0ee674c3","condition":"full-information","relevant_dimensions":["antennae","legs"],"bee_group":{"antennae":"B","wings":"X","pattern":"X","legs":"M"},"bonus":0.2800000000000004},{"rt":2696.5,"stimulus":"bees-with-color/bee-B1SF.svg","response":0,"trial_type":"image-button-response","trial_index":15,"time_elapsed":102784,"internal_node_id":"0.0-4.0-0.4","subject_id":"6103ec2bf88328284fd894bc","study_id":"60edd13110225f80f9f3709b","session_id":"6196c1ed957f7a6c0ee674c3","condition":"full-information","relevant_dimensions":["antennae","legs"],"bee_group":{"antennae":"B","wings":"X","pattern":"X","legs":"M"},"action":"harvest","summary":"good-harvest","bonus":0.2800000000000004},{"rt":551.5999999940395,"stimulus":"\n                    <p><b>Action: <em>harvest</em></b></p>\n                    <p>This is the bee that you just saw.</p>\n                    <img src=\"bees-with-color/bee-B1SF.svg\" width=\"200\">\n                    <p><span class=\"greenText\"><b>Successful harvest!</b></span><br>Your pay has increased by $0.02. Your bonus pay is now $0.64.</p>\n            ","response":0,"trial_type":"html-button-response","trial_index":16,"time_elapsed":103337,"internal_node_id":"0.0-4.0-1.4","subject_id":"6103ec2bf88328284fd894bc","study_id":"60edd13110225f80f9f3709b","session_id":"6196c1ed957f7a6c0ee674c3","condition":"full-information","relevant_dimensions":["antennae","legs"],"bee_group":{"antennae":"B","wings":"X","pattern":"X","legs":"M"},"bonus":0.2800000000000004},{"rt":1366.699999988079,"stimulus":"bees-with-color/bee-B1DF.svg","response":0,"trial_type":"image-button-response","trial_index":17,"time_elapsed":104705,"internal_node_id":"0.0-4.0-0.5","subject_id":"6103ec2bf88328284fd894bc","study_id":"60edd13110225f80f9f3709b","session_id":"6196c1ed957f7a6c0ee674c3","condition":"full-information","relevant_dimensions":["antennae","legs"],"bee_group":{"antennae":"B","wings":"X","pattern":"X","legs":"M"},"action":"harvest","summary":"good-harvest","bonus":0.2800000000000004},{"rt":525.2999999821186,"stimulus":"\n                    <p><b>Action: <em>harvest</em></b></p>\n                    <p>This is the bee that you just saw.</p>\n                    <img src=\"bees-with-color/bee-B1DF.svg\" width=\"200\">\n                    <p><span class=\"greenText\"><b>Successful harvest!</b></span><br>Your pay has increased by $0.02. Your bonus pay is now $0.66.</p>\n            ","response":0,"trial_type":"html-button-response","trial_index":18,"time_elapsed":105232,"internal_node_id":"0.0-4.0-1.5","subject_id":"6103ec2bf88328284fd894bc","study_id":"60edd13110225f80f9f3709b","session_id":"6196c1ed957f7a6c0ee674c3","condition":"full-information","relevant_dimensions":["antennae","legs"],"bee_group":{"antennae":"B","wings":"X","pattern":"X","legs":"M"},"bonus":0.2800000000000004},{"rt":2191.7999999821186,"stimulus":"bees-with-color/bee-B2SM.svg","response":0,"trial_type":"image-button-response","trial_index":19,"time_elapsed":107425,"internal_node_id":"0.0-4.0-0.6","subject_id":"6103ec2bf88328284fd894bc","study_id":"60edd13110225f80f9f3709b","session_id":"6196c1ed957f7a6c0ee674c3","condition":"full-information","relevant_dimensions":["antennae","legs"],"bee_group":{"antennae":"B","wings":"X","pattern":"X","legs":"M"},"action":"harvest","summary":"bad-harvest","bonus":0.2800000000000004},{"rt":4209.300000011921,"stimulus":"\n                    <p><b>Action: <em>harvest</em></b></p>\n                    <p>This is the bee that you just saw.</p>\n                    <img src=\"bees-with-color/bee-B2SM.svg\" width=\"200\">\n                    <p><span class=\"redText\">Bad choice, the bee was angry.</span><br><b>You have been stung!</b><br>Your pay has been decreased by $0.10. Your bonus pay is now $0.56.</p>\n            ","response":0,"trial_type":"html-button-response","trial_index":20,"time_elapsed":111636,"internal_node_id":"0.0-4.0-1.6","subject_id":"6103ec2bf88328284fd894bc","study_id":"60edd13110225f80f9f3709b","session_id":"6196c1ed957f7a6c0ee674c3","condition":"full-information","relevant_dimensions":["antennae","legs"],"bee_group":{"antennae":"B","wings":"X","pattern":"X","legs":"M"},"bonus":0.2800000000000004},{"rt":1551.1000000238419,"stimulus":"bees-with-color/bee-B1DM.svg","response":0,"trial_type":"image-button-response","trial_index":21,"time_elapsed":113189,"internal_node_id":"0.0-4.0-0.7","subject_id":"6103ec2bf88328284fd894bc","study_id":"60edd13110225f80f9f3709b","session_id":"6196c1ed957f7a6c0ee674c3","condition":"full-information","relevant_dimensions":["antennae","legs"],"bee_group":{"antennae":"B","wings":"X","pattern":"X","legs":"M"},"action":"harvest","summary":"bad-harvest","bonus":0.2800000000000004},{"rt":3078.7000000178814,"stimulus":"\n                    <p><b>Action: <em>harvest</em></b></p>\n                    <p>This is the bee that you just saw.</p>\n                    <img src=\"bees-with-color/bee-B1DM.svg\" width=\"200\">\n                    <p><span class=\"redText\">Bad choice, the bee was angry.</span><br><b>You have been stung!</b><br>Your pay has been decreased by $0.10. Your bonus pay is now $0.46.</p>\n            ","response":0,"trial_type":"html-button-response","trial_index":22,"time_elapsed":116269,"internal_node_id":"0.0-4.0-1.7","subject_id":"6103ec2bf88328284fd894bc","study_id":"60edd13110225f80f9f3709b","session_id":"6196c1ed957f7a6c0ee674c3","condition":"full-information","relevant_dimensions":["antennae","legs"],"bee_group":{"antennae":"B","wings":"X","pattern":"X","legs":"M"},"bonus":0.2800000000000004},{"rt":2102.5,"stimulus":"bees-with-color/bee-B2SF.svg","response":1,"trial_type":"image-button-response","trial_index":23,"time_elapsed":118374,"internal_node_id":"0.0-4.0-0.8","subject_id":"6103ec2bf88328284fd894bc","study_id":"60edd13110225f80f9f3709b","session_id":"6196c1ed957f7a6c0ee674c3","condition":"full-information","relevant_dimensions":["antennae","legs"],"bee_group":{"antennae":"B","wings":"X","pattern":"X","legs":"M"},"action":"avoid","summary":"bad-avoid","bonus":0.2800000000000004},{"rt":1835.4000000059605,"stimulus":"\n                    <p><b>Action: <em>avoid</em></b></p>\n                    <p>This is the bee that you just saw.</p>\n                    <img src=\"bees-with-color/bee-B2SF.svg\" width=\"200\">\n                    <p><span class=\"redText\">Bad choice,</span> the bee was friendly.<br>Your bonus pay is unchanged, and remains at $0.46.</p>\n            ","response":0,"trial_type":"html-button-response","trial_index":24,"time_elapsed":120211,"internal_node_id":"0.0-4.0-1.8","subject_id":"6103ec2bf88328284fd894bc","study_id":"60edd13110225f80f9f3709b","session_id":"6196c1ed957f7a6c0ee674c3","condition":"full-information","relevant_dimensions":["antennae","legs"],"bee_group":{"antennae":"B","wings":"X","pattern":"X","legs":"M"},"bonus":0.2800000000000004},{"rt":2129.199999988079,"stimulus":"bees-with-color/bee-A1DM.svg","response":0,"trial_type":"image-button-response","trial_index":25,"time_elapsed":122342,"internal_node_id":"0.0-4.0-0.9","subject_id":"6103ec2bf88328284fd894bc","study_id":"60edd13110225f80f9f3709b","session_id":"6196c1ed957f7a6c0ee674c3","condition":"full-information","relevant_dimensions":["antennae","legs"],"bee_group":{"antennae":"B","wings":"X","pattern":"X","legs":"M"},"action":"harvest","summary":"good-harvest","bonus":0.2800000000000004},{"rt":912.6999999880791,"stimulus":"\n                    <p><b>Action: <em>harvest</em></b></p>\n                    <p>This is the bee that you just saw.</p>\n                    <img src=\"bees-with-color/bee-A1DM.svg\" width=\"200\">\n                    <p><span class=\"greenText\"><b>Successful harvest!</b></span><br>Your pay has increased by $0.02. Your bonus pay is now $0.48.</p>\n            ","response":0,"trial_type":"html-button-response","trial_index":26,"time_elapsed":123256,"internal_node_id":"0.0-4.0-1.9","subject_id":"6103ec2bf88328284fd894bc","study_id":"60edd13110225f80f9f3709b","session_id":"6196c1ed957f7a6c0ee674c3","condition":"full-information","relevant_dimensions":["antennae","legs"],"bee_group":{"antennae":"B","wings":"X","pattern":"X","legs":"M"},"bonus":0.2800000000000004},{"rt":2563.600000023842,"stimulus":"bees-with-color/bee-B2DF.svg","response":1,"trial_type":"image-button-response","trial_index":27,"time_elapsed":125820,"internal_node_id":"0.0-4.0-0.10","subject_id":"6103ec2bf88328284fd894bc","study_id":"60edd13110225f80f9f3709b","session_id":"6196c1ed957f7a6c0ee674c3","condition":"full-information","relevant_dimensions":["antennae","legs"],"bee_group":{"antennae":"B","wings":"X","pattern":"X","legs":"M"},"action":"avoid","summary":"bad-avoid","bonus":0.2800000000000004},{"rt":617.0999999940395,"stimulus":"\n                    <p><b>Action: <em>avoid</em></b></p>\n                    <p>This is the bee that you just saw.</p>\n                    <img src=\"bees-with-color/bee-B2DF.svg\" width=\"200\">\n                    <p><span class=\"redText\">Bad choice,</span> the bee was friendly.<br>Your bonus pay is unchanged, and remains at $0.48.</p>\n            ","response":0,"trial_type":"html-button-response","trial_index":28,"time_elapsed":126439,"internal_node_id":"0.0-4.0-1.10","subject_id":"6103ec2bf88328284fd894bc","study_id":"60edd13110225f80f9f3709b","session_id":"6196c1ed957f7a6c0ee674c3","condition":"full-information","relevant_dimensions":["antennae","legs"],"bee_group":{"antennae":"B","wings":"X","pattern":"X","legs":"M"},"bonus":0.2800000000000004},{"rt":1654.5,"stimulus":"bees-with-color/bee-A2DF.svg","response":0,"trial_type":"image-button-response","trial_index":29,"time_elapsed":128094,"internal_node_id":"0.0-4.0-0.11","subject_id":"6103ec2bf88328284fd894bc","study_id":"60edd13110225f80f9f3709b","session_id":"6196c1ed957f7a6c0ee674c3","condition":"full-information","relevant_dimensions":["antennae","legs"],"bee_group":{"antennae":"B","wings":"X","pattern":"X","legs":"M"},"action":"harvest","summary":"good-harvest","bonus":0.2800000000000004},{"rt":664.4000000059605,"stimulus":"\n                    <p><b>Action: <em>harvest</em></b></p>\n                    <p>This is the bee that you just saw.</p>\n                    <img src=\"bees-with-color/bee-A2DF.svg\" width=\"200\">\n                    <p><span class=\"greenText\"><b>Successful harvest!</b></span><br>Your pay has increased by $0.02. Your bonus pay is now $0.50.</p>\n            ","response":0,"trial_type":"html-button-response","trial_index":30,"time_elapsed":128760,"internal_node_id":"0.0-4.0-1.11","subject_id":"6103ec2bf88328284fd894bc","study_id":"60edd13110225f80f9f3709b","session_id":"6196c1ed957f7a6c0ee674c3","condition":"full-information","relevant_dimensions":["antennae","legs"],"bee_group":{"antennae":"B","wings":"X","pattern":"X","legs":"M"},"bonus":0.2800000000000004},{"rt":1172.2999999821186,"stimulus":"bees-with-color/bee-A1DF.svg","response":0,"trial_type":"image-button-response","trial_index":31,"time_elapsed":129934,"internal_node_id":"0.0-4.0-0.12","subject_id":"6103ec2bf88328284fd894bc","study_id":"60edd13110225f80f9f3709b","session_id":"6196c1ed957f7a6c0ee674c3","condition":"full-information","relevant_dimensions":["antennae","legs"],"bee_group":{"antennae":"B","wings":"X","pattern":"X","legs":"M"},"action":"harvest","summary":"good-harvest","bonus":0.2800000000000004},{"rt":621.6999999880791,"stimulus":"\n                    <p><b>Action: <em>harvest</em></b></p>\n                    <p>This is the bee that you just saw.</p>\n                    <img src=\"bees-with-color/bee-A1DF.svg\" width=\"200\">\n                    <p><span class=\"greenText\"><b>Successful harvest!</b></span><br>Your pay has increased by $0.02. Your bonus pay is now $0.52.</p>\n            ","response":0,"trial_type":"html-button-response","trial_index":32,"time_elapsed":130556,"internal_node_id":"0.0-4.0-1.12","subject_id":"6103ec2bf88328284fd894bc","study_id":"60edd13110225f80f9f3709b","session_id":"6196c1ed957f7a6c0ee674c3","condition":"full-information","relevant_dimensions":["antennae","legs"],"bee_group":{"antennae":"B","wings":"X","pattern":"X","legs":"M"},"bonus":0.2800000000000004},{"rt":1633.5,"stimulus":"bees-with-color/bee-B2DM.svg","response":0,"trial_type":"image-button-response","trial_index":33,"time_elapsed":132191,"internal_node_id":"0.0-4.0-0.13","subject_id":"6103ec2bf88328284fd894bc","study_id":"60edd13110225f80f9f3709b","session_id":"6196c1ed957f7a6c0ee674c3","condition":"full-information","relevant_dimensions":["antennae","legs"],"bee_group":{"antennae":"B","wings":"X","pattern":"X","legs":"M"},"action":"harvest","summary":"bad-harvest","bonus":0.2800000000000004},{"rt":752.6999999880791,"stimulus":"\n                    <p><b>Action: <em>harvest</em></b></p>\n                    <p>This is the bee that you just saw.</p>\n                    <img src=\"bees-with-color/bee-B2DM.svg\" width=\"200\">\n                    <p><span class=\"redText\">Bad choice, the bee was angry.</span><br><b>You have been stung!</b><br>Your pay has been decreased by $0.10. Your bonus pay is now $0.42.</p>\n            ","response":0,"trial_type":"html-button-response","trial_index":34,"time_elapsed":132945,"internal_node_id":"0.0-4.0-1.13","subject_id":"6103ec2bf88328284fd894bc","study_id":"60edd13110225f80f9f3709b","session_id":"6196c1ed957f7a6c0ee674c3","condition":"full-information","relevant_dimensions":["antennae","legs"],"bee_group":{"antennae":"B","wings":"X","pattern":"X","legs":"M"},"bonus":0.2800000000000004},{"rt":2454.5999999940395,"stimulus":"bees-with-color/bee-A1SM.svg","response":0,"trial_type":"image-button-response","trial_index":35,"time_elapsed":135401,"internal_node_id":"0.0-4.0-0.14","subject_id":"6103ec2bf88328284fd894bc","study_id":"60edd13110225f80f9f3709b","session_id":"6196c1ed957f7a6c0ee674c3","condition":"full-information","relevant_dimensions":["antennae","legs"],"bee_group":{"antennae":"B","wings":"X","pattern":"X","legs":"M"},"action":"harvest","summary":"good-harvest","bonus":0.2800000000000004},{"rt":532.5,"stimulus":"\n                    <p><b>Action: <em>harvest</em></b></p>\n                    <p>This is the bee that you just saw.</p>\n                    <img src=\"bees-with-color/bee-A1SM.svg\" width=\"200\">\n                    <p><span class=\"greenText\"><b>Successful harvest!</b></span><br>Your pay has increased by $0.02. Your bonus pay is now $0.44.</p>\n            ","response":0,"trial_type":"html-button-response","trial_index":36,"time_elapsed":135935,"internal_node_id":"0.0-4.0-1.14","subject_id":"6103ec2bf88328284fd894bc","study_id":"60edd13110225f80f9f3709b","session_id":"6196c1ed957f7a6c0ee674c3","condition":"full-information","relevant_dimensions":["antennae","legs"],"bee_group":{"antennae":"B","wings":"X","pattern":"X","legs":"M"},"bonus":0.2800000000000004},{"rt":1437.9000000059605,"stimulus":"bees-with-color/bee-B1SM.svg","response":0,"trial_type":"image-button-response","trial_index":37,"time_elapsed":137375,"internal_node_id":"0.0-4.0-0.15","subject_id":"6103ec2bf88328284fd894bc","study_id":"60edd13110225f80f9f3709b","session_id":"6196c1ed957f7a6c0ee674c3","condition":"full-information","relevant_dimensions":["antennae","legs"],"bee_group":{"antennae":"B","wings":"X","pattern":"X","legs":"M"},"action":"harvest","summary":"bad-harvest","bonus":0.2800000000000004},{"rt":613.8000000119209,"stimulus":"\n                    <p><b>Action: <em>harvest</em></b></p>\n                    <p>This is the bee that you just saw.</p>\n                    <img src=\"bees-with-color/bee-B1SM.svg\" width=\"200\">\n                    <p><span class=\"redText\">Bad choice, the bee was angry.</span><br><b>You have been stung!</b><br>Your pay has been decreased by $0.10. Your bonus pay is now $0.34.</p>\n            ","response":0,"trial_type":"html-button-response","trial_index":38,"time_elapsed":137990,"internal_node_id":"0.0-4.0-1.15","subject_id":"6103ec2bf88328284fd894bc","study_id":"60edd13110225f80f9f3709b","session_id":"6196c1ed957f7a6c0ee674c3","condition":"full-information","relevant_dimensions":["antennae","legs"],"bee_group":{"antennae":"B","wings":"X","pattern":"X","legs":"M"},"bonus":0.2800000000000004},{"rt":3621.800000011921,"stimulus":"bees-with-color/bee-A1DF.svg","response":0,"trial_type":"image-button-response","trial_index":39,"time_elapsed":141613,"internal_node_id":"0.0-4.0-0.16","subject_id":"6103ec2bf88328284fd894bc","study_id":"60edd13110225f80f9f3709b","session_id":"6196c1ed957f7a6c0ee674c3","condition":"full-information","relevant_dimensions":["antennae","legs"],"bee_group":{"antennae":"B","wings":"X","pattern":"X","legs":"M"},"action":"harvest","summary":"good-harvest","bonus":0.2800000000000004},{"rt":663.4000000059605,"stimulus":"\n                    <p><b>Action: <em>harvest</em></b></p>\n                    <p>This is the bee that you just saw.</p>\n                    <img src=\"bees-with-color/bee-A1DF.svg\" width=\"200\">\n                    <p><span class=\"greenText\"><b>Successful harvest!</b></span><br>Your pay has increased by $0.02. Your bonus pay is now $0.36.</p>\n            ","response":0,"trial_type":"html-button-response","trial_index":40,"time_elapsed":142278,"internal_node_id":"0.0-4.0-1.16","subject_id":"6103ec2bf88328284fd894bc","study_id":"60edd13110225f80f9f3709b","session_id":"6196c1ed957f7a6c0ee674c3","condition":"full-information","relevant_dimensions":["antennae","legs"],"bee_group":{"antennae":"B","wings":"X","pattern":"X","legs":"M"},"bonus":0.2800000000000004},{"rt":2939.300000011921,"stimulus":"bees-with-color/bee-B1SM.svg","response":0,"trial_type":"image-button-response","trial_index":41,"time_elapsed":145219,"internal_node_id":"0.0-4.0-0.17","subject_id":"6103ec2bf88328284fd894bc","study_id":"60edd13110225f80f9f3709b","session_id":"6196c1ed957f7a6c0ee674c3","condition":"full-information","relevant_dimensions":["antennae","legs"],"bee_group":{"antennae":"B","wings":"X","pattern":"X","legs":"M"},"action":"harvest","summary":"bad-harvest","bonus":0.2800000000000004},{"rt":1216.5999999940395,"stimulus":"\n                    <p><b>Action: <em>harvest</em></b></p>\n                    <p>This is the bee that you just saw.</p>\n                    <img src=\"bees-with-color/bee-B1SM.svg\" width=\"200\">\n                    <p><span class=\"redText\">Bad choice, the bee was angry.</span><br><b>You have been stung!</b><br>Your pay has been decreased by $0.10. Your bonus pay is now $0.26.</p>\n            ","response":0,"trial_type":"html-button-response","trial_index":42,"time_elapsed":146437,"internal_node_id":"0.0-4.0-1.17","subject_id":"6103ec2bf88328284fd894bc","study_id":"60edd13110225f80f9f3709b","session_id":"6196c1ed957f7a6c0ee674c3","condition":"full-information","relevant_dimensions":["antennae","legs"],"bee_group":{"antennae":"B","wings":"X","pattern":"X","legs":"M"},"bonus":0.2800000000000004},{"rt":2218.0999999940395,"stimulus":"bees-with-color/bee-B2SF.svg","response":0,"trial_type":"image-button-response","trial_index":43,"time_elapsed":148657,"internal_node_id":"0.0-4.0-0.18","subject_id":"6103ec2bf88328284fd894bc","study_id":"60edd13110225f80f9f3709b","session_id":"6196c1ed957f7a6c0ee674c3","condition":"full-information","relevant_dimensions":["antennae","legs"],"bee_group":{"antennae":"B","wings":"X","pattern":"X","legs":"M"},"action":"harvest","summary":"good-harvest","bonus":0.2800000000000004},{"rt":545.9000000059605,"stimulus":"\n                    <p><b>Action: <em>harvest</em></b></p>\n                    <p>This is the bee that you just saw.</p>\n                    <img src=\"bees-with-color/bee-B2SF.svg\" width=\"200\">\n                    <p><span class=\"greenText\"><b>Successful harvest!</b></span><br>Your pay has increased by $0.02. Your bonus pay is now $0.28.</p>\n            ","response":0,"trial_type":"html-button-response","trial_index":44,"time_elapsed":149204,"internal_node_id":"0.0-4.0-1.18","subject_id":"6103ec2bf88328284fd894bc","study_id":"60edd13110225f80f9f3709b","session_id":"6196c1ed957f7a6c0ee674c3","condition":"full-information","relevant_dimensions":["antennae","legs"],"bee_group":{"antennae":"B","wings":"X","pattern":"X","legs":"M"},"bonus":0.2800000000000004},{"rt":1276.2000000178814,"stimulus":"bees-with-color/bee-A1SF.svg","response":0,"trial_type":"image-button-response","trial_index":45,"time_elapsed":150481,"internal_node_id":"0.0-4.0-0.19","subject_id":"6103ec2bf88328284fd894bc","study_id":"60edd13110225f80f9f3709b","session_id":"6196c1ed957f7a6c0ee674c3","condition":"full-information","relevant_dimensions":["antennae","legs"],"bee_group":{"antennae":"B","wings":"X","pattern":"X","legs":"M"},"action":"harvest","summary":"good-harvest","bonus":0.2800000000000004},{"rt":536.7000000178814,"stimulus":"\n                    <p><b>Action: <em>harvest</em></b></p>\n                    <p>This is the bee that you just saw.</p>\n                    <img src=\"bees-with-color/bee-A1SF.svg\" width=\"200\">\n                    <p><span class=\"greenText\"><b>Successful harvest!</b></span><br>Your pay has increased by $0.02. Your bonus pay is now $0.30.</p>\n            ","response":0,"trial_type":"html-button-response","trial_index":46,"time_elapsed":151019,"internal_node_id":"0.0-4.0-1.19","subject_id":"6103ec2bf88328284fd894bc","study_id":"60edd13110225f80f9f3709b","session_id":"6196c1ed957f7a6c0ee674c3","condition":"full-information","relevant_dimensions":["antennae","legs"],"bee_group":{"antennae":"B","wings":"X","pattern":"X","legs":"M"},"bonus":0.2800000000000004},{"rt":1520,"stimulus":"bees-with-color/bee-B2SM.svg","response":1,"trial_type":"image-button-response","trial_index":47,"time_elapsed":152541,"internal_node_id":"0.0-4.0-0.20","subject_id":"6103ec2bf88328284fd894bc","study_id":"60edd13110225f80f9f3709b","session_id":"6196c1ed957f7a6c0ee674c3","condition":"full-information","relevant_dimensions":["antennae","legs"],"bee_group":{"antennae":"B","wings":"X","pattern":"X","legs":"M"},"action":"avoid","summary":"good-avoid","bonus":0.2800000000000004},{"rt":1714.2000000178814,"stimulus":"\n                    <p><b>Action: <em>avoid</em></b></p>\n                    <p>This is the bee that you just saw.</p>\n                    <img src=\"bees-with-color/bee-B2SM.svg\" width=\"200\">\n                    <p><span class=\"greenText\">Good choice!</span>  This bee would have stung you.<br>Your bonus pay is unchanged, and remains at $0.30.</p>\n            ","response":0,"trial_type":"html-button-response","trial_index":48,"time_elapsed":154256,"internal_node_id":"0.0-4.0-1.20","subject_id":"6103ec2bf88328284fd894bc","study_id":"60edd13110225f80f9f3709b","session_id":"6196c1ed957f7a6c0ee674c3","condition":"full-information","relevant_dimensions":["antennae","legs"],"bee_group":{"antennae":"B","wings":"X","pattern":"X","legs":"M"},"bonus":0.2800000000000004},{"rt":4044.199999988079,"stimulus":"bees-with-color/bee-A2DM.svg","response":0,"trial_type":"image-button-response","trial_index":49,"time_elapsed":158302,"internal_node_id":"0.0-4.0-0.21","subject_id":"6103ec2bf88328284fd894bc","study_id":"60edd13110225f80f9f3709b","session_id":"6196c1ed957f7a6c0ee674c3","condition":"full-information","relevant_dimensions":["antennae","legs"],"bee_group":{"antennae":"B","wings":"X","pattern":"X","legs":"M"},"action":"harvest","summary":"good-harvest","bonus":0.2800000000000004},{"rt":473.7000000178814,"stimulus":"\n                    <p><b>Action: <em>harvest</em></b></p>\n                    <p>This is the bee that you just saw.</p>\n                    <img src=\"bees-with-color/bee-A2DM.svg\" width=\"200\">\n                    <p><span class=\"greenText\"><b>Successful harvest!</b></span><br>Your pay has increased by $0.02. Your bonus pay is now $0.32.</p>\n            ","response":0,"trial_type":"html-button-response","trial_index":50,"time_elapsed":158777,"internal_node_id":"0.0-4.0-1.21","subject_id":"6103ec2bf88328284fd894bc","study_id":"60edd13110225f80f9f3709b","session_id":"6196c1ed957f7a6c0ee674c3","condition":"full-information","relevant_dimensions":["antennae","legs"],"bee_group":{"antennae":"B","wings":"X","pattern":"X","legs":"M"},"bonus":0.2800000000000004},{"rt":1729,"stimulus":"bees-with-color/bee-A1DM.svg","response":0,"trial_type":"image-button-response","trial_index":51,"time_elapsed":160508,"internal_node_id":"0.0-4.0-0.22","subject_id":"6103ec2bf88328284fd894bc","study_id":"60edd13110225f80f9f3709b","session_id":"6196c1ed957f7a6c0ee674c3","condition":"full-information","relevant_dimensions":["antennae","legs"],"bee_group":{"antennae":"B","wings":"X","pattern":"X","legs":"M"},"action":"harvest","summary":"good-harvest","bonus":0.2800000000000004},{"rt":485.2000000178814,"stimulus":"\n                    <p><b>Action: <em>harvest</em></b></p>\n                    <p>This is the bee that you just saw.</p>\n                    <img src=\"bees-with-color/bee-A1DM.svg\" width=\"200\">\n                    <p><span class=\"greenText\"><b>Successful harvest!</b></span><br>Your pay has increased by $0.02. Your bonus pay is now $0.34.</p>\n            ","response":0,"trial_type":"html-button-response","trial_index":52,"time_elapsed":160994,"internal_node_id":"0.0-4.0-1.22","subject_id":"6103ec2bf88328284fd894bc","study_id":"60edd13110225f80f9f3709b","session_id":"6196c1ed957f7a6c0ee674c3","condition":"full-information","relevant_dimensions":["antennae","legs"],"bee_group":{"antennae":"B","wings":"X","pattern":"X","legs":"M"},"bonus":0.2800000000000004},{"rt":1066.5,"stimulus":"bees-with-color/bee-B1DF.svg","response":1,"trial_type":"image-button-response","trial_index":53,"time_elapsed":162062,"internal_node_id":"0.0-4.0-0.23","subject_id":"6103ec2bf88328284fd894bc","study_id":"60edd13110225f80f9f3709b","session_id":"6196c1ed957f7a6c0ee674c3","condition":"full-information","relevant_dimensions":["antennae","legs"],"bee_group":{"antennae":"B","wings":"X","pattern":"X","legs":"M"},"action":"avoid","summary":"bad-avoid","bonus":0.2800000000000004},{"rt":676.6000000238419,"stimulus":"\n                    <p><b>Action: <em>avoid</em></b></p>\n                    <p>This is the bee that you just saw.</p>\n                    <img src=\"bees-with-color/bee-B1DF.svg\" width=\"200\">\n                    <p><span class=\"redText\">Bad choice,</span> the bee was friendly.<br>Your bonus pay is unchanged, and remains at $0.34.</p>\n            ","response":0,"trial_type":"html-button-response","trial_index":54,"time_elapsed":162740,"internal_node_id":"0.0-4.0-1.23","subject_id":"6103ec2bf88328284fd894bc","study_id":"60edd13110225f80f9f3709b","session_id":"6196c1ed957f7a6c0ee674c3","condition":"full-information","relevant_dimensions":["antennae","legs"],"bee_group":{"antennae":"B","wings":"X","pattern":"X","legs":"M"},"bonus":0.2800000000000004},{"rt":1047.7000000178814,"stimulus":"bees-with-color/bee-B1DM.svg","response":0,"trial_type":"image-button-response","trial_index":55,"time_elapsed":163789,"internal_node_id":"0.0-4.0-0.24","subject_id":"6103ec2bf88328284fd894bc","study_id":"60edd13110225f80f9f3709b","session_id":"6196c1ed957f7a6c0ee674c3","condition":"full-information","relevant_dimensions":["antennae","legs"],"bee_group":{"antennae":"B","wings":"X","pattern":"X","legs":"M"},"action":"harvest","summary":"bad-harvest","bonus":0.2800000000000004},{"rt":752.5,"stimulus":"\n                    <p><b>Action: <em>harvest</em></b></p>\n                    <p>This is the bee that you just saw.</p>\n                    <img src=\"bees-with-color/bee-B1DM.svg\" width=\"200\">\n                    <p><span class=\"redText\">Bad choice, the bee was angry.</span><br><b>You have been stung!</b><br>Your pay has been decreased by $0.10. Your bonus pay is now $0.24.</p>\n            ","response":0,"trial_type":"html-button-response","trial_index":56,"time_elapsed":164544,"internal_node_id":"0.0-4.0-1.24","subject_id":"6103ec2bf88328284fd894bc","study_id":"60edd13110225f80f9f3709b","session_id":"6196c1ed957f7a6c0ee674c3","condition":"full-information","relevant_dimensions":["antennae","legs"],"bee_group":{"antennae":"B","wings":"X","pattern":"X","legs":"M"},"bonus":0.2800000000000004},{"rt":1540.5999999940395,"stimulus":"bees-with-color/bee-B1SF.svg","response":0,"trial_type":"image-button-response","trial_index":57,"time_elapsed":166085,"internal_node_id":"0.0-4.0-0.25","subject_id":"6103ec2bf88328284fd894bc","study_id":"60edd13110225f80f9f3709b","session_id":"6196c1ed957f7a6c0ee674c3","condition":"full-information","relevant_dimensions":["antennae","legs"],"bee_group":{"antennae":"B","wings":"X","pattern":"X","legs":"M"},"action":"harvest","summary":"good-harvest","bonus":0.2800000000000004},{"rt":501.59999999403954,"stimulus":"\n                    <p><b>Action: <em>harvest</em></b></p>\n                    <p>This is the bee that you just saw.</p>\n                    <img src=\"bees-with-color/bee-B1SF.svg\" width=\"200\">\n                    <p><span class=\"greenText\"><b>Successful harvest!</b></span><br>Your pay has increased by $0.02. Your bonus pay is now $0.26.</p>\n            ","response":0,"trial_type":"html-button-response","trial_index":58,"time_elapsed":166589,"internal_node_id":"0.0-4.0-1.25","subject_id":"6103ec2bf88328284fd894bc","study_id":"60edd13110225f80f9f3709b","session_id":"6196c1ed957f7a6c0ee674c3","condition":"full-information","relevant_dimensions":["antennae","legs"],"bee_group":{"antennae":"B","wings":"X","pattern":"X","legs":"M"},"bonus":0.2800000000000004},{"rt":1365.7000000178814,"stimulus":"bees-with-color/bee-A2SM.svg","response":0,"trial_type":"image-button-response","trial_index":59,"time_elapsed":167956,"internal_node_id":"0.0-4.0-0.26","subject_id":"6103ec2bf88328284fd894bc","study_id":"60edd13110225f80f9f3709b","session_id":"6196c1ed957f7a6c0ee674c3","condition":"full-information","relevant_dimensions":["antennae","legs"],"bee_group":{"antennae":"B","wings":"X","pattern":"X","legs":"M"},"action":"harvest","summary":"good-harvest","bonus":0.2800000000000004},{"rt":450.19999998807907,"stimulus":"\n                    <p><b>Action: <em>harvest</em></b></p>\n                    <p>This is the bee that you just saw.</p>\n                    <img src=\"bees-with-color/bee-A2SM.svg\" width=\"200\">\n                    <p><span class=\"greenText\"><b>Successful harvest!</b></span><br>Your pay has increased by $0.02. Your bonus pay is now $0.28.</p>\n            ","response":0,"trial_type":"html-button-response","trial_index":60,"time_elapsed":168408,"internal_node_id":"0.0-4.0-1.26","subject_id":"6103ec2bf88328284fd894bc","study_id":"60edd13110225f80f9f3709b","session_id":"6196c1ed957f7a6c0ee674c3","condition":"full-information","relevant_dimensions":["antennae","legs"],"bee_group":{"antennae":"B","wings":"X","pattern":"X","legs":"M"},"bonus":0.2800000000000004},{"rt":1991.199999988079,"stimulus":"bees-with-color/bee-A1SM.svg","response":0,"trial_type":"image-button-response","trial_index":61,"time_elapsed":170401,"internal_node_id":"0.0-4.0-0.27","subject_id":"6103ec2bf88328284fd894bc","study_id":"60edd13110225f80f9f3709b","session_id":"6196c1ed957f7a6c0ee674c3","condition":"full-information","relevant_dimensions":["antennae","legs"],"bee_group":{"antennae":"B","wings":"X","pattern":"X","legs":"M"},"action":"harvest","summary":"good-harvest","bonus":0.2800000000000004},{"rt":505.59999999403954,"stimulus":"\n                    <p><b>Action: <em>harvest</em></b></p>\n                    <p>This is the bee that you just saw.</p>\n                    <img src=\"bees-with-color/bee-A1SM.svg\" width=\"200\">\n                    <p><span class=\"greenText\"><b>Successful harvest!</b></span><br>Your pay has increased by $0.02. Your bonus pay is now $0.30.</p>\n            ","response":0,"trial_type":"html-button-response","trial_index":62,"time_elapsed":170907,"internal_node_id":"0.0-4.0-1.27","subject_id":"6103ec2bf88328284fd894bc","study_id":"60edd13110225f80f9f3709b","session_id":"6196c1ed957f7a6c0ee674c3","condition":"full-information","relevant_dimensions":["antennae","legs"],"bee_group":{"antennae":"B","wings":"X","pattern":"X","legs":"M"},"bonus":0.2800000000000004},{"rt":1610.199999988079,"stimulus":"bees-with-color/bee-A2DF.svg","response":1,"trial_type":"image-button-response","trial_index":63,"time_elapsed":172518,"internal_node_id":"0.0-4.0-0.28","subject_id":"6103ec2bf88328284fd894bc","study_id":"60edd13110225f80f9f3709b","session_id":"6196c1ed957f7a6c0ee674c3","condition":"full-information","relevant_dimensions":["antennae","legs"],"bee_group":{"antennae":"B","wings":"X","pattern":"X","legs":"M"},"action":"avoid","summary":"bad-avoid","bonus":0.2800000000000004},{"rt":1380.7999999821186,"stimulus":"\n                    <p><b>Action: <em>avoid</em></b></p>\n                    <p>This is the bee that you just saw.</p>\n                    <img src=\"bees-with-color/bee-A2DF.svg\" width=\"200\">\n                    <p><span class=\"redText\">Bad choice,</span> the bee was friendly.<br>Your bonus pay is unchanged, and remains at $0.30.</p>\n            ","response":0,"trial_type":"html-button-response","trial_index":64,"time_elapsed":173901,"internal_node_id":"0.0-4.0-1.28","subject_id":"6103ec2bf88328284fd894bc","study_id":"60edd13110225f80f9f3709b","session_id":"6196c1ed957f7a6c0ee674c3","condition":"full-information","relevant_dimensions":["antennae","legs"],"bee_group":{"antennae":"B","wings":"X","pattern":"X","legs":"M"},"bonus":0.2800000000000004},{"rt":1209.300000011921,"stimulus":"bees-with-color/bee-B2DF.svg","response":1,"trial_type":"image-button-response","trial_index":65,"time_elapsed":175111,"internal_node_id":"0.0-4.0-0.29","subject_id":"6103ec2bf88328284fd894bc","study_id":"60edd13110225f80f9f3709b","session_id":"6196c1ed957f7a6c0ee674c3","condition":"full-information","relevant_dimensions":["antennae","legs"],"bee_group":{"antennae":"B","wings":"X","pattern":"X","legs":"M"},"action":"avoid","summary":"bad-avoid","bonus":0.2800000000000004},{"rt":650.6999999880791,"stimulus":"\n                    <p><b>Action: <em>avoid</em></b></p>\n                    <p>This is the bee that you just saw.</p>\n                    <img src=\"bees-with-color/bee-B2DF.svg\" width=\"200\">\n                    <p><span class=\"redText\">Bad choice,</span> the bee was friendly.<br>Your bonus pay is unchanged, and remains at $0.30.</p>\n            ","response":0,"trial_type":"html-button-response","trial_index":66,"time_elapsed":175763,"internal_node_id":"0.0-4.0-1.29","subject_id":"6103ec2bf88328284fd894bc","study_id":"60edd13110225f80f9f3709b","session_id":"6196c1ed957f7a6c0ee674c3","condition":"full-information","relevant_dimensions":["antennae","legs"],"bee_group":{"antennae":"B","wings":"X","pattern":"X","legs":"M"},"bonus":0.2800000000000004},{"rt":2307.5,"stimulus":"bees-with-color/bee-A2SF.svg","response":1,"trial_type":"image-button-response","trial_index":67,"time_elapsed":178072,"internal_node_id":"0.0-4.0-0.30","subject_id":"6103ec2bf88328284fd894bc","study_id":"60edd13110225f80f9f3709b","session_id":"6196c1ed957f7a6c0ee674c3","condition":"full-information","relevant_dimensions":["antennae","legs"],"bee_group":{"antennae":"B","wings":"X","pattern":"X","legs":"M"},"action":"avoid","summary":"bad-avoid","bonus":0.2800000000000004},{"rt":571.0999999940395,"stimulus":"\n                    <p><b>Action: <em>avoid</em></b></p>\n                    <p>This is the bee that you just saw.</p>\n                    <img src=\"bees-with-color/bee-A2SF.svg\" width=\"200\">\n                    <p><span class=\"redText\">Bad choice,</span> the bee was friendly.<br>Your bonus pay is unchanged, and remains at $0.30.</p>\n            ","response":0,"trial_type":"html-button-response","trial_index":68,"time_elapsed":178645,"internal_node_id":"0.0-4.0-1.30","subject_id":"6103ec2bf88328284fd894bc","study_id":"60edd13110225f80f9f3709b","session_id":"6196c1ed957f7a6c0ee674c3","condition":"full-information","relevant_dimensions":["antennae","legs"],"bee_group":{"antennae":"B","wings":"X","pattern":"X","legs":"M"},"bonus":0.2800000000000004},{"rt":1366.5999999940395,"stimulus":"bees-with-color/bee-B2DM.svg","response":1,"trial_type":"image-button-response","trial_index":69,"time_elapsed":180012,"internal_node_id":"0.0-4.0-0.31","subject_id":"6103ec2bf88328284fd894bc","study_id":"60edd13110225f80f9f3709b","session_id":"6196c1ed957f7a6c0ee674c3","condition":"full-information","relevant_dimensions":["antennae","legs"],"bee_group":{"antennae":"B","wings":"X","pattern":"X","legs":"M"},"action":"avoid","summary":"good-avoid","bonus":0.2800000000000004},{"rt":628.5,"stimulus":"\n                    <p><b>Action: <em>avoid</em></b></p>\n                    <p>This is the bee that you just saw.</p>\n                    <img src=\"bees-with-color/bee-B2DM.svg\" width=\"200\">\n                    <p><span class=\"greenText\">Good choice!</span>  This bee would have stung you.<br>Your bonus pay is unchanged, and remains at $0.30.</p>\n            ","response":0,"trial_type":"html-button-response","trial_index":70,"time_elapsed":180643,"internal_node_id":"0.0-4.0-1.31","subject_id":"6103ec2bf88328284fd894bc","study_id":"60edd13110225f80f9f3709b","session_id":"6196c1ed957f7a6c0ee674c3","condition":"full-information","relevant_dimensions":["antennae","legs"],"bee_group":{"antennae":"B","wings":"X","pattern":"X","legs":"M"},"bonus":0.2800000000000004},{"rt":1378.9000000059605,"stimulus":"bees-with-color/bee-A2DM.svg","response":0,"trial_type":"image-button-response","trial_index":71,"time_elapsed":182023,"internal_node_id":"0.0-4.0-0.32","subject_id":"6103ec2bf88328284fd894bc","study_id":"60edd13110225f80f9f3709b","session_id":"6196c1ed957f7a6c0ee674c3","condition":"full-information","relevant_dimensions":["antennae","legs"],"bee_group":{"antennae":"B","wings":"X","pattern":"X","legs":"M"},"action":"harvest","summary":"good-harvest","bonus":0.2800000000000004},{"rt":559.9000000059605,"stimulus":"\n                    <p><b>Action: <em>harvest</em></b></p>\n                    <p>This is the bee that you just saw.</p>\n                    <img src=\"bees-with-color/bee-A2DM.svg\" width=\"200\">\n                    <p><span class=\"greenText\"><b>Successful harvest!</b></span><br>Your pay has increased by $0.02. Your bonus pay is now $0.32.</p>\n            ","response":0,"trial_type":"html-button-response","trial_index":72,"time_elapsed":182584,"internal_node_id":"0.0-4.0-1.32","subject_id":"6103ec2bf88328284fd894bc","study_id":"60edd13110225f80f9f3709b","session_id":"6196c1ed957f7a6c0ee674c3","condition":"full-information","relevant_dimensions":["antennae","legs"],"bee_group":{"antennae":"B","wings":"X","pattern":"X","legs":"M"},"bonus":0.2800000000000004},{"rt":1221.4000000059605,"stimulus":"bees-with-color/bee-A2DF.svg","response":0,"trial_type":"image-button-response","trial_index":73,"time_elapsed":183807,"internal_node_id":"0.0-4.0-0.33","subject_id":"6103ec2bf88328284fd894bc","study_id":"60edd13110225f80f9f3709b","session_id":"6196c1ed957f7a6c0ee674c3","condition":"full-information","relevant_dimensions":["antennae","legs"],"bee_group":{"antennae":"B","wings":"X","pattern":"X","legs":"M"},"action":"harvest","summary":"good-harvest","bonus":0.2800000000000004},{"rt":466.40000000596046,"stimulus":"\n                    <p><b>Action: <em>harvest</em></b></p>\n                    <p>This is the bee that you just saw.</p>\n                    <img src=\"bees-with-color/bee-A2DF.svg\" width=\"200\">\n                    <p><span class=\"greenText\"><b>Successful harvest!</b></span><br>Your pay has increased by $0.02. Your bonus pay is now $0.34.</p>\n            ","response":0,"trial_type":"html-button-response","trial_index":74,"time_elapsed":184275,"internal_node_id":"0.0-4.0-1.33","subject_id":"6103ec2bf88328284fd894bc","study_id":"60edd13110225f80f9f3709b","session_id":"6196c1ed957f7a6c0ee674c3","condition":"full-information","relevant_dimensions":["antennae","legs"],"bee_group":{"antennae":"B","wings":"X","pattern":"X","legs":"M"},"bonus":0.2800000000000004},{"rt":1441.800000011921,"stimulus":"bees-with-color/bee-A1DF.svg","response":1,"trial_type":"image-button-response","trial_index":75,"time_elapsed":185718,"internal_node_id":"0.0-4.0-0.34","subject_id":"6103ec2bf88328284fd894bc","study_id":"60edd13110225f80f9f3709b","session_id":"6196c1ed957f7a6c0ee674c3","condition":"full-information","relevant_dimensions":["antennae","legs"],"bee_group":{"antennae":"B","wings":"X","pattern":"X","legs":"M"},"action":"avoid","summary":"bad-avoid","bonus":0.2800000000000004},{"rt":481.09999999403954,"stimulus":"\n                    <p><b>Action: <em>avoid</em></b></p>\n                    <p>This is the bee that you just saw.</p>\n                    <img src=\"bees-with-color/bee-A1DF.svg\" width=\"200\">\n                    <p><span class=\"redText\">Bad choice,</span> the bee was friendly.<br>Your bonus pay is unchanged, and remains at $0.34.</p>\n            ","response":0,"trial_type":"html-button-response","trial_index":76,"time_elapsed":186200,"internal_node_id":"0.0-4.0-1.34","subject_id":"6103ec2bf88328284fd894bc","study_id":"60edd13110225f80f9f3709b","session_id":"6196c1ed957f7a6c0ee674c3","condition":"full-information","relevant_dimensions":["antennae","legs"],"bee_group":{"antennae":"B","wings":"X","pattern":"X","legs":"M"},"bonus":0.2800000000000004},{"rt":1487.5999999940395,"stimulus":"bees-with-color/bee-B1DF.svg","response":1,"trial_type":"image-button-response","trial_index":77,"time_elapsed":187689,"internal_node_id":"0.0-4.0-0.35","subject_id":"6103ec2bf88328284fd894bc","study_id":"60edd13110225f80f9f3709b","session_id":"6196c1ed957f7a6c0ee674c3","condition":"full-information","relevant_dimensions":["antennae","legs"],"bee_group":{"antennae":"B","wings":"X","pattern":"X","legs":"M"},"action":"avoid","summary":"bad-avoid","bonus":0.2800000000000004},{"rt":515.4000000059605,"stimulus":"\n                    <p><b>Action: <em>avoid</em></b></p>\n                    <p>This is the bee that you just saw.</p>\n                    <img src=\"bees-with-color/bee-B1DF.svg\" width=\"200\">\n                    <p><span class=\"redText\">Bad choice,</span> the bee was friendly.<br>Your bonus pay is unchanged, and remains at $0.34.</p>\n            ","response":0,"trial_type":"html-button-response","trial_index":78,"time_elapsed":188206,"internal_node_id":"0.0-4.0-1.35","subject_id":"6103ec2bf88328284fd894bc","study_id":"60edd13110225f80f9f3709b","session_id":"6196c1ed957f7a6c0ee674c3","condition":"full-information","relevant_dimensions":["antennae","legs"],"bee_group":{"antennae":"B","wings":"X","pattern":"X","legs":"M"},"bonus":0.2800000000000004},{"rt":1898.2999999821186,"stimulus":"bees-with-color/bee-B1SM.svg","response":0,"trial_type":"image-button-response","trial_index":79,"time_elapsed":190106,"internal_node_id":"0.0-4.0-0.36","subject_id":"6103ec2bf88328284fd894bc","study_id":"60edd13110225f80f9f3709b","session_id":"6196c1ed957f7a6c0ee674c3","condition":"full-information","relevant_dimensions":["antennae","legs"],"bee_group":{"antennae":"B","wings":"X","pattern":"X","legs":"M"},"action":"harvest","summary":"bad-harvest","bonus":0.2800000000000004},{"rt":634.0999999940395,"stimulus":"\n                    <p><b>Action: <em>harvest</em></b></p>\n                    <p>This is the bee that you just saw.</p>\n                    <img src=\"bees-with-color/bee-B1SM.svg\" width=\"200\">\n                    <p><span class=\"redText\">Bad choice, the bee was angry.</span><br><b>You have been stung!</b><br>Your pay has been decreased by $0.10. Your bonus pay is now $0.24.</p>\n            ","response":0,"trial_type":"html-button-response","trial_index":80,"time_elapsed":190741,"internal_node_id":"0.0-4.0-1.36","subject_id":"6103ec2bf88328284fd894bc","study_id":"60edd13110225f80f9f3709b","session_id":"6196c1ed957f7a6c0ee674c3","condition":"full-information","relevant_dimensions":["antennae","legs"],"bee_group":{"antennae":"B","wings":"X","pattern":"X","legs":"M"},"bonus":0.2800000000000004},{"rt":1281.2000000178814,"stimulus":"bees-with-color/bee-B2SF.svg","response":0,"trial_type":"image-button-response","trial_index":81,"time_elapsed":192024,"internal_node_id":"0.0-4.0-0.37","subject_id":"6103ec2bf88328284fd894bc","study_id":"60edd13110225f80f9f3709b","session_id":"6196c1ed957f7a6c0ee674c3","condition":"full-information","relevant_dimensions":["antennae","legs"],"bee_group":{"antennae":"B","wings":"X","pattern":"X","legs":"M"},"action":"harvest","summary":"good-harvest","bonus":0.2800000000000004},{"rt":444.2000000178814,"stimulus":"\n                    <p><b>Action: <em>harvest</em></b></p>\n                    <p>This is the bee that you just saw.</p>\n                    <img src=\"bees-with-color/bee-B2SF.svg\" width=\"200\">\n                    <p><span class=\"greenText\"><b>Successful harvest!</b></span><br>Your pay has increased by $0.02. Your bonus pay is now $0.26.</p>\n            ","response":0,"trial_type":"html-button-response","trial_index":82,"time_elapsed":192469,"internal_node_id":"0.0-4.0-1.37","subject_id":"6103ec2bf88328284fd894bc","study_id":"60edd13110225f80f9f3709b","session_id":"6196c1ed957f7a6c0ee674c3","condition":"full-information","relevant_dimensions":["antennae","legs"],"bee_group":{"antennae":"B","wings":"X","pattern":"X","legs":"M"},"bonus":0.2800000000000004},{"rt":1183.7000000178814,"stimulus":"bees-with-color/bee-A1SM.svg","response":0,"trial_type":"image-button-response","trial_index":83,"time_elapsed":193654,"internal_node_id":"0.0-4.0-0.38","subject_id":"6103ec2bf88328284fd894bc","study_id":"60edd13110225f80f9f3709b","session_id":"6196c1ed957f7a6c0ee674c3","condition":"full-information","relevant_dimensions":["antennae","legs"],"bee_group":{"antennae":"B","wings":"X","pattern":"X","legs":"M"},"action":"harvest","summary":"good-harvest","bonus":0.2800000000000004},{"rt":689.5,"stimulus":"\n                    <p><b>Action: <em>harvest</em></b></p>\n                    <p>This is the bee that you just saw.</p>\n                    <img src=\"bees-with-color/bee-A1SM.svg\" width=\"200\">\n                    <p><span class=\"greenText\"><b>Successful harvest!</b></span><br>Your pay has increased by $0.02. Your bonus pay is now $0.28.</p>\n            ","response":0,"trial_type":"html-button-response","trial_index":84,"time_elapsed":194345,"internal_node_id":"0.0-4.0-1.38","subject_id":"6103ec2bf88328284fd894bc","study_id":"60edd13110225f80f9f3709b","session_id":"6196c1ed957f7a6c0ee674c3","condition":"full-information","relevant_dimensions":["antennae","legs"],"bee_group":{"antennae":"B","wings":"X","pattern":"X","legs":"M"},"bonus":0.2800000000000004},{"rt":1634.1000000238419,"stimulus":"bees-with-color/bee-B2DM.svg","response":0,"trial_type":"image-button-response","trial_index":85,"time_elapsed":195980,"internal_node_id":"0.0-4.0-0.39","subject_id":"6103ec2bf88328284fd894bc","study_id":"60edd13110225f80f9f3709b","session_id":"6196c1ed957f7a6c0ee674c3","condition":"full-information","relevant_dimensions":["antennae","legs"],"bee_group":{"antennae":"B","wings":"X","pattern":"X","legs":"M"},"action":"harvest","summary":"bad-harvest","bonus":0.2800000000000004},{"rt":450.2000000178814,"stimulus":"\n                    <p><b>Action: <em>harvest</em></b></p>\n                    <p>This is the bee that you just saw.</p>\n                    <img src=\"bees-with-color/bee-B2DM.svg\" width=\"200\">\n                    <p><span class=\"redText\">Bad choice, the bee was angry.</span><br><b>You have been stung!</b><br>Your pay has been decreased by $0.10. Your bonus pay is now $0.18.</p>\n            ","response":0,"trial_type":"html-button-response","trial_index":86,"time_elapsed":196431,"internal_node_id":"0.0-4.0-1.39","subject_id":"6103ec2bf88328284fd894bc","study_id":"60edd13110225f80f9f3709b","session_id":"6196c1ed957f7a6c0ee674c3","condition":"full-information","relevant_dimensions":["antennae","legs"],"bee_group":{"antennae":"B","wings":"X","pattern":"X","legs":"M"},"bonus":0.2800000000000004},{"rt":1238.800000011921,"stimulus":"bees-with-color/bee-B1DM.svg","response":0,"trial_type":"image-button-response","trial_index":87,"time_elapsed":197671,"internal_node_id":"0.0-4.0-0.40","subject_id":"6103ec2bf88328284fd894bc","study_id":"60edd13110225f80f9f3709b","session_id":"6196c1ed957f7a6c0ee674c3","condition":"full-information","relevant_dimensions":["antennae","legs"],"bee_group":{"antennae":"B","wings":"X","pattern":"X","legs":"M"},"action":"harvest","summary":"bad-harvest","bonus":0.2800000000000004},{"rt":466.09999999403954,"stimulus":"\n                    <p><b>Action: <em>harvest</em></b></p>\n                    <p>This is the bee that you just saw.</p>\n                    <img src=\"bees-with-color/bee-B1DM.svg\" width=\"200\">\n                    <p><span class=\"redText\">Bad choice, the bee was angry.</span><br><b>You have been stung!</b><br>Your pay has been decreased by $0.10. Your bonus pay is now $0.08.</p>\n            ","response":0,"trial_type":"html-button-response","trial_index":88,"time_elapsed":198139,"internal_node_id":"0.0-4.0-1.40","subject_id":"6103ec2bf88328284fd894bc","study_id":"60edd13110225f80f9f3709b","session_id":"6196c1ed957f7a6c0ee674c3","condition":"full-information","relevant_dimensions":["antennae","legs"],"bee_group":{"antennae":"B","wings":"X","pattern":"X","legs":"M"},"bonus":0.2800000000000004},{"rt":1344,"stimulus":"bees-with-color/bee-A2SM.svg","response":0,"trial_type":"image-button-response","trial_index":89,"time_elapsed":199484,"internal_node_id":"0.0-4.0-0.41","subject_id":"6103ec2bf88328284fd894bc","study_id":"60edd13110225f80f9f3709b","session_id":"6196c1ed957f7a6c0ee674c3","condition":"full-information","relevant_dimensions":["antennae","legs"],"bee_group":{"antennae":"B","wings":"X","pattern":"X","legs":"M"},"action":"harvest","summary":"good-harvest","bonus":0.2800000000000004},{"rt":434.40000000596046,"stimulus":"\n                    <p><b>Action: <em>harvest</em></b></p>\n                    <p>This is the bee that you just saw.</p>\n                    <img src=\"bees-with-color/bee-A2SM.svg\" width=\"200\">\n                    <p><span class=\"greenText\"><b>Successful harvest!</b></span><br>Your pay has increased by $0.02. Your bonus pay is now $0.10.</p>\n            ","response":0,"trial_type":"html-button-response","trial_index":90,"time_elapsed":199920,"internal_node_id":"0.0-4.0-1.41","subject_id":"6103ec2bf88328284fd894bc","study_id":"60edd13110225f80f9f3709b","session_id":"6196c1ed957f7a6c0ee674c3","condition":"full-information","relevant_dimensions":["antennae","legs"],"bee_group":{"antennae":"B","wings":"X","pattern":"X","legs":"M"},"bonus":0.2800000000000004},{"rt":3738.5999999940395,"stimulus":"bees-with-color/bee-B2DF.svg","response":1,"trial_type":"image-button-response","trial_index":91,"time_elapsed":203659,"internal_node_id":"0.0-4.0-0.42","subject_id":"6103ec2bf88328284fd894bc","study_id":"60edd13110225f80f9f3709b","session_id":"6196c1ed957f7a6c0ee674c3","condition":"full-information","relevant_dimensions":["antennae","legs"],"bee_group":{"antennae":"B","wings":"X","pattern":"X","legs":"M"},"action":"avoid","summary":"bad-avoid","bonus":0.2800000000000004},{"rt":604.5,"stimulus":"\n                    <p><b>Action: <em>avoid</em></b></p>\n                    <p>This is the bee that you just saw.</p>\n                    <img src=\"bees-with-color/bee-B2DF.svg\" width=\"200\">\n                    <p><span class=\"redText\">Bad choice,</span> the bee was friendly.<br>Your bonus pay is unchanged, and remains at $0.10.</p>\n            ","response":0,"trial_type":"html-button-response","trial_index":92,"time_elapsed":204265,"internal_node_id":"0.0-4.0-1.42","subject_id":"6103ec2bf88328284fd894bc","study_id":"60edd13110225f80f9f3709b","session_id":"6196c1ed957f7a6c0ee674c3","condition":"full-information","relevant_dimensions":["antennae","legs"],"bee_group":{"antennae":"B","wings":"X","pattern":"X","legs":"M"},"bonus":0.2800000000000004},{"rt":1190.199999988079,"stimulus":"bees-with-color/bee-A1SF.svg","response":0,"trial_type":"image-button-response","trial_index":93,"time_elapsed":205457,"internal_node_id":"0.0-4.0-0.43","subject_id":"6103ec2bf88328284fd894bc","study_id":"60edd13110225f80f9f3709b","session_id":"6196c1ed957f7a6c0ee674c3","condition":"full-information","relevant_dimensions":["antennae","legs"],"bee_group":{"antennae":"B","wings":"X","pattern":"X","legs":"M"},"action":"harvest","summary":"good-harvest","bonus":0.2800000000000004},{"rt":502.60000002384186,"stimulus":"\n                    <p><b>Action: <em>harvest</em></b></p>\n                    <p>This is the bee that you just saw.</p>\n                    <img src=\"bees-with-color/bee-A1SF.svg\" width=\"200\">\n                    <p><span class=\"greenText\"><b>Successful harvest!</b></span><br>Your pay has increased by $0.02. Your bonus pay is now $0.12.</p>\n            ","response":0,"trial_type":"html-button-response","trial_index":94,"time_elapsed":205961,"internal_node_id":"0.0-4.0-1.43","subject_id":"6103ec2bf88328284fd894bc","study_id":"60edd13110225f80f9f3709b","session_id":"6196c1ed957f7a6c0ee674c3","condition":"full-information","relevant_dimensions":["antennae","legs"],"bee_group":{"antennae":"B","wings":"X","pattern":"X","legs":"M"},"bonus":0.2800000000000004},{"rt":1249.800000011921,"stimulus":"bees-with-color/bee-B2SM.svg","response":1,"trial_type":"image-button-response","trial_index":95,"time_elapsed":207212,"internal_node_id":"0.0-4.0-0.44","subject_id":"6103ec2bf88328284fd894bc","study_id":"60edd13110225f80f9f3709b","session_id":"6196c1ed957f7a6c0ee674c3","condition":"full-information","relevant_dimensions":["antennae","legs"],"bee_group":{"antennae":"B","wings":"X","pattern":"X","legs":"M"},"action":"avoid","summary":"good-avoid","bonus":0.2800000000000004},{"rt":509.19999998807907,"stimulus":"\n                    <p><b>Action: <em>avoid</em></b></p>\n                    <p>This is the bee that you just saw.</p>\n                    <img src=\"bees-with-color/bee-B2SM.svg\" width=\"200\">\n                    <p><span class=\"greenText\">Good choice!</span>  This bee would have stung you.<br>Your bonus pay is unchanged, and remains at $0.12.</p>\n            ","response":0,"trial_type":"html-button-response","trial_index":96,"time_elapsed":207723,"internal_node_id":"0.0-4.0-1.44","subject_id":"6103ec2bf88328284fd894bc","study_id":"60edd13110225f80f9f3709b","session_id":"6196c1ed957f7a6c0ee674c3","condition":"full-information","relevant_dimensions":["antennae","legs"],"bee_group":{"antennae":"B","wings":"X","pattern":"X","legs":"M"},"bonus":0.2800000000000004},{"rt":1029.7000000178814,"stimulus":"bees-with-color/bee-B1SF.svg","response":1,"trial_type":"image-button-response","trial_index":97,"time_elapsed":208754,"internal_node_id":"0.0-4.0-0.45","subject_id":"6103ec2bf88328284fd894bc","study_id":"60edd13110225f80f9f3709b","session_id":"6196c1ed957f7a6c0ee674c3","condition":"full-information","relevant_dimensions":["antennae","legs"],"bee_group":{"antennae":"B","wings":"X","pattern":"X","legs":"M"},"action":"avoid","summary":"bad-avoid","bonus":0.2800000000000004},{"rt":502.09999999403954,"stimulus":"\n                    <p><b>Action: <em>avoid</em></b></p>\n                    <p>This is the bee that you just saw.</p>\n                    <img src=\"bees-with-color/bee-B1SF.svg\" width=\"200\">\n                    <p><span class=\"redText\">Bad choice,</span> the bee was friendly.<br>Your bonus pay is unchanged, and remains at $0.12.</p>\n            ","response":0,"trial_type":"html-button-response","trial_index":98,"time_elapsed":209257,"internal_node_id":"0.0-4.0-1.45","subject_id":"6103ec2bf88328284fd894bc","study_id":"60edd13110225f80f9f3709b","session_id":"6196c1ed957f7a6c0ee674c3","condition":"full-information","relevant_dimensions":["antennae","legs"],"bee_group":{"antennae":"B","wings":"X","pattern":"X","legs":"M"},"bonus":0.2800000000000004},{"rt":1128.300000011921,"stimulus":"bees-with-color/bee-A1DM.svg","response":0,"trial_type":"image-button-response","trial_index":99,"time_elapsed":210387,"internal_node_id":"0.0-4.0-0.46","subject_id":"6103ec2bf88328284fd894bc","study_id":"60edd13110225f80f9f3709b","session_id":"6196c1ed957f7a6c0ee674c3","condition":"full-information","relevant_dimensions":["antennae","legs"],"bee_group":{"antennae":"B","wings":"X","pattern":"X","legs":"M"},"action":"harvest","summary":"good-harvest","bonus":0.2800000000000004},{"rt":466.5,"stimulus":"\n                    <p><b>Action: <em>harvest</em></b></p>\n                    <p>This is the bee that you just saw.</p>\n                    <img src=\"bees-with-color/bee-A1DM.svg\" width=\"200\">\n                    <p><span class=\"greenText\"><b>Successful harvest!</b></span><br>Your pay has increased by $0.02. Your bonus pay is now $0.14.</p>\n            ","response":0,"trial_type":"html-button-response","trial_index":100,"time_elapsed":210855,"internal_node_id":"0.0-4.0-1.46","subject_id":"6103ec2bf88328284fd894bc","study_id":"60edd13110225f80f9f3709b","session_id":"6196c1ed957f7a6c0ee674c3","condition":"full-information","relevant_dimensions":["antennae","legs"],"bee_group":{"antennae":"B","wings":"X","pattern":"X","legs":"M"},"bonus":0.2800000000000004},{"rt":1196.9000000059605,"stimulus":"bees-with-color/bee-A2SF.svg","response":0,"trial_type":"image-button-response","trial_index":101,"time_elapsed":212053,"internal_node_id":"0.0-4.0-0.47","subject_id":"6103ec2bf88328284fd894bc","study_id":"60edd13110225f80f9f3709b","session_id":"6196c1ed957f7a6c0ee674c3","condition":"full-information","relevant_dimensions":["antennae","legs"],"bee_group":{"antennae":"B","wings":"X","pattern":"X","legs":"M"},"action":"harvest","summary":"good-harvest","bonus":0.2800000000000004},{"rt":392.40000000596046,"stimulus":"\n                    <p><b>Action: <em>harvest</em></b></p>\n                    <p>This is the bee that you just saw.</p>\n                    <img src=\"bees-with-color/bee-A2SF.svg\" width=\"200\">\n                    <p><span class=\"greenText\"><b>Successful harvest!</b></span><br>Your pay has increased by $0.02. Your bonus pay is now $0.16.</p>\n            ","response":0,"trial_type":"html-button-response","trial_index":102,"time_elapsed":212447,"internal_node_id":"0.0-4.0-1.47","subject_id":"6103ec2bf88328284fd894bc","study_id":"60edd13110225f80f9f3709b","session_id":"6196c1ed957f7a6c0ee674c3","condition":"full-information","relevant_dimensions":["antennae","legs"],"bee_group":{"antennae":"B","wings":"X","pattern":"X","legs":"M"},"bonus":0.2800000000000004},{"rt":1602,"stimulus":"bees-with-color/bee-B2DM.svg","response":1,"trial_type":"image-button-response","trial_index":103,"time_elapsed":214050,"internal_node_id":"0.0-4.0-0.48","subject_id":"6103ec2bf88328284fd894bc","study_id":"60edd13110225f80f9f3709b","session_id":"6196c1ed957f7a6c0ee674c3","condition":"full-information","relevant_dimensions":["antennae","legs"],"bee_group":{"antennae":"B","wings":"X","pattern":"X","legs":"M"},"action":"avoid","summary":"good-avoid","bonus":0.2800000000000004},{"rt":843.3000000119209,"stimulus":"\n                    <p><b>Action: <em>avoid</em></b></p>\n                    <p>This is the bee that you just saw.</p>\n                    <img src=\"bees-with-color/bee-B2DM.svg\" width=\"200\">\n                    <p><span class=\"greenText\">Good choice!</span>  This bee would have stung you.<br>Your bonus pay is unchanged, and remains at $0.16.</p>\n            ","response":0,"trial_type":"html-button-response","trial_index":104,"time_elapsed":214895,"internal_node_id":"0.0-4.0-1.48","subject_id":"6103ec2bf88328284fd894bc","study_id":"60edd13110225f80f9f3709b","session_id":"6196c1ed957f7a6c0ee674c3","condition":"full-information","relevant_dimensions":["antennae","legs"],"bee_group":{"antennae":"B","wings":"X","pattern":"X","legs":"M"},"bonus":0.2800000000000004},{"rt":1026.800000011921,"stimulus":"bees-with-color/bee-B1SF.svg","response":1,"trial_type":"image-button-response","trial_index":105,"time_elapsed":215923,"internal_node_id":"0.0-4.0-0.49","subject_id":"6103ec2bf88328284fd894bc","study_id":"60edd13110225f80f9f3709b","session_id":"6196c1ed957f7a6c0ee674c3","condition":"full-information","relevant_dimensions":["antennae","legs"],"bee_group":{"antennae":"B","wings":"X","pattern":"X","legs":"M"},"action":"avoid","summary":"bad-avoid","bonus":0.2800000000000004},{"rt":456.30000001192093,"stimulus":"\n                    <p><b>Action: <em>avoid</em></b></p>\n                    <p>This is the bee that you just saw.</p>\n                    <img src=\"bees-with-color/bee-B1SF.svg\" width=\"200\">\n                    <p><span class=\"redText\">Bad choice,</span> the bee was friendly.<br>Your bonus pay is unchanged, and remains at $0.16.</p>\n            ","response":0,"trial_type":"html-button-response","trial_index":106,"time_elapsed":216380,"internal_node_id":"0.0-4.0-1.49","subject_id":"6103ec2bf88328284fd894bc","study_id":"60edd13110225f80f9f3709b","session_id":"6196c1ed957f7a6c0ee674c3","condition":"full-information","relevant_dimensions":["antennae","legs"],"bee_group":{"antennae":"B","wings":"X","pattern":"X","legs":"M"},"bonus":0.2800000000000004},{"rt":1379.2999999821186,"stimulus":"bees-with-color/bee-A1SF.svg","response":0,"trial_type":"image-button-response","trial_index":107,"time_elapsed":217761,"internal_node_id":"0.0-4.0-0.50","subject_id":"6103ec2bf88328284fd894bc","study_id":"60edd13110225f80f9f3709b","session_id":"6196c1ed957f7a6c0ee674c3","condition":"full-information","relevant_dimensions":["antennae","legs"],"bee_group":{"antennae":"B","wings":"X","pattern":"X","legs":"M"},"action":"harvest","summary":"good-harvest","bonus":0.2800000000000004},{"rt":533,"stimulus":"\n                    <p><b>Action: <em>harvest</em></b></p>\n                    <p>This is the bee that you just saw.</p>\n                    <img src=\"bees-with-color/bee-A1SF.svg\" width=\"200\">\n                    <p><span class=\"greenText\"><b>Successful harvest!</b></span><br>Your pay has increased by $0.02. Your bonus pay is now $0.18.</p>\n            ","response":0,"trial_type":"html-button-response","trial_index":108,"time_elapsed":218295,"internal_node_id":"0.0-4.0-1.50","subject_id":"6103ec2bf88328284fd894bc","study_id":"60edd13110225f80f9f3709b","session_id":"6196c1ed957f7a6c0ee674c3","condition":"full-information","relevant_dimensions":["antennae","legs"],"bee_group":{"antennae":"B","wings":"X","pattern":"X","legs":"M"},"bonus":0.2800000000000004},{"rt":1055.300000011921,"stimulus":"bees-with-color/bee-B1DM.svg","response":1,"trial_type":"image-button-response","trial_index":109,"time_elapsed":219352,"internal_node_id":"0.0-4.0-0.51","subject_id":"6103ec2bf88328284fd894bc","study_id":"60edd13110225f80f9f3709b","session_id":"6196c1ed957f7a6c0ee674c3","condition":"full-information","relevant_dimensions":["antennae","legs"],"bee_group":{"antennae":"B","wings":"X","pattern":"X","legs":"M"},"action":"avoid","summary":"good-avoid","bonus":0.2800000000000004},{"rt":461.2999999821186,"stimulus":"\n                    <p><b>Action: <em>avoid</em></b></p>\n                    <p>This is the bee that you just saw.</p>\n                    <img src=\"bees-with-color/bee-B1DM.svg\" width=\"200\">\n                    <p><span class=\"greenText\">Good choice!</span>  This bee would have stung you.<br>Your bonus pay is unchanged, and remains at $0.18.</p>\n            ","response":0,"trial_type":"html-button-response","trial_index":110,"time_elapsed":219815,"internal_node_id":"0.0-4.0-1.51","subject_id":"6103ec2bf88328284fd894bc","study_id":"60edd13110225f80f9f3709b","session_id":"6196c1ed957f7a6c0ee674c3","condition":"full-information","relevant_dimensions":["antennae","legs"],"bee_group":{"antennae":"B","wings":"X","pattern":"X","legs":"M"},"bonus":0.2800000000000004},{"rt":1619.4000000059605,"stimulus":"bees-with-color/bee-B2SF.svg","response":1,"trial_type":"image-button-response","trial_index":111,"time_elapsed":221436,"internal_node_id":"0.0-4.0-0.52","subject_id":"6103ec2bf88328284fd894bc","study_id":"60edd13110225f80f9f3709b","session_id":"6196c1ed957f7a6c0ee674c3","condition":"full-information","relevant_dimensions":["antennae","legs"],"bee_group":{"antennae":"B","wings":"X","pattern":"X","legs":"M"},"action":"avoid","summary":"bad-avoid","bonus":0.2800000000000004},{"rt":557.1999999880791,"stimulus":"\n                    <p><b>Action: <em>avoid</em></b></p>\n                    <p>This is the bee that you just saw.</p>\n                    <img src=\"bees-with-color/bee-B2SF.svg\" width=\"200\">\n                    <p><span class=\"redText\">Bad choice,</span> the bee was friendly.<br>Your bonus pay is unchanged, and remains at $0.18.</p>\n            ","response":0,"trial_type":"html-button-response","trial_index":112,"time_elapsed":221995,"internal_node_id":"0.0-4.0-1.52","subject_id":"6103ec2bf88328284fd894bc","study_id":"60edd13110225f80f9f3709b","session_id":"6196c1ed957f7a6c0ee674c3","condition":"full-information","relevant_dimensions":["antennae","legs"],"bee_group":{"antennae":"B","wings":"X","pattern":"X","legs":"M"},"bonus":0.2800000000000004},{"rt":901.7999999821186,"stimulus":"bees-with-color/bee-A2SM.svg","response":0,"trial_type":"image-button-response","trial_index":113,"time_elapsed":222898,"internal_node_id":"0.0-4.0-0.53","subject_id":"6103ec2bf88328284fd894bc","study_id":"60edd13110225f80f9f3709b","session_id":"6196c1ed957f7a6c0ee674c3","condition":"full-information","relevant_dimensions":["antennae","legs"],"bee_group":{"antennae":"B","wings":"X","pattern":"X","legs":"M"},"action":"harvest","summary":"good-harvest","bonus":0.2800000000000004},{"rt":486.59999999403954,"stimulus":"\n                    <p><b>Action: <em>harvest</em></b></p>\n                    <p>This is the bee that you just saw.</p>\n                    <img src=\"bees-with-color/bee-A2SM.svg\" width=\"200\">\n                    <p><span class=\"greenText\"><b>Successful harvest!</b></span><br>Your pay has increased by $0.02. Your bonus pay is now $0.20.</p>\n            ","response":0,"trial_type":"html-button-response","trial_index":114,"time_elapsed":223388,"internal_node_id":"0.0-4.0-1.53","subject_id":"6103ec2bf88328284fd894bc","study_id":"60edd13110225f80f9f3709b","session_id":"6196c1ed957f7a6c0ee674c3","condition":"full-information","relevant_dimensions":["antennae","legs"],"bee_group":{"antennae":"B","wings":"X","pattern":"X","legs":"M"},"bonus":0.2800000000000004},{"rt":975.8000000119209,"stimulus":"bees-with-color/bee-A1DF.svg","response":1,"trial_type":"image-button-response","trial_index":115,"time_elapsed":224365,"internal_node_id":"0.0-4.0-0.54","subject_id":"6103ec2bf88328284fd894bc","study_id":"60edd13110225f80f9f3709b","session_id":"6196c1ed957f7a6c0ee674c3","condition":"full-information","relevant_dimensions":["antennae","legs"],"bee_group":{"antennae":"B","wings":"X","pattern":"X","legs":"M"},"action":"avoid","summary":"bad-avoid","bonus":0.2800000000000004},{"rt":485.30000001192093,"stimulus":"\n                    <p><b>Action: <em>avoid</em></b></p>\n                    <p>This is the bee that you just saw.</p>\n                    <img src=\"bees-with-color/bee-A1DF.svg\" width=\"200\">\n                    <p><span class=\"redText\">Bad choice,</span> the bee was friendly.<br>Your bonus pay is unchanged, and remains at $0.20.</p>\n            ","response":0,"trial_type":"html-button-response","trial_index":116,"time_elapsed":224852,"internal_node_id":"0.0-4.0-1.54","subject_id":"6103ec2bf88328284fd894bc","study_id":"60edd13110225f80f9f3709b","session_id":"6196c1ed957f7a6c0ee674c3","condition":"full-information","relevant_dimensions":["antennae","legs"],"bee_group":{"antennae":"B","wings":"X","pattern":"X","legs":"M"},"bonus":0.2800000000000004},{"rt":1582.8999999761581,"stimulus":"bees-with-color/bee-A2DF.svg","response":0,"trial_type":"image-button-response","trial_index":117,"time_elapsed":226436,"internal_node_id":"0.0-4.0-0.55","subject_id":"6103ec2bf88328284fd894bc","study_id":"60edd13110225f80f9f3709b","session_id":"6196c1ed957f7a6c0ee674c3","condition":"full-information","relevant_dimensions":["antennae","legs"],"bee_group":{"antennae":"B","wings":"X","pattern":"X","legs":"M"},"action":"harvest","summary":"good-harvest","bonus":0.2800000000000004},{"rt":531.3000000119209,"stimulus":"\n                    <p><b>Action: <em>harvest</em></b></p>\n                    <p>This is the bee that you just saw.</p>\n                    <img src=\"bees-with-color/bee-A2DF.svg\" width=\"200\">\n                    <p><span class=\"greenText\"><b>Successful harvest!</b></span><br>Your pay has increased by $0.02. Your bonus pay is now $0.22.</p>\n            ","response":0,"trial_type":"html-button-response","trial_index":118,"time_elapsed":226968,"internal_node_id":"0.0-4.0-1.55","subject_id":"6103ec2bf88328284fd894bc","study_id":"60edd13110225f80f9f3709b","session_id":"6196c1ed957f7a6c0ee674c3","condition":"full-information","relevant_dimensions":["antennae","legs"],"bee_group":{"antennae":"B","wings":"X","pattern":"X","legs":"M"},"bonus":0.2800000000000004},{"rt":1244.2999999821186,"stimulus":"bees-with-color/bee-B2DF.svg","response":1,"trial_type":"image-button-response","trial_index":119,"time_elapsed":228214,"internal_node_id":"0.0-4.0-0.56","subject_id":"6103ec2bf88328284fd894bc","study_id":"60edd13110225f80f9f3709b","session_id":"6196c1ed957f7a6c0ee674c3","condition":"full-information","relevant_dimensions":["antennae","legs"],"bee_group":{"antennae":"B","wings":"X","pattern":"X","legs":"M"},"action":"avoid","summary":"bad-avoid","bonus":0.2800000000000004},{"rt":481.30000001192093,"stimulus":"\n                    <p><b>Action: <em>avoid</em></b></p>\n                    <p>This is the bee that you just saw.</p>\n                    <img src=\"bees-with-color/bee-B2DF.svg\" width=\"200\">\n                    <p><span class=\"redText\">Bad choice,</span> the bee was friendly.<br>Your bonus pay is unchanged, and remains at $0.22.</p>\n            ","response":0,"trial_type":"html-button-response","trial_index":120,"time_elapsed":228697,"internal_node_id":"0.0-4.0-1.56","subject_id":"6103ec2bf88328284fd894bc","study_id":"60edd13110225f80f9f3709b","session_id":"6196c1ed957f7a6c0ee674c3","condition":"full-information","relevant_dimensions":["antennae","legs"],"bee_group":{"antennae":"B","wings":"X","pattern":"X","legs":"M"},"bonus":0.2800000000000004},{"rt":1592.0999999940395,"stimulus":"bees-with-color/bee-B1DF.svg","response":0,"trial_type":"image-button-response","trial_index":121,"time_elapsed":230290,"internal_node_id":"0.0-4.0-0.57","subject_id":"6103ec2bf88328284fd894bc","study_id":"60edd13110225f80f9f3709b","session_id":"6196c1ed957f7a6c0ee674c3","condition":"full-information","relevant_dimensions":["antennae","legs"],"bee_group":{"antennae":"B","wings":"X","pattern":"X","legs":"M"},"action":"harvest","summary":"good-harvest","bonus":0.2800000000000004},{"rt":738.5999999940395,"stimulus":"\n                    <p><b>Action: <em>harvest</em></b></p>\n                    <p>This is the bee that you just saw.</p>\n                    <img src=\"bees-with-color/bee-B1DF.svg\" width=\"200\">\n                    <p><span class=\"greenText\"><b>Successful harvest!</b></span><br>Your pay has increased by $0.02. Your bonus pay is now $0.24.</p>\n            ","response":0,"trial_type":"html-button-response","trial_index":122,"time_elapsed":231030,"internal_node_id":"0.0-4.0-1.57","subject_id":"6103ec2bf88328284fd894bc","study_id":"60edd13110225f80f9f3709b","session_id":"6196c1ed957f7a6c0ee674c3","condition":"full-information","relevant_dimensions":["antennae","legs"],"bee_group":{"antennae":"B","wings":"X","pattern":"X","legs":"M"},"bonus":0.2800000000000004},{"rt":1016.5999999940395,"stimulus":"bees-with-color/bee-B2SM.svg","response":1,"trial_type":"image-button-response","trial_index":123,"time_elapsed":232048,"internal_node_id":"0.0-4.0-0.58","subject_id":"6103ec2bf88328284fd894bc","study_id":"60edd13110225f80f9f3709b","session_id":"6196c1ed957f7a6c0ee674c3","condition":"full-information","relevant_dimensions":["antennae","legs"],"bee_group":{"antennae":"B","wings":"X","pattern":"X","legs":"M"},"action":"avoid","summary":"good-avoid","bonus":0.2800000000000004},{"rt":749.5,"stimulus":"\n                    <p><b>Action: <em>avoid</em></b></p>\n                    <p>This is the bee that you just saw.</p>\n                    <img src=\"bees-with-color/bee-B2SM.svg\" width=\"200\">\n                    <p><span class=\"greenText\">Good choice!</span>  This bee would have stung you.<br>Your bonus pay is unchanged, and remains at $0.24.</p>\n            ","response":0,"trial_type":"html-button-response","trial_index":124,"time_elapsed":232799,"internal_node_id":"0.0-4.0-1.58","subject_id":"6103ec2bf88328284fd894bc","study_id":"60edd13110225f80f9f3709b","session_id":"6196c1ed957f7a6c0ee674c3","condition":"full-information","relevant_dimensions":["antennae","legs"],"bee_group":{"antennae":"B","wings":"X","pattern":"X","legs":"M"},"bonus":0.2800000000000004},{"rt":806.8999999761581,"stimulus":"bees-with-color/bee-A1DM.svg","response":0,"trial_type":"image-button-response","trial_index":125,"time_elapsed":233607,"internal_node_id":"0.0-4.0-0.59","subject_id":"6103ec2bf88328284fd894bc","study_id":"60edd13110225f80f9f3709b","session_id":"6196c1ed957f7a6c0ee674c3","condition":"full-information","relevant_dimensions":["antennae","legs"],"bee_group":{"antennae":"B","wings":"X","pattern":"X","legs":"M"},"action":"harvest","summary":"good-harvest","bonus":0.2800000000000004},{"rt":410.09999999403954,"stimulus":"\n                    <p><b>Action: <em>harvest</em></b></p>\n                    <p>This is the bee that you just saw.</p>\n                    <img src=\"bees-with-color/bee-A1DM.svg\" width=\"200\">\n                    <p><span class=\"greenText\"><b>Successful harvest!</b></span><br>Your pay has increased by $0.02. Your bonus pay is now $0.26.</p>\n            ","response":0,"trial_type":"html-button-response","trial_index":126,"time_elapsed":234018,"internal_node_id":"0.0-4.0-1.59","subject_id":"6103ec2bf88328284fd894bc","study_id":"60edd13110225f80f9f3709b","session_id":"6196c1ed957f7a6c0ee674c3","condition":"full-information","relevant_dimensions":["antennae","legs"],"bee_group":{"antennae":"B","wings":"X","pattern":"X","legs":"M"},"bonus":0.2800000000000004},{"rt":1635.5999999940395,"stimulus":"bees-with-color/bee-B1SM.svg","response":1,"trial_type":"image-button-response","trial_index":127,"time_elapsed":235655,"internal_node_id":"0.0-4.0-0.60","subject_id":"6103ec2bf88328284fd894bc","study_id":"60edd13110225f80f9f3709b","session_id":"6196c1ed957f7a6c0ee674c3","condition":"full-information","relevant_dimensions":["antennae","legs"],"bee_group":{"antennae":"B","wings":"X","pattern":"X","legs":"M"},"action":"avoid","summary":"good-avoid","bonus":0.2800000000000004},{"rt":458.2000000178814,"stimulus":"\n                    <p><b>Action: <em>avoid</em></b></p>\n                    <p>This is the bee that you just saw.</p>\n                    <img src=\"bees-with-color/bee-B1SM.svg\" width=\"200\">\n                    <p><span class=\"greenText\">Good choice!</span>  This bee would have stung you.<br>Your bonus pay is unchanged, and remains at $0.26.</p>\n            ","response":0,"trial_type":"html-button-response","trial_index":128,"time_elapsed":236114,"internal_node_id":"0.0-4.0-1.60","subject_id":"6103ec2bf88328284fd894bc","study_id":"60edd13110225f80f9f3709b","session_id":"6196c1ed957f7a6c0ee674c3","condition":"full-information","relevant_dimensions":["antennae","legs"],"bee_group":{"antennae":"B","wings":"X","pattern":"X","legs":"M"},"bonus":0.2800000000000004},{"rt":983,"stimulus":"bees-with-color/bee-A1SM.svg","response":0,"trial_type":"image-button-response","trial_index":129,"time_elapsed":237098,"internal_node_id":"0.0-4.0-0.61","subject_id":"6103ec2bf88328284fd894bc","study_id":"60edd13110225f80f9f3709b","session_id":"6196c1ed957f7a6c0ee674c3","condition":"full-information","relevant_dimensions":["antennae","legs"],"bee_group":{"antennae":"B","wings":"X","pattern":"X","legs":"M"},"action":"harvest","summary":"good-harvest","bonus":0.2800000000000004},{"rt":1007.6999999880791,"stimulus":"\n                    <p><b>Action: <em>harvest</em></b></p>\n                    <p>This is the bee that you just saw.</p>\n                    <img src=\"bees-with-color/bee-A1SM.svg\" width=\"200\">\n                    <p><span class=\"greenText\"><b>Successful harvest!</b></span><br>Your pay has increased by $0.02. Your bonus pay is now $0.28.</p>\n            ","response":0,"trial_type":"html-button-response","trial_index":130,"time_elapsed":238108,"internal_node_id":"0.0-4.0-1.61","subject_id":"6103ec2bf88328284fd894bc","study_id":"60edd13110225f80f9f3709b","session_id":"6196c1ed957f7a6c0ee674c3","condition":"full-information","relevant_dimensions":["antennae","legs"],"bee_group":{"antennae":"B","wings":"X","pattern":"X","legs":"M"},"bonus":0.2800000000000004},{"rt":1745.800000011921,"stimulus":"bees-with-color/bee-A2SF.svg","response":1,"trial_type":"image-button-response","trial_index":131,"time_elapsed":239855,"internal_node_id":"0.0-4.0-0.62","subject_id":"6103ec2bf88328284fd894bc","study_id":"60edd13110225f80f9f3709b","session_id":"6196c1ed957f7a6c0ee674c3","condition":"full-information","relevant_dimensions":["antennae","legs"],"bee_group":{"antennae":"B","wings":"X","pattern":"X","legs":"M"},"action":"avoid","summary":"bad-avoid","bonus":0.2800000000000004},{"rt":455.39999997615814,"stimulus":"\n                    <p><b>Action: <em>avoid</em></b></p>\n                    <p>This is the bee that you just saw.</p>\n                    <img src=\"bees-with-color/bee-A2SF.svg\" width=\"200\">\n                    <p><span class=\"redText\">Bad choice,</span> the bee was friendly.<br>Your bonus pay is unchanged, and remains at $0.28.</p>\n            ","response":0,"trial_type":"html-button-response","trial_index":132,"time_elapsed":240311,"internal_node_id":"0.0-4.0-1.62","subject_id":"6103ec2bf88328284fd894bc","study_id":"60edd13110225f80f9f3709b","session_id":"6196c1ed957f7a6c0ee674c3","condition":"full-information","relevant_dimensions":["antennae","legs"],"bee_group":{"antennae":"B","wings":"X","pattern":"X","legs":"M"},"bonus":0.2800000000000004},{"rt":872.6999999880791,"stimulus":"bees-with-color/bee-A2DM.svg","response":0,"trial_type":"image-button-response","trial_index":133,"time_elapsed":241185,"internal_node_id":"0.0-4.0-0.63","subject_id":"6103ec2bf88328284fd894bc","study_id":"60edd13110225f80f9f3709b","session_id":"6196c1ed957f7a6c0ee674c3","condition":"full-information","relevant_dimensions":["antennae","legs"],"bee_group":{"antennae":"B","wings":"X","pattern":"X","legs":"M"},"action":"harvest","summary":"good-harvest","bonus":0.2800000000000004},{"rt":657.4000000059605,"stimulus":"\n                    <p><b>Action: <em>harvest</em></b></p>\n                    <p>This is the bee that you just saw.</p>\n                    <img src=\"bees-with-color/bee-A2DM.svg\" width=\"200\">\n                    <p><span class=\"greenText\"><b>Successful harvest!</b></span><br>Your pay has increased by $0.02. Your bonus pay is now $0.30.</p>\n            ","response":0,"trial_type":"html-button-response","trial_index":134,"time_elapsed":241844,"internal_node_id":"0.0-4.0-1.63","subject_id":"6103ec2bf88328284fd894bc","study_id":"60edd13110225f80f9f3709b","session_id":"6196c1ed957f7a6c0ee674c3","condition":"full-information","relevant_dimensions":["antennae","legs"],"bee_group":{"antennae":"B","wings":"X","pattern":"X","legs":"M"},"bonus":0.2800000000000004},{"rt":5266.9000000059605,"stimulus":"You have completed the first part of this experiment.<br><br>You will now begin a shorter second part, in which you will receive no feedback.<br>The same rules regarding bonus pay apply.<br><br>Press any key to begin.","response":" ","trial_type":"html-keyboard-response","trial_index":135,"time_elapsed":247112,"internal_node_id":"0.0-5.0","subject_id":"6103ec2bf88328284fd894bc","study_id":"60edd13110225f80f9f3709b","session_id":"6196c1ed957f7a6c0ee674c3","condition":"full-information","relevant_dimensions":["antennae","legs"],"bee_group":{"antennae":"B","wings":"X","pattern":"X","legs":"M"},"bonus":0.2800000000000004},{"rt":3672.800000011921,"stimulus":"bees-with-color/bee-A1DM.svg","response":0,"trial_type":"image-button-response","trial_index":136,"time_elapsed":250795,"internal_node_id":"0.0-6.0-0.0","subject_id":"6103ec2bf88328284fd894bc","study_id":"60edd13110225f80f9f3709b","session_id":"6196c1ed957f7a6c0ee674c3","condition":"full-information","relevant_dimensions":["antennae","legs"],"bee_group":{"antennae":"B","wings":"X","pattern":"X","legs":"M"},"bonus":0.2800000000000004},{"rt":4046.5,"stimulus":"bees-with-color/bee-A2DM.svg","response":0,"trial_type":"image-button-response","trial_index":137,"time_elapsed":254844,"internal_node_id":"0.0-6.0-0.1","subject_id":"6103ec2bf88328284fd894bc","study_id":"60edd13110225f80f9f3709b","session_id":"6196c1ed957f7a6c0ee674c3","condition":"full-information","relevant_dimensions":["antennae","legs"],"bee_group":{"antennae":"B","wings":"X","pattern":"X","legs":"M"},"bonus":0.2800000000000004},{"rt":1195.800000011921,"stimulus":"bees-with-color/bee-B1SM.svg","response":1,"trial_type":"image-button-response","trial_index":138,"time_elapsed":256042,"internal_node_id":"0.0-6.0-0.2","subject_id":"6103ec2bf88328284fd894bc","study_id":"60edd13110225f80f9f3709b","session_id":"6196c1ed957f7a6c0ee674c3","condition":"full-information","relevant_dimensions":["antennae","legs"],"bee_group":{"antennae":"B","wings":"X","pattern":"X","legs":"M"},"bonus":0.2800000000000004},{"rt":1471.2000000178814,"stimulus":"bees-with-color/bee-B2DF.svg","response":1,"trial_type":"image-button-response","trial_index":139,"time_elapsed":257514,"internal_node_id":"0.0-6.0-0.3","subject_id":"6103ec2bf88328284fd894bc","study_id":"60edd13110225f80f9f3709b","session_id":"6196c1ed957f7a6c0ee674c3","condition":"full-information","relevant_dimensions":["antennae","legs"],"bee_group":{"antennae":"B","wings":"X","pattern":"X","legs":"M"},"bonus":0.2800000000000004},{"rt":1456.300000011921,"stimulus":"bees-with-color/bee-B1DF.svg","response":1,"trial_type":"image-button-response","trial_index":140,"time_elapsed":258973,"internal_node_id":"0.0-6.0-0.4","subject_id":"6103ec2bf88328284fd894bc","study_id":"60edd13110225f80f9f3709b","session_id":"6196c1ed957f7a6c0ee674c3","condition":"full-information","relevant_dimensions":["antennae","legs"],"bee_group":{"antennae":"B","wings":"X","pattern":"X","legs":"M"},"bonus":0.2800000000000004},{"rt":2535,"stimulus":"bees-with-color/bee-A1DF.svg","response":0,"trial_type":"image-button-response","trial_index":141,"time_elapsed":261509,"internal_node_id":"0.0-6.0-0.5","subject_id":"6103ec2bf88328284fd894bc","study_id":"60edd13110225f80f9f3709b","session_id":"6196c1ed957f7a6c0ee674c3","condition":"full-information","relevant_dimensions":["antennae","legs"],"bee_group":{"antennae":"B","wings":"X","pattern":"X","legs":"M"},"bonus":0.2800000000000004},{"rt":1146.0999999940395,"stimulus":"bees-with-color/bee-B2SF.svg","response":1,"trial_type":"image-button-response","trial_index":142,"time_elapsed":262657,"internal_node_id":"0.0-6.0-0.6","subject_id":"6103ec2bf88328284fd894bc","study_id":"60edd13110225f80f9f3709b","session_id":"6196c1ed957f7a6c0ee674c3","condition":"full-information","relevant_dimensions":["antennae","legs"],"bee_group":{"antennae":"B","wings":"X","pattern":"X","legs":"M"},"bonus":0.2800000000000004},{"rt":768,"stimulus":"bees-with-color/bee-B2SM.svg","response":0,"trial_type":"image-button-response","trial_index":143,"time_elapsed":263427,"internal_node_id":"0.0-6.0-0.7","subject_id":"6103ec2bf88328284fd894bc","study_id":"60edd13110225f80f9f3709b","session_id":"6196c1ed957f7a6c0ee674c3","condition":"full-information","relevant_dimensions":["antennae","legs"],"bee_group":{"antennae":"B","wings":"X","pattern":"X","legs":"M"},"bonus":0.2800000000000004},{"rt":1025.0999999940395,"stimulus":"bees-with-color/bee-A2SF.svg","response":1,"trial_type":"image-button-response","trial_index":144,"time_elapsed":264454,"internal_node_id":"0.0-6.0-0.8","subject_id":"6103ec2bf88328284fd894bc","study_id":"60edd13110225f80f9f3709b","session_id":"6196c1ed957f7a6c0ee674c3","condition":"full-information","relevant_dimensions":["antennae","legs"],"bee_group":{"antennae":"B","wings":"X","pattern":"X","legs":"M"},"bonus":0.2800000000000004},{"rt":995.1999999880791,"stimulus":"bees-with-color/bee-B1SF.svg","response":1,"trial_type":"image-button-response","trial_index":145,"time_elapsed":265451,"internal_node_id":"0.0-6.0-0.9","subject_id":"6103ec2bf88328284fd894bc","study_id":"60edd13110225f80f9f3709b","session_id":"6196c1ed957f7a6c0ee674c3","condition":"full-information","relevant_dimensions":["antennae","legs"],"bee_group":{"antennae":"B","wings":"X","pattern":"X","legs":"M"},"bonus":0.2800000000000004},{"rt":1496.199999988079,"stimulus":"bees-with-color/bee-A2DF.svg","response":0,"trial_type":"image-button-response","trial_index":146,"time_elapsed":266949,"internal_node_id":"0.0-6.0-0.10","subject_id":"6103ec2bf88328284fd894bc","study_id":"60edd13110225f80f9f3709b","session_id":"6196c1ed957f7a6c0ee674c3","condition":"full-information","relevant_dimensions":["antennae","legs"],"bee_group":{"antennae":"B","wings":"X","pattern":"X","legs":"M"},"bonus":0.2800000000000004},{"rt":1708.2999999821186,"stimulus":"bees-with-color/bee-A1SF.svg","response":0,"trial_type":"image-button-response","trial_index":147,"time_elapsed":268659,"internal_node_id":"0.0-6.0-0.11","subject_id":"6103ec2bf88328284fd894bc","study_id":"60edd13110225f80f9f3709b","session_id":"6196c1ed957f7a6c0ee674c3","condition":"full-information","relevant_dimensions":["antennae","legs"],"bee_group":{"antennae":"B","wings":"X","pattern":"X","legs":"M"},"bonus":0.2800000000000004},{"rt":4816.0999999940395,"stimulus":"bees-with-color/bee-B2DM.svg","response":0,"trial_type":"image-button-response","trial_index":148,"time_elapsed":273477,"internal_node_id":"0.0-6.0-0.12","subject_id":"6103ec2bf88328284fd894bc","study_id":"60edd13110225f80f9f3709b","session_id":"6196c1ed957f7a6c0ee674c3","condition":"full-information","relevant_dimensions":["antennae","legs"],"bee_group":{"antennae":"B","wings":"X","pattern":"X","legs":"M"},"bonus":0.2800000000000004},{"rt":1218.2000000178814,"stimulus":"bees-with-color/bee-A2SM.svg","response":1,"trial_type":"image-button-response","trial_index":149,"time_elapsed":274698,"internal_node_id":"0.0-6.0-0.13","subject_id":"6103ec2bf88328284fd894bc","study_id":"60edd13110225f80f9f3709b","session_id":"6196c1ed957f7a6c0ee674c3","condition":"full-information","relevant_dimensions":["antennae","legs"],"bee_group":{"antennae":"B","wings":"X","pattern":"X","legs":"M"},"bonus":0.2800000000000004},{"rt":1902.699999988079,"stimulus":"bees-with-color/bee-A1SM.svg","response":0,"trial_type":"image-button-response","trial_index":150,"time_elapsed":276602,"internal_node_id":"0.0-6.0-0.14","subject_id":"6103ec2bf88328284fd894bc","study_id":"60edd13110225f80f9f3709b","session_id":"6196c1ed957f7a6c0ee674c3","condition":"full-information","relevant_dimensions":["antennae","legs"],"bee_group":{"antennae":"B","wings":"X","pattern":"X","legs":"M"},"bonus":0.2800000000000004},{"rt":1303.199999988079,"stimulus":"bees-with-color/bee-B1DM.svg","response":1,"trial_type":"image-button-response","trial_index":151,"time_elapsed":277907,"internal_node_id":"0.0-6.0-0.15","subject_id":"6103ec2bf88328284fd894bc","study_id":"60edd13110225f80f9f3709b","session_id":"6196c1ed957f7a6c0ee674c3","condition":"full-information","relevant_dimensions":["antennae","legs"],"bee_group":{"antennae":"B","wings":"X","pattern":"X","legs":"M"},"bonus":0.2800000000000004},{"rt":1087.2999999821186,"stimulus":"bees-with-color/bee-B2DF.svg","response":1,"trial_type":"image-button-response","trial_index":152,"time_elapsed":278996,"internal_node_id":"0.0-6.0-0.16","subject_id":"6103ec2bf88328284fd894bc","study_id":"60edd13110225f80f9f3709b","session_id":"6196c1ed957f7a6c0ee674c3","condition":"full-information","relevant_dimensions":["antennae","legs"],"bee_group":{"antennae":"B","wings":"X","pattern":"X","legs":"M"},"bonus":0.2800000000000004},{"rt":1944,"stimulus":"bees-with-color/bee-B2SF.svg","response":1,"trial_type":"image-button-response","trial_index":153,"time_elapsed":280942,"internal_node_id":"0.0-6.0-0.17","subject_id":"6103ec2bf88328284fd894bc","study_id":"60edd13110225f80f9f3709b","session_id":"6196c1ed957f7a6c0ee674c3","condition":"full-information","relevant_dimensions":["antennae","legs"],"bee_group":{"antennae":"B","wings":"X","pattern":"X","legs":"M"},"bonus":0.2800000000000004},{"rt":1270.9000000059605,"stimulus":"bees-with-color/bee-B2DM.svg","response":0,"trial_type":"image-button-response","trial_index":154,"time_elapsed":282214,"internal_node_id":"0.0-6.0-0.18","subject_id":"6103ec2bf88328284fd894bc","study_id":"60edd13110225f80f9f3709b","session_id":"6196c1ed957f7a6c0ee674c3","condition":"full-information","relevant_dimensions":["antennae","legs"],"bee_group":{"antennae":"B","wings":"X","pattern":"X","legs":"M"},"bonus":0.2800000000000004},{"rt":1480.5999999940395,"stimulus":"bees-with-color/bee-A2SF.svg","response":0,"trial_type":"image-button-response","trial_index":155,"time_elapsed":283697,"internal_node_id":"0.0-6.0-0.19","subject_id":"6103ec2bf88328284fd894bc","study_id":"60edd13110225f80f9f3709b","session_id":"6196c1ed957f7a6c0ee674c3","condition":"full-information","relevant_dimensions":["antennae","legs"],"bee_group":{"antennae":"B","wings":"X","pattern":"X","legs":"M"},"bonus":0.2800000000000004},{"rt":2029.0999999940395,"stimulus":"bees-with-color/bee-A1DM.svg","response":0,"trial_type":"image-button-response","trial_index":156,"time_elapsed":285727,"internal_node_id":"0.0-6.0-0.20","subject_id":"6103ec2bf88328284fd894bc","study_id":"60edd13110225f80f9f3709b","session_id":"6196c1ed957f7a6c0ee674c3","condition":"full-information","relevant_dimensions":["antennae","legs"],"bee_group":{"antennae":"B","wings":"X","pattern":"X","legs":"M"},"bonus":0.2800000000000004},{"rt":1695.4000000059605,"stimulus":"bees-with-co