[{"success":true,"trial_type":"fullscreen","trial_index":0,"time_elapsed":8158,"internal_node_id":"0.0-0.0","subject_id":"615d8eccb9ef31c50d69d390","study_id":"60edd13110225f80f9f3709b","session_id":"6196c1f3f45fd1c75900bb26","condition":"full-information","relevant_dimensions":["antennae","wings"],"bee_group":{"antennae":"B","wings":"2","pattern":"X","legs":"X"},"bonus":0.18000000000000108},{"success":true,"timeout":false,"failed_images":[],"failed_audio":[],"failed_video":[],"trial_type":"preload","trial_index":1,"time_elapsed":14649,"internal_node_id":"0.0-1.0","subject_id":"615d8eccb9ef31c50d69d390","study_id":"60edd13110225f80f9f3709b","session_id":"6196c1f3f45fd1c75900bb26","condition":"full-information","relevant_dimensions":["antennae","wings"],"bee_group":{"antennae":"B","wings":"2","pattern":"X","legs":"X"},"bonus":0.18000000000000108},{"rt":4060.60000000149,"stimulus":"Welcome! Press any key to begin.","response":" ","trial_type":"html-keyboard-response","trial_index":2,"time_elapsed":18712,"internal_node_id":"0.0-2.0","subject_id":"615d8eccb9ef31c50d69d390","study_id":"60edd13110225f80f9f3709b","session_id":"6196c1f3f45fd1c75900bb26","condition":"full-information","relevant_dimensions":["antennae","wings"],"bee_group":{"antennae":"B","wings":"2","pattern":"X","legs":"X"},"bonus":0.18000000000000108},{"view_history":[{"page_index":0,"viewing_time":13494.5},{"page_index":1,"viewing_time":24819.89999999851},{"page_index":2,"viewing_time":22301.10000000149},{"page_index":3,"viewing_time":27020},{"page_index":4,"viewing_time":33387.5},{"page_index":5,"viewing_time":12225.60000000149},{"page_index":6,"viewing_time":22934.599999997765},{"page_index":7,"viewing_time":12290.800000000745},{"page_index":8,"viewing_time":6906.89999999851},{"page_index":9,"viewing_time":5318.300000000745},{"page_index":10,"viewing_time":5391.5},{"page_index":11,"viewing_time":10982.10000000149},{"page_index":12,"viewing_time":31712.199999999255},{"page_index":13,"viewing_time":4321.199999999255},{"page_index":14,"viewing_time":4945.400000002235}],"rt":238054.3999999985,"trial_type":"instructions","trial_index":3,"time_elapsed":256769,"internal_node_id":"0.0-3.0-0.0","subject_id":"615d8eccb9ef31c50d69d390","study_id":"60edd13110225f80f9f3709b","session_id":"6196c1f3f45fd1c75900bb26","condition":"full-information","relevant_dimensions":["antennae","wings"],"bee_group":{"antennae":"B","wings":"2","pattern":"X","legs":"X"},"bonus":0.18000000000000108},{"rt":23294.300000000745,"response":{"Q0":["Two or six legs","Stripes or spots on body","Single or double wings","Antennae or no antennae"]},"question_order":[0],"trial_type":"survey-multi-select","trial_index":4,"time_elapsed":280101,"internal_node_id":"0.0-3.0-1.0","subject_id":"615d8eccb9ef31c50d69d390","study_id":"60edd13110225f80f9f3709b","session_id":"6196c1f3f45fd1c75900bb26","condition":"full-information","relevant_dimensions":["antennae","wings"],"bee_group":{"antennae":"B","wings":"2","pattern":"X","legs":"X"},"correct":true,"bonus":0.18000000000000108},{"rt":64371.699999999255,"response":{"Q1":"No.","Q2":"Based on the four features of the bee.","Q3":"You do not learn if it was friendly or dangerous, and do not alter your bonus."},"question_order":[0,1,2],"trial_type":"survey-multi-choice","trial_index":5,"time_elapsed":344496,"internal_node_id":"0.0-3.0-2.0","subject_id":"615d8eccb9ef31c50d69d390","study_id":"60edd13110225f80f9f3709b","session_id":"6196c1f3f45fd1c75900bb26","condition":"full-information","relevant_dimensions":["antennae","wings"],"bee_group":{"antennae":"B","wings":"2","pattern":"X","legs":"X"},"correct":false,"bonus":0.18000000000000108},{"rt":7775.89999999851,"stimulus":"<p>You did not answer all comprehension questions correctly.<br>Press <b>continue</b> to review the instructions again.</p>","response":0,"trial_type":"html-button-response","trial_index":6,"time_elapsed":352277,"internal_node_id":"0.0-3.0-3.0","subject_id":"615d8eccb9ef31c50d69d390","study_id":"60edd13110225f80f9f3709b","session_id":"6196c1f3f45fd1c75900bb26","condition":"full-information","relevant_dimensions":["antennae","wings"],"bee_group":{"antennae":"B","wings":"2","pattern":"X","legs":"X"},"bonus":0.18000000000000108},{"view_history":[{"page_index":0,"viewing_time":3430.89999999851},{"page_index":1,"viewing_time":16774.199999999255},{"page_index":2,"viewing_time":18266},{"page_index":3,"viewing_time":16019.60000000149},{"page_index":4,"viewing_time":11296},{"page_index":5,"viewing_time":16962.300000000745},{"page_index":6,"viewing_time":8100},{"page_index":7,"viewing_time":4354.39999999851},{"page_index":8,"viewing_time":3838.699999999255},{"page_index":9,"viewing_time":3559.2000000029802},{"page_index":10,"viewing_time":2436.199999999255},{"page_index":11,"viewing_time":18070.800000000745},{"page_index":12,"viewing_time":5954.5},{"page_index":13,"viewing_time":1803.2999999970198},{"page_index":14,"viewing_time":1555.7000000029802}],"rt":132424.80000000075,"trial_type":"instructions","trial_index":7,"time_elapsed":484708,"internal_node_id":"0.0-3.0-4.0-0.0","subject_id":"615d8eccb9ef31c50d69d390","study_id":"60edd13110225f80f9f3709b","session_id":"6196c1f3f45fd1c75900bb26","condition":"full-information","relevant_dimensions":["antennae","wings"],"bee_group":{"antennae":"B","wings":"2","pattern":"X","legs":"X"},"bonus":0.18000000000000108},{"rt":11230.800000000745,"response":{"Q0":["Two or six legs","Stripes or spots on body","Single or double wings","Antennae or no antennae"]},"question_order":[0],"trial_type":"survey-multi-select","trial_index":8,"time_elapsed":495962,"internal_node_id":"0.0-3.0-4.0-1.0","subject_id":"615d8eccb9ef31c50d69d390","study_id":"60edd13110225f80f9f3709b","session_id":"6196c1f3f45fd1c75900bb26","condition":"full-information","relevant_dimensions":["antennae","wings"],"bee_group":{"antennae":"B","wings":"2","pattern":"X","legs":"X"},"correct":true,"bonus":0.18000000000000108},{"rt":28200.10000000149,"response":{"Q1":"No.","Q2":"Based on the four features of the bee.","Q3":"You learn if it was friendly or dangerous, but do not alter your bonus."},"question_order":[0,1,2],"trial_type":"survey-multi-choice","trial_index":9,"time_elapsed":524172,"internal_node_id":"0.0-3.0-4.0-2.0","subject_id":"615d8eccb9ef31c50d69d390","study_id":"60edd13110225f80f9f3709b","session_id":"6196c1f3f45fd1c75900bb26","condition":"full-information","relevant_dimensions":["antennae","wings"],"bee_group":{"antennae":"B","wings":"2","pattern":"X","legs":"X"},"correct":true,"bonus":0.18000000000000108},{"rt":6605.300000000745,"stimulus":"<p>Congrats, you got everything right<br>When you're ready, click the button below to continue to the experiment.</p>","response":0,"trial_type":"html-button-response","trial_index":10,"time_elapsed":530784,"internal_node_id":"0.0-3.0-4.0-3.0","subject_id":"615d8eccb9ef31c50d69d390","study_id":"60edd13110225f80f9f3709b","session_id":"6196c1f3f45fd1c75900bb26","condition":"full-information","relevant_dimensions":["antennae","wings"],"bee_group":{"antennae":"B","wings":"2","pattern":"X","legs":"X"},"bonus":0.18000000000000108},{"rt":12648.199999999255,"stimulus":"bees-with-color/bee-A1DF.svg","response":0,"trial_type":"image-button-response","trial_index":11,"time_elapsed":543447,"internal_node_id":"0.0-4.0-0.0","subject_id":"615d8eccb9ef31c50d69d390","study_id":"60edd13110225f80f9f3709b","session_id":"6196c1f3f45fd1c75900bb26","condition":"full-information","relevant_dimensions":["antennae","wings"],"bee_group":{"antennae":"B","wings":"2","pattern":"X","legs":"X"},"action":"harvest","summary":"good-harvest","bonus":0.18000000000000108},{"rt":7271.699999999255,"stimulus":"\n                    <p><b>Action: <em>harvest</em></b></p>\n                    <p>This is the bee that you just saw.</p>\n                    <img src=\"bees-with-color/bee-A1DF.svg\" width=\"200\">\n                    <p><span class=\"greenText\"><b>Successful harvest!</b></span><br>Your pay has increased by $0.02. Your bonus pay is now $0.56.</p>\n            ","response":0,"trial_type":"html-button-response","trial_index":12,"time_elapsed":550791,"internal_node_id":"0.0-4.0-1.0","subject_id":"615d8eccb9ef31c50d69d390","study_id":"60edd13110225f80f9f3709b","session_id":"6196c1f3f45fd1c75900bb26","condition":"full-information","relevant_dimensions":["antennae","wings"],"bee_group":{"antennae":"B","wings":"2","pattern":"X","legs":"X"},"bonus":0.18000000000000108},{"rt":8372.199999999255,"stimulus":"bees-with-color/bee-A2DF.svg","response":0,"trial_type":"image-button-response","trial_index":13,"time_elapsed":559173,"internal_node_id":"0.0-4.0-0.1","subject_id":"615d8eccb9ef31c50d69d390","study_id":"60edd13110225f80f9f3709b","session_id":"6196c1f3f45fd1c75900bb26","condition":"full-information","relevant_dimensions":["antennae","wings"],"bee_group":{"antennae":"B","wings":"2","pattern":"X","legs":"X"},"action":"harvest","summary":"good-harvest","bonus":0.18000000000000108},{"rt":3530.5,"stimulus":"\n                    <p><b>Action: <em>harvest</em></b></p>\n                    <p>This is the bee that you just saw.</p>\n                    <img src=\"bees-with-color/bee-A2DF.svg\" width=\"200\">\n                    <p><span class=\"greenText\"><b>Successful harvest!</b></span><br>Your pay has increased by $0.02. Your bonus pay is now $0.58.</p>\n            ","response":0,"trial_type":"html-button-response","trial_index":14,"time_elapsed":562731,"internal_node_id":"0.0-4.0-1.1","subject_id":"615d8eccb9ef31c50d69d390","study_id":"60edd13110225f80f9f3709b","session_id":"6196c1f3f45fd1c75900bb26","condition":"full-information","relevant_dimensions":["antennae","wings"],"bee_group":{"antennae":"B","wings":"2","pattern":"X","legs":"X"},"bonus":0.18000000000000108},{"rt":4860.099999997765,"stimulus":"bees-with-color/bee-A1SF.svg","response":0,"trial_type":"image-button-response","trial_index":15,"time_elapsed":567604,"internal_node_id":"0.0-4.0-0.2","subject_id":"615d8eccb9ef31c50d69d390","study_id":"60edd13110225f80f9f3709b","session_id":"6196c1f3f45fd1c75900bb26","condition":"full-information","relevant_dimensions":["antennae","wings"],"bee_group":{"antennae":"B","wings":"2","pattern":"X","legs":"X"},"action":"harvest","summary":"good-harvest","bonus":0.18000000000000108},{"rt":3480.5,"stimulus":"\n                    <p><b>Action: <em>harvest</em></b></p>\n                    <p>This is the bee that you just saw.</p>\n                    <img src=\"bees-with-color/bee-A1SF.svg\" width=\"200\">\n                    <p><span class=\"greenText\"><b>Successful harvest!</b></span><br>Your pay has increased by $0.02. Your bonus pay is now $0.60.</p>\n            ","response":0,"trial_type":"html-button-response","trial_index":16,"time_elapsed":571090,"internal_node_id":"0.0-4.0-1.2","subject_id":"615d8eccb9ef31c50d69d390","study_id":"60edd13110225f80f9f3709b","session_id":"6196c1f3f45fd1c75900bb26","condition":"full-information","relevant_dimensions":["antennae","wings"],"bee_group":{"antennae":"B","wings":"2","pattern":"X","legs":"X"},"bonus":0.18000000000000108},{"rt":4556.800000000745,"stimulus":"bees-with-color/bee-B2DM.svg","response":1,"trial_type":"image-button-response","trial_index":17,"time_elapsed":575653,"internal_node_id":"0.0-4.0-0.3","subject_id":"615d8eccb9ef31c50d69d390","study_id":"60edd13110225f80f9f3709b","session_id":"6196c1f3f45fd1c75900bb26","condition":"full-information","relevant_dimensions":["antennae","wings"],"bee_group":{"antennae":"B","wings":"2","pattern":"X","legs":"X"},"action":"avoid","summary":"good-avoid","bonus":0.18000000000000108},{"rt":7136.199999999255,"stimulus":"\n                    <p><b>Action: <em>avoid</em></b></p>\n                    <p>This is the bee that you just saw.</p>\n                    <img src=\"bees-with-color/bee-B2DM.svg\" width=\"200\">\n                    <p><span class=\"greenText\">Good choice!</span>  This bee would have stung you.<br>Your bonus pay is unchanged, and remains at $0.60.</p>\n            ","response":0,"trial_type":"html-button-response","trial_index":18,"time_elapsed":582796,"internal_node_id":"0.0-4.0-1.3","subject_id":"615d8eccb9ef31c50d69d390","study_id":"60edd13110225f80f9f3709b","session_id":"6196c1f3f45fd1c75900bb26","condition":"full-information","relevant_dimensions":["antennae","wings"],"bee_group":{"antennae":"B","wings":"2","pattern":"X","legs":"X"},"bonus":0.18000000000000108},{"rt":4297.39999999851,"stimulus":"bees-with-color/bee-A2DM.svg","response":1,"trial_type":"image-button-response","trial_index":19,"time_elapsed":587103,"internal_node_id":"0.0-4.0-0.4","subject_id":"615d8eccb9ef31c50d69d390","study_id":"60edd13110225f80f9f3709b","session_id":"6196c1f3f45fd1c75900bb26","condition":"full-information","relevant_dimensions":["antennae","wings"],"bee_group":{"antennae":"B","wings":"2","pattern":"X","legs":"X"},"action":"avoid","summary":"bad-avoid","bonus":0.18000000000000108},{"rt":5173.800000000745,"stimulus":"\n                    <p><b>Action: <em>avoid</em></b></p>\n                    <p>This is the bee that you just saw.</p>\n                    <img src=\"bees-with-color/bee-A2DM.svg\" width=\"200\">\n                    <p><span class=\"redText\">Bad choice,</span> the bee was friendly.<br>Your bonus pay is unchanged, and remains at $0.60.</p>\n            ","response":0,"trial_type":"html-button-response","trial_index":20,"time_elapsed":592281,"internal_node_id":"0.0-4.0-1.4","subject_id":"615d8eccb9ef31c50d69d390","study_id":"60edd13110225f80f9f3709b","session_id":"6196c1f3f45fd1c75900bb26","condition":"full-information","relevant_dimensions":["antennae","wings"],"bee_group":{"antennae":"B","wings":"2","pattern":"X","legs":"X"},"bonus":0.18000000000000108},{"rt":2611,"stimulus":"bees-with-color/bee-A2SM.svg","response":0,"trial_type":"image-button-response","trial_index":21,"time_elapsed":594904,"internal_node_id":"0.0-4.0-0.5","subject_id":"615d8eccb9ef31c50d69d390","study_id":"60edd13110225f80f9f3709b","session_id":"6196c1f3f45fd1c75900bb26","condition":"full-information","relevant_dimensions":["antennae","wings"],"bee_group":{"antennae":"B","wings":"2","pattern":"X","legs":"X"},"action":"harvest","summary":"good-harvest","bonus":0.18000000000000108},{"rt":2579.599999997765,"stimulus":"\n                    <p><b>Action: <em>harvest</em></b></p>\n                    <p>This is the bee that you just saw.</p>\n                    <img src=\"bees-with-color/bee-A2SM.svg\" width=\"200\">\n                    <p><span class=\"greenText\"><b>Successful harvest!</b></span><br>Your pay has increased by $0.02. Your bonus pay is now $0.62.</p>\n            ","response":0,"trial_type":"html-button-response","trial_index":22,"time_elapsed":597488,"internal_node_id":"0.0-4.0-1.5","subject_id":"615d8eccb9ef31c50d69d390","study_id":"60edd13110225f80f9f3709b","session_id":"6196c1f3f45fd1c75900bb26","condition":"full-information","relevant_dimensions":["antennae","wings"],"bee_group":{"antennae":"B","wings":"2","pattern":"X","legs":"X"},"bonus":0.18000000000000108},{"rt":3675.699999999255,"stimulus":"bees-with-color/bee-B2SF.svg","response":1,"trial_type":"image-button-response","trial_index":23,"time_elapsed":601172,"internal_node_id":"0.0-4.0-0.6","subject_id":"615d8eccb9ef31c50d69d390","study_id":"60edd13110225f80f9f3709b","session_id":"6196c1f3f45fd1c75900bb26","condition":"full-information","relevant_dimensions":["antennae","wings"],"bee_group":{"antennae":"B","wings":"2","pattern":"X","legs":"X"},"action":"avoid","summary":"good-avoid","bonus":0.18000000000000108},{"rt":6457.699999999255,"stimulus":"\n                    <p><b>Action: <em>avoid</em></b></p>\n                    <p>This is the bee that you just saw.</p>\n                    <img src=\"bees-with-color/bee-B2SF.svg\" width=\"200\">\n                    <p><span class=\"greenText\">Good choice!</span>  This bee would have stung you.<br>Your bonus pay is unchanged, and remains at $0.62.</p>\n            ","response":0,"trial_type":"html-button-response","trial_index":24,"time_elapsed":607637,"internal_node_id":"0.0-4.0-1.6","subject_id":"615d8eccb9ef31c50d69d390","study_id":"60edd13110225f80f9f3709b","session_id":"6196c1f3f45fd1c75900bb26","condition":"full-information","relevant_dimensions":["antennae","wings"],"bee_group":{"antennae":"B","wings":"2","pattern":"X","legs":"X"},"bonus":0.18000000000000108},{"rt":20086.599999997765,"stimulus":"bees-with-color/bee-B1SF.svg","response":0,"trial_type":"image-button-response","trial_index":25,"time_elapsed":627731,"internal_node_id":"0.0-4.0-0.7","subject_id":"615d8eccb9ef31c50d69d390","study_id":"60edd13110225f80f9f3709b","session_id":"6196c1f3f45fd1c75900bb26","condition":"full-information","relevant_dimensions":["antennae","wings"],"bee_group":{"antennae":"B","wings":"2","pattern":"X","legs":"X"},"action":"harvest","summary":"good-harvest","bonus":0.18000000000000108},{"rt":1842.2999999970198,"stimulus":"\n                    <p><b>Action: <em>harvest</em></b></p>\n                    <p>This is the bee that you just saw.</p>\n                    <img src=\"bees-with-color/bee-B1SF.svg\" width=\"200\">\n                    <p><span class=\"greenText\"><b>Successful harvest!</b></span><br>Your pay has increased by $0.02. Your bonus pay is now $0.64.</p>\n            ","response":0,"trial_type":"html-button-response","trial_index":26,"time_elapsed":629584,"internal_node_id":"0.0-4.0-1.7","subject_id":"615d8eccb9ef31c50d69d390","study_id":"60edd13110225f80f9f3709b","session_id":"6196c1f3f45fd1c75900bb26","condition":"full-information","relevant_dimensions":["antennae","wings"],"bee_group":{"antennae":"B","wings":"2","pattern":"X","legs":"X"},"bonus":0.18000000000000108},{"rt":1947.0999999977648,"stimulus":"bees-with-color/bee-B1DM.svg","response":1,"trial_type":"image-button-response","trial_index":27,"time_elapsed":631541,"internal_node_id":"0.0-4.0-0.8","subject_id":"615d8eccb9ef31c50d69d390","study_id":"60edd13110225f80f9f3709b","session_id":"6196c1f3f45fd1c75900bb26","condition":"full-information","relevant_dimensions":["antennae","wings"],"bee_group":{"antennae":"B","wings":"2","pattern":"X","legs":"X"},"action":"avoid","summary":"bad-avoid","bonus":0.18000000000000108},{"rt":1773.5,"stimulus":"\n                    <p><b>Action: <em>avoid</em></b></p>\n                    <p>This is the bee that you just saw.</p>\n                    <img src=\"bees-with-color/bee-B1DM.svg\" width=\"200\">\n                    <p><span class=\"redText\">Bad choice,</span> the bee was friendly.<br>Your bonus pay is unchanged, and remains at $0.64.</p>\n            ","response":0,"trial_type":"html-button-response","trial_index":28,"time_elapsed":633322,"internal_node_id":"0.0-4.0-1.8","subject_id":"615d8eccb9ef31c50d69d390","study_id":"60edd13110225f80f9f3709b","session_id":"6196c1f3f45fd1c75900bb26","condition":"full-information","relevant_dimensions":["antennae","wings"],"bee_group":{"antennae":"B","wings":"2","pattern":"X","legs":"X"},"bonus":0.18000000000000108},{"rt":1966.2999999970198,"stimulus":"bees-with-color/bee-A2SF.svg","response":1,"trial_type":"image-button-response","trial_index":29,"time_elapsed":635294,"internal_node_id":"0.0-4.0-0.9","subject_id":"615d8eccb9ef31c50d69d390","study_id":"60edd13110225f80f9f3709b","session_id":"6196c1f3f45fd1c75900bb26","condition":"full-information","relevant_dimensions":["antennae","wings"],"bee_group":{"antennae":"B","wings":"2","pattern":"X","legs":"X"},"action":"avoid","summary":"bad-avoid","bonus":0.18000000000000108},{"rt":1663.6000000014901,"stimulus":"\n                    <p><b>Action: <em>avoid</em></b></p>\n                    <p>This is the bee that you just saw.</p>\n                    <img src=\"bees-with-color/bee-A2SF.svg\" width=\"200\">\n                    <p><span class=\"redText\">Bad choice,</span> the bee was friendly.<br>Your bonus pay is unchanged, and remains at $0.64.</p>\n            ","response":0,"trial_type":"html-button-response","trial_index":30,"time_elapsed":636968,"internal_node_id":"0.0-4.0-1.9","subject_id":"615d8eccb9ef31c50d69d390","study_id":"60edd13110225f80f9f3709b","session_id":"6196c1f3f45fd1c75900bb26","condition":"full-information","relevant_dimensions":["antennae","wings"],"bee_group":{"antennae":"B","wings":"2","pattern":"X","legs":"X"},"bonus":0.18000000000000108},{"rt":1878.199999999255,"stimulus":"bees-with-color/bee-B2SM.svg","response":1,"trial_type":"image-button-response","trial_index":31,"time_elapsed":638855,"internal_node_id":"0.0-4.0-0.10","subject_id":"615d8eccb9ef31c50d69d390","study_id":"60edd13110225f80f9f3709b","session_id":"6196c1f3f45fd1c75900bb26","condition":"full-information","relevant_dimensions":["antennae","wings"],"bee_group":{"antennae":"B","wings":"2","pattern":"X","legs":"X"},"action":"avoid","summary":"good-avoid","bonus":0.18000000000000108},{"rt":2944.400000002235,"stimulus":"\n                    <p><b>Action: <em>avoid</em></b></p>\n                    <p>This is the bee that you just saw.</p>\n                    <img src=\"bees-with-color/bee-B2SM.svg\" width=\"200\">\n                    <p><span class=\"greenText\">Good choice!</span>  This bee would have stung you.<br>Your bonus pay is unchanged, and remains at $0.64.</p>\n            ","response":0,"trial_type":"html-button-response","trial_index":32,"time_elapsed":641806,"internal_node_id":"0.0-4.0-1.10","subject_id":"615d8eccb9ef31c50d69d390","study_id":"60edd13110225f80f9f3709b","session_id":"6196c1f3f45fd1c75900bb26","condition":"full-information","relevant_dimensions":["antennae","wings"],"bee_group":{"antennae":"B","wings":"2","pattern":"X","legs":"X"},"bonus":0.18000000000000108},{"rt":2399.699999999255,"stimulus":"bees-with-color/bee-B2DF.svg","response":0,"trial_type":"image-button-response","trial_index":33,"time_elapsed":644213,"internal_node_id":"0.0-4.0-0.11","subject_id":"615d8eccb9ef31c50d69d390","study_id":"60edd13110225f80f9f3709b","session_id":"6196c1f3f45fd1c75900bb26","condition":"full-information","relevant_dimensions":["antennae","wings"],"bee_group":{"antennae":"B","wings":"2","pattern":"X","legs":"X"},"action":"harvest","summary":"bad-harvest","bonus":0.18000000000000108},{"rt":2826.60000000149,"stimulus":"\n                    <p><b>Action: <em>harvest</em></b></p>\n                    <p>This is the bee that you just saw.</p>\n                    <img src=\"bees-with-color/bee-B2DF.svg\" width=\"200\">\n                    <p><span class=\"redText\">Bad choice, the bee was angry.</span><br><b>You have been stung!</b><br>Your pay has been decreased by $0.10. Your bonus pay is now $0.54.</p>\n            ","response":0,"trial_type":"html-button-response","trial_index":34,"time_elapsed":647048,"internal_node_id":"0.0-4.0-1.11","subject_id":"615d8eccb9ef31c50d69d390","study_id":"60edd13110225f80f9f3709b","session_id":"6196c1f3f45fd1c75900bb26","condition":"full-information","relevant_dimensions":["antennae","wings"],"bee_group":{"antennae":"B","wings":"2","pattern":"X","legs":"X"},"bonus":0.18000000000000108},{"rt":2448,"stimulus":"bees-with-color/bee-A1SM.svg","response":0,"trial_type":"image-button-response","trial_index":35,"time_elapsed":649507,"internal_node_id":"0.0-4.0-0.12","subject_id":"615d8eccb9ef31c50d69d390","study_id":"60edd13110225f80f9f3709b","session_id":"6196c1f3f45fd1c75900bb26","condition":"full-information","relevant_dimensions":["antennae","wings"],"bee_group":{"antennae":"B","wings":"2","pattern":"X","legs":"X"},"action":"harvest","summary":"good-harvest","bonus":0.18000000000000108},{"rt":2395.60000000149,"stimulus":"\n                    <p><b>Action: <em>harvest</em></b></p>\n                    <p>This is the bee that you just saw.</p>\n                    <img src=\"bees-with-color/bee-A1SM.svg\" width=\"200\">\n                    <p><span class=\"greenText\"><b>Successful harvest!</b></span><br>Your pay has increased by $0.02. Your bonus pay is now $0.56.</p>\n            ","response":0,"trial_type":"html-button-response","trial_index":36,"time_elapsed":651909,"internal_node_id":"0.0-4.0-1.12","subject_id":"615d8eccb9ef31c50d69d390","study_id":"60edd13110225f80f9f3709b","session_id":"6196c1f3f45fd1c75900bb26","condition":"full-information","relevant_dimensions":["antennae","wings"],"bee_group":{"antennae":"B","wings":"2","pattern":"X","legs":"X"},"bonus":0.18000000000000108},{"rt":9256.60000000149,"stimulus":"bees-with-color/bee-B1SM.svg","response":0,"trial_type":"image-button-response","trial_index":37,"time_elapsed":661176,"internal_node_id":"0.0-4.0-0.13","subject_id":"615d8eccb9ef31c50d69d390","study_id":"60edd13110225f80f9f3709b","session_id":"6196c1f3f45fd1c75900bb26","condition":"full-information","relevant_dimensions":["antennae","wings"],"bee_group":{"antennae":"B","wings":"2","pattern":"X","legs":"X"},"action":"harvest","summary":"good-harvest","bonus":0.18000000000000108},{"rt":2149.5,"stimulus":"\n                    <p><b>Action: <em>harvest</em></b></p>\n                    <p>This is the bee that you just saw.</p>\n                    <img src=\"bees-with-color/bee-B1SM.svg\" width=\"200\">\n                    <p><span class=\"greenText\"><b>Successful harvest!</b></span><br>Your pay has increased by $0.02. Your bonus pay is now $0.58.</p>\n            ","response":0,"trial_type":"html-button-response","trial_index":38,"time_elapsed":663335,"internal_node_id":"0.0-4.0-1.13","subject_id":"615d8eccb9ef31c50d69d390","study_id":"60edd13110225f80f9f3709b","session_id":"6196c1f3f45fd1c75900bb26","condition":"full-information","relevant_dimensions":["antennae","wings"],"bee_group":{"antennae":"B","wings":"2","pattern":"X","legs":"X"},"bonus":0.18000000000000108},{"rt":3465.39999999851,"stimulus":"bees-with-color/bee-A1DM.svg","response":0,"trial_type":"image-button-response","trial_index":39,"time_elapsed":666809,"internal_node_id":"0.0-4.0-0.14","subject_id":"615d8eccb9ef31c50d69d390","study_id":"60edd13110225f80f9f3709b","session_id":"6196c1f3f45fd1c75900bb26","condition":"full-information","relevant_dimensions":["antennae","wings"],"bee_group":{"antennae":"B","wings":"2","pattern":"X","legs":"X"},"action":"harvest","summary":"good-harvest","bonus":0.18000000000000108},{"rt":2299.699999999255,"stimulus":"\n                    <p><b>Action: <em>harvest</em></b></p>\n                    <p>This is the bee that you just saw.</p>\n                    <img src=\"bees-with-color/bee-A1DM.svg\" width=\"200\">\n                    <p><span class=\"greenText\"><b>Successful harvest!</b></span><br>Your pay has increased by $0.02. Your bonus pay is now $0.60.</p>\n            ","response":0,"trial_type":"html-button-response","trial_index":40,"time_elapsed":669118,"internal_node_id":"0.0-4.0-1.14","subject_id":"615d8eccb9ef31c50d69d390","study_id":"60edd13110225f80f9f3709b","session_id":"6196c1f3f45fd1c75900bb26","condition":"full-information","relevant_dimensions":["antennae","wings"],"bee_group":{"antennae":"B","wings":"2","pattern":"X","legs":"X"},"bonus":0.18000000000000108},{"rt":2330.699999999255,"stimulus":"bees-with-color/bee-B1DF.svg","response":1,"trial_type":"image-button-response","trial_index":41,"time_elapsed":671458,"internal_node_id":"0.0-4.0-0.15","subject_id":"615d8eccb9ef31c50d69d390","study_id":"60edd13110225f80f9f3709b","session_id":"6196c1f3f45fd1c75900bb26","condition":"full-information","relevant_dimensions":["antennae","wings"],"bee_group":{"antennae":"B","wings":"2","pattern":"X","legs":"X"},"action":"avoid","summary":"bad-avoid","bonus":0.18000000000000108},{"rt":1911.1000000014901,"stimulus":"\n                    <p><b>Action: <em>avoid</em></b></p>\n                    <p>This is the bee that you just saw.</p>\n                    <img src=\"bees-with-color/bee-B1DF.svg\" width=\"200\">\n                    <p><span class=\"redText\">Bad choice,</span> the bee was friendly.<br>Your bonus pay is unchanged, and remains at $0.60.</p>\n            ","response":0,"trial_type":"html-button-response","trial_index":42,"time_elapsed":673377,"internal_node_id":"0.0-4.0-1.15","subject_id":"615d8eccb9ef31c50d69d390","study_id":"60edd13110225f80f9f3709b","session_id":"6196c1f3f45fd1c75900bb26","condition":"full-information","relevant_dimensions":["antennae","wings"],"bee_group":{"antennae":"B","wings":"2","pattern":"X","legs":"X"},"bonus":0.18000000000000108},{"rt":4865.89999999851,"stimulus":"bees-with-color/bee-B1DM.svg","response":0,"trial_type":"image-button-response","trial_index":43,"time_elapsed":678252,"internal_node_id":"0.0-4.0-0.16","subject_id":"615d8eccb9ef31c50d69d390","study_id":"60edd13110225f80f9f3709b","session_id":"6196c1f3f45fd1c75900bb26","condition":"full-information","relevant_dimensions":["antennae","wings"],"bee_group":{"antennae":"B","wings":"2","pattern":"X","legs":"X"},"action":"harvest","summary":"good-harvest","bonus":0.18000000000000108},{"rt":2013.8999999985099,"stimulus":"\n                    <p><b>Action: <em>harvest</em></b></p>\n                    <p>This is the bee that you just saw.</p>\n                    <img src=\"bees-with-color/bee-B1DM.svg\" width=\"200\">\n                    <p><span class=\"greenText\"><b>Successful harvest!</b></span><br>Your pay has increased by $0.02. Your bonus pay is now $0.62.</p>\n            ","response":0,"trial_type":"html-button-response","trial_index":44,"time_elapsed":680272,"internal_node_id":"0.0-4.0-1.16","subject_id":"615d8eccb9ef31c50d69d390","study_id":"60edd13110225f80f9f3709b","session_id":"6196c1f3f45fd1c75900bb26","condition":"full-information","relevant_dimensions":["antennae","wings"],"bee_group":{"antennae":"B","wings":"2","pattern":"X","legs":"X"},"bonus":0.18000000000000108},{"rt":10821.5,"stimulus":"bees-with-color/bee-A1DM.svg","response":0,"trial_type":"image-button-response","trial_index":45,"time_elapsed":691102,"internal_node_id":"0.0-4.0-0.17","subject_id":"615d8eccb9ef31c50d69d390","study_id":"60edd13110225f80f9f3709b","session_id":"6196c1f3f45fd1c75900bb26","condition":"full-information","relevant_dimensions":["antennae","wings"],"bee_group":{"antennae":"B","wings":"2","pattern":"X","legs":"X"},"action":"harvest","summary":"good-harvest","bonus":0.18000000000000108},{"rt":1828.8999999985099,"stimulus":"\n                    <p><b>Action: <em>harvest</em></b></p>\n                    <p>This is the bee that you just saw.</p>\n                    <img src=\"bees-with-color/bee-A1DM.svg\" width=\"200\">\n                    <p><span class=\"greenText\"><b>Successful harvest!</b></span><br>Your pay has increased by $0.02. Your bonus pay is now $0.64.</p>\n            ","response":0,"trial_type":"html-button-response","trial_index":46,"time_elapsed":692936,"internal_node_id":"0.0-4.0-1.17","subject_id":"615d8eccb9ef31c50d69d390","study_id":"60edd13110225f80f9f3709b","session_id":"6196c1f3f45fd1c75900bb26","condition":"full-information","relevant_dimensions":["antennae","wings"],"bee_group":{"antennae":"B","wings":"2","pattern":"X","legs":"X"},"bonus":0.18000000000000108},{"rt":138539,"stimulus":"bees-with-color/bee-B1SF.svg","response":0,"trial_type":"image-button-response","trial_index":47,"time_elapsed":831484,"internal_node_id":"0.0-4.0-0.18","subject_id":"615d8eccb9ef31c50d69d390","study_id":"60edd13110225f80f9f3709b","session_id":"6196c1f3f45fd1c75900bb26","condition":"full-information","relevant_dimensions":["antennae","wings"],"bee_group":{"antennae":"B","wings":"2","pattern":"X","legs":"X"},"action":"harvest","summary":"good-harvest","bonus":0.18000000000000108},{"rt":2678.60000000149,"stimulus":"\n                    <p><b>Action: <em>harvest</em></b></p>\n                    <p>This is the bee that you just saw.</p>\n                    <img src=\"bees-with-color/bee-B1SF.svg\" width=\"200\">\n                    <p><span class=\"greenText\"><b>Successful harvest!</b></span><br>Your pay has increased by $0.02. Your bonus pay is now $0.66.</p>\n            ","response":0,"trial_type":"html-button-response","trial_index":48,"time_elapsed":834172,"internal_node_id":"0.0-4.0-1.18","subject_id":"615d8eccb9ef31c50d69d390","study_id":"60edd13110225f80f9f3709b","session_id":"6196c1f3f45fd1c75900bb26","condition":"full-information","relevant_dimensions":["antennae","wings"],"bee_group":{"antennae":"B","wings":"2","pattern":"X","legs":"X"},"bonus":0.18000000000000108},{"rt":20887,"stimulus":"bees-with-color/bee-A1SM.svg","response":1,"trial_type":"image-button-response","trial_index":49,"time_elapsed":855069,"internal_node_id":"0.0-4.0-0.19","subject_id":"615d8eccb9ef31c50d69d390","study_id":"60edd13110225f80f9f3709b","session_id":"6196c1f3f45fd1c75900bb26","condition":"full-information","relevant_dimensions":["antennae","wings"],"bee_group":{"antennae":"B","wings":"2","pattern":"X","legs":"X"},"action":"avoid","summary":"bad-avoid","bonus":0.18000000000000108},{"rt":1517.699999999255,"stimulus":"\n                    <p><b>Action: <em>avoid</em></b></p>\n                    <p>This is the bee that you just saw.</p>\n                    <img src=\"bees-with-color/bee-A1SM.svg\" width=\"200\">\n                    <p><span class=\"redText\">Bad choice,</span> the bee was friendly.<br>Your bonus pay is unchanged, and remains at $0.66.</p>\n            ","response":0,"trial_type":"html-button-response","trial_index":50,"time_elapsed":856595,"internal_node_id":"0.0-4.0-1.19","subject_id":"615d8eccb9ef31c50d69d390","study_id":"60edd13110225f80f9f3709b","session_id":"6196c1f3f45fd1c75900bb26","condition":"full-information","relevant_dimensions":["antennae","wings"],"bee_group":{"antennae":"B","wings":"2","pattern":"X","legs":"X"},"bonus":0.18000000000000108},{"rt":2473.800000000745,"stimulus":"bees-with-color/bee-B2DF.svg","response":1,"trial_type":"image-button-response","trial_index":51,"time_elapsed":859076,"internal_node_id":"0.0-4.0-0.20","subject_id":"615d8eccb9ef31c50d69d390","study_id":"60edd13110225f80f9f3709b","session_id":"6196c1f3f45fd1c75900bb26","condition":"full-information","relevant_dimensions":["antennae","wings"],"bee_group":{"antennae":"B","wings":"2","pattern":"X","legs":"X"},"action":"avoid","summary":"good-avoid","bonus":0.18000000000000108},{"rt":1951.6000000014901,"stimulus":"\n                    <p><b>Action: <em>avoid</em></b></p>\n                    <p>This is the bee that you just saw.</p>\n                    <img src=\"bees-with-color/bee-B2DF.svg\" width=\"200\">\n                    <p><span class=\"greenText\">Good choice!</span>  This bee would have stung you.<br>Your bonus pay is unchanged, and remains at $0.66.</p>\n            ","response":0,"trial_type":"html-button-response","trial_index":52,"time_elapsed":861035,"internal_node_id":"0.0-4.0-1.20","subject_id":"615d8eccb9ef31c50d69d390","study_id":"60edd13110225f80f9f3709b","session_id":"6196c1f3f45fd1c75900bb26","condition":"full-information","relevant_dimensions":["antennae","wings"],"bee_group":{"antennae":"B","wings":"2","pattern":"X","legs":"X"},"bonus":0.18000000000000108},{"rt":2225.89999999851,"stimulus":"bees-with-color/bee-B1DF.svg","response":0,"trial_type":"image-button-response","trial_index":53,"time_elapsed":863267,"internal_node_id":"0.0-4.0-0.21","subject_id":"615d8eccb9ef31c50d69d390","study_id":"60edd13110225f80f9f3709b","session_id":"6196c1f3f45fd1c75900bb26","condition":"full-information","relevant_dimensions":["antennae","wings"],"bee_group":{"antennae":"B","wings":"2","pattern":"X","legs":"X"},"action":"harvest","summary":"good-harvest","bonus":0.18000000000000108},{"rt":1594.9000000022352,"stimulus":"\n                    <p><b>Action: <em>harvest</em></b></p>\n                    <p>This is the bee that you just saw.</p>\n                    <img src=\"bees-with-color/bee-B1DF.svg\" width=\"200\">\n                    <p><span class=\"greenText\"><b>Successful harvest!</b></span><br>Your pay has increased by $0.02. Your bonus pay is now $0.68.</p>\n            ","response":0,"trial_type":"html-button-response","trial_index":54,"time_elapsed":864871,"internal_node_id":"0.0-4.0-1.21","subject_id":"615d8eccb9ef31c50d69d390","study_id":"60edd13110225f80f9f3709b","session_id":"6196c1f3f45fd1c75900bb26","condition":"full-information","relevant_dimensions":["antennae","wings"],"bee_group":{"antennae":"B","wings":"2","pattern":"X","legs":"X"},"bonus":0.18000000000000108},{"rt":2533.699999999255,"stimulus":"bees-with-color/bee-A2DF.svg","response":0,"trial_type":"image-button-response","trial_index":55,"time_elapsed":867413,"internal_node_id":"0.0-4.0-0.22","subject_id":"615d8eccb9ef31c50d69d390","study_id":"60edd13110225f80f9f3709b","session_id":"6196c1f3f45fd1c75900bb26","condition":"full-information","relevant_dimensions":["antennae","wings"],"bee_group":{"antennae":"B","wings":"2","pattern":"X","legs":"X"},"action":"harvest","summary":"good-harvest","bonus":0.18000000000000108},{"rt":1727,"stimulus":"\n                    <p><b>Action: <em>harvest</em></b></p>\n                    <p>This is the bee that you just saw.</p>\n                    <img src=\"bees-with-color/bee-A2DF.svg\" width=\"200\">\n                    <p><span class=\"greenText\"><b>Successful harvest!</b></span><br>Your pay has increased by $0.02. Your bonus pay is now $0.70.</p>\n            ","response":0,"trial_type":"html-button-response","trial_index":56,"time_elapsed":869147,"internal_node_id":"0.0-4.0-1.22","subject_id":"615d8eccb9ef31c50d69d390","study_id":"60edd13110225f80f9f3709b","session_id":"6196c1f3f45fd1c75900bb26","condition":"full-information","relevant_dimensions":["antennae","wings"],"bee_group":{"antennae":"B","wings":"2","pattern":"X","legs":"X"},"bonus":0.18000000000000108},{"rt":2517.800000000745,"stimulus":"bees-with-color/bee-B2SM.svg","response":0,"trial_type":"image-button-response","trial_index":57,"time_elapsed":871674,"internal_node_id":"0.0-4.0-0.23","subject_id":"615d8eccb9ef31c50d69d390","study_id":"60edd13110225f80f9f3709b","session_id":"6196c1f3f45fd1c75900bb26","condition":"full-information","relevant_dimensions":["antennae","wings"],"bee_group":{"antennae":"B","wings":"2","pattern":"X","legs":"X"},"action":"harvest","summary":"bad-harvest","bonus":0.18000000000000108},{"rt":3342.900000002235,"stimulus":"\n                    <p><b>Action: <em>harvest</em></b></p>\n                    <p>This is the bee that you just saw.</p>\n                    <img src=\"bees-with-color/bee-B2SM.svg\" width=\"200\">\n                    <p><span class=\"redText\">Bad choice, the bee was angry.</span><br><b>You have been stung!</b><br>Your pay has been decreased by $0.10. Your bonus pay is now $0.60.</p>\n            ","response":0,"trial_type":"html-button-response","trial_index":58,"time_elapsed":875023,"internal_node_id":"0.0-4.0-1.23","subject_id":"615d8eccb9ef31c50d69d390","study_id":"60edd13110225f80f9f3709b","session_id":"6196c1f3f45fd1c75900bb26","condition":"full-information","relevant_dimensions":["antennae","wings"],"bee_group":{"antennae":"B","wings":"2","pattern":"X","legs":"X"},"bonus":0.18000000000000108},{"rt":2286.800000000745,"stimulus":"bees-with-color/bee-A2DM.svg","response":0,"trial_type":"image-button-response","trial_index":59,"time_elapsed":877314,"internal_node_id":"0.0-4.0-0.24","subject_id":"615d8eccb9ef31c50d69d390","study_id":"60edd13110225f80f9f3709b","session_id":"6196c1f3f45fd1c75900bb26","condition":"full-information","relevant_dimensions":["antennae","wings"],"bee_group":{"antennae":"B","wings":"2","pattern":"X","legs":"X"},"action":"harvest","summary":"good-harvest","bonus":0.18000000000000108},{"rt":2215.599999997765,"stimulus":"\n                    <p><b>Action: <em>harvest</em></b></p>\n                    <p>This is the bee that you just saw.</p>\n                    <img src=\"bees-with-color/bee-A2DM.svg\" width=\"200\">\n                    <p><span class=\"greenText\"><b>Successful harvest!</b></span><br>Your pay has increased by $0.02. Your bonus pay is now $0.62.</p>\n            ","response":0,"trial_type":"html-button-response","trial_index":60,"time_elapsed":879626,"internal_node_id":"0.0-4.0-1.24","subject_id":"615d8eccb9ef31c50d69d390","study_id":"60edd13110225f80f9f3709b","session_id":"6196c1f3f45fd1c75900bb26","condition":"full-information","relevant_dimensions":["antennae","wings"],"bee_group":{"antennae":"B","wings":"2","pattern":"X","legs":"X"},"bonus":0.18000000000000108},{"rt":2760.099999997765,"stimulus":"bees-with-color/bee-A1DF.svg","response":1,"trial_type":"image-button-response","trial_index":61,"time_elapsed":882395,"internal_node_id":"0.0-4.0-0.25","subject_id":"615d8eccb9ef31c50d69d390","study_id":"60edd13110225f80f9f3709b","session_id":"6196c1f3f45fd1c75900bb26","condition":"full-information","relevant_dimensions":["antennae","wings"],"bee_group":{"antennae":"B","wings":"2","pattern":"X","legs":"X"},"action":"avoid","summary":"bad-avoid","bonus":0.18000000000000108},{"rt":3162.89999999851,"stimulus":"\n                    <p><b>Action: <em>avoid</em></b></p>\n                    <p>This is the bee that you just saw.</p>\n                    <img src=\"bees-with-color/bee-A1DF.svg\" width=\"200\">\n                    <p><span class=\"redText\">Bad choice,</span> the bee was friendly.<br>Your bonus pay is unchanged, and remains at $0.62.</p>\n            ","response":0,"trial_type":"html-button-response","trial_index":62,"time_elapsed":885564,"internal_node_id":"0.0-4.0-1.25","subject_id":"615d8eccb9ef31c50d69d390","study_id":"60edd13110225f80f9f3709b","session_id":"6196c1f3f45fd1c75900bb26","condition":"full-information","relevant_dimensions":["antennae","wings"],"bee_group":{"antennae":"B","wings":"2","pattern":"X","legs":"X"},"bonus":0.18000000000000108},{"rt":1376.5999999977648,"stimulus":"bees-with-color/bee-A1SF.svg","response":0,"trial_type":"image-button-response","trial_index":63,"time_elapsed":886946,"internal_node_id":"0.0-4.0-0.26","subject_id":"615d8eccb9ef31c50d69d390","study_id":"60edd13110225f80f9f3709b","session_id":"6196c1f3f45fd1c75900bb26","condition":"full-information","relevant_dimensions":["antennae","wings"],"bee_group":{"antennae":"B","wings":"2","pattern":"X","legs":"X"},"action":"harvest","summary":"good-harvest","bonus":0.18000000000000108},{"rt":2702.39999999851,"stimulus":"\n                    <p><b>Action: <em>harvest</em></b></p>\n                    <p>This is the bee that you just saw.</p>\n                    <img src=\"bees-with-color/bee-A1SF.svg\" width=\"200\">\n                    <p><span class=\"greenText\"><b>Successful harvest!</b></span><br>Your pay has increased by $0.02. Your bonus pay is now $0.64.</p>\n            ","response":0,"trial_type":"html-button-response","trial_index":64,"time_elapsed":889657,"internal_node_id":"0.0-4.0-1.26","subject_id":"615d8eccb9ef31c50d69d390","study_id":"60edd13110225f80f9f3709b","session_id":"6196c1f3f45fd1c75900bb26","condition":"full-information","relevant_dimensions":["antennae","wings"],"bee_group":{"antennae":"B","wings":"2","pattern":"X","legs":"X"},"bonus":0.18000000000000108},{"rt":3463.39999999851,"stimulus":"bees-with-color/bee-A2SM.svg","response":0,"trial_type":"image-button-response","trial_index":65,"time_elapsed":893129,"internal_node_id":"0.0-4.0-0.27","subject_id":"615d8eccb9ef31c50d69d390","study_id":"60edd13110225f80f9f3709b","session_id":"6196c1f3f45fd1c75900bb26","condition":"full-information","relevant_dimensions":["antennae","wings"],"bee_group":{"antennae":"B","wings":"2","pattern":"X","legs":"X"},"action":"harvest","summary":"good-harvest","bonus":0.18000000000000108},{"rt":2011.300000000745,"stimulus":"\n                    <p><b>Action: <em>harvest</em></b></p>\n                    <p>This is the bee that you just saw.</p>\n                    <img src=\"bees-with-color/bee-A2SM.svg\" width=\"200\">\n                    <p><span class=\"greenText\"><b>Successful harvest!</b></span><br>Your pay has increased by $0.02. Your bonus pay is now $0.66.</p>\n            ","response":0,"trial_type":"html-button-response","trial_index":66,"time_elapsed":895147,"internal_node_id":"0.0-4.0-1.27","subject_id":"615d8eccb9ef31c50d69d390","study_id":"60edd13110225f80f9f3709b","session_id":"6196c1f3f45fd1c75900bb26","condition":"full-information","relevant_dimensions":["antennae","wings"],"bee_group":{"antennae":"B","wings":"2","pattern":"X","legs":"X"},"bonus":0.18000000000000108},{"rt":2745.89999999851,"stimulus":"bees-with-color/bee-B1SM.svg","response":0,"trial_type":"image-button-response","trial_index":67,"time_elapsed":897906,"internal_node_id":"0.0-4.0-0.28","subject_id":"615d8eccb9ef31c50d69d390","study_id":"60edd13110225f80f9f3709b","session_id":"6196c1f3f45fd1c75900bb26","condition":"full-information","relevant_dimensions":["antennae","wings"],"bee_group":{"antennae":"B","wings":"2","pattern":"X","legs":"X"},"action":"harvest","summary":"good-harvest","bonus":0.18000000000000108},{"rt":2111.10000000149,"stimulus":"\n                    <p><b>Action: <em>harvest</em></b></p>\n                    <p>This is the bee that you just saw.</p>\n                    <img src=\"bees-with-color/bee-B1SM.svg\" width=\"200\">\n                    <p><span class=\"greenText\"><b>Successful harvest!</b></span><br>Your pay has increased by $0.02. Your bonus pay is now $0.68.</p>\n            ","response":0,"trial_type":"html-button-response","trial_index":68,"time_elapsed":900024,"internal_node_id":"0.0-4.0-1.28","subject_id":"615d8eccb9ef31c50d69d390","study_id":"60edd13110225f80f9f3709b","session_id":"6196c1f3f45fd1c75900bb26","condition":"full-information","relevant_dimensions":["antennae","wings"],"bee_group":{"antennae":"B","wings":"2","pattern":"X","legs":"X"},"bonus":0.18000000000000108},{"rt":2213.39999999851,"stimulus":"bees-with-color/bee-B2DM.svg","response":1,"trial_type":"image-button-response","trial_index":69,"time_elapsed":902245,"internal_node_id":"0.0-4.0-0.29","subject_id":"615d8eccb9ef31c50d69d390","study_id":"60edd13110225f80f9f3709b","session_id":"6196c1f3f45fd1c75900bb26","condition":"full-information","relevant_dimensions":["antennae","wings"],"bee_group":{"antennae":"B","wings":"2","pattern":"X","legs":"X"},"action":"avoid","summary":"good-avoid","bonus":0.18000000000000108},{"rt":2578.599999997765,"stimulus":"\n                    <p><b>Action: <em>avoid</em></b></p>\n                    <p>This is the bee that you just saw.</p>\n                    <img src=\"bees-with-color/bee-B2DM.svg\" width=\"200\">\n                    <p><span class=\"greenText\">Good choice!</span>  This bee would have stung you.<br>Your bonus pay is unchanged, and remains at $0.68.</p>\n            ","response":0,"trial_type":"html-button-response","trial_index":70,"time_elapsed":904831,"internal_node_id":"0.0-4.0-1.29","subject_id":"615d8eccb9ef31c50d69d390","study_id":"60edd13110225f80f9f3709b","session_id":"6196c1f3f45fd1c75900bb26","condition":"full-information","relevant_dimensions":["antennae","wings"],"bee_group":{"antennae":"B","wings":"2","pattern":"X","legs":"X"},"bonus":0.18000000000000108},{"rt":2042.800000000745,"stimulus":"bees-with-color/bee-B2SF.svg","response":0,"trial_type":"image-button-response","trial_index":71,"time_elapsed":906884,"internal_node_id":"0.0-4.0-0.30","subject_id":"615d8eccb9ef31c50d69d390","study_id":"60edd13110225f80f9f3709b","session_id":"6196c1f3f45fd1c75900bb26","condition":"full-information","relevant_dimensions":["antennae","wings"],"bee_group":{"antennae":"B","wings":"2","pattern":"X","legs":"X"},"action":"harvest","summary":"bad-harvest","bonus":0.18000000000000108},{"rt":2280.5,"stimulus":"\n                    <p><b>Action: <em>harvest</em></b></p>\n                    <p>This is the bee that you just saw.</p>\n                    <img src=\"bees-with-color/bee-B2SF.svg\" width=\"200\">\n                    <p><span class=\"redText\">Bad choice, the bee was angry.</span><br><b>You have been stung!</b><br>Your pay has been decreased by $0.10. Your bonus pay is now $0.58.</p>\n            ","response":0,"trial_type":"html-button-response","trial_index":72,"time_elapsed":909174,"internal_node_id":"0.0-4.0-1.30","subject_id":"615d8eccb9ef31c50d69d390","study_id":"60edd13110225f80f9f3709b","session_id":"6196c1f3f45fd1c75900bb26","condition":"full-information","relevant_dimensions":["antennae","wings"],"bee_group":{"antennae":"B","wings":"2","pattern":"X","legs":"X"},"bonus":0.18000000000000108},{"rt":2195.599999997765,"stimulus":"bees-with-color/bee-A2SF.svg","response":0,"trial_type":"image-button-response","trial_index":73,"time_elapsed":911378,"internal_node_id":"0.0-4.0-0.31","subject_id":"615d8eccb9ef31c50d69d390","study_id":"60edd13110225f80f9f3709b","session_id":"6196c1f3f45fd1c75900bb26","condition":"full-information","relevant_dimensions":["antennae","wings"],"bee_group":{"antennae":"B","wings":"2","pattern":"X","legs":"X"},"action":"harvest","summary":"good-harvest","bonus":0.18000000000000108},{"rt":1950.699999999255,"stimulus":"\n                    <p><b>Action: <em>harvest</em></b></p>\n                    <p>This is the bee that you just saw.</p>\n                    <img src=\"bees-with-color/bee-A2SF.svg\" width=\"200\">\n                    <p><span class=\"greenText\"><b>Successful harvest!</b></span><br>Your pay has increased by $0.02. Your bonus pay is now $0.60.</p>\n            ","response":0,"trial_type":"html-button-response","trial_index":74,"time_elapsed":913338,"internal_node_id":"0.0-4.0-1.31","subject_id":"615d8eccb9ef31c50d69d390","study_id":"60edd13110225f80f9f3709b","session_id":"6196c1f3f45fd1c75900bb26","condition":"full-information","relevant_dimensions":["antennae","wings"],"bee_group":{"antennae":"B","wings":"2","pattern":"X","legs":"X"},"bonus":0.18000000000000108},{"rt":2643.300000000745,"stimulus":"bees-with-color/bee-B2DF.svg","response":0,"trial_type":"image-button-response","trial_index":75,"time_elapsed":915990,"internal_node_id":"0.0-4.0-0.32","subject_id":"615d8eccb9ef31c50d69d390","study_id":"60edd13110225f80f9f3709b","session_id":"6196c1f3f45fd1c75900bb26","condition":"full-information","relevant_dimensions":["antennae","wings"],"bee_group":{"antennae":"B","wings":"2","pattern":"X","legs":"X"},"action":"harvest","summary":"bad-harvest","bonus":0.18000000000000108},{"rt":4512,"stimulus":"\n                    <p><b>Action: <em>harvest</em></b></p>\n                    <p>This is the bee that you just saw.</p>\n                    <img src=\"bees-with-color/bee-B2DF.svg\" width=\"200\">\n                    <p><span class=\"redText\">Bad choice, the bee was angry.</span><br><b>You have been stung!</b><br>Your pay has been decreased by $0.10. Your bonus pay is now $0.50.</p>\n            ","response":0,"trial_type":"html-button-response","trial_index":76,"time_elapsed":920509,"internal_node_id":"0.0-4.0-1.32","subject_id":"615d8eccb9ef31c50d69d390","study_id":"60edd13110225f80f9f3709b","session_id":"6196c1f3f45fd1c75900bb26","condition":"full-information","relevant_dimensions":["antennae","wings"],"bee_group":{"antennae":"B","wings":"2","pattern":"X","legs":"X"},"bonus":0.18000000000000108},{"rt":1620.1000000014901,"stimulus":"bees-with-color/bee-A2DM.svg","response":0,"trial_type":"image-button-response","trial_index":77,"time_elapsed":922133,"internal_node_id":"0.0-4.0-0.33","subject_id":"615d8eccb9ef31c50d69d390","study_id":"60edd13110225f80f9f3709b","session_id":"6196c1f3f45fd1c75900bb26","condition":"full-information","relevant_dimensions":["antennae","wings"],"bee_group":{"antennae":"B","wings":"2","pattern":"X","legs":"X"},"action":"harvest","summary":"good-harvest","bonus":0.18000000000000108},{"rt":1946.3999999985099,"stimulus":"\n                    <p><b>Action: <em>harvest</em></b></p>\n                    <p>This is the bee that you just saw.</p>\n                    <img src=\"bees-with-color/bee-A2DM.svg\" width=\"200\">\n                    <p><span class=\"greenText\"><b>Successful harvest!</b></span><br>Your pay has increased by $0.02. Your bonus pay is now $0.52.</p>\n            ","response":0,"trial_type":"html-button-response","trial_index":78,"time_elapsed":924088,"internal_node_id":"0.0-4.0-1.33","subject_id":"615d8eccb9ef31c50d69d390","study_id":"60edd13110225f80f9f3709b","session_id":"6196c1f3f45fd1c75900bb26","condition":"full-information","relevant_dimensions":["antennae","wings"],"bee_group":{"antennae":"B","wings":"2","pattern":"X","legs":"X"},"bonus":0.18000000000000108},{"rt":4046.300000000745,"stimulus":"bees-with-color/bee-A1DF.svg","response":1,"trial_type":"image-button-response","trial_index":79,"time_elapsed":928144,"internal_node_id":"0.0-4.0-0.34","subject_id":"615d8eccb9ef31c50d69d390","study_id":"60edd13110225f80f9f3709b","session_id":"6196c1f3f45fd1c75900bb26","condition":"full-information","relevant_dimensions":["antennae","wings"],"bee_group":{"antennae":"B","wings":"2","pattern":"X","legs":"X"},"action":"avoid","summary":"bad-avoid","bonus":0.18000000000000108},{"rt":1974.3999999985099,"stimulus":"\n                    <p><b>Action: <em>avoid</em></b></p>\n                    <p>This is the bee that you just saw.</p>\n                    <img src=\"bees-with-color/bee-A1DF.svg\" width=\"200\">\n                    <p><span class=\"redText\">Bad choice,</span> the bee was friendly.<br>Your bonus pay is unchanged, and remains at $0.52.</p>\n            ","response":0,"trial_type":"html-button-response","trial_index":80,"time_elapsed":930126,"internal_node_id":"0.0-4.0-1.34","subject_id":"615d8eccb9ef31c50d69d390","study_id":"60edd13110225f80f9f3709b","session_id":"6196c1f3f45fd1c75900bb26","condition":"full-information","relevant_dimensions":["antennae","wings"],"bee_group":{"antennae":"B","wings":"2","pattern":"X","legs":"X"},"bonus":0.18000000000000108},{"rt":3822.699999999255,"stimulus":"bees-with-color/bee-B2SM.svg","response":0,"trial_type":"image-button-response","trial_index":81,"time_elapsed":933958,"internal_node_id":"0.0-4.0-0.35","subject_id":"615d8eccb9ef31c50d69d390","study_id":"60edd13110225f80f9f3709b","session_id":"6196c1f3f45fd1c75900bb26","condition":"full-information","relevant_dimensions":["antennae","wings"],"bee_group":{"antennae":"B","wings":"2","pattern":"X","legs":"X"},"action":"harvest","summary":"bad-harvest","bonus":0.18000000000000108},{"rt":1891.699999999255,"stimulus":"\n                    <p><b>Action: <em>harvest</em></b></p>\n                    <p>This is the bee that you just saw.</p>\n                    <img src=\"bees-with-color/bee-B2SM.svg\" width=\"200\">\n                    <p><span class=\"redText\">Bad choice, the bee was angry.</span><br><b>You have been stung!</b><br>Your pay has been decreased by $0.10. Your bonus pay is now $0.42.</p>\n            ","response":0,"trial_type":"html-button-response","trial_index":82,"time_elapsed":935857,"internal_node_id":"0.0-4.0-1.35","subject_id":"615d8eccb9ef31c50d69d390","study_id":"60edd13110225f80f9f3709b","session_id":"6196c1f3f45fd1c75900bb26","condition":"full-information","relevant_dimensions":["antennae","wings"],"bee_group":{"antennae":"B","wings":"2","pattern":"X","legs":"X"},"bonus":0.18000000000000108},{"rt":4234.599999997765,"stimulus":"bees-with-color/bee-B1SF.svg","response":0,"trial_type":"image-button-response","trial_index":83,"time_elapsed":940099,"internal_node_id":"0.0-4.0-0.36","subject_id":"615d8eccb9ef31c50d69d390","study_id":"60edd13110225f80f9f3709b","session_id":"6196c1f3f45fd1c75900bb26","condition":"full-information","relevant_dimensions":["antennae","wings"],"bee_group":{"antennae":"B","wings":"2","pattern":"X","legs":"X"},"action":"harvest","summary":"good-harvest","bonus":0.18000000000000108},{"rt":1893.199999999255,"stimulus":"\n                    <p><b>Action: <em>harvest</em></b></p>\n                    <p>This is the bee that you just saw.</p>\n                    <img src=\"bees-with-color/bee-B1SF.svg\" width=\"200\">\n                    <p><span class=\"greenText\"><b>Successful harvest!</b></span><br>Your pay has increased by $0.02. Your bonus pay is now $0.44.</p>\n            ","response":0,"trial_type":"html-button-response","trial_index":84,"time_elapsed":942001,"internal_node_id":"0.0-4.0-1.36","subject_id":"615d8eccb9ef31c50d69d390","study_id":"60edd13110225f80f9f3709b","session_id":"6196c1f3f45fd1c75900bb26","condition":"full-information","relevant_dimensions":["antennae","wings"],"bee_group":{"antennae":"B","wings":"2","pattern":"X","legs":"X"},"bonus":0.18000000000000108},{"rt":2112.199999999255,"stimulus":"bees-with-color/bee-A2SM.svg","response":1,"trial_type":"image-button-response","trial_index":85,"time_elapsed":944122,"internal_node_id":"0.0-4.0-0.37","subject_id":"615d8eccb9ef31c50d69d390","study_id":"60edd13110225f80f9f3709b","session_id":"6196c1f3f45fd1c75900bb26","condition":"full-information","relevant_dimensions":["antennae","wings"],"bee_group":{"antennae":"B","wings":"2","pattern":"X","legs":"X"},"action":"avoid","summary":"bad-avoid","bonus":0.18000000000000108},{"rt":2650.300000000745,"stimulus":"\n                    <p><b>Action: <em>avoid</em></b></p>\n                    <p>This is the bee that you just saw.</p>\n                    <img src=\"bees-with-color/bee-A2SM.svg\" width=\"200\">\n                    <p><span class=\"redText\">Bad choice,</span> the bee was friendly.<br>Your bonus pay is unchanged, and remains at $0.44.</p>\n            ","response":0,"trial_type":"html-button-response","trial_index":86,"time_elapsed":946778,"internal_node_id":"0.0-4.0-1.37","subject_id":"615d8eccb9ef31c50d69d390","study_id":"60edd13110225f80f9f3709b","session_id":"6196c1f3f45fd1c75900bb26","condition":"full-information","relevant_dimensions":["antennae","wings"],"bee_group":{"antennae":"B","wings":"2","pattern":"X","legs":"X"},"bonus":0.18000000000000108},{"rt":1726.9000000022352,"stimulus":"bees-with-color/bee-A2DF.svg","response":0,"trial_type":"image-button-response","trial_index":87,"time_elapsed":948512,"internal_node_id":"0.0-4.0-0.38","subject_id":"615d8eccb9ef31c50d69d390","study_id":"60edd13110225f80f9f3709b","session_id":"6196c1f3f45fd1c75900bb26","condition":"full-information","relevant_dimensions":["antennae","wings"],"bee_group":{"antennae":"B","wings":"2","pattern":"X","legs":"X"},"action":"harvest","summary":"good-harvest","bonus":0.18000000000000108},{"rt":1781.7000000029802,"stimulus":"\n                    <p><b>Action: <em>harvest</em></b></p>\n                    <p>This is the bee that you just saw.</p>\n                    <img src=\"bees-with-color/bee-A2DF.svg\" width=\"200\">\n                    <p><span class=\"greenText\"><b>Successful harvest!</b></span><br>Your pay has increased by $0.02. Your bonus pay is now $0.46.</p>\n            ","response":0,"trial_type":"html-button-response","trial_index":88,"time_elapsed":950300,"internal_node_id":"0.0-4.0-1.38","subject_id":"615d8eccb9ef31c50d69d390","study_id":"60edd13110225f80f9f3709b","session_id":"6196c1f3f45fd1c75900bb26","condition":"full-information","relevant_dimensions":["antennae","wings"],"bee_group":{"antennae":"B","wings":"2","pattern":"X","legs":"X"},"bonus":0.18000000000000108},{"rt":2413.800000000745,"stimulus":"bees-with-color/bee-A2SF.svg","response":1,"trial_type":"image-button-response","trial_index":89,"time_elapsed":952721,"internal_node_id":"0.0-4.0-0.39","subject_id":"615d8eccb9ef31c50d69d390","study_id":"60edd13110225f80f9f3709b","session_id":"6196c1f3f45fd1c75900bb26","condition":"full-information","relevant_dimensions":["antennae","wings"],"bee_group":{"antennae":"B","wings":"2","pattern":"X","legs":"X"},"action":"avoid","summary":"bad-avoid","bonus":0.18000000000000108},{"rt":1565.699999999255,"stimulus":"\n                    <p><b>Action: <em>avoid</em></b></p>\n                    <p>This is the bee that you just saw.</p>\n                    <img src=\"bees-with-color/bee-A2SF.svg\" width=\"200\">\n                    <p><span class=\"redText\">Bad choice,</span> the bee was friendly.<br>Your bonus pay is unchanged, and remains at $0.46.</p>\n            ","response":0,"trial_type":"html-button-response","trial_index":90,"time_elapsed":954293,"internal_node_id":"0.0-4.0-1.39","subject_id":"615d8eccb9ef31c50d69d390","study_id":"60edd13110225f80f9f3709b","session_id":"6196c1f3f45fd1c75900bb26","condition":"full-information","relevant_dimensions":["antennae","wings"],"bee_group":{"antennae":"B","wings":"2","pattern":"X","legs":"X"},"bonus":0.18000000000000108},{"rt":2359.89999999851,"stimulus":"bees-with-color/bee-A1SM.svg","response":0,"trial_type":"image-button-response","trial_index":91,"time_elapsed":956660,"internal_node_id":"0.0-4.0-0.40","subject_id":"615d8eccb9ef31c50d69d390","study_id":"60edd13110225f80f9f3709b","session_id":"6196c1f3f45fd1c75900bb26","condition":"full-information","relevant_dimensions":["antennae","wings"],"bee_group":{"antennae":"B","wings":"2","pattern":"X","legs":"X"},"action":"harvest","summary":"good-harvest","bonus":0.18000000000000108},{"rt":1696.300000000745,"stimulus":"\n                    <p><b>Action: <em>harvest</em></b></p>\n                    <p>This is the bee that you just saw.</p>\n                    <img src=\"bees-with-color/bee-A1SM.svg\" width=\"200\">\n                    <p><span class=\"greenText\"><b>Successful harvest!</b></span><br>Your pay has increased by $0.02. Your bonus pay is now $0.48.</p>\n            ","response":0,"trial_type":"html-button-response","trial_index":92,"time_elapsed":958363,"internal_node_id":"0.0-4.0-1.40","subject_id":"615d8eccb9ef31c50d69d390","study_id":"60edd13110225f80f9f3709b","session_id":"6196c1f3f45fd1c75900bb26","condition":"full-information","relevant_dimensions":["antennae","wings"],"bee_group":{"antennae":"B","wings":"2","pattern":"X","legs":"X"},"bonus":0.18000000000000108},{"rt":3034.800000000745,"stimulus":"bees-with-color/bee-B2SF.svg","response":0,"trial_type":"image-button-response","trial_index":93,"time_elapsed":961406,"internal_node_id":"0.0-4.0-0.41","subject_id":"615d8eccb9ef31c50d69d390","study_id":"60edd13110225f80f9f3709b","session_id":"6196c1f3f45fd1c75900bb26","condition":"full-information","relevant_dimensions":["antennae","wings"],"bee_group":{"antennae":"B","wings":"2","pattern":"X","legs":"X"},"action":"harvest","summary":"bad-harvest","bonus":0.18000000000000108},{"rt":2859.199999999255,"stimulus":"\n                    <p><b>Action: <em>harvest</em></b></p>\n                    <p>This is the bee that you just saw.</p>\n                    <img src=\"bees-with-color/bee-B2SF.svg\" width=\"200\">\n                    <p><span class=\"redText\">Bad choice, the bee was angry.</span><br><b>You have been stung!</b><br>Your pay has been decreased by $0.10. Your bonus pay is now $0.38.</p>\n            ","response":0,"trial_type":"html-button-response","trial_index":94,"time_elapsed":964271,"internal_node_id":"0.0-4.0-1.41","subject_id":"615d8eccb9ef31c50d69d390","study_id":"60edd13110225f80f9f3709b","session_id":"6196c1f3f45fd1c75900bb26","condition":"full-information","relevant_dimensions":["antennae","wings"],"bee_group":{"antennae":"B","wings":"2","pattern":"X","legs":"X"},"bonus":0.18000000000000108},{"rt":3198.39999999851,"stimulus":"bees-with-color/bee-A1SF.svg","response":0,"trial_type":"image-button-response","trial_index":95,"time_elapsed":967476,"internal_node_id":"0.0-4.0-0.42","subject_id":"615d8eccb9ef31c50d69d390","study_id":"60edd13110225f80f9f3709b","session_id":"6196c1f3f45fd1c75900bb26","condition":"full-information","relevant_dimensions":["antennae","wings"],"bee_group":{"antennae":"B","wings":"2","pattern":"X","legs":"X"},"action":"harvest","summary":"good-harvest","bonus":0.18000000000000108},{"rt":2737.5,"stimulus":"\n                    <p><b>Action: <em>harvest</em></b></p>\n                    <p>This is the bee that you just saw.</p>\n                    <img src=\"bees-with-color/bee-A1SF.svg\" width=\"200\">\n                    <p><span class=\"greenText\"><b>Successful harvest!</b></span><br>Your pay has increased by $0.02. Your bonus pay is now $0.40.</p>\n            ","response":0,"trial_type":"html-button-response","trial_index":96,"time_elapsed":970218,"internal_node_id":"0.0-4.0-1.42","subject_id":"615d8eccb9ef31c50d69d390","study_id":"60edd13110225f80f9f3709b","session_id":"6196c1f3f45fd1c75900bb26","condition":"full-information","relevant_dimensions":["antennae","wings"],"bee_group":{"antennae":"B","wings":"2","pattern":"X","legs":"X"},"bonus":0.18000000000000108},{"rt":3217.39999999851,"stimulus":"bees-with-color/bee-B1DM.svg","response":0,"trial_type":"image-button-response","trial_index":97,"time_elapsed":973441,"internal_node_id":"0.0-4.0-0.43","subject_id":"615d8eccb9ef31c50d69d390","study_id":"60edd13110225f80f9f3709b","session_id":"6196c1f3f45fd1c75900bb26","condition":"full-information","relevant_dimensions":["antennae","wings"],"bee_group":{"antennae":"B","wings":"2","pattern":"X","legs":"X"},"action":"harvest","summary":"good-harvest","bonus":0.18000000000000108},{"rt":1781.6000000014901,"stimulus":"\n                    <p><b>Action: <em>harvest</em></b></p>\n                    <p>This is the bee that you just saw.</p>\n                    <img src=\"bees-with-color/bee-B1DM.svg\" width=\"200\">\n                    <p><span class=\"greenText\"><b>Successful harvest!</b></span><br>Your pay has increased by $0.02. Your bonus pay is now $0.42.</p>\n            ","response":0,"trial_type":"html-button-response","trial_index":98,"time_elapsed":975229,"internal_node_id":"0.0-4.0-1.43","subject_id":"615d8eccb9ef31c50d69d390","study_id":"60edd13110225f80f9f3709b","session_id":"6196c1f3f45fd1c75900bb26","condition":"full-information","relevant_dimensions":["antennae","wings"],"bee_group":{"antennae":"B","wings":"2","pattern":"X","legs":"X"},"bonus":0.18000000000000108},{"rt":7348.599999997765,"stimulus":"bees-with-color/bee-B2DM.svg","response":0,"trial_type":"image-button-response","trial_index":99,"time_elapsed":982587,"internal_node_id":"0.0-4.0-0.44","subject_id":"615d8eccb9ef31c50d69d390","study_id":"60edd13110225f80f9f3709b","session_id":"6196c1f3f45fd1c75900bb26","condition":"full-information","relevant_dimensions":["antennae","wings"],"bee_group":{"antennae":"B","wings":"2","pattern":"X","legs":"X"},"action":"harvest","summary":"bad-harvest","bonus":0.18000000000000108},{"rt":3352.599999997765,"stimulus":"\n                    <p><b>Action: <em>harvest</em></b></p>\n                    <p>This is the bee that you just saw.</p>\n                    <img src=\"bees-with-color/bee-B2DM.svg\" width=\"200\">\n                    <p><span class=\"redText\">Bad choice, the bee was angry.</span><br><b>You have been stung!</b><br>Your pay has been decreased by $0.10. Your bonus pay is now $0.32.</p>\n            ","response":0,"trial_type":"html-button-response","trial_index":100,"time_elapsed":985946,"internal_node_id":"0.0-4.0-1.44","subject_id":"615d8eccb9ef31c50d69d390","study_id":"60edd13110225f80f9f3709b","session_id":"6196c1f3f45fd1c75900bb26","condition":"full-information","relevant_dimensions":["antennae","wings"],"bee_group":{"antennae":"B","wings":"2","pattern":"X","legs":"X"},"bonus":0.18000000000000108},{"rt":2342.5,"stimulus":"bees-with-color/bee-B1DF.svg","response":0,"trial_type":"image-button-response","trial_index":101,"time_elapsed":988298,"internal_node_id":"0.0-4.0-0.45","subject_id":"615d8eccb9ef31c50d69d390","study_id":"60edd13110225f80f9f3709b","session_id":"6196c1f3f45fd1c75900bb26","condition":"full-information","relevant_dimensions":["antennae","wings"],"bee_group":{"antennae":"B","wings":"2","pattern":"X","legs":"X"},"action":"harvest","summary":"good-harvest","bonus":0.18000000000000108},{"rt":1896.300000000745,"stimulus":"\n                    <p><b>Action: <em>harvest</em></b></p>\n                    <p>This is the bee that you just saw.</p>\n                    <img src=\"bees-with-color/bee-B1DF.svg\" width=\"200\">\n                    <p><span class=\"greenText\"><b>Successful harvest!</b></span><br>Your pay has increased by $0.02. Your bonus pay is now $0.34.</p>\n            ","response":0,"trial_type":"html-button-response","trial_index":102,"time_elapsed":990202,"internal_node_id":"0.0-4.0-1.45","subject_id":"615d8eccb9ef31c50d69d390","study_id":"60edd13110225f80f9f3709b","session_id":"6196c1f3f45fd1c75900bb26","condition":"full-information","relevant_dimensions":["antennae","wings"],"bee_group":{"antennae":"B","wings":"2","pattern":"X","legs":"X"},"bonus":0.18000000000000108},{"rt":1777.8999999985099,"stimulus":"bees-with-color/bee-B1SM.svg","response":0,"trial_type":"image-button-response","trial_index":103,"time_elapsed":991988,"internal_node_id":"0.0-4.0-0.46","subject_id":"615d8eccb9ef31c50d69d390","study_id":"60edd13110225f80f9f3709b","session_id":"6196c1f3f45fd1c75900bb26","condition":"full-information","relevant_dimensions":["antennae","wings"],"bee_group":{"antennae":"B","wings":"2","pattern":"X","legs":"X"},"action":"harvest","summary":"good-harvest","bonus":0.18000000000000108},{"rt":1763.1000000014901,"stimulus":"\n                    <p><b>Action: <em>harvest</em></b></p>\n                    <p>This is the bee that you just saw.</p>\n                    <img src=\"bees-with-color/bee-B1SM.svg\" width=\"200\">\n                    <p><span class=\"greenText\"><b>Successful harvest!</b></span><br>Your pay has increased by $0.02. Your bonus pay is now $0.36.</p>\n            ","response":0,"trial_type":"html-button-response","trial_index":104,"time_elapsed":993759,"internal_node_id":"0.0-4.0-1.46","subject_id":"615d8eccb9ef31c50d69d390","study_id":"60edd13110225f80f9f3709b","session_id":"6196c1f3f45fd1c75900bb26","condition":"full-information","relevant_dimensions":["antennae","wings"],"bee_group":{"antennae":"B","wings":"2","pattern":"X","legs":"X"},"bonus":0.18000000000000108},{"rt":1861.5,"stimulus":"bees-with-color/bee-A1DM.svg","response":0,"trial_type":"image-button-response","trial_index":105,"time_elapsed":995626,"internal_node_id":"0.0-4.0-0.47","subject_id":"615d8eccb9ef31c50d69d390","study_id":"60edd13110225f80f9f3709b","session_id":"6196c1f3f45fd1c75900bb26","condition":"full-information","relevant_dimensions":["antennae","wings"],"bee_group":{"antennae":"B","wings":"2","pattern":"X","legs":"X"},"action":"harvest","summary":"good-harvest","bonus":0.18000000000000108},{"rt":1711.0999999977648,"stimulus":"\n                    <p><b>Action: <em>harvest</em></b></p>\n                    <p>This is the bee that you just saw.</p>\n                    <img src=\"bees-with-color/bee-A1DM.svg\" width=\"200\">\n                    <p><span class=\"greenText\"><b>Successful harvest!</b></span><br>Your pay has increased by $0.02. Your bonus pay is now $0.38.</p>\n            ","response":0,"trial_type":"html-button-response","trial_index":106,"time_elapsed":997344,"internal_node_id":"0.0-4.0-1.47","subject_id":"615d8eccb9ef31c50d69d390","study_id":"60edd13110225f80f9f3709b","session_id":"6196c1f3f45fd1c75900bb26","condition":"full-information","relevant_dimensions":["antennae","wings"],"bee_group":{"antennae":"B","wings":"2","pattern":"X","legs":"X"},"bonus":0.18000000000000108},{"rt":1578.800000000745,"stimulus":"bees-with-color/bee-B1DF.svg","response":0,"trial_type":"image-button-response","trial_index":107,"time_elapsed":998934,"internal_node_id":"0.0-4.0-0.48","subject_id":"615d8eccb9ef31c50d69d390","study_id":"60edd13110225f80f9f3709b","session_id":"6196c1f3f45fd1c75900bb26","condition":"full-information","relevant_dimensions":["antennae","wings"],"bee_group":{"antennae":"B","wings":"2","pattern":"X","legs":"X"},"action":"harvest","summary":"good-harvest","bonus":0.18000000000000108},{"rt":2032.9000000022352,"stimulus":"\n                    <p><b>Action: <em>harvest</em></b></p>\n                    <p>This is the bee that you just saw.</p>\n                    <img src=\"bees-with-color/bee-B1DF.svg\" width=\"200\">\n                    <p><span class=\"greenText\"><b>Successful harvest!</b></span><br>Your pay has increased by $0.02. Your bonus pay is now $0.40.</p>\n            ","response":0,"trial_type":"html-button-response","trial_index":108,"time_elapsed":1000976,"internal_node_id":"0.0-4.0-1.48","subject_id":"615d8eccb9ef31c50d69d390","study_id":"60edd13110225f80f9f3709b","session_id":"6196c1f3f45fd1c75900bb26","condition":"full-information","relevant_dimensions":["antennae","wings"],"bee_group":{"antennae":"B","wings":"2","pattern":"X","legs":"X"},"bonus":0.18000000000000108},{"rt":1892.300000000745,"stimulus":"bees-with-color/bee-B2SF.svg","response":1,"trial_type":"image-button-response","trial_index":109,"time_elapsed":1002878,"internal_node_id":"0.0-4.0-0.49","subject_id":"615d8eccb9ef31c50d69d390","study_id":"60edd13110225f80f9f3709b","session_id":"6196c1f3f45fd1c75900bb26","condition":"full-information","relevant_dimensions":["antennae","wings"],"bee_group":{"antennae":"B","wings":"2","pattern":"X","legs":"X"},"action":"avoid","summary":"good-avoid","bonus":0.18000000000000108},{"rt":1693.699999999255,"stimulus":"\n                    <p><b>Action: <em>avoid</em></b></p>\n                    <p>This is the bee that you just saw.</p>\n                    <img src=\"bees-with-color/bee-B2SF.svg\" width=\"200\">\n                    <p><span class=\"greenText\">Good choice!</span>  This bee would have stung you.<br>Your bonus pay is unchanged, and remains at $0.40.</p>\n            ","response":0,"trial_type":"html-button-response","trial_index":110,"time_elapsed":1004580,"internal_node_id":"0.0-4.0-1.49","subject_id":"615d8eccb9ef31c50d69d390","study_id":"60edd13110225f80f9f3709b","session_id":"6196c1f3f45fd1c75900bb26","condition":"full-information","relevant_dimensions":["antennae","wings"],"bee_group":{"antennae":"B","wings":"2","pattern":"X","legs":"X"},"bonus":0.18000000000000108},{"rt":1576.5,"stimulus":"bees-with-color/bee-B1SM.svg","response":1,"trial_type":"image-button-response","trial_index":111,"time_elapsed":1006162,"internal_node_id":"0.0-4.0-0.50","subject_id":"615d8eccb9ef31c50d69d390","study_id":"60edd13110225f80f9f3709b","session_id":"6196c1f3f45fd1c75900bb26","condition":"full-information","relevant_dimensions":["antennae","wings"],"bee_group":{"antennae":"B","wings":"2","pattern":"X","legs":"X"},"action":"avoid","summary":"bad-avoid","bonus":0.18000000000000108},{"rt":1493.4000000022352,"stimulus":"\n                    <p><b>Action: <em>avoid</em></b></p>\n                    <p>This is the bee that you just saw.</p>\n                    <img src=\"bees-with-color/bee-B1SM.svg\" width=\"200\">\n                    <p><span class=\"redText\">Bad choice,</span> the bee was friendly.<br>Your bonus pay is unchanged, and remains at $0.40.</p>\n            ","response":0,"trial_type":"html-button-response","trial_index":112,"time_elapsed":1007666,"internal_node_id":"0.0-4.0-1.50","subject_id":"615d8eccb9ef31c50d69d390","study_id":"60edd13110225f80f9f3709b","session_id":"6196c1f3f45fd1c75900bb26","condition":"full-information","relevant_dimensions":["antennae","wings"],"bee_group":{"antennae":"B","wings":"2","pattern":"X","legs":"X"},"bonus":0.18000000000000108},{"rt":1765.199999999255,"stimulus":"bees-with-color/bee-A2DF.svg","response":1,"trial_type":"image-button-response","trial_index":113,"time_elapsed":1009438,"internal_node_id":"0.0-4.0-0.51","subject_id":"615d8eccb9ef31c50d69d390","study_id":"60edd13110225f80f9f3709b","session_id":"6196c1f3f45fd1c75900bb26","condition":"full-information","relevant_dimensions":["antennae","wings"],"bee_group":{"antennae":"B","wings":"2","pattern":"X","legs":"X"},"action":"avoid","summary":"bad-avoid","bonus":0.18000000000000108},{"rt":1525.800000000745,"stimulus":"\n                    <p><b>Action: <em>avoid</em></b></p>\n                    <p>This is the bee that you just saw.</p>\n                    <img src=\"bees-with-color/bee-A2DF.svg\" width=\"200\">\n                    <p><span class=\"redText\">Bad choice,</span> the bee was friendly.<br>Your bonus pay is unchanged, and remains at $0.40.</p>\n            ","response":0,"trial_type":"html-button-response","trial_index":114,"time_elapsed":1010971,"internal_node_id":"0.0-4.0-1.51","subject_id":"615d8eccb9ef31c50d69d390","study_id":"60edd13110225f80f9f3709b","session_id":"6196c1f3f45fd1c75900bb26","condition":"full-information","relevant_dimensions":["antennae","wings"],"bee_group":{"antennae":"B","wings":"2","pattern":"X","legs":"X"},"bonus":0.18000000000000108},{"rt":1879.800000000745,"stimulus":"bees-with-color/bee-B1SF.svg","response":0,"trial_type":"image-button-response","trial_index":115,"time_elapsed":1012859,"internal_node_id":"0.0-4.0-0.52","subject_id":"615d8eccb9ef31c50d69d390","study_id":"60edd13110225f80f9f3709b","session_id":"6196c1f3f45fd1c75900bb26","condition":"full-information","relevant_dimensions":["antennae","wings"],"bee_group":{"antennae":"B","wings":"2","pattern":"X","legs":"X"},"action":"harvest","summary":"good-harvest","bonus":0.18000000000000108},{"rt":1810.0999999977648,"stimulus":"\n                    <p><b>Action: <em>harvest</em></b></p>\n                    <p>This is the bee that you just saw.</p>\n                    <img src=\"bees-with-color/bee-B1SF.svg\" width=\"200\">\n                    <p><span class=\"greenText\"><b>Successful harvest!</b></span><br>Your pay has increased by $0.02. Your bonus pay is now $0.42.</p>\n            ","response":0,"trial_type":"html-button-response","trial_index":116,"time_elapsed":1014678,"internal_node_id":"0.0-4.0-1.52","subject_id":"615d8eccb9ef31c50d69d390","study_id":"60edd13110225f80f9f3709b","session_id":"6196c1f3f45fd1c75900bb26","condition":"full-information","relevant_dimensions":["antennae","wings"],"bee_group":{"antennae":"B","wings":"2","pattern":"X","legs":"X"},"bonus":0.18000000000000108},{"rt":2016.800000000745,"stimulus":"bees-with-color/bee-A1SM.svg","response":0,"trial_type":"image-button-response","trial_index":117,"time_elapsed":1016706,"internal_node_id":"0.0-4.0-0.53","subject_id":"615d8eccb9ef31c50d69d390","study_id":"60edd13110225f80f9f3709b","session_id":"6196c1f3f45fd1c75900bb26","condition":"full-information","relevant_dimensions":["antennae","wings"],"bee_group":{"antennae":"B","wings":"2","pattern":"X","legs":"X"},"action":"harvest","summary":"good-harvest","bonus":0.18000000000000108},{"rt":1441.6000000014901,"stimulus":"\n                    <p><b>Action: <em>harvest</em></b></p>\n                    <p>This is the bee that you just saw.</p>\n                    <img src=\"bees-with-color/bee-A1SM.svg\" width=\"200\">\n                    <p><span class=\"greenText\"><b>Successful harvest!</b></span><br>Your pay has increased by $0.02. Your bonus pay is now $0.44.</p>\n            ","response":0,"trial_type":"html-button-response","trial_index":118,"time_elapsed":1018154,"internal_node_id":"0.0-4.0-1.53","subject_id":"615d8eccb9ef31c50d69d390","study_id":"60edd13110225f80f9f3709b","session_id":"6196c1f3f45fd1c75900bb26","condition":"full-information","relevant_dimensions":["antennae","wings"],"bee_group":{"antennae":"B","wings":"2","pattern":"X","legs":"X"},"bonus":0.18000000000000108},{"rt":2411.800000000745,"stimulus":"bees-with-color/bee-B2SM.svg","response":1,"trial_type":"image-button-response","trial_index":119,"time_elapsed":1020572,"internal_node_id":"0.0-4.0-0.54","subject_id":"615d8eccb9ef31c50d69d390","study_id":"60edd13110225f80f9f3709b","session_id":"6196c1f3f45fd1c75900bb26","condition":"full-information","relevant_dimensions":["antennae","wings"],"bee_group":{"antennae":"B","wings":"2","pattern":"X","legs":"X"},"action":"avoid","summary":"good-avoid","bonus":0.18000000000000108},{"rt":2397.800000000745,"stimulus":"\n                    <p><b>Action: <em>avoid</em></b></p>\n                    <p>This is the bee that you just saw.</p>\n                    <img src=\"bees-with-color/bee-B2SM.svg\" width=\"200\">\n                    <p><span class=\"greenText\">Good choice!</span>  This bee would have stung you.<br>Your bonus pay is unchanged, and remains at $0.44.</p>\n            ","response":0,"trial_type":"html-button-response","trial_index":120,"time_elapsed":1022976,"internal_node_id":"0.0-4.0-1.54","subject_id":"615d8eccb9ef31c50d69d390","study_id":"60edd13110225f80f9f3709b","session_id":"6196c1f3f45fd1c75900bb26","condition":"full-information","relevant_dimensions":["antennae","wings"],"bee_group":{"antennae":"B","wings":"2","pattern":"X","legs":"X"},"bonus":0.18000000000000108},{"rt":2079.599999997765,"stimulus":"bees-with-color/bee-A1DM.svg","response":0,"trial_type":"image-button-response","trial_index":121,"time_elapsed":1025066,"internal_node_id":"0.0-4.0-0.55","subject_id":"615d8eccb9ef31c50d69d390","study_id":"60edd13110225f80f9f3709b","session_id":"6196c1f3f45fd1c75900bb26","condition":"full-information","relevant_dimensions":["antennae","wings"],"bee_group":{"antennae":"B","wings":"2","pattern":"X","legs":"X"},"action":"harvest","summary":"good-harvest","bonus":0.18000000000000108},{"rt":1665.9000000022352,"stimulus":"\n                    <p><b>Action: <em>harvest</em></b></p>\n                    <p>This is the bee that you just saw.</p>\n                    <img src=\"bees-with-color/bee-A1DM.svg\" width=\"200\">\n                    <p><span class=\"greenText\"><b>Successful harvest!</b></span><br>Your pay has increased by $0.02. Your bonus pay is now $0.46.</p>\n            ","response":0,"trial_type":"html-button-response","trial_index":122,"time_elapsed":1026738,"internal_node_id":"0.0-4.0-1.55","subject_id":"615d8eccb9ef31c50d69d390","study_id":"60edd13110225f80f9f3709b","session_id":"6196c1f3f45fd1c75900bb26","condition":"full-information","relevant_dimensions":["antennae","wings"],"bee_group":{"antennae":"B","wings":"2","pattern":"X","legs":"X"},"bonus":0.18000000000000108},{"rt":2183.400000002235,"stimulus":"bees-with-color/bee-A1DF.svg","response":0,"trial_type":"image-button-response","trial_index":123,"time_elapsed":1028928,"internal_node_id":"0.0-4.0-0.56","subject_id":"615d8eccb9ef31c50d69d390","study_id":"60edd13110225f80f9f3709b","session_id":"6196c1f3f45fd1c75900bb26","condition":"full-information","relevant_dimensions":["antennae","wings"],"bee_group":{"antennae":"B","wings":"2","pattern":"X","legs":"X"},"action":"harvest","summary":"good-harvest","bonus":0.18000000000000108},{"rt":1538.3999999985099,"stimulus":"\n                    <p><b>Action: <em>harvest</em></b></p>\n                    <p>This is the bee that you just saw.</p>\n                    <img src=\"bees-with-color/bee-A1DF.svg\" width=\"200\">\n                    <p><span class=\"greenText\"><b>Successful harvest!</b></span><br>Your pay has increased by $0.02. Your bonus pay is now $0.48.</p>\n            ","response":0,"trial_type":"html-button-response","trial_index":124,"time_elapsed":1030476,"internal_node_id":"0.0-4.0-1.56","subject_id":"615d8eccb9ef31c50d69d390","study_id":"60edd13110225f80f9f3709b","session_id":"6196c1f3f45fd1c75900bb26","condition":"full-information","relevant_dimensions":["antennae","wings"],"bee_group":{"antennae":"B","wings":"2","pattern":"X","legs":"X"},"bonus":0.18000000000000108},{"rt":2249.599999997765,"stimulus":"bees-with-color/bee-A2DM.svg","response":1,"trial_type":"image-button-response","trial_index":125,"time_elapsed":1032734,"internal_node_id":"0.0-4.0-0.57","subject_id":"615d8eccb9ef31c50d69d390","study_id":"60edd13110225f80f9f3709b","session_id":"6196c1f3f45fd1c75900bb26","condition":"full-information","relevant_dimensions":["antennae","wings"],"bee_group":{"antennae":"B","wings":"2","pattern":"X","legs":"X"},"action":"avoid","summary":"bad-avoid","bonus":0.18000000000000108},{"rt":3698.60000000149,"stimulus":"\n                    <p><b>Action: <em>avoid</em></b></p>\n                    <p>This is the bee that you just saw.</p>\n                    <img src=\"bees-with-color/bee-A2DM.svg\" width=\"200\">\n                    <p><span class=\"redText\">Bad choice,</span> the bee was friendly.<br>Your bonus pay is unchanged, and remains at $0.48.</p>\n            ","response":0,"trial_type":"html-button-response","trial_index":126,"time_elapsed":1036438,"internal_node_id":"0.0-4.0-1.57","subject_id":"615d8eccb9ef31c50d69d390","study_id":"60edd13110225f80f9f3709b","session_id":"6196c1f3f45fd1c75900bb26","condition":"full-information","relevant_dimensions":["antennae","wings"],"bee_group":{"antennae":"B","wings":"2","pattern":"X","legs":"X"},"bonus":0.18000000000000108},{"rt":1595.300000000745,"stimulus":"bees-with-color/bee-B2DM.svg","response":0,"trial_type":"image-button-response","trial_index":127,"time_elapsed":1038040,"internal_node_id":"0.0-4.0-0.58","subject_id":"615d8eccb9ef31c50d69d390","study_id":"60edd13110225f80f9f3709b","session_id":"6196c1f3f45fd1c75900bb26","condition":"full-information","relevant_dimensions":["antennae","wings"],"bee_group":{"antennae":"B","wings":"2","pattern":"X","legs":"X"},"action":"harvest","summary":"bad-harvest","bonus":0.18000000000000108},{"rt":6750.39999999851,"stimulus":"\n                    <p><b>Action: <em>harvest</em></b></p>\n                    <p>This is the bee that you just saw.</p>\n                    <img src=\"bees-with-color/bee-B2DM.svg\" width=\"200\">\n                    <p><span class=\"redText\">Bad choice, the bee was angry.</span><br><b>You have been stung!</b><br>Your pay has been decreased by $0.10. Your bonus pay is now $0.38.</p>\n            ","response":0,"trial_type":"html-button-response","trial_index":128,"time_elapsed":1044799,"internal_node_id":"0.0-4.0-1.58","subject_id":"615d8eccb9ef31c50d69d390","study_id":"60edd13110225f80f9f3709b","session_id":"6196c1f3f45fd1c75900bb26","condition":"full-information","relevant_dimensions":["antennae","wings"],"bee_group":{"antennae":"B","wings":"2","pattern":"X","legs":"X"},"bonus":0.18000000000000108},{"rt":2328.39999999851,"stimulus":"bees-with-color/bee-A1SF.svg","response":0,"trial_type":"image-button-response","trial_index":129,"time_elapsed":1047135,"internal_node_id":"0.0-4.0-0.59","subject_id":"615d8eccb9ef31c50d69d390","study_id":"60edd13110225f80f9f3709b","session_id":"6196c1f3f45fd1c75900bb26","condition":"full-information","relevant_dimensions":["antennae","wings"],"bee_group":{"antennae":"B","wings":"2","pattern":"X","legs":"X"},"action":"harvest","summary":"good-harvest","bonus":0.18000000000000108},{"rt":1336.0999999977648,"stimulus":"\n                    <p><b>Action: <em>harvest</em></b></p>\n                    <p>This is the bee that you just saw.</p>\n                    <img src=\"bees-with-color/bee-A1SF.svg\" width=\"200\">\n                    <p><span class=\"greenText\"><b>Successful harvest!</b></span><br>Your pay has increased by $0.02. Your bonus pay is now $0.40.</p>\n            ","response":0,"trial_type":"html-button-response","trial_index":130,"time_elapsed":1048478,"internal_node_id":"0.0-4.0-1.59","subject_id":"615d8eccb9ef31c50d69d390","study_id":"60edd13110225f80f9f3709b","session_id":"6196c1f3f45fd1c75900bb26","condition":"full-information","relevant_dimensions":["antennae","wings"],"bee_group":{"antennae":"B","wings":"2","pattern":"X","legs":"X"},"bonus":0.18000000000000108},{"rt":1854.1000000014901,"stimulus":"bees-with-color/bee-A2SF.svg","response":0,"trial_type":"image-button-response","trial_index":131,"time_elapsed":1050341,"internal_node_id":"0.0-4.0-0.60","subject_id":"615d8eccb9ef31c50d69d390","study_id":"60edd13110225f80f9f3709b","session_id":"6196c1f3f45fd1c75900bb26","condition":"full-information","relevant_dimensions":["antennae","wings"],"bee_group":{"antennae":"B","wings":"2","pattern":"X","legs":"X"},"action":"harvest","summary":"good-harvest","bonus":0.18000000000000108},{"rt":2235.800000000745,"stimulus":"\n                    <p><b>Action: <em>harvest</em></b></p>\n                    <p>This is the bee that you just saw.</p>\n                    <img src=\"bees-with-color/bee-A2SF.svg\" width=\"200\">\n                    <p><span class=\"greenText\"><b>Successful harvest!</b></span><br>Your pay has increased by $0.02. Your bonus pay is now $0.42.</p>\n            ","response":0,"trial_type":"html-button-response","trial_index":132,"time_elapsed":1052584,"internal_node_id":"0.0-4.0-1.60","subject_id":"615d8eccb9ef31c50d69d390","study_id":"60edd13110225f80f9f3709b","session_id":"6196c1f3f45fd1c75900bb26","condition":"full-information","relevant_dimensions":["antennae","wings"],"bee_group":{"antennae":"B","wings":"2","pattern":"X","legs":"X"},"bonus":0.18000000000000108},{"rt":1997.7999999970198,"stimulus":"bees-with-color/bee-B1DM.svg","response":0,"trial_type":"image-button-response","trial_index":133,"time_elapsed":1054589,"internal_node_id":"0.0-4.0-0.61","subject_id":"615d8eccb9ef31c50d69d390","study_id":"60edd13110225f80f9f3709b","session_id":"6196c1f3f45fd1c75900bb26","condition":"full-information","relevant_dimensions":["antennae","wings"],"bee_group":{"antennae":"B","wings":"2","pattern":"X","legs":"X"},"action":"harvest","summary":"good-harvest","bonus":0.18000000000000108},{"rt":1579.1000000014901,"stimulus":"\n                    <p><b>Action: <em>harvest</em></b></p>\n                    <p>This is the bee that you just saw.</p>\n                    <img src=\"bees-with-color/bee-B1DM.svg\" width=\"200\">\n                    <p><span class=\"greenText\"><b>Successful harvest!</b></span><br>Your pay has increased by $0.02. Your bonus pay is now $0.44.</p>\n            ","response":0,"trial_type":"html-button-response","trial_index":134,"time_elapsed":1056174,"internal_node_id":"0.0-4.0-1.61","subject_id":"615d8eccb9ef31c50d69d390","study_id":"60edd13110225f80f9f3709b","session_id":"6196c1f3f45fd1c75900bb26","condition":"full-information","relevant_dimensions":["antennae","wings"],"bee_group":{"antennae":"B","wings":"2","pattern":"X","legs":"X"},"bonus":0.18000000000000108},{"rt":3900,"stimulus":"bees-with-color/bee-A2SM.svg","response":1,"trial_type":"image-button-response","trial_index":135,"time_elapsed":1060083,"internal_node_id":"0.0-4.0-0.62","subject_id":"615d8eccb9ef31c50d69d390","study_id":"60edd13110225f80f9f3709b","session_id":"6196c1f3f45fd1c75900bb26","condition":"full-information","relevant_dimensions":["antennae","wings"],"bee_group":{"antennae":"B","wings":"2","pattern":"X","legs":"X"},"action":"avoid","summary":"bad-avoid","bonus":0.18000000000000108},{"rt":1774.5,"stimulus":"\n                    <p><b>Action: <em>avoid</em></b></p>\n                    <p>This is the bee that you just saw.</p>\n                    <img src=\"bees-with-color/bee-A2SM.svg\" width=\"200\">\n                    <p><span class=\"redText\">Bad choice,</span> the bee was friendly.<br>Your bonus pay is unchanged, and remains at $0.44.</p>\n            ","response":0,"trial_type":"html-button-response","trial_index":136,"time_elapsed":1061865,"internal_node_id":"0.0-4.0-1.62","subject_id":"615d8eccb9ef31c50d69d390","study_id":"60edd13110225f80f9f3709b","session_id":"6196c1f3f45fd1c75900bb26","condition":"full-information","relevant_dimensions":["antennae","wings"],"bee_group":{"antennae":"B","wings":"2","pattern":"X","legs":"X"},"bonus":0.18000000000000108},{"rt":2449.900000002235,"stimulus":"bees-with-color/bee-B2DF.svg","response":0,"trial_type":"image-button-response","trial_index":137,"time_elapsed":1064323,"internal_node_id":"0.0-4.0-0.63","subject_id":"615d8eccb9ef31c50d69d390","study_id":"60edd13110225f80f9f3709b","session_id":"6196c1f3f45fd1c75900bb26","condition":"full-information","relevant_dimensions":["antennae","wings"],"bee_group":{"antennae":"B","wings":"2","pattern":"X","legs":"X"},"action":"harvest","summary":"bad-harvest","bonus":0.18000000000000108},{"rt":2011.8999999985099,"stimulus":"\n                    <p><b>Action: <em>harvest</em></b></p>\n                    <p>This is the bee that you just saw.</p>\n                    <img src=\"bees-with-color/bee-B2DF.svg\" width=\"200\">\n                    <p><span class=\"redText\">Bad choice, the bee was angry.</span><br><b>You have been stung!</b><br>Your pay has been decreased by $0.10. Your bonus pay is now $0.34.</p>\n            ","response":0,"trial_type":"html-button-response","trial_index":138,"time_elapsed":1066342,"internal_node_id":"0.0-4.0-1.63","subject_id":"615d8eccb9ef31c50d69d390","study_id":"60edd13110225f80f9f3709b","session_id":"6196c1f3f45fd1c75900bb26","condition":"full-information","relevant_dimensions":["antennae","wings"],"bee_group":{"antennae":"B","wings":"2","pattern":"X","legs":"X"},"bonus":0.18000000000000108},{"rt":11471.099999997765,"stimulus":"You have completed the first part of this experiment.<br><br>You will now begin a shorter second part, in which you will receive no feedback.<br>The same rules regarding bonus pay apply.<br><br>Press any key to begin.","response":" ","trial_type":"html-keyboard-response","trial_index":139,"time_elapsed":1077913,"internal_node_id":"0.0-5.0","subject_id":"615d8eccb9ef31c50d69d390","study_id":"60edd13110225f80f9f3709b","session_id":"6196c1f3f45fd1c75900bb26","condition":"full-information","relevant_dimensions":["antennae","wings"],"bee_group":{"antennae":"B","wings":"2","pattern":"X","legs":"X"},"bonus":0.18000000000000108},{"rt":2056.699999999255,"stimulus":"bees-with-color/bee-A1SF.svg","response":0,"trial_type":"image-button-response","trial_index":140,"time_elapsed":1080081,"internal_node_id":"0.0-6.0-0.0","subject_id":"615d8eccb9ef31c50d69d390","study_id":"60edd13110225f80f9f3709b","session_id":"6196c1f3f45fd1c75900bb26","condition":"full-information","relevant_dimensions":["antennae","wings"],"bee_group":{"antennae":"B","wings":"2","pattern":"X","legs":"X"},"bonus":0.18000000000000108},{"rt":1504.699999999255,"stimulus":"bees-with-color/bee-B2DF.svg","response":0,"trial_type":"image-button-response","trial_index":141,"time_elapsed":1081594,"internal_node_id":"0.0-6.0-0.1","subject_id":"615d8eccb9ef31c50d69d390","study_id":"60edd13110225f80f9f3709b","session_id":"6196c1f3f45fd1c75900bb26","condition":"full-information","relevant_dimensions":["antennae","wings"],"bee_group":{"antennae":"B","wings":"2","pattern":"X","legs":"X"},"bonus":0.18000000000000108},{"rt":2135.599999997765,"stimulus":"bees-with-color/bee-A1DF.svg","response":0,"trial_type":"image-button-response","trial_index":142,"time_elapsed":1083737,"internal_node_id":"0.0-6.0-0.2","subject_id":"615d8eccb9ef31c50d69d390","study_id":"60edd13110225f80f9f3709b","session_id":"6196c1f3f45fd1c75900bb26","condition":"full-information","relevant_dimensions":["antennae","wings"],"bee_group":{"antennae":"B","wings":"2","pattern":"X","legs":"X"},"bonus":0.18000000000000108},{"rt":1590.800000000745,"stimulus":"bees-with-color/bee-A1SM.svg","response":0,"trial_type":"image-button-response","trial_index":143,"time_elapsed":1085341,"internal_node_id":"0.0-6.0-0.3","subject_id":"615d8eccb9ef31c50d69d390","study_id":"60edd13110225f80f9f3709b","session_id":"6196c1f3f45fd1c75900bb26","condition":"full-information","relevant_dimensions":["antennae","wings"],"bee_group":{"antennae":"B","wings":"2","pattern":"X","legs":"X"},"bonus":0.18000000000000108},{"rt":2106.60000000149,"stimulus":"bees-with-color/bee-A2DF.svg","response":1,"trial_type":"image-button-response","trial_index":144,"time_elapsed":1087458,"internal_node_id":"0.0-6.0-0.4","subject_id":"615d8eccb9ef31c50d69d390","study_id":"60edd13110225f80f9f3709b","session_id":"6196c1f3f45fd1c75900bb26","condition":"full-information","relevant_dimensions":["antennae","wings"],"bee_group":{"antennae":"B","wings":"2","pattern":"X","legs":"X"},"bonus":0.18000000000000108},{"rt":1342.300000000745,"stimulus":"bees-with-color/bee-A2DM.svg","response":1,"trial_type":"image-button-response","trial_index":145,"time_elapsed":1088808,"internal_node_id":"0.0-6.0-0.5","subject_id":"615d8eccb9ef31c50d69d390","study_id":"60edd13110225f80f9f3709b","session_id":"6196c1f3f45fd1c75900bb26","condition":"full-information","relevant_dimensions":["antennae","wings"],"bee_group":{"antennae":"B","wings":"2","pattern":"X","legs":"X"},"bonus":0.18000000000000108},{"rt":1862.1000000014901,"stimulus":"bees-with-color/bee-B2DM.svg","response":1,"trial_type":"image-button-response","trial_index":146,"time_elapsed":1090681,"internal_node_id":"0.0-6.0-0.6","subject_id":"615d8eccb9ef31c50d69d390","study_id":"60edd13110225f80f9f3709b","session_id":"6196c1f3f45fd1c75900bb26","condition":"full-information","relevant_dimensions":["antennae","wings"],"bee_group":{"antennae":"B","wings":"2","pattern":"X","legs":"X"},"bonus":0.18000000000000108},{"rt":1323.199999999255,"stimulus":"bees-with-color/bee-B1SF.svg","response":0,"trial_type":"image-button-response","trial_index":147,"time_elapsed":1092015,"internal_node_id":"0.0-6.0-0.7","subject_id":"615d8eccb9ef31c50d69d390","study_id":"60edd13110225f80f9f3709b","session_id":"6196c1f3f45fd1c75900bb26","condition":"full-information","relevant_dimensions":["antennae","wings"],"bee_group":{"antennae":"B","wings":"2","pattern":"X","legs":"X"},"bonus":0.18000000000000108},{"rt":2531,"stimulus":"bees-with-color/bee-B2SF.svg","response":0,"trial_type":"image-button-response","trial_index":148,"time_elapsed":1094556,"internal_node_id":"0.0-6.0-0.8","subject_id":"615d8eccb9ef31c50d69d390","study_id":"60edd13110225f80f9f3709b","session_id":"6196c1f3f45fd1c75900bb26","condition":"full-information","relevant_dimensions":["antennae","wings"],"bee_group":{"antennae":"B","wings":"2","pattern":"X","legs":"X"},"bonus":0.18000000000000108},{"rt":2355.7000000029802,"stimulus":"bees-with-color/bee-A2SM.svg","response":1,"trial_type":"image-button-response","trial_index":149,"time_elapsed":1096923,"internal_node_id":"0.0-6.0-0.9","subject_id":"615d8eccb9ef31c50d69d390","study_id":"60edd13110225f80f9f3709b","session_id":"6196c1f3f45fd1c75900bb26","condition":"full-information","relevant_dimensions":["antennae","wings"],"bee_group":{"antennae":"B","wings":"2","pattern":"X","legs":"X"},"bonus":0.18000000000000108},{"rt":2495.2000000029802,"stimulus":"bees-with-color/bee-B1DM.svg","response":0,"trial_type":"image-button-response","trial_index":150,"time_elapsed":1099430,"internal_node_id":"0.0-6.0-0.10","subject_id":"615d8eccb9ef31c50d69d390","study_id":"60edd13110225f80f9f3709b","session_id":"6196c1f3f45fd1c75900bb26","condition":"full-information","relevant_dimensions":["antennae","wings"],"bee_group":{"antennae":"B","wings":"2","pattern":"X","legs":"X"},"bonus":0.18000000000000108},{"rt":1414.800000000745,"stimulus":"bees-with-color/bee-A2SF.svg","response":0,"trial_type":"image-button-response","trial_index":151,"time_elapsed":1100853,"internal_node_id":"0.0-6.0-0.11","subject_id":"615d8eccb9ef31c50d69d390","study_id":"60edd13110225f80f9f3709b","session_id":"6196c1f3f45fd1c75900bb26","condition":"full-information","relevant_dimensions":["antennae","wings"],"bee_group":{"antennae":"B","wings":"2","pattern":"X","legs":"X"},"bonus":0.18000000000000108},{"rt":3412.199999999255,"stimulus":"bees-with-color/bee-B2SM.svg","response":1,"trial_type":"image-button-response","trial_index":152,"time_elapsed":1104274,"internal_node_id":"0.0-6.0-0.12","subject_id":"615d8eccb9ef31c50d69d390","study_id":"60edd13110225f80f9f3709b","session_id":"6196c1f3f45fd1c75900bb26","condition":"full-information","relevant_dimensions":["antennae","wings"],"bee_group":{"antennae":"B","wings":"2","pattern":"X","legs":"X"},"bonus":0.18000000000000108},{"rt":1336.800000000745,"stimulus":"bees-with-color/bee-B1SM.svg","response":0,"trial_type":"image-button-response","trial_index":153,"time_elapsed":1105623,"internal_node_id":"0.0-6.0-0.13","subject_id":"615d8eccb9ef31c50d69d390","study_id":"60edd13110225f80f9f3709b","session_id":"6196c1f3f45fd1c75900bb26","condition":"full-information","relevant_dimensions":["antennae","wings"],"bee_group":{"antennae":"B","wings":"2","pattern":"X","legs":"X"},"bonus":0.18000000000000108},{"rt":1646.2999999970198,"stimulus":"bees-with-color/bee-A1DM.svg","response":