[{"success":true,"trial_type":"fullscreen","trial_index":0,"time_elapsed":26649,"internal_node_id":"0.0-0.0","subject_id":"5ccbf31adde97100138a0eb4","study_id":"6197b3f67c2b5cd3b6d9596a","session_id":"6197b9eef073b53ee3a215bf","condition":"contingent","relevant_dimensions":["antennae","pattern"],"bee_group":{"antennae":"A","wings":"X","pattern":"D","legs":"X"},"bonus":0.6400000000000011},{"success":true,"timeout":false,"failed_images":[],"failed_audio":[],"failed_video":[],"trial_type":"preload","trial_index":1,"time_elapsed":29585,"internal_node_id":"0.0-1.0","subject_id":"5ccbf31adde97100138a0eb4","study_id":"6197b3f67c2b5cd3b6d9596a","session_id":"6197b9eef073b53ee3a215bf","condition":"contingent","relevant_dimensions":["antennae","pattern"],"bee_group":{"antennae":"A","wings":"X","pattern":"D","legs":"X"},"bonus":0.6400000000000011},{"rt":2259.800000000745,"stimulus":"Welcome! Press any key to begin.","response":"audiovolumedown","trial_type":"html-keyboard-response","trial_index":2,"time_elapsed":31848,"internal_node_id":"0.0-2.0","subject_id":"5ccbf31adde97100138a0eb4","study_id":"6197b3f67c2b5cd3b6d9596a","session_id":"6197b9eef073b53ee3a215bf","condition":"contingent","relevant_dimensions":["antennae","pattern"],"bee_group":{"antennae":"A","wings":"X","pattern":"D","legs":"X"},"bonus":0.6400000000000011},{"view_history":[{"page_index":0,"viewing_time":6956.10000000149},{"page_index":1,"viewing_time":11608.10000000149},{"page_index":2,"viewing_time":12983.79999999702},{"page_index":3,"viewing_time":10984.20000000298},{"page_index":4,"viewing_time":4560},{"page_index":3,"viewing_time":1415.8999999985099},{"page_index":2,"viewing_time":6831.89999999851},{"page_index":3,"viewing_time":2184.2000000029802},{"page_index":4,"viewing_time":2431.89999999851},{"page_index":5,"viewing_time":4984.10000000149},{"page_index":6,"viewing_time":15920},{"page_index":7,"viewing_time":5191.89999999851},{"page_index":8,"viewing_time":2863.699999999255},{"page_index":9,"viewing_time":3328.400000002235},{"page_index":10,"viewing_time":2455.7999999970198},{"page_index":11,"viewing_time":7504.20000000298},{"page_index":10,"viewing_time":959.3999999985099},{"page_index":9,"viewing_time":528.6999999992549},{"page_index":8,"viewing_time":416},{"page_index":7,"viewing_time":39567.900000002235},{"page_index":6,"viewing_time":959.8999999985099},{"page_index":7,"viewing_time":791.6999999992549},{"page_index":8,"viewing_time":10672.300000000745},{"page_index":9,"viewing_time":7607.800000000745},{"page_index":10,"viewing_time":9536.599999997765},{"page_index":11,"viewing_time":4431.60000000149},{"page_index":12,"viewing_time":51135.60000000149},{"page_index":13,"viewing_time":1736.2999999970198},{"page_index":14,"viewing_time":2007.800000000745}],"rt":232556.1000000015,"trial_type":"instructions","trial_index":3,"time_elapsed":264407,"internal_node_id":"0.0-3.0-0.0","subject_id":"5ccbf31adde97100138a0eb4","study_id":"6197b3f67c2b5cd3b6d9596a","session_id":"6197b9eef073b53ee3a215bf","condition":"contingent","relevant_dimensions":["antennae","pattern"],"bee_group":{"antennae":"A","wings":"X","pattern":"D","legs":"X"},"bonus":0.6400000000000011},{"rt":11459.699999999255,"response":{"Q0":["Two or six legs","Stripes or spots on body","Single or double wings","Antennae or no antennae"]},"question_order":[0],"trial_type":"survey-multi-select","trial_index":4,"time_elapsed":275872,"internal_node_id":"0.0-3.0-1.0","subject_id":"5ccbf31adde97100138a0eb4","study_id":"6197b3f67c2b5cd3b6d9596a","session_id":"6197b9eef073b53ee3a215bf","condition":"contingent","relevant_dimensions":["antennae","pattern"],"bee_group":{"antennae":"A","wings":"X","pattern":"D","legs":"X"},"correct":true,"bonus":0.6400000000000011},{"rt":20557.699999999255,"response":{"Q1":"No.","Q2":"Based on the four features of the bee.","Q3":"You do not learn if it was friendly or dangerous, and do not alter your bonus."},"question_order":[0,1,2],"trial_type":"survey-multi-choice","trial_index":5,"time_elapsed":296432,"internal_node_id":"0.0-3.0-2.0","subject_id":"5ccbf31adde97100138a0eb4","study_id":"6197b3f67c2b5cd3b6d9596a","session_id":"6197b9eef073b53ee3a215bf","condition":"contingent","relevant_dimensions":["antennae","pattern"],"bee_group":{"antennae":"A","wings":"X","pattern":"D","legs":"X"},"correct":true,"bonus":0.6400000000000011},{"rt":2733.5,"stimulus":"<p>Congrats, you got everything right<br>When you're ready, click the button below to continue to the experiment.</p>","response":0,"trial_type":"html-button-response","trial_index":6,"time_elapsed":299167,"internal_node_id":"0.0-3.0-3.0","subject_id":"5ccbf31adde97100138a0eb4","study_id":"6197b3f67c2b5cd3b6d9596a","session_id":"6197b9eef073b53ee3a215bf","condition":"contingent","relevant_dimensions":["antennae","pattern"],"bee_group":{"antennae":"A","wings":"X","pattern":"D","legs":"X"},"bonus":0.6400000000000011},{"rt":7397,"stimulus":"bees-with-color/bee-B1SF.svg","response":0,"trial_type":"image-button-response","trial_index":7,"time_elapsed":306567,"internal_node_id":"0.0-4.0-0.0","subject_id":"5ccbf31adde97100138a0eb4","study_id":"6197b3f67c2b5cd3b6d9596a","session_id":"6197b9eef073b53ee3a215bf","condition":"contingent","relevant_dimensions":["antennae","pattern"],"bee_group":{"antennae":"A","wings":"X","pattern":"D","legs":"X"},"action":"harvest","summary":"good-harvest","bonus":0.6400000000000011},{"rt":6861.60000000149,"stimulus":"\n                    <p><b>Action: <em>harvest</em></b></p>\n                    <p>This is the bee that you just saw.</p>\n                    <img src=\"bees-with-color/bee-B1SF.svg\" width=\"200\">\n                    <p><span class=\"greenText\"><b>Successful harvest!</b></span><br>Your pay has increased by $0.02. Your bonus pay is now $0.56.</p>\n            ","response":0,"trial_type":"html-button-response","trial_index":8,"time_elapsed":313431,"internal_node_id":"0.0-4.0-1.0","subject_id":"5ccbf31adde97100138a0eb4","study_id":"6197b3f67c2b5cd3b6d9596a","session_id":"6197b9eef073b53ee3a215bf","condition":"contingent","relevant_dimensions":["antennae","pattern"],"bee_group":{"antennae":"A","wings":"X","pattern":"D","legs":"X"},"bonus":0.6400000000000011},{"rt":5197.300000000745,"stimulus":"bees-with-color/bee-A2DM.svg","response":0,"trial_type":"image-button-response","trial_index":9,"time_elapsed":318632,"internal_node_id":"0.0-4.0-0.1","subject_id":"5ccbf31adde97100138a0eb4","study_id":"6197b3f67c2b5cd3b6d9596a","session_id":"6197b9eef073b53ee3a215bf","condition":"contingent","relevant_dimensions":["antennae","pattern"],"bee_group":{"antennae":"A","wings":"X","pattern":"D","legs":"X"},"action":"harvest","summary":"bad-harvest","bonus":0.6400000000000011},{"rt":5822.39999999851,"stimulus":"\n                    <p><b>Action: <em>harvest</em></b></p>\n                    <p>This is the bee that you just saw.</p>\n                    <img src=\"bees-with-color/bee-A2DM.svg\" width=\"200\">\n                    <p><span class=\"redText\">Bad choice, the bee was angry.</span><br><b>You have been stung!</b><br>Your pay has been decreased by $0.10. Your bonus pay is now $0.46.</p>\n            ","response":0,"trial_type":"html-button-response","trial_index":10,"time_elapsed":324456,"internal_node_id":"0.0-4.0-1.1","subject_id":"5ccbf31adde97100138a0eb4","study_id":"6197b3f67c2b5cd3b6d9596a","session_id":"6197b9eef073b53ee3a215bf","condition":"contingent","relevant_dimensions":["antennae","pattern"],"bee_group":{"antennae":"A","wings":"X","pattern":"D","legs":"X"},"bonus":0.6400000000000011},{"rt":4325.89999999851,"stimulus":"bees-with-color/bee-B2SM.svg","response":0,"trial_type":"image-button-response","trial_index":11,"time_elapsed":328784,"internal_node_id":"0.0-4.0-0.2","subject_id":"5ccbf31adde97100138a0eb4","study_id":"6197b3f67c2b5cd3b6d9596a","session_id":"6197b9eef073b53ee3a215bf","condition":"contingent","relevant_dimensions":["antennae","pattern"],"bee_group":{"antennae":"A","wings":"X","pattern":"D","legs":"X"},"action":"harvest","summary":"good-harvest","bonus":0.6400000000000011},{"rt":5429.300000000745,"stimulus":"\n                    <p><b>Action: <em>harvest</em></b></p>\n                    <p>This is the bee that you just saw.</p>\n                    <img src=\"bees-with-color/bee-B2SM.svg\" width=\"200\">\n                    <p><span class=\"greenText\"><b>Successful harvest!</b></span><br>Your pay has increased by $0.02. Your bonus pay is now $0.48.</p>\n            ","response":0,"trial_type":"html-button-response","trial_index":12,"time_elapsed":334216,"internal_node_id":"0.0-4.0-1.2","subject_id":"5ccbf31adde97100138a0eb4","study_id":"6197b3f67c2b5cd3b6d9596a","session_id":"6197b9eef073b53ee3a215bf","condition":"contingent","relevant_dimensions":["antennae","pattern"],"bee_group":{"antennae":"A","wings":"X","pattern":"D","legs":"X"},"bonus":0.6400000000000011},{"rt":14565.599999997765,"stimulus":"bees-with-color/bee-A2SM.svg","response":1,"trial_type":"image-button-response","trial_index":13,"time_elapsed":348784,"internal_node_id":"0.0-4.0-0.3","subject_id":"5ccbf31adde97100138a0eb4","study_id":"6197b3f67c2b5cd3b6d9596a","session_id":"6197b9eef073b53ee3a215bf","condition":"contingent","relevant_dimensions":["antennae","pattern"],"bee_group":{"antennae":"A","wings":"X","pattern":"D","legs":"X"},"action":"avoid","summary":"bad-avoid","bonus":0.6400000000000011},{"rt":3246.5,"stimulus":"\n                    <p><b>Action: <em>avoid</em></b></p>\n                    <p>This is the bee that you just saw.</p>\n                    <img src=\"bees-with-color/bee-A2SM.svg\" width=\"200\">\n                    <p><br>Your bonus pay is unchanged, and remains at $0.48.</p>\n            ","response":0,"trial_type":"html-button-response","trial_index":14,"time_elapsed":352032,"internal_node_id":"0.0-4.0-1.3","subject_id":"5ccbf31adde97100138a0eb4","study_id":"6197b3f67c2b5cd3b6d9596a","session_id":"6197b9eef073b53ee3a215bf","condition":"contingent","relevant_dimensions":["antennae","pattern"],"bee_group":{"antennae":"A","wings":"X","pattern":"D","legs":"X"},"bonus":0.6400000000000011},{"rt":7150.10000000149,"stimulus":"bees-with-color/bee-A2DF.svg","response":1,"trial_type":"image-button-response","trial_index":15,"time_elapsed":359184,"internal_node_id":"0.0-4.0-0.4","subject_id":"5ccbf31adde97100138a0eb4","study_id":"6197b3f67c2b5cd3b6d9596a","session_id":"6197b9eef073b53ee3a215bf","condition":"contingent","relevant_dimensions":["antennae","pattern"],"bee_group":{"antennae":"A","wings":"X","pattern":"D","legs":"X"},"action":"avoid","summary":"good-avoid","bonus":0.6400000000000011},{"rt":5214.199999999255,"stimulus":"\n                    <p><b>Action: <em>avoid</em></b></p>\n                    <p>This is the bee that you just saw.</p>\n                    <img src=\"bees-with-color/bee-A2DF.svg\" width=\"200\">\n                    <p><br>Your bonus pay is unchanged, and remains at $0.48.</p>\n            ","response":0,"trial_type":"html-button-response","trial_index":16,"time_elapsed":364400,"internal_node_id":"0.0-4.0-1.4","subject_id":"5ccbf31adde97100138a0eb4","study_id":"6197b3f67c2b5cd3b6d9596a","session_id":"6197b9eef073b53ee3a215bf","condition":"contingent","relevant_dimensions":["antennae","pattern"],"bee_group":{"antennae":"A","wings":"X","pattern":"D","legs":"X"},"bonus":0.6400000000000011},{"rt":4813.900000002235,"stimulus":"bees-with-color/bee-A1SM.svg","response":0,"trial_type":"image-button-response","trial_index":17,"time_elapsed":369216,"internal_node_id":"0.0-4.0-0.5","subject_id":"5ccbf31adde97100138a0eb4","study_id":"6197b3f67c2b5cd3b6d9596a","session_id":"6197b9eef073b53ee3a215bf","condition":"contingent","relevant_dimensions":["antennae","pattern"],"bee_group":{"antennae":"A","wings":"X","pattern":"D","legs":"X"},"action":"harvest","summary":"good-harvest","bonus":0.6400000000000011},{"rt":20022.599999997765,"stimulus":"\n                    <p><b>Action: <em>harvest</em></b></p>\n                    <p>This is the bee that you just saw.</p>\n                    <img src=\"bees-with-color/bee-A1SM.svg\" width=\"200\">\n                    <p><span class=\"greenText\"><b>Successful harvest!</b></span><br>Your pay has increased by $0.02. Your bonus pay is now $0.50.</p>\n            ","response":0,"trial_type":"html-button-response","trial_index":18,"time_elapsed":389240,"internal_node_id":"0.0-4.0-1.5","subject_id":"5ccbf31adde97100138a0eb4","study_id":"6197b3f67c2b5cd3b6d9596a","session_id":"6197b9eef073b53ee3a215bf","condition":"contingent","relevant_dimensions":["antennae","pattern"],"bee_group":{"antennae":"A","wings":"X","pattern":"D","legs":"X"},"bonus":0.6400000000000011},{"rt":2237.599999997765,"stimulus":"bees-with-color/bee-A2SF.svg","response":0,"trial_type":"image-button-response","trial_index":19,"time_elapsed":391480,"internal_node_id":"0.0-4.0-0.6","subject_id":"5ccbf31adde97100138a0eb4","study_id":"6197b3f67c2b5cd3b6d9596a","session_id":"6197b9eef073b53ee3a215bf","condition":"contingent","relevant_dimensions":["antennae","pattern"],"bee_group":{"antennae":"A","wings":"X","pattern":"D","legs":"X"},"action":"harvest","summary":"good-harvest","bonus":0.6400000000000011},{"rt":6205.800000000745,"stimulus":"\n                    <p><b>Action: <em>harvest</em></b></p>\n                    <p>This is the bee that you just saw.</p>\n                    <img src=\"bees-with-color/bee-A2SF.svg\" width=\"200\">\n                    <p><span class=\"greenText\"><b>Successful harvest!</b></span><br>Your pay has increased by $0.02. Your bonus pay is now $0.52.</p>\n            ","response":0,"trial_type":"html-button-response","trial_index":20,"time_elapsed":397687,"internal_node_id":"0.0-4.0-1.6","subject_id":"5ccbf31adde97100138a0eb4","study_id":"6197b3f67c2b5cd3b6d9596a","session_id":"6197b9eef073b53ee3a215bf","condition":"contingent","relevant_dimensions":["antennae","pattern"],"bee_group":{"antennae":"A","wings":"X","pattern":"D","legs":"X"},"bonus":0.6400000000000011},{"rt":1668.800000000745,"stimulus":"bees-with-color/bee-B2DF.svg","response":1,"trial_type":"image-button-response","trial_index":21,"time_elapsed":399359,"internal_node_id":"0.0-4.0-0.7","subject_id":"5ccbf31adde97100138a0eb4","study_id":"6197b3f67c2b5cd3b6d9596a","session_id":"6197b9eef073b53ee3a215bf","condition":"contingent","relevant_dimensions":["antennae","pattern"],"bee_group":{"antennae":"A","wings":"X","pattern":"D","legs":"X"},"action":"avoid","summary":"bad-avoid","bonus":0.6400000000000011},{"rt":1902.300000000745,"stimulus":"\n                    <p><b>Action: <em>avoid</em></b></p>\n                    <p>This is the bee that you just saw.</p>\n                    <img src=\"bees-with-color/bee-B2DF.svg\" width=\"200\">\n                    <p><br>Your bonus pay is unchanged, and remains at $0.52.</p>\n            ","response":0,"trial_type":"html-button-response","trial_index":22,"time_elapsed":401263,"internal_node_id":"0.0-4.0-1.7","subject_id":"5ccbf31adde97100138a0eb4","study_id":"6197b3f67c2b5cd3b6d9596a","session_id":"6197b9eef073b53ee3a215bf","condition":"contingent","relevant_dimensions":["antennae","pattern"],"bee_group":{"antennae":"A","wings":"X","pattern":"D","legs":"X"},"bonus":0.6400000000000011},{"rt":8598.5,"stimulus":"bees-with-color/bee-A1SF.svg","response":0,"trial_type":"image-button-response","trial_index":23,"time_elapsed":409864,"internal_node_id":"0.0-4.0-0.8","subject_id":"5ccbf31adde97100138a0eb4","study_id":"6197b3f67c2b5cd3b6d9596a","session_id":"6197b9eef073b53ee3a215bf","condition":"contingent","relevant_dimensions":["antennae","pattern"],"bee_group":{"antennae":"A","wings":"X","pattern":"D","legs":"X"},"action":"harvest","summary":"good-harvest","bonus":0.6400000000000011},{"rt":1045.699999999255,"stimulus":"\n                    <p><b>Action: <em>harvest</em></b></p>\n                    <p>This is the bee that you just saw.</p>\n                    <img src=\"bees-with-color/bee-A1SF.svg\" width=\"200\">\n                    <p><span class=\"greenText\"><b>Successful harvest!</b></span><br>Your pay has increased by $0.02. Your bonus pay is now $0.54.</p>\n            ","response":0,"trial_type":"html-button-response","trial_index":24,"time_elapsed":410911,"internal_node_id":"0.0-4.0-1.8","subject_id":"5ccbf31adde97100138a0eb4","study_id":"6197b3f67c2b5cd3b6d9596a","session_id":"6197b9eef073b53ee3a215bf","condition":"contingent","relevant_dimensions":["antennae","pattern"],"bee_group":{"antennae":"A","wings":"X","pattern":"D","legs":"X"},"bonus":0.6400000000000011},{"rt":2869.89999999851,"stimulus":"bees-with-color/bee-B2SF.svg","response":0,"trial_type":"image-button-response","trial_index":25,"time_elapsed":413783,"internal_node_id":"0.0-4.0-0.9","subject_id":"5ccbf31adde97100138a0eb4","study_id":"6197b3f67c2b5cd3b6d9596a","session_id":"6197b9eef073b53ee3a215bf","condition":"contingent","relevant_dimensions":["antennae","pattern"],"bee_group":{"antennae":"A","wings":"X","pattern":"D","legs":"X"},"action":"harvest","summary":"good-harvest","bonus":0.6400000000000011},{"rt":1006.1999999992549,"stimulus":"\n                    <p><b>Action: <em>harvest</em></b></p>\n                    <p>This is the bee that you just saw.</p>\n                    <img src=\"bees-with-color/bee-B2SF.svg\" width=\"200\">\n                    <p><span class=\"greenText\"><b>Successful harvest!</b></span><br>Your pay has increased by $0.02. Your bonus pay is now $0.56.</p>\n            ","response":0,"trial_type":"html-button-response","trial_index":26,"time_elapsed":414791,"internal_node_id":"0.0-4.0-1.9","subject_id":"5ccbf31adde97100138a0eb4","study_id":"6197b3f67c2b5cd3b6d9596a","session_id":"6197b9eef073b53ee3a215bf","condition":"contingent","relevant_dimensions":["antennae","pattern"],"bee_group":{"antennae":"A","wings":"X","pattern":"D","legs":"X"},"bonus":0.6400000000000011},{"rt":3438.7999999970198,"stimulus":"bees-with-color/bee-B1SM.svg","response":0,"trial_type":"image-button-response","trial_index":27,"time_elapsed":418232,"internal_node_id":"0.0-4.0-0.10","subject_id":"5ccbf31adde97100138a0eb4","study_id":"6197b3f67c2b5cd3b6d9596a","session_id":"6197b9eef073b53ee3a215bf","condition":"contingent","relevant_dimensions":["antennae","pattern"],"bee_group":{"antennae":"A","wings":"X","pattern":"D","legs":"X"},"action":"harvest","summary":"good-harvest","bonus":0.6400000000000011},{"rt":1029.9000000022352,"stimulus":"\n                    <p><b>Action: <em>harvest</em></b></p>\n                    <p>This is the bee that you just saw.</p>\n                    <img src=\"bees-with-color/bee-B1SM.svg\" width=\"200\">\n                    <p><span class=\"greenText\"><b>Successful harvest!</b></span><br>Your pay has increased by $0.02. Your bonus pay is now $0.58.</p>\n            ","response":0,"trial_type":"html-button-response","trial_index":28,"time_elapsed":419263,"internal_node_id":"0.0-4.0-1.10","subject_id":"5ccbf31adde97100138a0eb4","study_id":"6197b3f67c2b5cd3b6d9596a","session_id":"6197b9eef073b53ee3a215bf","condition":"contingent","relevant_dimensions":["antennae","pattern"],"bee_group":{"antennae":"A","wings":"X","pattern":"D","legs":"X"},"bonus":0.6400000000000011},{"rt":1878,"stimulus":"bees-with-color/bee-A1DF.svg","response":1,"trial_type":"image-button-response","trial_index":29,"time_elapsed":421143,"internal_node_id":"0.0-4.0-0.11","subject_id":"5ccbf31adde97100138a0eb4","study_id":"6197b3f67c2b5cd3b6d9596a","session_id":"6197b9eef073b53ee3a215bf","condition":"contingent","relevant_dimensions":["antennae","pattern"],"bee_group":{"antennae":"A","wings":"X","pattern":"D","legs":"X"},"action":"avoid","summary":"good-avoid","bonus":0.6400000000000011},{"rt":1134.699999999255,"stimulus":"\n                    <p><b>Action: <em>avoid</em></b></p>\n                    <p>This is the bee that you just saw.</p>\n                    <img src=\"bees-with-color/bee-A1DF.svg\" width=\"200\">\n                    <p><br>Your bonus pay is unchanged, and remains at $0.58.</p>\n            ","response":0,"trial_type":"html-button-response","trial_index":30,"time_elapsed":422279,"internal_node_id":"0.0-4.0-1.11","subject_id":"5ccbf31adde97100138a0eb4","study_id":"6197b3f67c2b5cd3b6d9596a","session_id":"6197b9eef073b53ee3a215bf","condition":"contingent","relevant_dimensions":["antennae","pattern"],"bee_group":{"antennae":"A","wings":"X","pattern":"D","legs":"X"},"bonus":0.6400000000000011},{"rt":14518.699999999255,"stimulus":"bees-with-color/bee-A1DM.svg","response":0,"trial_type":"image-button-response","trial_index":31,"time_elapsed":436799,"internal_node_id":"0.0-4.0-0.12","subject_id":"5ccbf31adde97100138a0eb4","study_id":"6197b3f67c2b5cd3b6d9596a","session_id":"6197b9eef073b53ee3a215bf","condition":"contingent","relevant_dimensions":["antennae","pattern"],"bee_group":{"antennae":"A","wings":"X","pattern":"D","legs":"X"},"action":"harvest","summary":"bad-harvest","bonus":0.6400000000000011},{"rt":1918.5,"stimulus":"\n                    <p><b>Action: <em>harvest</em></b></p>\n                    <p>This is the bee that you just saw.</p>\n                    <img src=\"bees-with-color/bee-A1DM.svg\" width=\"200\">\n                    <p><span class=\"redText\">Bad choice, the bee was angry.</span><br><b>You have been stung!</b><br>Your pay has been decreased by $0.10. Your bonus pay is now $0.48.</p>\n            ","response":0,"trial_type":"html-button-response","trial_index":32,"time_elapsed":438719,"internal_node_id":"0.0-4.0-1.12","subject_id":"5ccbf31adde97100138a0eb4","study_id":"6197b3f67c2b5cd3b6d9596a","session_id":"6197b9eef073b53ee3a215bf","condition":"contingent","relevant_dimensions":["antennae","pattern"],"bee_group":{"antennae":"A","wings":"X","pattern":"D","legs":"X"},"bonus":0.6400000000000011},{"rt":2238.300000000745,"stimulus":"bees-with-color/bee-B2DM.svg","response":1,"trial_type":"image-button-response","trial_index":33,"time_elapsed":440959,"internal_node_id":"0.0-4.0-0.13","subject_id":"5ccbf31adde97100138a0eb4","study_id":"6197b3f67c2b5cd3b6d9596a","session_id":"6197b9eef073b53ee3a215bf","condition":"contingent","relevant_dimensions":["antennae","pattern"],"bee_group":{"antennae":"A","wings":"X","pattern":"D","legs":"X"},"action":"avoid","summary":"bad-avoid","bonus":0.6400000000000011},{"rt":1230.699999999255,"stimulus":"\n                    <p><b>Action: <em>avoid</em></b></p>\n                    <p>This is the bee that you just saw.</p>\n                    <img src=\"bees-with-color/bee-B2DM.svg\" width=\"200\">\n                    <p><br>Your bonus pay is unchanged, and remains at $0.48.</p>\n            ","response":0,"trial_type":"html-button-response","trial_index":34,"time_elapsed":442191,"internal_node_id":"0.0-4.0-1.13","subject_id":"5ccbf31adde97100138a0eb4","study_id":"6197b3f67c2b5cd3b6d9596a","session_id":"6197b9eef073b53ee3a215bf","condition":"contingent","relevant_dimensions":["antennae","pattern"],"bee_group":{"antennae":"A","wings":"X","pattern":"D","legs":"X"},"bonus":0.6400000000000011},{"rt":3902.60000000149,"stimulus":"bees-with-color/bee-B1DM.svg","response":1,"trial_type":"image-button-response","trial_index":35,"time_elapsed":446095,"internal_node_id":"0.0-4.0-0.14","subject_id":"5ccbf31adde97100138a0eb4","study_id":"6197b3f67c2b5cd3b6d9596a","session_id":"6197b9eef073b53ee3a215bf","condition":"contingent","relevant_dimensions":["antennae","pattern"],"bee_group":{"antennae":"A","wings":"X","pattern":"D","legs":"X"},"action":"avoid","summary":"bad-avoid","bonus":0.6400000000000011},{"rt":662.2999999970198,"stimulus":"\n                    <p><b>Action: <em>avoid</em></b></p>\n                    <p>This is the bee that you just saw.</p>\n                    <img src=\"bees-with-color/bee-B1DM.svg\" width=\"200\">\n                    <p><br>Your bonus pay is unchanged, and remains at $0.48.</p>\n            ","response":0,"trial_type":"html-button-response","trial_index":36,"time_elapsed":446759,"internal_node_id":"0.0-4.0-1.14","subject_id":"5ccbf31adde97100138a0eb4","study_id":"6197b3f67c2b5cd3b6d9596a","session_id":"6197b9eef073b53ee3a215bf","condition":"contingent","relevant_dimensions":["antennae","pattern"],"bee_group":{"antennae":"A","wings":"X","pattern":"D","legs":"X"},"bonus":0.6400000000000011},{"rt":3007.199999999255,"stimulus":"bees-with-color/bee-B1DF.svg","response":0,"trial_type":"image-button-response","trial_index":37,"time_elapsed":449768,"internal_node_id":"0.0-4.0-0.15","subject_id":"5ccbf31adde97100138a0eb4","study_id":"6197b3f67c2b5cd3b6d9596a","session_id":"6197b9eef073b53ee3a215bf","condition":"contingent","relevant_dimensions":["antennae","pattern"],"bee_group":{"antennae":"A","wings":"X","pattern":"D","legs":"X"},"action":"harvest","summary":"good-harvest","bonus":0.6400000000000011},{"rt":12110.699999999255,"stimulus":"\n                    <p><b>Action: <em>harvest</em></b></p>\n                    <p>This is the bee that you just saw.</p>\n                    <img src=\"bees-with-color/bee-B1DF.svg\" width=\"200\">\n                    <p><span class=\"greenText\"><b>Successful harvest!</b></span><br>Your pay has increased by $0.02. Your bonus pay is now $0.50.</p>\n            ","response":0,"trial_type":"html-button-response","trial_index":38,"time_elapsed":461880,"internal_node_id":"0.0-4.0-1.15","subject_id":"5ccbf31adde97100138a0eb4","study_id":"6197b3f67c2b5cd3b6d9596a","session_id":"6197b9eef073b53ee3a215bf","condition":"contingent","relevant_dimensions":["antennae","pattern"],"bee_group":{"antennae":"A","wings":"X","pattern":"D","legs":"X"},"bonus":0.6400000000000011},{"rt":4174.10000000149,"stimulus":"bees-with-color/bee-A2DM.svg","response":0,"trial_type":"image-button-response","trial_index":39,"time_elapsed":466056,"internal_node_id":"0.0-4.0-0.16","subject_id":"5ccbf31adde97100138a0eb4","study_id":"6197b3f67c2b5cd3b6d9596a","session_id":"6197b9eef073b53ee3a215bf","condition":"contingent","relevant_dimensions":["antennae","pattern"],"bee_group":{"antennae":"A","wings":"X","pattern":"D","legs":"X"},"action":"harvest","summary":"bad-harvest","bonus":0.6400000000000011},{"rt":1014.3999999985099,"stimulus":"\n                    <p><b>Action: <em>harvest</em></b></p>\n                    <p>This is the bee that you just saw.</p>\n                    <img src=\"bees-with-color/bee-A2DM.svg\" width=\"200\">\n                    <p><span class=\"redText\">Bad choice, the bee was angry.</span><br><b>You have been stung!</b><br>Your pay has been decreased by $0.10. Your bonus pay is now $0.40.</p>\n            ","response":0,"trial_type":"html-button-response","trial_index":40,"time_elapsed":467072,"internal_node_id":"0.0-4.0-1.16","subject_id":"5ccbf31adde97100138a0eb4","study_id":"6197b3f67c2b5cd3b6d9596a","session_id":"6197b9eef073b53ee3a215bf","condition":"contingent","relevant_dimensions":["antennae","pattern"],"bee_group":{"antennae":"A","wings":"X","pattern":"D","legs":"X"},"bonus":0.6400000000000011},{"rt":1822.5,"stimulus":"bees-with-color/bee-B2DM.svg","response":0,"trial_type":"image-button-response","trial_index":41,"time_elapsed":468896,"internal_node_id":"0.0-4.0-0.17","subject_id":"5ccbf31adde97100138a0eb4","study_id":"6197b3f67c2b5cd3b6d9596a","session_id":"6197b9eef073b53ee3a215bf","condition":"contingent","relevant_dimensions":["antennae","pattern"],"bee_group":{"antennae":"A","wings":"X","pattern":"D","legs":"X"},"action":"harvest","summary":"good-harvest","bonus":0.6400000000000011},{"rt":966.5,"stimulus":"\n                    <p><b>Action: <em>harvest</em></b></p>\n                    <p>This is the bee that you just saw.</p>\n                    <img src=\"bees-with-color/bee-B2DM.svg\" width=\"200\">\n                    <p><span class=\"greenText\"><b>Successful harvest!</b></span><br>Your pay has increased by $0.02. Your bonus pay is now $0.42.</p>\n            ","response":0,"trial_type":"html-button-response","trial_index":42,"time_elapsed":469864,"internal_node_id":"0.0-4.0-1.17","subject_id":"5ccbf31adde97100138a0eb4","study_id":"6197b3f67c2b5cd3b6d9596a","session_id":"6197b9eef073b53ee3a215bf","condition":"contingent","relevant_dimensions":["antennae","pattern"],"bee_group":{"antennae":"A","wings":"X","pattern":"D","legs":"X"},"bonus":0.6400000000000011},{"rt":4110.79999999702,"stimulus":"bees-with-color/bee-A2SM.svg","response":0,"trial_type":"image-button-response","trial_index":43,"time_elapsed":473976,"internal_node_id":"0.0-4.0-0.18","subject_id":"5ccbf31adde97100138a0eb4","study_id":"6197b3f67c2b5cd3b6d9596a","session_id":"6197b9eef073b53ee3a215bf","condition":"contingent","relevant_dimensions":["antennae","pattern"],"bee_group":{"antennae":"A","wings":"X","pattern":"D","legs":"X"},"action":"harvest","summary":"good-harvest","bonus":0.6400000000000011},{"rt":606.3000000007451,"stimulus":"\n                    <p><b>Action: <em>harvest</em></b></p>\n                    <p>This is the bee that you just saw.</p>\n                    <img src=\"bees-with-color/bee-A2SM.svg\" width=\"200\">\n                    <p><span class=\"greenText\"><b>Successful harvest!</b></span><br>Your pay has increased by $0.02. Your bonus pay is now $0.44.</p>\n            ","response":0,"trial_type":"html-button-response","trial_index":44,"time_elapsed":474584,"internal_node_id":"0.0-4.0-1.18","subject_id":"5ccbf31adde97100138a0eb4","study_id":"6197b3f67c2b5cd3b6d9596a","session_id":"6197b9eef073b53ee3a215bf","condition":"contingent","relevant_dimensions":["antennae","pattern"],"bee_group":{"antennae":"A","wings":"X","pattern":"D","legs":"X"},"bonus":0.6400000000000011},{"rt":3118.099999997765,"stimulus":"bees-with-color/bee-A1SM.svg","response":0,"trial_type":"image-button-response","trial_index":45,"time_elapsed":477704,"internal_node_id":"0.0-4.0-0.19","subject_id":"5ccbf31adde97100138a0eb4","study_id":"6197b3f67c2b5cd3b6d9596a","session_id":"6197b9eef073b53ee3a215bf","condition":"contingent","relevant_dimensions":["antennae","pattern"],"bee_group":{"antennae":"A","wings":"X","pattern":"D","legs":"X"},"action":"harvest","summary":"good-harvest","bonus":0.6400000000000011},{"rt":711.5,"stimulus":"\n                    <p><b>Action: <em>harvest</em></b></p>\n                    <p>This is the bee that you just saw.</p>\n                    <img src=\"bees-with-color/bee-A1SM.svg\" width=\"200\">\n                    <p><span class=\"greenText\"><b>Successful harvest!</b></span><br>Your pay has increased by $0.02. Your bonus pay is now $0.46.</p>\n            ","response":0,"trial_type":"html-button-response","trial_index":46,"time_elapsed":478417,"internal_node_id":"0.0-4.0-1.19","subject_id":"5ccbf31adde97100138a0eb4","study_id":"6197b3f67c2b5cd3b6d9596a","session_id":"6197b9eef073b53ee3a215bf","condition":"contingent","relevant_dimensions":["antennae","pattern"],"bee_group":{"antennae":"A","wings":"X","pattern":"D","legs":"X"},"bonus":0.6400000000000011},{"rt":533,"stimulus":"bees-with-color/bee-A1SF.svg","response":0,"trial_type":"image-button-response","trial_index":47,"time_elapsed":478952,"internal_node_id":"0.0-4.0-0.20","subject_id":"5ccbf31adde97100138a0eb4","study_id":"6197b3f67c2b5cd3b6d9596a","session_id":"6197b9eef073b53ee3a215bf","condition":"contingent","relevant_dimensions":["antennae","pattern"],"bee_group":{"antennae":"A","wings":"X","pattern":"D","legs":"X"},"action":"harvest","summary":"good-harvest","bonus":0.6400000000000011},{"rt":526.5,"stimulus":"\n                    <p><b>Action: <em>harvest</em></b></p>\n                    <p>This is the bee that you just saw.</p>\n                    <img src=\"bees-with-color/bee-A1SF.svg\" width=\"200\">\n                    <p><span class=\"greenText\"><b>Successful harvest!</b></span><br>Your pay has increased by $0.02. Your bonus pay is now $0.48.</p>\n            ","response":0,"trial_type":"html-button-response","trial_index":48,"time_elapsed":479480,"internal_node_id":"0.0-4.0-1.20","subject_id":"5ccbf31adde97100138a0eb4","study_id":"6197b3f67c2b5cd3b6d9596a","session_id":"6197b9eef073b53ee3a215bf","condition":"contingent","relevant_dimensions":["antennae","pattern"],"bee_group":{"antennae":"A","wings":"X","pattern":"D","legs":"X"},"bonus":0.6400000000000011},{"rt":582.3999999985099,"stimulus":"bees-with-color/bee-B2SF.svg","response":0,"trial_type":"image-button-response","trial_index":49,"time_elapsed":480064,"internal_node_id":"0.0-4.0-0.21","subject_id":"5ccbf31adde97100138a0eb4","study_id":"6197b3f67c2b5cd3b6d9596a","session_id":"6197b9eef073b53ee3a215bf","condition":"contingent","relevant_dimensions":["antennae","pattern"],"bee_group":{"antennae":"A","wings":"X","pattern":"D","legs":"X"},"action":"harvest","summary":"good-harvest","bonus":0.6400000000000011},{"rt":510.4000000022352,"stimulus":"\n                    <p><b>Action: <em>harvest</em></b></p>\n                    <p>This is the bee that you just saw.</p>\n                    <img src=\"bees-with-color/bee-B2SF.svg\" width=\"200\">\n                    <p><span class=\"greenText\"><b>Successful harvest!</b></span><br>Your pay has increased by $0.02. Your bonus pay is now $0.50.</p>\n            ","response":0,"trial_type":"html-button-response","trial_index":50,"time_elapsed":480576,"internal_node_id":"0.0-4.0-1.21","subject_id":"5ccbf31adde97100138a0eb4","study_id":"6197b3f67c2b5cd3b6d9596a","session_id":"6197b9eef073b53ee3a215bf","condition":"contingent","relevant_dimensions":["antennae","pattern"],"bee_group":{"antennae":"A","wings":"X","pattern":"D","legs":"X"},"bonus":0.6400000000000011},{"rt":454.29999999701977,"stimulus":"bees-with-color/bee-B2SM.svg","response":0,"trial_type":"image-button-response","trial_index":51,"time_elapsed":481032,"internal_node_id":"0.0-4.0-0.22","subject_id":"5ccbf31adde97100138a0eb4","study_id":"6197b3f67c2b5cd3b6d9596a","session_id":"6197b9eef073b53ee3a215bf","condition":"contingent","relevant_dimensions":["antennae","pattern"],"bee_group":{"antennae":"A","wings":"X","pattern":"D","legs":"X"},"action":"harvest","summary":"good-harvest","bonus":0.6400000000000011},{"rt":462.4000000022352,"stimulus":"\n                    <p><b>Action: <em>harvest</em></b></p>\n                    <p>This is the bee that you just saw.</p>\n                    <img src=\"bees-with-color/bee-B2SM.svg\" width=\"200\">\n                    <p><span class=\"greenText\"><b>Successful harvest!</b></span><br>Your pay has increased by $0.02. Your bonus pay is now $0.52.</p>\n            ","response":0,"trial_type":"html-button-response","trial_index":52,"time_elapsed":481496,"internal_node_id":"0.0-4.0-1.22","subject_id":"5ccbf31adde97100138a0eb4","study_id":"6197b3f67c2b5cd3b6d9596a","session_id":"6197b9eef073b53ee3a215bf","condition":"contingent","relevant_dimensions":["antennae","pattern"],"bee_group":{"antennae":"A","wings":"X","pattern":"D","legs":"X"},"bonus":0.6400000000000011},{"rt":462.69999999925494,"stimulus":"bees-with-color/bee-A1DM.svg","response":0,"trial_type":"image-button-response","trial_index":53,"time_elapsed":481960,"internal_node_id":"0.0-4.0-0.23","subject_id":"5ccbf31adde97100138a0eb4","study_id":"6197b3f67c2b5cd3b6d9596a","session_id":"6197b9eef073b53ee3a215bf","condition":"contingent","relevant_dimensions":["antennae","pattern"],"bee_group":{"antennae":"A","wings":"X","pattern":"D","legs":"X"},"action":"harvest","summary":"bad-harvest","bonus":0.6400000000000011},{"rt":1590.5,"stimulus":"\n                    <p><b>Action: <em>harvest</em></b></p>\n                    <p>This is the bee that you just saw.</p>\n                    <img src=\"bees-with-color/bee-A1DM.svg\" width=\"200\">\n                    <p><span class=\"redText\">Bad choice, the bee was angry.</span><br><b>You have been stung!</b><br>Your pay has been decreased by $0.10. Your bonus pay is now $0.42.</p>\n            ","response":0,"trial_type":"html-button-response","trial_index":54,"time_elapsed":483552,"internal_node_id":"0.0-4.0-1.23","subject_id":"5ccbf31adde97100138a0eb4","study_id":"6197b3f67c2b5cd3b6d9596a","session_id":"6197b9eef073b53ee3a215bf","condition":"contingent","relevant_dimensions":["antennae","pattern"],"bee_group":{"antennae":"A","wings":"X","pattern":"D","legs":"X"},"bonus":0.6400000000000011},{"rt":862.1999999992549,"stimulus":"bees-with-color/bee-B1SM.svg","response":0,"trial_type":"image-button-response","trial_index":55,"time_elapsed":484416,"internal_node_id":"0.0-4.0-0.24","subject_id":"5ccbf31adde97100138a0eb4","study_id":"6197b3f67c2b5cd3b6d9596a","session_id":"6197b9eef073b53ee3a215bf","condition":"contingent","relevant_dimensions":["antennae","pattern"],"bee_group":{"antennae":"A","wings":"X","pattern":"D","legs":"X"},"action":"harvest","summary":"good-harvest","bonus":0.6400000000000011},{"rt":494.1000000014901,"stimulus":"\n                    <p><b>Action: <em>harvest</em></b></p>\n                    <p>This is the bee that you just saw.</p>\n                    <img src=\"bees-with-color/bee-B1SM.svg\" width=\"200\">\n                    <p><span class=\"greenText\"><b>Successful harvest!</b></span><br>Your pay has increased by $0.02. Your bonus pay is now $0.44.</p>\n            ","response":0,"trial_type":"html-button-response","trial_index":56,"time_elapsed":484912,"internal_node_id":"0.0-4.0-1.24","subject_id":"5ccbf31adde97100138a0eb4","study_id":"6197b3f67c2b5cd3b6d9596a","session_id":"6197b9eef073b53ee3a215bf","condition":"contingent","relevant_dimensions":["antennae","pattern"],"bee_group":{"antennae":"A","wings":"X","pattern":"D","legs":"X"},"bonus":0.6400000000000011},{"rt":422.5,"stimulus":"bees-with-color/bee-B1DM.svg","response":0,"trial_type":"image-button-response","trial_index":57,"time_elapsed":485336,"internal_node_id":"0.0-4.0-0.25","subject_id":"5ccbf31adde97100138a0eb4","study_id":"6197b3f67c2b5cd3b6d9596a","session_id":"6197b9eef073b53ee3a215bf","condition":"contingent","relevant_dimensions":["antennae","pattern"],"bee_group":{"antennae":"A","wings":"X","pattern":"D","legs":"X"},"action":"harvest","summary":"good-harvest","bonus":0.6400000000000011},{"rt":606.1999999992549,"stimulus":"\n                    <p><b>Action: <em>harvest</em></b></p>\n                    <p>This is the bee that you just saw.</p>\n                    <img src=\"bees-with-color/bee-B1DM.svg\" width=\"200\">\n                    <p><span class=\"greenText\"><b>Successful harvest!</b></span><br>Your pay has increased by $0.02. Your bonus pay is now $0.46.</p>\n            ","response":0,"trial_type":"html-button-response","trial_index":58,"time_elapsed":485944,"internal_node_id":"0.0-4.0-1.25","subject_id":"5ccbf31adde97100138a0eb4","study_id":"6197b3f67c2b5cd3b6d9596a","session_id":"6197b9eef073b53ee3a215bf","condition":"contingent","relevant_dimensions":["antennae","pattern"],"bee_group":{"antennae":"A","wings":"X","pattern":"D","legs":"X"},"bonus":0.6400000000000011},{"rt":374.3999999985099,"stimulus":"bees-with-color/bee-A2SF.svg","response":0,"trial_type":"image-button-response","trial_index":59,"time_elapsed":486320,"internal_node_id":"0.0-4.0-0.26","subject_id":"5ccbf31adde97100138a0eb4","study_id":"6197b3f67c2b5cd3b6d9596a","session_id":"6197b9eef073b53ee3a215bf","condition":"contingent","relevant_dimensions":["antennae","pattern"],"bee_group":{"antennae":"A","wings":"X","pattern":"D","legs":"X"},"action":"harvest","summary":"good-harvest","bonus":0.6400000000000011},{"rt":494.19999999925494,"stimulus":"\n                    <p><b>Action: <em>harvest</em></b></p>\n                    <p>This is the bee that you just saw.</p>\n                    <img src=\"bees-with-color/bee-A2SF.svg\" width=\"200\">\n                    <p><span class=\"greenText\"><b>Successful harvest!</b></span><br>Your pay has increased by $0.02. Your bonus pay is now $0.48.</p>\n            ","response":0,"trial_type":"html-button-response","trial_index":60,"time_elapsed":486816,"internal_node_id":"0.0-4.0-1.26","subject_id":"5ccbf31adde97100138a0eb4","study_id":"6197b3f67c2b5cd3b6d9596a","session_id":"6197b9eef073b53ee3a215bf","condition":"contingent","relevant_dimensions":["antennae","pattern"],"bee_group":{"antennae":"A","wings":"X","pattern":"D","legs":"X"},"bonus":0.6400000000000011},{"rt":446.79999999701977,"stimulus":"bees-with-color/bee-A1DF.svg","response":0,"trial_type":"image-button-response","trial_index":61,"time_elapsed":487264,"internal_node_id":"0.0-4.0-0.27","subject_id":"5ccbf31adde97100138a0eb4","study_id":"6197b3f67c2b5cd3b6d9596a","session_id":"6197b9eef073b53ee3a215bf","condition":"contingent","relevant_dimensions":["antennae","pattern"],"bee_group":{"antennae":"A","wings":"X","pattern":"D","legs":"X"},"action":"harvest","summary":"bad-harvest","bonus":0.6400000000000011},{"rt":1278.699999999255,"stimulus":"\n                    <p><b>Action: <em>harvest</em></b></p>\n                    <p>This is the bee that you just saw.</p>\n                    <img src=\"bees-with-color/bee-A1DF.svg\" width=\"200\">\n                    <p><span class=\"redText\">Bad choice, the bee was angry.</span><br><b>You have been stung!</b><br>Your pay has been decreased by $0.10. Your bonus pay is now $0.38.</p>\n            ","response":0,"trial_type":"html-button-response","trial_index":62,"time_elapsed":488544,"internal_node_id":"0.0-4.0-1.27","subject_id":"5ccbf31adde97100138a0eb4","study_id":"6197b3f67c2b5cd3b6d9596a","session_id":"6197b9eef073b53ee3a215bf","condition":"contingent","relevant_dimensions":["antennae","pattern"],"bee_group":{"antennae":"A","wings":"X","pattern":"D","legs":"X"},"bonus":0.6400000000000011},{"rt":758.9000000022352,"stimulus":"bees-with-color/bee-B1DF.svg","response":0,"trial_type":"image-button-response","trial_index":63,"time_elapsed":489304,"internal_node_id":"0.0-4.0-0.28","subject_id":"5ccbf31adde97100138a0eb4","study_id":"6197b3f67c2b5cd3b6d9596a","session_id":"6197b9eef073b53ee3a215bf","condition":"contingent","relevant_dimensions":["antennae","pattern"],"bee_group":{"antennae":"A","wings":"X","pattern":"D","legs":"X"},"action":"harvest","summary":"good-harvest","bonus":0.6400000000000011},{"rt":502.69999999925494,"stimulus":"\n                    <p><b>Action: <em>harvest</em></b></p>\n                    <p>This is the bee that you just saw.</p>\n                    <img src=\"bees-with-color/bee-B1DF.svg\" width=\"200\">\n                    <p><span class=\"greenText\"><b>Successful harvest!</b></span><br>Your pay has increased by $0.02. Your bonus pay is now $0.40.</p>\n            ","response":0,"trial_type":"html-button-response","trial_index":64,"time_elapsed":489808,"internal_node_id":"0.0-4.0-1.28","subject_id":"5ccbf31adde97100138a0eb4","study_id":"6197b3f67c2b5cd3b6d9596a","session_id":"6197b9eef073b53ee3a215bf","condition":"contingent","relevant_dimensions":["antennae","pattern"],"bee_group":{"antennae":"A","wings":"X","pattern":"D","legs":"X"},"bonus":0.6400000000000011},{"rt":398.8999999985099,"stimulus":"bees-with-color/bee-B1SF.svg","response":0,"trial_type":"image-button-response","trial_index":65,"time_elapsed":490208,"internal_node_id":"0.0-4.0-0.29","subject_id":"5ccbf31adde97100138a0eb4","study_id":"6197b3f67c2b5cd3b6d9596a","session_id":"6197b9eef073b53ee3a215bf","condition":"contingent","relevant_dimensions":["antennae","pattern"],"bee_group":{"antennae":"A","wings":"X","pattern":"D","legs":"X"},"action":"harvest","summary":"good-harvest","bonus":0.6400000000000011},{"rt":478.8999999985099,"stimulus":"\n                    <p><b>Action: <em>harvest</em></b></p>\n                    <p>This is the bee that you just saw.</p>\n                    <img src=\"bees-with-color/bee-B1SF.svg\" width=\"200\">\n                    <p><span class=\"greenText\"><b>Successful harvest!</b></span><br>Your pay has increased by $0.02. Your bonus pay is now $0.42.</p>\n            ","response":0,"trial_type":"html-button-response","trial_index":66,"time_elapsed":490688,"internal_node_id":"0.0-4.0-1.29","subject_id":"5ccbf31adde97100138a0eb4","study_id":"6197b3f67c2b5cd3b6d9596a","session_id":"6197b9eef073b53ee3a215bf","condition":"contingent","relevant_dimensions":["antennae","pattern"],"bee_group":{"antennae":"A","wings":"X","pattern":"D","legs":"X"},"bonus":0.6400000000000011},{"rt":511,"stimulus":"bees-with-color/bee-B2DF.svg","response":0,"trial_type":"image-button-response","trial_index":67,"time_elapsed":491200,"internal_node_id":"0.0-4.0-0.30","subject_id":"5ccbf31adde97100138a0eb4","study_id":"6197b3f67c2b5cd3b6d9596a","session_id":"6197b9eef073b53ee3a215bf","condition":"contingent","relevant_dimensions":["antennae","pattern"],"bee_group":{"antennae":"A","wings":"X","pattern":"D","legs":"X"},"action":"harvest","summary":"good-harvest","bonus":0.6400000000000011},{"rt":534.5,"stimulus":"\n                    <p><b>Action: <em>harvest</em></b></p>\n                    <p>This is the bee that you just saw.</p>\n                    <img src=\"bees-with-color/bee-B2DF.svg\" width=\"200\">\n                    <p><span class=\"greenText\"><b>Successful harvest!</b></span><br>Your pay has increased by $0.02. Your bonus pay is now $0.44.</p>\n            ","response":0,"trial_type":"html-button-response","trial_index":68,"time_elapsed":491736,"internal_node_id":"0.0-4.0-1.30","subject_id":"5ccbf31adde97100138a0eb4","study_id":"6197b3f67c2b5cd3b6d9596a","session_id":"6197b9eef073b53ee3a215bf","condition":"contingent","relevant_dimensions":["antennae","pattern"],"bee_group":{"antennae":"A","wings":"X","pattern":"D","legs":"X"},"bonus":0.6400000000000011},{"rt":1422.7000000029802,"stimulus":"bees-with-color/bee-A2DF.svg","response":1,"trial_type":"image-button-response","trial_index":69,"time_elapsed":493160,"internal_node_id":"0.0-4.0-0.31","subject_id":"5ccbf31adde97100138a0eb4","study_id":"6197b3f67c2b5cd3b6d9596a","session_id":"6197b9eef073b53ee3a215bf","condition":"contingent","relevant_dimensions":["antennae","pattern"],"bee_group":{"antennae":"A","wings":"X","pattern":"D","legs":"X"},"action":"avoid","summary":"good-avoid","bonus":0.6400000000000011},{"rt":519,"stimulus":"\n                    <p><b>Action: <em>avoid</em></b></p>\n                    <p>This is the bee that you just saw.</p>\n                    <img src=\"bees-with-color/bee-A2DF.svg\" width=\"200\">\n                    <p><br>Your bonus pay is unchanged, and remains at $0.44.</p>\n            ","response":0,"trial_type":"html-button-response","trial_index":70,"time_elapsed":493680,"internal_node_id":"0.0-4.0-1.31","subject_id":"5ccbf31adde97100138a0eb4","study_id":"6197b3f67c2b5cd3b6d9596a","session_id":"6197b9eef073b53ee3a215bf","condition":"contingent","relevant_dimensions":["antennae","pattern"],"bee_group":{"antennae":"A","wings":"X","pattern":"D","legs":"X"},"bonus":0.6400000000000011},{"rt":711,"stimulus":"bees-with-color/bee-A2DF.svg","response":0,"trial_type":"image-button-response","trial_index":71,"time_elapsed":494392,"internal_node_id":"0.0-4.0-0.32","subject_id":"5ccbf31adde97100138a0eb4","study_id":"6197b3f67c2b5cd3b6d9596a","session_id":"6197b9eef073b53ee3a215bf","condition":"contingent","relevant_dimensions":["antennae","pattern"],"bee_group":{"antennae":"A","wings":"X","pattern":"D","legs":"X"},"action":"harvest","summary":"bad-harvest","bonus":0.6400000000000011},{"rt":478.3999999985099,"stimulus":"\n                    <p><b>Action: <em>harvest</em></b></p>\n                    <p>This is the bee that you just saw.</p>\n                    <img src=\"bees-with-color/bee-A2DF.svg\" width=\"200\">\n                    <p><span class=\"redText\">Bad choice, the bee was angry.</span><br><b>You have been stung!</b><br>Your pay has been decreased by $0.10. Your bonus pay is now $0.34.</p>\n            ","response":0,"trial_type":"html-button-response","trial_index":72,"time_elapsed":494872,"internal_node_id":"0.0-4.0-1.32","subject_id":"5ccbf31adde97100138a0eb4","study_id":"6197b3f67c2b5cd3b6d9596a","session_id":"6197b9eef073b53ee3a215bf","condition":"contingent","relevant_dimensions":["antennae","pattern"],"bee_group":{"antennae":"A","wings":"X","pattern":"D","legs":"X"},"bonus":0.6400000000000011},{"rt":551.3000000007451,"stimulus":"bees-with-color/bee-A1DF.svg","response":0,"trial_type":"image-button-response","trial_index":73,"time_elapsed":495424,"internal_node_id":"0.0-4.0-0.33","subject_id":"5ccbf31adde97100138a0eb4","study_id":"6197b3f67c2b5cd3b6d9596a","session_id":"6197b9eef073b53ee3a215bf","condition":"contingent","relevant_dimensions":["antennae","pattern"],"bee_group":{"antennae":"A","wings":"X","pattern":"D","legs":"X"},"action":"harvest","summary":"bad-harvest","bonus":0.6400000000000011},{"rt":854.5,"stimulus":"\n                    <p><b>Action: <em>harvest</em></b></p>\n                    <p>This is the bee that you just saw.</p>\n                    <img src=\"bees-with-color/bee-A1DF.svg\" width=\"200\">\n                    <p><span class=\"redText\">Bad choice, the bee was angry.</span><br><b>You have been stung!</b><br>Your pay has been decreased by $0.10. Your bonus pay is now $0.24.</p>\n            ","response":0,"trial_type":"html-button-response","trial_index":74,"time_elapsed":496280,"internal_node_id":"0.0-4.0-1.33","subject_id":"5ccbf31adde97100138a0eb4","study_id":"6197b3f67c2b5cd3b6d9596a","session_id":"6197b9eef073b53ee3a215bf","condition":"contingent","relevant_dimensions":["antennae","pattern"],"bee_group":{"antennae":"A","wings":"X","pattern":"D","legs":"X"},"bonus":0.6400000000000011},{"rt":1646.8999999985099,"stimulus":"bees-with-color/bee-B2SM.svg","response":0,"trial_type":"image-button-response","trial_index":75,"time_elapsed":497928,"internal_node_id":"0.0-4.0-0.34","subject_id":"5ccbf31adde97100138a0eb4","study_id":"6197b3f67c2b5cd3b6d9596a","session_id":"6197b9eef073b53ee3a215bf","condition":"contingent","relevant_dimensions":["antennae","pattern"],"bee_group":{"antennae":"A","wings":"X","pattern":"D","legs":"X"},"action":"harvest","summary":"good-harvest","bonus":0.6400000000000011},{"rt":1063.5,"stimulus":"\n                    <p><b>Action: <em>harvest</em></b></p>\n                    <p>This is the bee that you just saw.</p>\n                    <img src=\"bees-with-color/bee-B2SM.svg\" width=\"200\">\n                    <p><span class=\"greenText\"><b>Successful harvest!</b></span><br>Your pay has increased by $0.02. Your bonus pay is now $0.26.</p>\n            ","response":0,"trial_type":"html-button-response","trial_index":76,"time_elapsed":498993,"internal_node_id":"0.0-4.0-1.34","subject_id":"5ccbf31adde97100138a0eb4","study_id":"6197b3f67c2b5cd3b6d9596a","session_id":"6197b9eef073b53ee3a215bf","condition":"contingent","relevant_dimensions":["antennae","pattern"],"bee_group":{"antennae":"A","wings":"X","pattern":"D","legs":"X"},"bonus":0.6400000000000011},{"rt":406.1000000014901,"stimulus":"bees-with-color/bee-A2SM.svg","response":0,"trial_type":"image-button-response","trial_index":77,"time_elapsed":499400,"internal_node_id":"0.0-4.0-0.35","subject_id":"5ccbf31adde97100138a0eb4","study_id":"6197b3f67c2b5cd3b6d9596a","session_id":"6197b9eef073b53ee3a215bf","condition":"contingent","relevant_dimensions":["antennae","pattern"],"bee_group":{"antennae":"A","wings":"X","pattern":"D","legs":"X"},"action":"harvest","summary":"good-harvest","bonus":0.6400000000000011},{"rt":454.69999999925494,"stimulus":"\n                    <p><b>Action: <em>harvest</em></b></p>\n                    <p>This is the bee that you just saw.</p>\n                    <img src=\"bees-with-color/bee-A2SM.svg\" width=\"200\">\n                    <p><span class=\"greenText\"><b>Successful harvest!</b></span><br>Your pay has increased by $0.02. Your bonus pay is now $0.28.</p>\n            ","response":0,"trial_type":"html-button-response","trial_index":78,"time_elapsed":499856,"internal_node_id":"0.0-4.0-1.35","subject_id":"5ccbf31adde97100138a0eb4","study_id":"6197b3f67c2b5cd3b6d9596a","session_id":"6197b9eef073b53ee3a215bf","condition":"contingent","relevant_dimensions":["antennae","pattern"],"bee_group":{"antennae":"A","wings":"X","pattern":"D","legs":"X"},"bonus":0.6400000000000011},{"rt":1286.8999999985099,"stimulus":"bees-with-color/bee-B2DF.svg","response":0,"trial_type":"image-button-response","trial_index":79,"time_elapsed":501144,"internal_node_id":"0.0-4.0-0.36","subject_id":"5ccbf31adde97100138a0eb4","study_id":"6197b3f67c2b5cd3b6d9596a","session_id":"6197b9eef073b53ee3a215bf","condition":"contingent","relevant_dimensions":["antennae","pattern"],"bee_group":{"antennae":"A","wings":"X","pattern":"D","legs":"X"},"action":"harvest","summary":"good-harvest","bonus":0.6400000000000011},{"rt":510.4000000022352,"stimulus":"\n                    <p><b>Action: <em>harvest</em></b></p>\n                    <p>This is the bee that you just saw.</p>\n                    <img src=\"bees-with-color/bee-B2DF.svg\" width=\"200\">\n                    <p><span class=\"greenText\"><b>Successful harvest!</b></span><br>Your pay has increased by $0.02. Your bonus pay is now $0.30.</p>\n            ","response":0,"trial_type":"html-button-response","trial_index":80,"time_elapsed":501656,"internal_node_id":"0.0-4.0-1.36","subject_id":"5ccbf31adde97100138a0eb4","study_id":"6197b3f67c2b5cd3b6d9596a","session_id":"6197b9eef073b53ee3a215bf","condition":"contingent","relevant_dimensions":["antennae","pattern"],"bee_group":{"antennae":"A","wings":"X","pattern":"D","legs":"X"},"bonus":0.6400000000000011},{"rt":4094.199999999255,"stimulus":"bees-with-color/bee-B1SM.svg","response":1,"trial_type":"image-button-response","trial_index":81,"time_elapsed":505752,"internal_node_id":"0.0-4.0-0.37","subject_id":"5ccbf31adde97100138a0eb4","study_id":"6197b3f67c2b5cd3b6d9596a","session_id":"6197b9eef073b53ee3a215bf","condition":"contingent","relevant_dimensions":["antennae","pattern"],"bee_group":{"antennae":"A","wings":"X","pattern":"D","legs":"X"},"action":"avoid","summary":"bad-avoid","bonus":0.6400000000000011},{"rt":1470.5999999977648,"stimulus":"\n                    <p><b>Action: <em>avoid</em></b></p>\n                    <p>This is the bee that you just saw.</p>\n                    <img src=\"bees-with-color/bee-B1SM.svg\" width=\"200\">\n                    <p><br>Your bonus pay is unchanged, and remains at $0.30.</p>\n            ","response":0,"trial_type":"html-button-response","trial_index":82,"time_elapsed":507224,"internal_node_id":"0.0-4.0-1.37","subject_id":"5ccbf31adde97100138a0eb4","study_id":"6197b3f67c2b5cd3b6d9596a","session_id":"6197b9eef073b53ee3a215bf","condition":"contingent","relevant_dimensions":["antennae","pattern"],"bee_group":{"antennae":"A","wings":"X","pattern":"D","legs":"X"},"bonus":0.6400000000000011},{"rt":1605.8999999985099,"stimulus":"bees-with-color/bee-B1DF.svg","response":1,"trial_type":"image-button-response","trial_index":83,"time_elapsed":508832,"internal_node_id":"0.0-4.0-0.38","subject_id":"5ccbf31adde97100138a0eb4","study_id":"6197b3f67c2b5cd3b6d9596a","session_id":"6197b9eef073b53ee3a215bf","condition":"contingent","relevant_dimensions":["antennae","pattern"],"bee_group":{"antennae":"A","wings":"X","pattern":"D","legs":"X"},"action":"avoid","summary":"bad-avoid","bonus":0.6400000000000011},{"rt":894.5,"stimulus":"\n                    <p><b>Action: <em>avoid</em></b></p>\n                    <p>This is the bee that you just saw.</p>\n                    <img src=\"bees-with-color/bee-B1DF.svg\" width=\"200\">\n                    <p><br>Your bonus pay is unchanged, and remains at $0.30.</p>\n            ","response":0,"trial_type":"html-button-response","trial_index":84,"time_elapsed":509728,"internal_node_id":"0.0-4.0-1.38","subject_id":"5ccbf31adde97100138a0eb4","study_id":"6197b3f67c2b5cd3b6d9596a","session_id":"6197b9eef073b53ee3a215bf","condition":"contingent","relevant_dimensions":["antennae","pattern"],"bee_group":{"antennae":"A","wings":"X","pattern":"D","legs":"X"},"bonus":0.6400000000000011},{"rt":4438.29999999702,"stimulus":"bees-with-color/bee-B2DM.svg","response":0,"trial_type":"image-button-response","trial_index":85,"time_elapsed":514168,"internal_node_id":"0.0-4.0-0.39","subject_id":"5ccbf31adde97100138a0eb4","study_id":"6197b3f67c2b5cd3b6d9596a","session_id":"6197b9eef073b53ee3a215bf","condition":"contingent","relevant_dimensions":["antennae","pattern"],"bee_group":{"antennae":"A","wings":"X","pattern":"D","legs":"X"},"action":"harvest","summary":"good-harvest","bonus":0.6400000000000011},{"rt":598.1999999992549,"stimulus":"\n                    <p><b>Action: <em>harvest</em></b></p>\n                    <p>This is the bee that you just saw.</p>\n                    <img src=\"bees-with-color/bee-B2DM.svg\" width=\"200\">\n                    <p><span class=\"greenText\"><b>Successful harvest!</b></span><br>Your pay has increased by $0.02. Your bonus pay is now $0.32.</p>\n            ","response":0,"trial_type":"html-button-response","trial_index":86,"time_elapsed":514768,"internal_node_id":"0.0-4.0-1.39","subject_id":"5ccbf31adde97100138a0eb4","study_id":"6197b3f67c2b5cd3b6d9596a","session_id":"6197b9eef073b53ee3a215bf","condition":"contingent","relevant_dimensions":["antennae","pattern"],"bee_group":{"antennae":"A","wings":"X","pattern":"D","legs":"X"},"bonus":0.6400000000000011},{"rt":1438.3999999985099,"stimulus":"bees-with-color/bee-A1SM.svg","response":0,"trial_type":"image-button-response","trial_index":87,"time_elapsed":516208,"internal_node_id":"0.0-4.0-0.40","subject_id":"5ccbf31adde97100138a0eb4","study_id":"6197b3f67c2b5cd3b6d9596a","session_id":"6197b9eef073b53ee3a215bf","condition":"contingent","relevant_dimensions":["antennae","pattern"],"bee_group":{"antennae":"A","wings":"X","pattern":"D","legs":"X"},"action":"harvest","summary":"good-harvest","bonus":0.6400000000000011},{"rt":566.6000000014901,"stimulus":"\n                    <p><b>Action: <em>harvest</em></b></p>\n                    <p>This is the bee that you just saw.</p>\n                    <img src=\"bees-with-color/bee-A1SM.svg\" width=\"200\">\n                    <p><span class=\"greenText\"><b>Successful harvest!</b></span><br>Your pay has increased by $0.02. Your bonus pay is now $0.34.</p>\n            ","response":0,"trial_type":"html-button-response","trial_index":88,"time_elapsed":516776,"internal_node_id":"0.0-4.0-1.40","subject_id":"5ccbf31adde97100138a0eb4","study_id":"6197b3f67c2b5cd3b6d9596a","session_id":"6197b9eef073b53ee3a215bf","condition":"contingent","relevant_dimensions":["antennae","pattern"],"bee_group":{"antennae":"A","wings":"X","pattern":"D","legs":"X"},"bonus":0.6400000000000011},{"rt":887.3000000007451,"stimulus":"bees-with-color/bee-A1SF.svg","response":0,"trial_type":"image-button-response","trial_index":89,"time_elapsed":517665,"internal_node_id":"0.0-4.0-0.41","subject_id":"5ccbf31adde97100138a0eb4","study_id":"6197b3f67c2b5cd3b6d9596a","session_id":"6197b9eef073b53ee3a215bf","condition":"contingent","relevant_dimensions":["antennae","pattern"],"bee_group":{"antennae":"A","wings":"X","pattern":"D","legs":"X"},"action":"harvest","summary":"good-harvest","bonus":0.6400000000000011},{"rt":549.8000000007451,"stimulus":"\n                    <p><b>Action: <em>harvest</em></b></p>\n                    <p>This is the bee that you just saw.</p>\n                    <img src=\"bees-with-color/bee-A1SF.svg\" width=\"200\">\n                    <p><span class=\"greenText\"><b>Successful harvest!</b></span><br>Your pay has increased by $0.02. Your bonus pay is now $0.36.</p>\n            ","response":0,"trial_type":"html-button-response","trial_index":90,"time_elapsed":518217,"internal_node_id":"0.0-4.0-1.41","subject_id":"5ccbf31adde97100138a0eb4","study_id":"6197b3f67c2b5cd3b6d9596a","session_id":"6197b9eef073b53ee3a215bf","condition":"contingent","relevant_dimensions":["antennae","pattern"],"bee_group":{"antennae":"A","wings":"X","pattern":"D","legs":"X"},"bonus":0.6400000000000011},{"rt":806,"stimulus":"bees-with-color/bee-B2SF.svg","response":1,"trial_type":"image-button-response","trial_index":91,"time_elapsed":519024,"internal_node_id":"0.0-4.0-0.42","subject_id":"5ccbf31adde97100138a0eb4","study_id":"6197b3f67c2b5cd3b6d9596a","session_id":"6197b9eef073b53ee3a215bf","condition":"contingent","relevant_dimensions":["antennae","pattern"],"bee_group":{"antennae":"A","wings":"X","pattern":"D","legs":"X"},"action":"avoid","summary":"bad-avoid","bonus":0.6400000000000011},{"rt":830.0999999977648,"stimulus":"\n                    <p><b>Action: <em>avoid</em></b></p>\n                    <p>This is the bee that you just saw.</p>\n                    <img src=\"bees-with-color/bee-B2SF.svg\" width=\"200\">\n                    <p><br>Your bonus pay is unchanged, and remains at $0.36.</p>\n            ","response":0,"trial_type":"html-button-response","trial_index":92,"time_elapsed":519856,"internal_node_id":"0.0-4.0-1.42","subject_id":"5ccbf31adde97100138a0eb4","study_id":"6197b3f67c2b5cd3b6d9596a","session_id":"6197b9eef073b53ee3a215bf","condition":"contingent","relevant_dimensions":["antennae","pattern"],"bee_group":{"antennae":"A","wings":"X","pattern":"D","legs":"X"},"bonus":0.6400000000000011},{"rt":646.6000000014901,"stimulus":"bees-with-color/bee-B1SF.svg","response":0,"trial_type":"image-button-response","trial_index":93,"time_elapsed":520504,"internal_node_id":"0.0-4.0-0.43","subject_id":"5ccbf31adde97100138a0eb4","study_id":"6197b3f67c2b5cd3b6d9596a","session_id":"6197b9eef073b53ee3a215bf","condition":"contingent","relevant_dimensions":["antennae","pattern"],"bee_group":{"antennae":"A","wings":"X","pattern":"D","legs":"X"},"action":"harvest","summary":"good-harvest","bonus":0.6400000000000011},{"rt":526.3000000007451,"stimulus":"\n                    <p><b>Action: <em>harvest</em></b></p>\n                    <p>This is the bee that you just saw.</p>\n                    <img src=\"bees-with-color/bee-B1SF.svg\" width=\"200\">\n                    <p><span class=\"greenText\"><b>Successful harvest!</b></span><br>Your pay has increased by $0.02. Your bonus pay is now $0.38.</p>\n            ","response":0,"trial_type":"html-button-response","trial_index":94,"time_elapsed":521032,"internal_node_id":"0.0-4.0-1.43","subject_id":"5ccbf31adde97100138a0eb4","study_id":"6197b3f67c2b5cd3b6d9596a","session_id":"6197b9eef073b53ee3a215bf","condition":"contingent","relevant_dimensions":["antennae","pattern"],"bee_group":{"antennae":"A","wings":"X","pattern":"D","legs":"X"},"bonus":0.6400000000000011},{"rt":783.1000000014901,"stimulus":"bees-with-color/bee-B1DM.svg","response":0,"trial_type":"image-button-response","trial_index":95,"time_elapsed":521816,"internal_node_id":"0.0-4.0-0.44","subject_id":"5ccbf31adde97100138a0eb4","study_id":"6197b3f67c2b5cd3b6d9596a","session_id":"6197b9eef073b53ee3a215bf","condition":"contingent","relevant_dimensions":["antennae","pattern"],"bee_group":{"antennae":"A","wings":"X","pattern":"D","legs":"X"},"action":"harvest","summary":"good-harvest","bonus":0.6400000000000011},{"rt":589.9000000022352,"stimulus":"\n                    <p><b>Action: <em>harvest</em></b></p>\n                    <p>This is the bee that you just saw.</p>\n                    <img src=\"bees-with-color/bee-B1DM.svg\" width=\"200\">\n                    <p><span class=\"greenText\"><b>Successful harvest!</b></span><br>Your pay has increased by $0.02. Your bonus pay is now $0.40.</p>\n            ","response":0,"trial_type":"html-button-response","trial_index":96,"time_elapsed":522408,"internal_node_id":"0.0-4.0-1.44","subject_id":"5ccbf31adde97100138a0eb4","study_id":"6197b3f67c2b5cd3b6d9596a","session_id":"6197b9eef073b53ee3a215bf","condition":"contingent","relevant_dimensions":["antennae","pattern"],"bee_group":{"antennae":"A","wings":"X","pattern":"D","legs":"X"},"bonus":0.6400000000000011},{"rt":2702.2000000029802,"stimulus":"bees-with-color/bee-A2SF.svg","response":0,"trial_type":"image-button-response","trial_index":97,"time_elapsed":525112,"internal_node_id":"0.0-4.0-0.45","subject_id":"5ccbf31adde97100138a0eb4","study_id":"6197b3f67c2b5cd3b6d9596a","session_id":"6197b9eef073b53ee3a215bf","condition":"contingent","relevant_dimensions":["antennae","pattern"],"bee_group":{"antennae":"A","wings":"X","pattern":"D","legs":"X"},"action":"harvest","summary":"good-harvest","bonus":0.6400000000000011},{"rt":878.7999999970198,"stimulus":"\n                    <p><b>Action: <em>harvest</em></b></p>\n                    <p>This is the bee that you just saw.</p>\n                    <img src=\"bees-with-color/bee-A2SF.svg\" width=\"200\">\n                    <p><span class=\"greenText\"><b>Successful harvest!</b></span><br>Your pay has increased by $0.02. Your bonus pay is now $0.42.</p>\n            ","response":0,"trial_type":"html-button-response","trial_index":98,"time_elapsed":525992,"internal_node_id":"0.0-4.0-1.45","subject_id":"5ccbf31adde97100138a0eb4","study_id":"6197b3f67c2b5cd3b6d9596a","session_id":"6197b9eef073b53ee3a215bf","condition":"contingent","relevant_dimensions":["antennae","pattern"],"bee_group":{"antennae":"A","wings":"X","pattern":"D","legs":"X"},"bonus":0.6400000000000011},{"rt":1086.5,"stimulus":"bees-with-color/bee-A2DM.svg","response":1,"trial_type":"image-button-response","trial_index":99,"time_elapsed":527080,"internal_node_id":"0.0-4.0-0.46","subject_id":"5ccbf31adde97100138a0eb4","study_id":"6197b3f67c2b5cd3b6d9596a","session_id":"6197b9eef073b53ee3a215bf","condition":"contingent","relevant_dimensions":["antennae","pattern"],"bee_group":{"antennae":"A","wings":"X","pattern":"D","legs":"X"},"action":"avoid","summary":"good-avoid","bonus":0.6400000000000011},{"rt":790.5,"stimulus":"\n                    <p><b>Action: <em>avoid</em></b></p>\n                    <p>This is the bee that you just saw.</p>\n                    <img src=\"bees-with-color/bee-A2DM.svg\" width=\"200\">\n                    <p><br>Your bonus pay is unchanged, and remains at $0.42.</p>\n            ","response":0,"trial_type":"html-button-response","trial_index":100,"time_elapsed":527872,"internal_node_id":"0.0-4.0-1.46","subject_id":"5ccbf31adde97100138a0eb4","study_id":"6197b3f67c2b5cd3b6d9596a","session_id":"6197b9eef073b53ee3a215bf","condition":"contingent","relevant_dimensions":["antennae","pattern"],"bee_group":{"antennae":"A","wings":"X","pattern":"D","legs":"X"},"bonus":0.6400000000000011},{"rt":462.5,"stimulus":"bees-with-color/bee-A1DM.svg","response":0,"trial_type":"image-button-response","trial_index":101,"time_elapsed":528336,"internal_node_id":"0.0-4.0-0.47","subject_id":"5ccbf31adde97100138a0eb4","study_id":"6197b3f67c2b5cd3b6d9596a","session_id":"6197b9eef073b53ee3a215bf","condition":"contingent","relevant_dimensions":["antennae","pattern"],"bee_group":{"antennae":"A","wings":"X","pattern":"D","legs":"X"},"action":"harvest","summary":"bad-harvest","bonus":0.6400000000000011},{"rt":1054.5,"stimulus":"\n                    <p><b>Action: <em>harvest</em></b></p>\n                    <p>This is the bee that you just saw.</p>\n                    <img src=\"bees-with-color/bee-A1DM.svg\" width=\"200\">\n                    <p><span class=\"redText\">Bad choice, the bee was angry.</span><br><b>You have been stung!</b><br>Your pay has been decreased by $0.10. Your bonus pay is now $0.32.</p>\n            ","response":0,"trial_type":"html-button-response","trial_index":102,"time_elapsed":529392,"internal_node_id":"0.0-4.0-1.47","subject_id":"5ccbf31adde97100138a0eb4","study_id":"6197b3f67c2b5cd3b6d9596a","session_id":"6197b9eef073b53ee3a215bf","condition":"contingent","relevant_dimensions":["antennae","pattern"],"bee_group":{"antennae":"A","wings":"X","pattern":"D","legs":"X"},"bonus":0.6400000000000011},{"rt":455,"stimulus":"bees-with-color/bee-A1SM.svg","response":0,"trial_type":"image-button-response","trial_index":103,"time_elapsed":529848,"internal_node_id":"0.0-4.0-0.48","subject_id":"5ccbf31adde97100138a0eb4","study_id":"6197b3f67c2b5cd3b6d9596a","session_id":"6197b9eef073b53ee3a215bf","condition":"contingent","relevant_dimensions":["antennae","pattern"],"bee_group":{"antennae":"A","wings":"X","pattern":"D","legs":"X"},"action":"harvest","summary":"good-harvest","bonus":0.6400000000000011},{"rt":454.3999999985099,"stimulus":"\n                    <p><b>Action: <em>harvest</em></b></p>\n                    <p>This is the bee that you just saw.</p>\n                    <img src=\"bees-with-color/bee-A1SM.svg\" width=\"200\">\n                    <p><span class=\"greenText\"><b>Successful harvest!</b></span><br>Your pay has increased by $0.02. Your bonus pay is now $0.34.</p>\n            ","response":0,"trial_type":"html-button-response","trial_index":104,"time_elapsed":530304,"internal_node_id":"0.0-4.0-1.48","subject_id":"5ccbf31adde97100138a0eb4","study_id":"6197b3f67c2b5cd3b6d9596a","session_id":"6197b9eef073b53ee3a215bf","condition":"contingent","relevant_dimensions":["antennae","pattern"],"bee_group":{"antennae":"A","wings":"X","pattern":"D","legs":"X"},"bonus":0.6400000000000011},{"rt":382.80000000074506,"stimulus":"bees-with-color/bee-B1DF.svg","response":0,"trial_type":"image-button-response","trial_index":105,"time_elapsed":530688,"internal_node_id":"0.0-4.0-0.49","subject_id":"5ccbf31adde97100138a0eb4","study_id":"6197b3f67c2b5cd3b6d9596a","session_id":"6197b9eef073b53ee3a215bf","condition":"contingent","relevant_dimensions":["antennae","pattern"],"bee_group":{"antennae":"A","wings":"X","pattern":"D","legs":"X"},"action":"harvest","summary":"good-harvest","bonus":0.6400000000000011},{"rt":407.1000000014901,"stimulus":"\n                    <p><b>Action: <em>harvest</em></b></p>\n                    <p>This is the bee that you just saw.</p>\n                    <img src=\"bees-with-color/bee-B1DF.svg\" width=\"200\">\n                    <p><span class=\"greenText\"><b>Successful harvest!</b></span><br>Your pay has increased by $0.02. Your bonus pay is now $0.36.</p>\n            ","response":0,"trial_type":"html-button-response","trial_index":106,"time_elapsed":531096,"internal_node_id":"0.0-4.0-1.49","subject_id":"5ccbf31adde97100138a0eb4","study_id":"6197b3f67c2b5cd3b6d9596a","session_id":"6197b9eef073b53ee3a215bf","condition":"contingent","relevant_dimensions":["antennae","pattern"],"bee_group":{"antennae":"A","wings":"X","pattern":"D","legs":"X"},"bonus":0.6400000000000011},{"rt":342.69999999925494,"stimulus":"bees-with-color/bee-A1DM.svg","response":0,"trial_type":"image-button-response","trial_index":107,"time_elapsed":531440,"internal_node_id":"0.0-4.0-0.50","subject_id":"5ccbf31adde97100138a0eb4","study_id":"6197b3f67c2b5cd3b6d9596a","session_id":"6197b9eef073b53ee3a215bf","condition":"contingent","relevant_dimensions":["antennae","pattern"],"bee_group":{"antennae":"A","wings":"X","pattern":"D","legs":"X"},"action":"harvest","summary":"bad-harvest","bonus":0.6400000000000011},{"rt":870.8999999985099,"stimulus":"\n                    <p><b>Action: <em>harvest</em></b></p>\n                    <p>This is the bee that you just saw.</p>\n                    <img src=\"bees-with-color/bee-A1DM.svg\" width=\"200\">\n                    <p><span class=\"redText\">Bad choice, the bee was angry.</span><br><b>You have been stung!</b><br>Your pay has been decreased by $0.10. Your bonus pay is now $0.26.</p>\n            ","response":0,"trial_type":"html-button-response","trial_index":108,"time_elapsed":532312,"internal_node_id":"0.0-4.0-1.50","subject_id":"5ccbf31adde97100138a0eb4","study_id":"6197b3f67c2b5cd3b6d9596a","session_id":"6197b9eef073b53ee3a215bf","condition":"contingent","relevant_dimensions":["antennae","pattern"],"bee_group":{"antennae":"A","wings":"X","pattern":"D","legs":"X"},"bonus":0.6400000000000011},{"rt":342.80000000074506,"stimulus":"bees-with-color/bee-B1DM.svg","response":0,"trial_type":"image-button-response","trial_index":109,"time_elapsed":532656,"internal_node_id":"0.0-4.0-0.51","subject_id":"5ccbf31adde97100138a0eb4","study_id":"6197b3f67c2b5cd3b6d9596a","session_id":"6197b9eef073b53ee3a215bf","condition":"contingent","relevant_dimensions":["antennae","pattern"],"bee_group":{"antennae":"A","wings":"X","pattern":"D","legs":"X"},"action":"harvest","summary":"good-harvest","bonus":0.6400000000000011},{"rt":518.8999999985099,"stimulus":"\n                    <p><b>Action: <em>harvest</em></b></p>\n                    <p>This is the bee that you just saw.</p>\n                    <img src=\"bees-with-color/bee-B1DM.svg\" width=\"200\">\n                    <p><span class=\"greenText\"><b>Successful harvest!</b></span><br>Your pay has increased by $0.02. Your bonus pay is now $0.28.</p>\n            ","response":0,"trial_type":"html-button-response","trial_index":110,"time_elapsed":533176,"internal_node_id":"0.0-4.0-1.51","subject_id":"5ccbf31adde97100138a0eb4","study_id":"6197b3f67c2b5cd3b6d9596a","session_id":"6197b9eef073b53ee3a215bf","condition":"contingent","relevant_dimensions":["antennae","pattern"],"bee_group":{"antennae":"A","wings":"X","pattern":"D","legs":"X"},"bonus":0.6400000000000011},{"rt":358.6000000014901,"stimulus":"bees-with-color/bee-B2DM.svg","response":0,"trial_type":"image-button-response","trial_index":111,"time_elapsed":533536,"internal_node_id":"0.0-4.0-0.52","subject_id":"5ccbf31adde97100138a0eb4","study_id":"6197b3f67c2b5cd3b6d9596a","session_id":"6197b9eef073b53ee3a215bf","condition":"contingent","relevant_dimensions":["antennae","pattern"],"bee_group":{"antennae":"A","wings":"X","pattern":"D","legs":"X"},"action":"harvest","summary":"good-harvest","bonus":0.6400000000000011},{"rt":478.8999999985099,"stimulus":"\n                    <p><b>Action: <em>harvest</em></b></p>\n                    <p>This is the bee that you just saw.</p>\n                    <img src=\"bees-with-color/bee-B2DM.svg\" width=\"200\">\n                    <p><span class=\"greenText\"><b>Successful harvest!</b></span><br>Your pay has increased by $0.02. Your bonus pay is now $0.30.</p>\n            ","response":0,"trial_type":"html-button-response","trial_index":112,"time_elapsed":534016,"internal_node_id":"0.0-4.0-1.52","subject_id":"5ccbf31adde97100138a0eb4","study_id":"6197b3f67c2b5cd3b6d9596a","session_id":"6197b9eef073b53ee3a215bf","condition":"contingent","relevant_dimensions":["antennae","pattern"],"bee_group":{"antennae":"A","wings":"X","pattern":"D","legs":"X"},"bonus":0.6400000000000011},{"rt":1031.1000000014901,"stimulus":"bees-with-color/bee-A1DF.svg","response":1,"trial_type":"image-button-response","trial_index":113,"time_elapsed":535048,"internal_node_id":"0.0-4.0-0.53","subject_id":"5ccbf31adde97100138a0eb4","study_id":"6197b3f67c2b5cd3b6d9596a","session_id":"6197b9eef073b53ee3a215bf","condition":"contingent","relevant_dimensions":["antennae","pattern"],"bee_group":{"antennae":"A","wings":"X","pattern":"D","legs":"X"},"action":"avoid","summary":"good-avoid","bonus":0.6400000000000011},{"rt":414.8999999985099,"stimulus":"\n                    <p><b>Action: <em>avoid</em></b></p>\n                    <p>This is the bee that you just saw.</p>\n                    <img src=\"bees-with-color/bee-A1DF.svg\" width=\"200\">\n                    <p><br>Your bonus pay is unchanged, and remains at $0.30.</p>\n            ","response":0,"trial_type":"html-button-response","trial_index":114,"time_elapsed":535464,"internal_node_id":"0.0-4.0-1.53","subject_id":"5ccbf31adde97100138a0eb4","study_id":"6197b3f67c2b5cd3b6d9596a","session_id":"6197b9eef073b53ee3a215bf","condition":"contingent","relevant_dimensions":["antennae","pattern"],"bee_group":{"antennae":"A","wings":"X","pattern":"D","legs":"X"},"bonus":0.6400000000000011},{"rt":958.5999999977648,"stimulus":"bees-with-color/bee-B2SF.svg","response":0,"trial_type":"image-button-response","trial_index":115,"time_elapsed":536424,"internal_node_id":"0.0-4.0-0.54","subject_id":"5ccbf31adde97100138a0eb4","study_id":"6197b3f67c2b5cd3b6d9596a","session_id":"6197b9eef073b53ee3a215bf","condition":"contingent","relevant_dimensions":["antennae","pattern"],"bee_group":{"antennae":"A","wings":"X","pattern":"D","legs":"X"},"action":"harvest","summary":"good-harvest","bonus":0.6400000000000011},{"rt":486.69999999925494,"stimulus":"\n                    <p><b>Action: <em>harvest</em></b></p>\n                    <p>This is the bee that you just saw.</p>\n                    <img src=\"bees-with-color/bee-B2SF.svg\" width=\"200\">\n                    <p><span class=\"greenText\"><b>Successful harvest!</b></span><br>Your pay has increased by $0.02. Your bonus pay is now $0.32.</p>\n            ","response":0,"trial_type":"html-button-response","trial_index":116,"time_elapsed":536912,"internal_node_id":"0.0-4.0-1.54","subject_id":"5ccbf31adde97100138a0eb4","study_id":"6197b3f67c2b5cd3b6d9596a","session_id":"6197b9eef073b53ee3a215bf","condition":"contingent","relevant_dimensions":["antennae","pattern"],"bee_group":{"antennae":"A","wings":"X","pattern":"D","legs":"X"},"bonus":0.6400000000000011},{"rt":758.8000000007451,"stimulus":"bees-with-color/bee-B2DF.svg","response":0,"trial_type":"image-button-response","trial_index":117,"time_elapsed":537672,"internal_node_id":"0.0-4.0-0.55","subject_id":"5ccbf31adde97100138a0eb4","study_id":"6197b3f67c2b5cd3b6d9596a","session_id":"6197b9eef073b53ee3a215bf","condition":"contingent","relevant_dimensions":["antennae","pattern"],"bee_group":{"antennae":"A","wings":"X","pattern":"D","legs":"X"},"action":"harvest","summary":"good-harvest","bonus":0.6400000000000011},{"rt":478.69999999925494,"stimulus":"\n                    <p><b>Action: <em>harvest</em></b></p>\n                    <p>This is the bee that you just saw.</p>\n                    <img src=\"bees-with-color/bee-B2DF.svg\" width=\"200\">\n                    <p><span class=\"greenText\"><b>Successful harvest!</b></span><br>Your pay has increased by $0.02. Your bonus pay is now $0.34.</p>\n            ","response":0,"trial_type":"html-button-response","trial_index":118,"time_elapsed":538152,"internal_node_id":"0.0-4.0-1.55","subject_id":"5ccbf31adde97100138a0eb4","study_id":"6197b3f67c2b5cd3b6d9596a","session_id":"6197b9eef073b53ee3a215bf","condition":"contingent","relevant_dimensions":["antennae","pattern"],"bee_group":{"antennae":"A","wings":"X","pattern":"D","legs":"X"},"bonus":0.6400000000000011},{"rt":1126.800000000745,"stimulus":"bees-with-color/bee-B1SM.svg","response":0,"trial_type":"image-button-response","trial_index":119,"time_elapsed":539280,"internal_node_id":"0.0-4.0-0.56","subject_id":"5ccbf31adde97100138a0eb4","study_id":"6197b3f67c2b5cd3b6d9596a","session_id":"6197b9eef073b53ee3a215bf","condition":"contingent","relevant_dimensions":["antennae","pattern"],"bee_group":{"antennae":"A","wings":"X","pattern":"D","legs":"X"},"action":"harvest","summary":"good-harvest","bonus":0.6400000000000011},{"rt":942.5,"stimulus":"\n                    <p><b>Action: <em>harvest</em></b></p>\n                    <p>This is the bee that you just saw.</p>\n                    <img src=\"bees-with-color/bee-B1SM.svg\" width=\"200\">\n                    <p><span class=\"greenText\"><b>Successful harvest!</b></span><br>Your pay has increased by $0.02. Your bonus pay is now $0.36.</p>\n            ","response":0,"trial_type":"html-button-response","trial_index":120,"time_elapsed":540224,"internal_node_id":"0.0-4.0-1.56","subject_id":"5ccbf31adde97100138a0eb4","study_id":"6197b3f67c2b5cd3b6d9596a","session_id":"6197b9eef073b53ee3a215bf","condition":"contingent","relevant_dimensions":["antennae","pattern"],"bee_group":{"antennae":"A","wings":"X","pattern":"D","legs":"X"},"bonus":0.6400000000000011},{"rt":854.6000000014901,"stimulus":"bees-with-color/bee-A2SM.svg","response":1,"trial_type":"image-button-response","trial_index":121,"time_elapsed":541080,"internal_node_id":"0.0-4.0-0.57","subject_id":"5ccbf31adde97100138a0eb4","study_id":"6197b3f67c2b5cd3b6d9596a","session_id":"6197b9eef073b53ee3a215bf","condition":"contingent","relevant_dimensions":["antennae","pattern"],"bee_group":{"antennae":"A","wings":"X","pattern":"D","legs":"X"},"action":"avoid","summary":"bad-avoid","bonus":0.6400000000000011},{"rt":470,"stimulus":"\n                    <p><b>Action: <em>avoid</em></b></p>\n                    <p>This is the bee that you just saw.</p>\n                    <img src=\"bees-with-color/bee-A2SM.svg\" width=\"200\">\n                    <p><br>Your bonus pay is unchanged, and remains at $0.36.</p>\n            ","response":0,"trial_type":"html-button-response","trial_index":122,"time_elapsed":541552,"internal_node_id":"0.0-4.0-1.57","subject_id":"5ccbf31adde97100138a0eb4","study_id":"6197b3f67c2b5cd3b6d9596a","session_id":"6197b9eef073b53ee3a215bf","condition":"contingent","relevant_dimensions":["antennae","pattern"],"bee_group":{"antennae":"A","wings":"X","pattern":"D","legs":"X"},"bonus":0.6400000000000011},{"rt":486.9000000022352,"stimulus":"bees-with-color/bee-B2SM.svg","response":0,"trial_type":"image-button-response","trial_index":123,"time_elapsed":542040,"internal_node_id":"0.0-4.0-0.58","subject_id":"5ccbf31adde97100138a0eb4","study_id":"6197b3f67c2b5cd3b6d9596a","session_id":"6197b9eef073b53ee3a215bf","condition":"contingent","relevant_dimensions":["antennae","pattern"],"bee_group":{"antennae":"A","wings":"X","pattern":"D","legs":"X"},"action":"harvest","summary":"good-harvest","bonus":0.6400000000000011},{"rt":526.7999999970198,"stimulus":"\n                    <p><b>Action: <em>harvest</em></b></p>\n                    <p>This is the bee that you just saw.</p>\n                    <img src=\"bees-with-color/bee-B2SM.svg\" width=\"200\">\n                    <p><span class=\"greenText\"><b>Successful harvest!</b></span><br>Your pay has increased by $0.02. Your bonus pay is now $0.38.</p>\n            ","response":0,"trial_type":"html-button-response","trial_index":124,"time_elapsed":542568,"internal_node_id":"0.0-4.0-1.58","subject_id":"5ccbf31adde97100138a0eb4","study_id":"6197b3f67c2b5cd3b6d9596a","session_id":"6197b9eef073b53ee3a215bf","condition":"contingent","relevant_dimensions":["antennae","pattern"],"bee_group":{"antennae":"A","wings":"X","pattern":"D","legs":"X"},"bonus":0.6400000000000011},{"rt":1206.8999999985099,"stimulus":"bees-with-color/bee-A1SF.svg","response":0,"trial_type":"image-button-response","trial_index":125,"time_elapsed":543776,"internal_node_id":"0.0-4.0-0.59","subject_id":"5ccbf31adde97100138a0eb4","study_id":"6197b3f67c2b5cd3b6d9596a","session_id":"6197b9eef073b53ee3a215bf","condition":"contingent","relevant_dimensions":["antennae","pattern"],"bee_group":{"antennae":"A","wings":"X","pattern":"D","legs":"X"},"action":"harvest","summary":"good-harvest","bonus":0.6400000000000011},{"rt":510.5,"stimulus":"\n                    <p><b>Action: <em>harvest</em></b></p>\n                    <p>This is the bee that you just saw.</p>\n                    <img src=\"bees-with-color/bee-A1SF.svg\" width=\"200\">\n                    <p><span class=\"greenText\"><b>Successful harvest!</b></span><br>Your pay has increased by $0.02. Your bonus pay is now $0.40.</p>\n            ","response":0,"trial_type":"html-button-response","trial_index":126,"time_elapsed":544288,"internal_node_id":"0.0-4.0-1.59","subject_id":"5ccbf31adde97100138a0eb4","study_id":"6197b3f67c2b5cd3b6d9596a","session_id":"6197b9eef073b53ee3a215bf","condition":"contingent","relevant_dimensions":["antennae","pattern"],"bee_group":{"antennae":"A","wings":"X","pattern":"D","legs":"X"},"bonus":0.6400000000000011},{"rt":3078.89999999851,"stimulus":"bees-with-color/bee-A2DF.svg","response":1,"trial_type":"image-button-response","trial_index":127,"time_elapsed":547368,"internal_node_id":"0.0-4.0-0.60","subject_id":"5ccbf31adde97100138a0eb4","study_id":"6197b3f67c2b5cd3b6d9596a","session_id":"6197b9eef073b53ee3a215bf","condition":"contingent","relevant_dimensions":["antennae","pattern"],"bee_group":{"antennae":"A","wings":"X","pattern":"D","legs":"X"},"action":"avoid","summary":"good-avoid","bonus":0.6400000000000011},{"rt":518.6999999992549,"stimulus":"\n                    <p><b>Action: <em>avoid</em></b></p>\n                    <p>This is the bee that you just saw.</p>\n                    <img src=\"bees-with-color/bee-A2DF.svg\" width=\"200\">\n                    <p><br>Your bonus pay is unchanged, and remains at $0.40.</p>\n            ","response":0,"trial_type":"html-button-response","trial_index":128,"time_elapsed":547888,"internal_node_id":"0.0-4.0-1.60","subject_id":"5ccbf31adde97100138a0eb4","study_id":"6197b3f67c2b5cd3b6d9596a","session_id":"6197b9eef073b53ee3a215bf","condition":"contingent","relevant_dimensions":["antennae","pattern"],"bee_group":{"antennae":"A","wings":"X","pattern":"D","legs":"X"},"bonus":0.6400000000000011},{"rt":502.5,"stimulus":"bees-with-color/bee-A2DM.svg","response":0,"trial_type":"image-button-response","trial_index":129,"time_elapsed":548392,"internal_node_id":"0.0-4.0-0.61","subject_id":"5ccbf31adde97100138a0eb4","study_id":"6197b3f67c2b5cd3b6d9596a","session_id":"6197b9eef073b53ee3a215bf","condition":"contingent","relevant_dimensions":["antennae","pattern"],"bee_group":{"antennae":"A","wings":"X","pattern":"D","legs":"X"},"action":"harvest","summary":"bad-harvest","bonus":0.6400000000000011},{"rt":1334.1000000014901,"stimulus":"\n                    <p><b>Action: <em>harvest</em></b></p>\n                    <p>This is the bee that you just saw.</p>\n                    <img src=\"bees-with-color/bee-A2DM.svg\" width=\"200\">\n                    <p><span class=\"redText\">Bad choice, the bee was angry.</span><br><b>You have been stung!</b><br>Your pay has been decreased by $0.10. Your bonus pay is now $0.30.</p>\n            ","response":0,"trial_type":"html-button-response","trial_index":130,"time_elapsed":549728,"internal_node_id":"0.0-4.0-1.61","subject_id":"5ccbf31adde97100138a0eb4","study_id":"6197b3f67c2b5cd3b6d9596a","session_id":"6197b9eef073b53ee3a215bf","condition":"contingent","relevant_dimensions":["antennae","pattern"],"bee_group":{"antennae":"A","wings":"X","pattern":"D","legs":"X"},"bonus":0.6400000000000011},{"rt":486.1000000014901,"stimulus":"bees-with-color/bee-A2SF.svg","response":0,"trial_type":"image-button-response","trial_index":131,"time_elapsed":550216,"internal_node_id":"0.0-4.0-0.62","subject_id":"5ccbf31adde97100138a0eb4","study_id":"6197b3f67c2b5cd3b6d9596a","session_id":"6197b9eef073b53ee3a215bf","condition":"contingent","relevant_dimensions":["antennae","pattern"],"bee_group":{"antennae":"A","wings":"X","pattern":"D","legs":"X"},"action":"harvest","summary":"good-harvest","bonus":0.6400000000000011},{"rt":462.3999999985099,"stimulus":"\n                    <p><b>Action: <em>harvest</em></b></p>\n                    <p>This is the bee that you just saw.</p>\n                    <img src=\"bees-with-color/bee-A2SF.svg\" width=\"200\">\n                    <p><span class=\"greenText\"><b>Successful harvest!</b></span><br>Your pay has increased by $0.02. Your bonus pay is now $0.32.</p>\n            ","response":0,"trial_type":"html-button-response","trial_index":132,"time_elapsed":550680,"internal_node_id":"0.0-4.0-1.62","subject_id":"5ccbf31adde97100138a0eb4","study_id":"6197b3f67c2b5cd3b6d9596a","session_id":"6197b9eef073b53ee3a215bf","condition":"contingent","relevant_dimensions":["antennae","pattern"],"bee_group":{"antennae":"A","wings":"X","pattern":"D","legs":"X"},"bonus":0.6400000000000011},{"rt":526.8000000007451,"stimulus":"bees-with-color/bee-B1SF.svg","response":0,"trial_type":"image-button-response","trial_index":133,"time_elapsed":551208,"internal_node_id":"0.0-4.0-0.63","subject_id":"5ccbf31adde97100138a0eb4","study_id":"6197b3f67c2b5cd3b6d9596a","session_id":"6197b9eef073b53ee3a215bf","condition":"contingent","relevant_dimensions":["antennae","pattern"],"bee_group":{"antennae":"A","wings":"X","pattern":"D","legs":"X"},"action":"harvest","summary":"good-harvest","bonus":0.6400000000000011},{"rt":414.5999999977648,"stimulus":"\n                    <p><b>Action: <em>harvest</em></b></p>\n                    <p>This is the bee that you just saw.</p>\n                    <img src=\"bees-with-color/bee-B1SF.svg\" width=\"200\">\n                    <p><span class=\"greenText\"><b>Successful harvest!</b></span><br>Your pay has increased by $0.02. Your bonus pay is now $0.34.</p>\n            ","response":0,"trial_type":"html-button-response","trial_index":134,"time_elapsed":551624,"internal_node_id":"0.0-4.0-1.63","subject_id":"5ccbf31adde97100138a0eb4","study_id":"6197b3f67c2b5cd3b6d9596a","session_id":"6197b9eef073b53ee3a215bf","condition":"contingent","relevant_dimensions":["antennae","pattern"],"bee_group":{"antennae":"A","wings":"X","pattern":"D","legs":"X"},"bonus":0.6400000000000011},{"rt":5843.70000000298,"stimulus":"You have completed the first part of this experiment.<br><br>You will now begin a shorter second part, in which you will receive no feedback.<br>The same rules regarding bonus pay apply.<br><br>Press any key to begin.","response":"enter","trial_type":"html-keyboard-response","trial_index":135,"time_elapsed":557469,"internal_node_id":"0.0-5.0","subject_id":"5ccbf31adde97100138a0eb4","study_id":"6197b3f67c2b5cd3b6d9596a","session_id":"6197b9eef073b53ee3a215bf","condition":"contingent","relevant_dimensions":["antennae","pattern"],"bee_group":{"antennae":"A","wings":"X","pattern":"D","legs":"X"},"bonus":0.6400000000000011},{"rt":6877.20000000298,"stimulus":"bees-with-color/bee-A2SM.svg","response":0,"trial_type":"image-button-response","trial_index":136,"time_elapsed":564360,"internal_node_id":"0.0-6.0-0.0","subject_id":"5ccbf31adde97100138a0eb4","study_id":"6197b3f67c2b5cd3b6d9596a","session_id":"6197b9eef073b53ee3a215bf","condition":"contingent","relevant_dimensions":["antennae","pattern"],"bee_group":{"antennae":"A","wings":"X","pattern":"D","legs":"X"},"bonus":0.6400000000000011},{"rt":6180.300000000745,"stimulus":"bees-with-color/bee-A1DF.svg","response":1,"trial_type":"image-button-response","trial_index":137,"time_elapsed":570544,"internal_node_id":"0.0-6.0-0.1","subject_id":"5ccbf31adde97100138a0eb4","study_id":"6197b3f67c2b5cd3b6d9596a","session_id":"6197b9eef073b53ee3a215bf","condition":"contingent","relevant_dimensions":["antennae","pattern"],"bee_group":{"antennae":"A","wings":"X","pattern":"D","legs":"X"},"bonus":0.6400000000000011},{"rt":845.2999999970198,"stimulus":"bees-with-color/bee-A2SF.svg","response":0,"trial_type":"image-button-response","trial_index":138,"time_elapsed":571392,"internal_node_id":"0.0-6.0-0.2","subject_id":"5ccbf31adde97100138a0eb4","study_id":"6197b3f67c2b5cd3b6d9596a","session_id":"6197b9eef073b53ee3a215bf","condition":"contingent","relevant_dimensions":["antennae","pattern"],"bee_group":{"antennae":"A","wings":"X","pattern":"D","legs":"X"},"bonus":0.6400000000000011},{"rt":877.8000000007451,"stimulus":"bees-with-color/bee-B1DF.svg","response":1,"trial_type":"image-button-response","trial_index":139,"time_elapsed":572272,"internal_node_id":"0.0-6.0-0.3","subject_id":"5ccbf31adde97100138a0eb4","study_id":"6197b3f67c2b5cd3b6d9596a","session_id":"6197b9eef073b53ee3a215bf","condition":"contingent","relevant_dimensions":["antennae","pattern"],"bee_group":{"antennae":"A","wings":"X","pattern":"D","legs":"X"},"bonus":0.6400000000000011},{"rt":669.4000000022352,"stimulus":"bees-with-color/bee-B2SM.svg","response":0,"trial_type":"image-button-response","trial_index":140,"time_elapsed":572943,"internal_node_id":"0.0-6.0-0.4","subject_id":"5ccbf31adde97100138a0eb4","study_id":"6197b3f67c2b5cd3b6d9596a","session_id":"6197b9eef073b53ee3a215bf","condition":"contingent","relevant_dimensions":["antennae","pattern"],"bee_group":{"antennae":"A","wings":"X","pattern":"D","legs":"X"},"bonus":0.6400000000000011},{"rt":1309.6000000014901,"stimulus":"bees-with-color/bee-B1SF.svg","response":0,"trial_type":"image-button-response","trial_index":141,"time_elapsed":574256,"internal_node_id":"0.0-6.0-0.5","subject_id":"5ccbf31adde97100138a0eb4","study_id":"6197b3f67c2b5cd3b6d9596a","session_id":"6197b9eef073b53ee3a215bf","condition":"contingent","relevant_dimensions":["antennae","pattern"],"bee_group":{"antennae":"A","wings":"X","pattern":"D","legs":"X"},"bonus":0.6400000000000011},{"rt":485.69999999925494,"stimulus":"bees-with-color/bee-B1SM.svg","response":1,"trial_type":"image-button-response","trial_index":142,"time_elapsed":574744,"internal_node_id":"0.0-6.0-0.6","subject_id":"5ccbf31adde97100138a0eb4","study_id":"6197b3f67c2b5cd3b6d9596a","session_id":"6197b9eef073b53ee3a215bf","condition":"contingent","relevant_dimensions":["antennae","pattern"],"bee_group":{"antennae":"A","wings":"X","pattern":"D","legs":"X"},"bonus":0.6400000000000011},{"rt":1717,"stimulus":"bees-with-color/bee-A2DM.svg","response":1,"trial_type":"image-button-response","trial_index":143,"time_elapsed":576464,"internal_node_id":"0.0-6.0-0.7","subject_id":"5ccbf31adde97100138a0eb4","study_id":"6197b3f67c2b5cd3b6d9596a","session_id":"6197b9eef073b53ee3a215bf","condition":"contingent","relevant_dimensions":["antennae","pattern"],"bee_group":{"antennae":"A","wings":"X","pattern":"D","legs":"X"},"bonus":0.6400000000000011},{"rt":1732.800000000745,"stimulus":"bees-with-color/bee-B2DM.svg","response":1,"trial_type":"image-button-response","trial_index":144,"time_elapsed":578199,"internal_node_id":"0.0-6.0-0.8","subject_id":"5ccbf31adde97100138a0eb4","study_id":"6197b3f67c2b5cd3b6d9596a","session_id":"6197b9eef073b53ee3a215bf","condition":"contingent","relevant_dimensions":["antennae","pattern"],"bee_group":{"antennae":"A","wings":"X","pattern":"D","legs":"X"},"bonus":0.6400000000000011},{"rt":558.3999999985099,"stimulus":"bees-with-color/bee-B2SF.svg","response":0,"trial_type":"image-button-response","trial_index":145,"time_elapsed":578759,"internal_node_id":"0.0-6.0-0.9","subject_id":"5ccbf31adde97100138a0eb4","study_id":"6197b3f67c2b5cd3b6d9596a","session_id":"6197b9eef073b53ee3a215bf","condition":"contingent","relevant_dimensions":["antennae","pattern"],"bee_group":{"antennae":"A","wings":"X","pattern":"D","legs":"X"},"bonus":0.6400000000000011},{"rt":1221.800000000745,"stimulus":"bees-with-color/bee-A1DM.svg","response":1,"trial_type":"image-button-response","trial_index":146,"time_elapsed":579983,"internal_node_id":"0.0-6.0-0.10","subject_id":"5ccbf31adde97100138a0eb4","study_id":"6197b3f67c2b5cd3b6d9596a","session_id":"6197b9eef073b53ee3a215bf","condition":"contingent","relevant_dimensions":["antennae","pattern"],"bee_group":{"antennae":"A","wings":"X","pattern":"D","legs":"X"},"bonus":0.6400000000000011},{"rt":645.6999999992549,"stimulus":"bees-with-color/bee-A1SM.svg","response":0,"trial_type":"image-button-response","trial_index":147,"time_elapsed":580631,"internal_node_id":"0.0-6.0-0.11","subject_id":"5ccbf31adde97100138a0eb4","study_id":"6197b3f67c2b5cd3b6d9596a","session_id":"6197b9eef073b53ee3a215bf","condition":"contingent","relevant_dimensions":["antennae","pattern"],"bee_group":{"antennae":"A","wings":"X","pattern":"D","legs":"X"},"bonus":0.6400000000000011},{"rt":838.6000000014901,"stimulus":"bees-with-color/bee-B1DM.svg","response":1,"trial_type":"image-button-response","trial_index":148,"time_elapsed":581471,"internal_node_id":"0.0-6.0-0.12","subject_id":"5ccbf31adde97100138a0eb4","study_id":"6197b3f67c2b5cd3b6d9596a","session_id":"6197b9eef073b53ee3a215bf","condition":"contingent","relevant_dimensions":["antennae","pattern"],"bee_group":{"antennae":"A","wings":"X","pattern":"D","legs":"X"},"bonus":0.6400000000000011},{"rt":910.1999999992549,"stimulus":"bees-with-color/bee-B2DF.svg","response":1,"trial_type":"image-button-response","trial_index":149,"time_elapsed":582383,"internal_node_id":"0.0-6.0-0.13","subject_id":"5ccbf31adde97100138a0eb4","study_id":"6197b3f67c2b5cd3b6d9596a","session_id":"6197b9eef073b53ee3a215bf","condition":"contingent","relevant_dimensions":["antennae","pattern"],"bee_group":{"antennae":"A","wings":"X","pattern":"D","legs":"X"},"bonus":0.6400000000000011},{"rt":518.4000000022352,"stimulus":"bees-with-color/bee-A1SF.svg","response":0,"trial_type":"image-button-response","trial_index":150,"time_elapsed":582904,"internal_node_id":"0.0-6.0-0.14","subject_id":"5ccbf31adde97100138a0eb4","study_id":"6197b3f67c2b5cd3b6d9596a","session_id":"6197b9eef073b53ee3a215bf","condition":"contingent","relevant_dimensions":["antennae","pattern"],"bee_group":{"antennae":"A","wings":"X","pattern":"D","legs":"X"},"bonus":0.6400000000000011},{"rt":1726.199999999255,"stimulus":"bees-with-color/bee-A2DF.svg","response":1,"trial_type":"image-button-response","trial_index":151,"time_elapsed":584631,"internal_node_id":"0.0-6.0-0.15","subject_id":"5ccbf31adde97100138a0eb4","study_id":"6197b3f67c2b5cd3b6d9596a","session_id":"6197b9eef073b53ee3a215bf","condition":"contingent","relevant_dimensions":["antennae","pattern"],"bee_group":{"antennae":"A","wings":"X","pattern":"D","legs":"X"},"bonus":0.6400000000000011},{"rt":630.3000000007451,"stimulus":"bees-with-color/bee-A2DM.svg","response":1,"trial_type":"image-button-response","trial_index":152,"time_elapsed":585263,"internal_node_id":"0.0-6.0-0.16","subject_id":"5ccbf31adde97100138a0eb4","study_id":"6197b3f67c2b5cd3b6d9596a","session_id":"6197b9eef073b53ee3a215bf","condition":"contingent","relevant_dimensions":["antennae","pattern"],"bee_group":{"antennae":"A","wings":"X","pattern":"D","legs":"X"},"bonus":0.6400000000000011},{"rt":510.1000000014901,"stimulus":"bees-with-color/bee-A1SF.svg","response":0,"trial_type":"image-button-response","trial_index":153,"time_elapsed":585775,"internal_node_id":"0.0-6.0-0.17","subject_id":"5ccbf31adde97100138a0eb4","study_id":"6197b3f67c2b5cd3b6d9596a","session_id":"6197b9eef073b53ee3a215bf","condition":"contingent","relevant_dimensions":["antennae","pattern"],"bee_group":{"antennae":"A","wings":"X","pattern":"D","legs":"X"},"bonus":0.6400000000000011},{"rt":542.6999999992549,"stimulus":"bees-with-color/bee-B1SM.svg","response":0,"trial_type":"image-button-response","trial_index":154,"time_elapsed":586319,"internal_node_id":"0.0-6.0-0.18","subject_id":"5ccbf31adde97100138a0eb4","study_id":"6197b3f67c2b5cd3b6d9596a","session_id":"6197b9eef073b53ee3a215bf","condition":"contingent","relevant_dimensions":["antennae","pattern"],"bee_group":{"antennae":"A","wings":"X","pattern":"D","legs":"X"},"bonus":0.6400000000000011},{"rt":654.3999999985099,"stimulus":"bees-with-color/bee-B2DF.svg","response":1,"trial_type":"image-button-response","trial_index":155,"time_elapsed":586975,"internal_node_id":"0.0-6.0-0.19","subject_id":"5ccbf31adde97100138a0eb4","study_id":"6197b3f67c2b5cd3b6d9596a","session_id":"6197b9eef073b53ee3a215bf","condition":"contingent","relevant_dimensions":["antennae","pattern"],"bee_group":{"antennae":"A","wings":"X","pattern":"D","legs":"X"},"bonus":0.6400000000000011},{"rt":446.6000000014901,"stimulus":"bees-with-color/bee-A2DF.svg","response":1,"trial_type":"image-button-response","trial_index":156,"time_elapsed":587423,"internal_node_id":"0.0-6.0-0.20","subject_id":"5ccbf31adde97100138a0eb4","study_id":"6197b3f67c2b5cd3b6d9596a","session_id":"6197b9eef073b53ee3a215bf","condition":"contingent","relevant_dimensions":["antennae","pattern"],"bee_group":{"antennae":"A","wings":"X","pattern":"D","legs":"X"},"bonus":0.6400000000000011},{"rt":630.3000000007451,"stimulus":"bees-with-color/bee-B1DF.svg","response":1,"trial_type":"image-button-response","trial_index":157,"time_elapsed":588055,"internal_node_id":"0.0-6.0-0.21","subject_id":"5ccbf31adde97100138a0eb4","study_id":"6197b3f67c2b5cd3b6d9596a","session_id":"6197b9eef073b53ee3a215bf","condition":"contingent","relevant_dimensions":["antennae","pattern"],"bee_group":{"antennae":"A","wings":"X","pattern":"D","legs":"X"},"bonus":0.6400000000000011},{"rt":398.69999999925494,"stimulus":"bees-with-color/bee-B2SM.svg","response":0,"trial_type":"image-button-response","trial_index":158,"time_elapsed":588455,"internal_node_id":"0.0-6.0-0.22","subject_id":"5ccbf31adde97100138a0eb4","study_id":"6197b3f67c2b5cd3b6d9596a","session_id":"6197b9eef073b53ee3a215bf",