[{"success":true,"trial_type":"fullscreen","trial_index":0,"time_elapsed":13300,"internal_node_id":"0.0-0.0","subject_id":"5fbd4f728509fe0eda407ec0","study_id":"60edd13110225f80f9f3709b","session_id":"6196c7007dda1dfd233e5036","condition":"contingent","relevant_dimensions":["wings","pattern"],"bee_group":{"antennae":"X","wings":"1","pattern":"D","legs":"X"},"bonus":0.22000000000000025},{"success":true,"timeout":false,"failed_images":[],"failed_audio":[],"failed_video":[],"trial_type":"preload","trial_index":1,"time_elapsed":15408,"internal_node_id":"0.0-1.0","subject_id":"5fbd4f728509fe0eda407ec0","study_id":"60edd13110225f80f9f3709b","session_id":"6196c7007dda1dfd233e5036","condition":"contingent","relevant_dimensions":["wings","pattern"],"bee_group":{"antennae":"X","wings":"1","pattern":"D","legs":"X"},"bonus":0.22000000000000025},{"rt":10939.5,"stimulus":"Welcome! Press any key to begin.","response":"arrowup","trial_type":"html-keyboard-response","trial_index":2,"time_elapsed":26348,"internal_node_id":"0.0-2.0","subject_id":"5fbd4f728509fe0eda407ec0","study_id":"60edd13110225f80f9f3709b","session_id":"6196c7007dda1dfd233e5036","condition":"contingent","relevant_dimensions":["wings","pattern"],"bee_group":{"antennae":"X","wings":"1","pattern":"D","legs":"X"},"bonus":0.22000000000000025},{"view_history":[{"page_index":0,"viewing_time":4015.899999976158},{"page_index":1,"viewing_time":12607.90000000596},{"page_index":2,"viewing_time":7725.700000017881},{"page_index":3,"viewing_time":38851},{"page_index":4,"viewing_time":7497.699999988079},{"page_index":5,"viewing_time":6075.5999999940395},{"page_index":6,"viewing_time":5163.5999999940395},{"page_index":7,"viewing_time":2966.100000023842},{"page_index":8,"viewing_time":2119.199999988079},{"page_index":9,"viewing_time":25839.59999999404},{"page_index":10,"viewing_time":2010.0999999940395},{"page_index":11,"viewing_time":11574.100000023842},{"page_index":12,"viewing_time":21106.29999998212},{"page_index":13,"viewing_time":1161.9000000059605},{"page_index":14,"viewing_time":1596.0999999940395}],"rt":150311.09999999404,"trial_type":"instructions","trial_index":3,"time_elapsed":176660,"internal_node_id":"0.0-3.0-0.0","subject_id":"5fbd4f728509fe0eda407ec0","study_id":"60edd13110225f80f9f3709b","session_id":"6196c7007dda1dfd233e5036","condition":"contingent","relevant_dimensions":["wings","pattern"],"bee_group":{"antennae":"X","wings":"1","pattern":"D","legs":"X"},"bonus":0.22000000000000025},{"rt":11042.800000011921,"response":{"Q0":["Two or six legs","Stripes or spots on body","Single or double wings","Antennae or no antennae"]},"question_order":[0],"trial_type":"survey-multi-select","trial_index":4,"time_elapsed":187706,"internal_node_id":"0.0-3.0-1.0","subject_id":"5fbd4f728509fe0eda407ec0","study_id":"60edd13110225f80f9f3709b","session_id":"6196c7007dda1dfd233e5036","condition":"contingent","relevant_dimensions":["wings","pattern"],"bee_group":{"antennae":"X","wings":"1","pattern":"D","legs":"X"},"correct":true,"bonus":0.22000000000000025},{"rt":40624.59999999404,"response":{"Q1":"No.","Q2":"Based on the four features of the bee.","Q3":"You do not learn if it was friendly or dangerous, and do not alter your bonus."},"question_order":[0,1,2],"trial_type":"survey-multi-choice","trial_index":5,"time_elapsed":228333,"internal_node_id":"0.0-3.0-2.0","subject_id":"5fbd4f728509fe0eda407ec0","study_id":"60edd13110225f80f9f3709b","session_id":"6196c7007dda1dfd233e5036","condition":"contingent","relevant_dimensions":["wings","pattern"],"bee_group":{"antennae":"X","wings":"1","pattern":"D","legs":"X"},"correct":true,"bonus":0.22000000000000025},{"rt":1674.4000000059605,"stimulus":"<p>Congrats, you got everything right<br>When you're ready, click the button below to continue to the experiment.</p>","response":0,"trial_type":"html-button-response","trial_index":6,"time_elapsed":230010,"internal_node_id":"0.0-3.0-3.0","subject_id":"5fbd4f728509fe0eda407ec0","study_id":"60edd13110225f80f9f3709b","session_id":"6196c7007dda1dfd233e5036","condition":"contingent","relevant_dimensions":["wings","pattern"],"bee_group":{"antennae":"X","wings":"1","pattern":"D","legs":"X"},"bonus":0.22000000000000025},{"rt":15531,"stimulus":"bees-with-color/bee-B2DF.svg","response":0,"trial_type":"image-button-response","trial_index":7,"time_elapsed":245543,"internal_node_id":"0.0-4.0-0.0","subject_id":"5fbd4f728509fe0eda407ec0","study_id":"60edd13110225f80f9f3709b","session_id":"6196c7007dda1dfd233e5036","condition":"contingent","relevant_dimensions":["wings","pattern"],"bee_group":{"antennae":"X","wings":"1","pattern":"D","legs":"X"},"action":"harvest","summary":"good-harvest","bonus":0.22000000000000025},{"rt":2937.800000011921,"stimulus":"\n                    <p><b>Action: <em>harvest</em></b></p>\n                    <p>This is the bee that you just saw.</p>\n                    <img src=\"bees-with-color/bee-B2DF.svg\" width=\"200\">\n                    <p><span class=\"greenText\"><b>Successful harvest!</b></span><br>Your pay has increased by $0.02. Your bonus pay is now $0.56.</p>\n            ","response":0,"trial_type":"html-button-response","trial_index":8,"time_elapsed":248483,"internal_node_id":"0.0-4.0-1.0","subject_id":"5fbd4f728509fe0eda407ec0","study_id":"60edd13110225f80f9f3709b","session_id":"6196c7007dda1dfd233e5036","condition":"contingent","relevant_dimensions":["wings","pattern"],"bee_group":{"antennae":"X","wings":"1","pattern":"D","legs":"X"},"bonus":0.22000000000000025},{"rt":5545.0999999940395,"stimulus":"bees-with-color/bee-B2SF.svg","response":1,"trial_type":"image-button-response","trial_index":9,"time_elapsed":254030,"internal_node_id":"0.0-4.0-0.1","subject_id":"5fbd4f728509fe0eda407ec0","study_id":"60edd13110225f80f9f3709b","session_id":"6196c7007dda1dfd233e5036","condition":"contingent","relevant_dimensions":["wings","pattern"],"bee_group":{"antennae":"X","wings":"1","pattern":"D","legs":"X"},"action":"avoid","summary":"bad-avoid","bonus":0.22000000000000025},{"rt":2531.800000011921,"stimulus":"\n                    <p><b>Action: <em>avoid</em></b></p>\n                    <p>This is the bee that you just saw.</p>\n                    <img src=\"bees-with-color/bee-B2SF.svg\" width=\"200\">\n                    <p><br>Your bonus pay is unchanged, and remains at $0.56.</p>\n            ","response":0,"trial_type":"html-button-response","trial_index":10,"time_elapsed":256564,"internal_node_id":"0.0-4.0-1.1","subject_id":"5fbd4f728509fe0eda407ec0","study_id":"60edd13110225f80f9f3709b","session_id":"6196c7007dda1dfd233e5036","condition":"contingent","relevant_dimensions":["wings","pattern"],"bee_group":{"antennae":"X","wings":"1","pattern":"D","legs":"X"},"bonus":0.22000000000000025},{"rt":1184.8999999761581,"stimulus":"bees-with-color/bee-A1DF.svg","response":0,"trial_type":"image-button-response","trial_index":11,"time_elapsed":257751,"internal_node_id":"0.0-4.0-0.2","subject_id":"5fbd4f728509fe0eda407ec0","study_id":"60edd13110225f80f9f3709b","session_id":"6196c7007dda1dfd233e5036","condition":"contingent","relevant_dimensions":["wings","pattern"],"bee_group":{"antennae":"X","wings":"1","pattern":"D","legs":"X"},"action":"harvest","summary":"bad-harvest","bonus":0.22000000000000025},{"rt":1973,"stimulus":"\n                    <p><b>Action: <em>harvest</em></b></p>\n                    <p>This is the bee that you just saw.</p>\n                    <img src=\"bees-with-color/bee-A1DF.svg\" width=\"200\">\n                    <p><span class=\"redText\">Bad choice, the bee was angry.</span><br><b>You have been stung!</b><br>Your pay has been decreased by $0.10. Your bonus pay is now $0.46.</p>\n            ","response":0,"trial_type":"html-button-response","trial_index":12,"time_elapsed":259725,"internal_node_id":"0.0-4.0-1.2","subject_id":"5fbd4f728509fe0eda407ec0","study_id":"60edd13110225f80f9f3709b","session_id":"6196c7007dda1dfd233e5036","condition":"contingent","relevant_dimensions":["wings","pattern"],"bee_group":{"antennae":"X","wings":"1","pattern":"D","legs":"X"},"bonus":0.22000000000000025},{"rt":2354.5999999940395,"stimulus":"bees-with-color/bee-A1SM.svg","response":0,"trial_type":"image-button-response","trial_index":13,"time_elapsed":262081,"internal_node_id":"0.0-4.0-0.3","subject_id":"5fbd4f728509fe0eda407ec0","study_id":"60edd13110225f80f9f3709b","session_id":"6196c7007dda1dfd233e5036","condition":"contingent","relevant_dimensions":["wings","pattern"],"bee_group":{"antennae":"X","wings":"1","pattern":"D","legs":"X"},"action":"harvest","summary":"good-harvest","bonus":0.22000000000000025},{"rt":1344.199999988079,"stimulus":"\n                    <p><b>Action: <em>harvest</em></b></p>\n                    <p>This is the bee that you just saw.</p>\n                    <img src=\"bees-with-color/bee-A1SM.svg\" width=\"200\">\n                    <p><span class=\"greenText\"><b>Successful harvest!</b></span><br>Your pay has increased by $0.02. Your bonus pay is now $0.48.</p>\n            ","response":0,"trial_type":"html-button-response","trial_index":14,"time_elapsed":263428,"internal_node_id":"0.0-4.0-1.3","subject_id":"5fbd4f728509fe0eda407ec0","study_id":"60edd13110225f80f9f3709b","session_id":"6196c7007dda1dfd233e5036","condition":"contingent","relevant_dimensions":["wings","pattern"],"bee_group":{"antennae":"X","wings":"1","pattern":"D","legs":"X"},"bonus":0.22000000000000025},{"rt":1205,"stimulus":"bees-with-color/bee-A2DF.svg","response":1,"trial_type":"image-button-response","trial_index":15,"time_elapsed":264634,"internal_node_id":"0.0-4.0-0.4","subject_id":"5fbd4f728509fe0eda407ec0","study_id":"60edd13110225f80f9f3709b","session_id":"6196c7007dda1dfd233e5036","condition":"contingent","relevant_dimensions":["wings","pattern"],"bee_group":{"antennae":"X","wings":"1","pattern":"D","legs":"X"},"action":"avoid","summary":"bad-avoid","bonus":0.22000000000000025},{"rt":1477.5,"stimulus":"\n                    <p><b>Action: <em>avoid</em></b></p>\n                    <p>This is the bee that you just saw.</p>\n                    <img src=\"bees-with-color/bee-A2DF.svg\" width=\"200\">\n                    <p><br>Your bonus pay is unchanged, and remains at $0.48.</p>\n            ","response":0,"trial_type":"html-button-response","trial_index":16,"time_elapsed":266114,"internal_node_id":"0.0-4.0-1.4","subject_id":"5fbd4f728509fe0eda407ec0","study_id":"60edd13110225f80f9f3709b","session_id":"6196c7007dda1dfd233e5036","condition":"contingent","relevant_dimensions":["wings","pattern"],"bee_group":{"antennae":"X","wings":"1","pattern":"D","legs":"X"},"bonus":0.22000000000000025},{"rt":1403.699999988079,"stimulus":"bees-with-color/bee-A2SM.svg","response":1,"trial_type":"image-button-response","trial_index":17,"time_elapsed":267519,"internal_node_id":"0.0-4.0-0.5","subject_id":"5fbd4f728509fe0eda407ec0","study_id":"60edd13110225f80f9f3709b","session_id":"6196c7007dda1dfd233e5036","condition":"contingent","relevant_dimensions":["wings","pattern"],"bee_group":{"antennae":"X","wings":"1","pattern":"D","legs":"X"},"action":"avoid","summary":"bad-avoid","bonus":0.22000000000000025},{"rt":1248.4000000059605,"stimulus":"\n                    <p><b>Action: <em>avoid</em></b></p>\n                    <p>This is the bee that you just saw.</p>\n                    <img src=\"bees-with-color/bee-A2SM.svg\" width=\"200\">\n                    <p><br>Your bonus pay is unchanged, and remains at $0.48.</p>\n            ","response":0,"trial_type":"html-button-response","trial_index":18,"time_elapsed":268769,"internal_node_id":"0.0-4.0-1.5","subject_id":"5fbd4f728509fe0eda407ec0","study_id":"60edd13110225f80f9f3709b","session_id":"6196c7007dda1dfd233e5036","condition":"contingent","relevant_dimensions":["wings","pattern"],"bee_group":{"antennae":"X","wings":"1","pattern":"D","legs":"X"},"bonus":0.22000000000000025},{"rt":1722.300000011921,"stimulus":"bees-with-color/bee-B2SM.svg","response":0,"trial_type":"image-button-response","trial_index":19,"time_elapsed":270493,"internal_node_id":"0.0-4.0-0.6","subject_id":"5fbd4f728509fe0eda407ec0","study_id":"60edd13110225f80f9f3709b","session_id":"6196c7007dda1dfd233e5036","condition":"contingent","relevant_dimensions":["wings","pattern"],"bee_group":{"antennae":"X","wings":"1","pattern":"D","legs":"X"},"action":"harvest","summary":"good-harvest","bonus":0.22000000000000025},{"rt":7688.4000000059605,"stimulus":"\n                    <p><b>Action: <em>harvest</em></b></p>\n                    <p>This is the bee that you just saw.</p>\n                    <img src=\"bees-with-color/bee-B2SM.svg\" width=\"200\">\n                    <p><span class=\"greenText\"><b>Successful harvest!</b></span><br>Your pay has increased by $0.02. Your bonus pay is now $0.50.</p>\n            ","response":0,"trial_type":"html-button-response","trial_index":20,"time_elapsed":278183,"internal_node_id":"0.0-4.0-1.6","subject_id":"5fbd4f728509fe0eda407ec0","study_id":"60edd13110225f80f9f3709b","session_id":"6196c7007dda1dfd233e5036","condition":"contingent","relevant_dimensions":["wings","pattern"],"bee_group":{"antennae":"X","wings":"1","pattern":"D","legs":"X"},"bonus":0.22000000000000025},{"rt":1276.2000000178814,"stimulus":"bees-with-color/bee-B1DM.svg","response":1,"trial_type":"image-button-response","trial_index":21,"time_elapsed":279462,"internal_node_id":"0.0-4.0-0.7","subject_id":"5fbd4f728509fe0eda407ec0","study_id":"60edd13110225f80f9f3709b","session_id":"6196c7007dda1dfd233e5036","condition":"contingent","relevant_dimensions":["wings","pattern"],"bee_group":{"antennae":"X","wings":"1","pattern":"D","legs":"X"},"action":"avoid","summary":"good-avoid","bonus":0.22000000000000025},{"rt":1111.199999988079,"stimulus":"\n                    <p><b>Action: <em>avoid</em></b></p>\n                    <p>This is the bee that you just saw.</p>\n                    <img src=\"bees-with-color/bee-B1DM.svg\" width=\"200\">\n                    <p><br>Your bonus pay is unchanged, and remains at $0.50.</p>\n            ","response":0,"trial_type":"html-button-response","trial_index":22,"time_elapsed":280575,"internal_node_id":"0.0-4.0-1.7","subject_id":"5fbd4f728509fe0eda407ec0","study_id":"60edd13110225f80f9f3709b","session_id":"6196c7007dda1dfd233e5036","condition":"contingent","relevant_dimensions":["wings","pattern"],"bee_group":{"antennae":"X","wings":"1","pattern":"D","legs":"X"},"bonus":0.22000000000000025},{"rt":4215.0999999940395,"stimulus":"bees-with-color/bee-A2SF.svg","response":1,"trial_type":"image-button-response","trial_index":23,"time_elapsed":284792,"internal_node_id":"0.0-4.0-0.8","subject_id":"5fbd4f728509fe0eda407ec0","study_id":"60edd13110225f80f9f3709b","session_id":"6196c7007dda1dfd233e5036","condition":"contingent","relevant_dimensions":["wings","pattern"],"bee_group":{"antennae":"X","wings":"1","pattern":"D","legs":"X"},"action":"avoid","summary":"bad-avoid","bonus":0.22000000000000025},{"rt":1116.800000011921,"stimulus":"\n                    <p><b>Action: <em>avoid</em></b></p>\n                    <p>This is the bee that you just saw.</p>\n                    <img src=\"bees-with-color/bee-A2SF.svg\" width=\"200\">\n                    <p><br>Your bonus pay is unchanged, and remains at $0.50.</p>\n            ","response":0,"trial_type":"html-button-response","trial_index":24,"time_elapsed":285910,"internal_node_id":"0.0-4.0-1.8","subject_id":"5fbd4f728509fe0eda407ec0","study_id":"60edd13110225f80f9f3709b","session_id":"6196c7007dda1dfd233e5036","condition":"contingent","relevant_dimensions":["wings","pattern"],"bee_group":{"antennae":"X","wings":"1","pattern":"D","legs":"X"},"bonus":0.22000000000000025},{"rt":2539.800000011921,"stimulus":"bees-with-color/bee-A1DM.svg","response":0,"trial_type":"image-button-response","trial_index":25,"time_elapsed":288452,"internal_node_id":"0.0-4.0-0.9","subject_id":"5fbd4f728509fe0eda407ec0","study_id":"60edd13110225f80f9f3709b","session_id":"6196c7007dda1dfd233e5036","condition":"contingent","relevant_dimensions":["wings","pattern"],"bee_group":{"antennae":"X","wings":"1","pattern":"D","legs":"X"},"action":"harvest","summary":"bad-harvest","bonus":0.22000000000000025},{"rt":1004.2999999821186,"stimulus":"\n                    <p><b>Action: <em>harvest</em></b></p>\n                    <p>This is the bee that you just saw.</p>\n                    <img src=\"bees-with-color/bee-A1DM.svg\" width=\"200\">\n                    <p><span class=\"redText\">Bad choice, the bee was angry.</span><br><b>You have been stung!</b><br>Your pay has been decreased by $0.10. Your bonus pay is now $0.40.</p>\n            ","response":0,"trial_type":"html-button-response","trial_index":26,"time_elapsed":289458,"internal_node_id":"0.0-4.0-1.9","subject_id":"5fbd4f728509fe0eda407ec0","study_id":"60edd13110225f80f9f3709b","session_id":"6196c7007dda1dfd233e5036","condition":"contingent","relevant_dimensions":["wings","pattern"],"bee_group":{"antennae":"X","wings":"1","pattern":"D","legs":"X"},"bonus":0.22000000000000025},{"rt":947,"stimulus":"bees-with-color/bee-A2DM.svg","response":1,"trial_type":"image-button-response","trial_index":27,"time_elapsed":290407,"internal_node_id":"0.0-4.0-0.10","subject_id":"5fbd4f728509fe0eda407ec0","study_id":"60edd13110225f80f9f3709b","session_id":"6196c7007dda1dfd233e5036","condition":"contingent","relevant_dimensions":["wings","pattern"],"bee_group":{"antennae":"X","wings":"1","pattern":"D","legs":"X"},"action":"avoid","summary":"bad-avoid","bonus":0.22000000000000025},{"rt":675.7000000178814,"stimulus":"\n                    <p><b>Action: <em>avoid</em></b></p>\n                    <p>This is the bee that you just saw.</p>\n                    <img src=\"bees-with-color/bee-A2DM.svg\" width=\"200\">\n                    <p><br>Your bonus pay is unchanged, and remains at $0.40.</p>\n            ","response":0,"trial_type":"html-button-response","trial_index":28,"time_elapsed":291084,"internal_node_id":"0.0-4.0-1.10","subject_id":"5fbd4f728509fe0eda407ec0","study_id":"60edd13110225f80f9f3709b","session_id":"6196c7007dda1dfd233e5036","condition":"contingent","relevant_dimensions":["wings","pattern"],"bee_group":{"antennae":"X","wings":"1","pattern":"D","legs":"X"},"bonus":0.22000000000000025},{"rt":1052.9000000059605,"stimulus":"bees-with-color/bee-B2DM.svg","response":0,"trial_type":"image-button-response","trial_index":29,"time_elapsed":292138,"internal_node_id":"0.0-4.0-0.11","subject_id":"5fbd4f728509fe0eda407ec0","study_id":"60edd13110225f80f9f3709b","session_id":"6196c7007dda1dfd233e5036","condition":"contingent","relevant_dimensions":["wings","pattern"],"bee_group":{"antennae":"X","wings":"1","pattern":"D","legs":"X"},"action":"harvest","summary":"good-harvest","bonus":0.22000000000000025},{"rt":941.5999999940395,"stimulus":"\n                    <p><b>Action: <em>harvest</em></b></p>\n                    <p>This is the bee that you just saw.</p>\n                    <img src=\"bees-with-color/bee-B2DM.svg\" width=\"200\">\n                    <p><span class=\"greenText\"><b>Successful harvest!</b></span><br>Your pay has increased by $0.02. Your bonus pay is now $0.42.</p>\n            ","response":0,"trial_type":"html-button-response","trial_index":30,"time_elapsed":293081,"internal_node_id":"0.0-4.0-1.11","subject_id":"5fbd4f728509fe0eda407ec0","study_id":"60edd13110225f80f9f3709b","session_id":"6196c7007dda1dfd233e5036","condition":"contingent","relevant_dimensions":["wings","pattern"],"bee_group":{"antennae":"X","wings":"1","pattern":"D","legs":"X"},"bonus":0.22000000000000025},{"rt":1144,"stimulus":"bees-with-color/bee-B1SF.svg","response":0,"trial_type":"image-button-response","trial_index":31,"time_elapsed":294227,"internal_node_id":"0.0-4.0-0.12","subject_id":"5fbd4f728509fe0eda407ec0","study_id":"60edd13110225f80f9f3709b","session_id":"6196c7007dda1dfd233e5036","condition":"contingent","relevant_dimensions":["wings","pattern"],"bee_group":{"antennae":"X","wings":"1","pattern":"D","legs":"X"},"action":"harvest","summary":"good-harvest","bonus":0.22000000000000025},{"rt":1058.3999999761581,"stimulus":"\n                    <p><b>Action: <em>harvest</em></b></p>\n                    <p>This is the bee that you just saw.</p>\n                    <img src=\"bees-with-color/bee-B1SF.svg\" width=\"200\">\n                    <p><span class=\"greenText\"><b>Successful harvest!</b></span><br>Your pay has increased by $0.02. Your bonus pay is now $0.44.</p>\n            ","response":0,"trial_type":"html-button-response","trial_index":32,"time_elapsed":295287,"internal_node_id":"0.0-4.0-1.12","subject_id":"5fbd4f728509fe0eda407ec0","study_id":"60edd13110225f80f9f3709b","session_id":"6196c7007dda1dfd233e5036","condition":"contingent","relevant_dimensions":["wings","pattern"],"bee_group":{"antennae":"X","wings":"1","pattern":"D","legs":"X"},"bonus":0.22000000000000025},{"rt":1175.0999999940395,"stimulus":"bees-with-color/bee-A1SF.svg","response":1,"trial_type":"image-button-response","trial_index":33,"time_elapsed":296463,"internal_node_id":"0.0-4.0-0.13","subject_id":"5fbd4f728509fe0eda407ec0","study_id":"60edd13110225f80f9f3709b","session_id":"6196c7007dda1dfd233e5036","condition":"contingent","relevant_dimensions":["wings","pattern"],"bee_group":{"antennae":"X","wings":"1","pattern":"D","legs":"X"},"action":"avoid","summary":"bad-avoid","bonus":0.22000000000000025},{"rt":678.5999999940395,"stimulus":"\n                    <p><b>Action: <em>avoid</em></b></p>\n                    <p>This is the bee that you just saw.</p>\n                    <img src=\"bees-with-color/bee-A1SF.svg\" width=\"200\">\n                    <p><br>Your bonus pay is unchanged, and remains at $0.44.</p>\n            ","response":0,"trial_type":"html-button-response","trial_index":34,"time_elapsed":297143,"internal_node_id":"0.0-4.0-1.13","subject_id":"5fbd4f728509fe0eda407ec0","study_id":"60edd13110225f80f9f3709b","session_id":"6196c7007dda1dfd233e5036","condition":"contingent","relevant_dimensions":["wings","pattern"],"bee_group":{"antennae":"X","wings":"1","pattern":"D","legs":"X"},"bonus":0.22000000000000025},{"rt":847.3000000119209,"stimulus":"bees-with-color/bee-B1DF.svg","response":0,"trial_type":"image-button-response","trial_index":35,"time_elapsed":297992,"internal_node_id":"0.0-4.0-0.14","subject_id":"5fbd4f728509fe0eda407ec0","study_id":"60edd13110225f80f9f3709b","session_id":"6196c7007dda1dfd233e5036","condition":"contingent","relevant_dimensions":["wings","pattern"],"bee_group":{"antennae":"X","wings":"1","pattern":"D","legs":"X"},"action":"harvest","summary":"bad-harvest","bonus":0.22000000000000025},{"rt":1101.7999999821186,"stimulus":"\n                    <p><b>Action: <em>harvest</em></b></p>\n                    <p>This is the bee that you just saw.</p>\n                    <img src=\"bees-with-color/bee-B1DF.svg\" width=\"200\">\n                    <p><span class=\"redText\">Bad choice, the bee was angry.</span><br><b>You have been stung!</b><br>Your pay has been decreased by $0.10. Your bonus pay is now $0.34.</p>\n            ","response":0,"trial_type":"html-button-response","trial_index":36,"time_elapsed":299095,"internal_node_id":"0.0-4.0-1.14","subject_id":"5fbd4f728509fe0eda407ec0","study_id":"60edd13110225f80f9f3709b","session_id":"6196c7007dda1dfd233e5036","condition":"contingent","relevant_dimensions":["wings","pattern"],"bee_group":{"antennae":"X","wings":"1","pattern":"D","legs":"X"},"bonus":0.22000000000000025},{"rt":1331.5999999940395,"stimulus":"bees-with-color/bee-B1SM.svg","response":1,"trial_type":"image-button-response","trial_index":37,"time_elapsed":300428,"internal_node_id":"0.0-4.0-0.15","subject_id":"5fbd4f728509fe0eda407ec0","study_id":"60edd13110225f80f9f3709b","session_id":"6196c7007dda1dfd233e5036","condition":"contingent","relevant_dimensions":["wings","pattern"],"bee_group":{"antennae":"X","wings":"1","pattern":"D","legs":"X"},"action":"avoid","summary":"bad-avoid","bonus":0.22000000000000025},{"rt":1147.9000000059605,"stimulus":"\n                    <p><b>Action: <em>avoid</em></b></p>\n                    <p>This is the bee that you just saw.</p>\n                    <img src=\"bees-with-color/bee-B1SM.svg\" width=\"200\">\n                    <p><br>Your bonus pay is unchanged, and remains at $0.34.</p>\n            ","response":0,"trial_type":"html-button-response","trial_index":38,"time_elapsed":301577,"internal_node_id":"0.0-4.0-1.15","subject_id":"5fbd4f728509fe0eda407ec0","study_id":"60edd13110225f80f9f3709b","session_id":"6196c7007dda1dfd233e5036","condition":"contingent","relevant_dimensions":["wings","pattern"],"bee_group":{"antennae":"X","wings":"1","pattern":"D","legs":"X"},"bonus":0.22000000000000025},{"rt":3328.9000000059605,"stimulus":"bees-with-color/bee-A1SF.svg","response":0,"trial_type":"image-button-response","trial_index":39,"time_elapsed":304907,"internal_node_id":"0.0-4.0-0.16","subject_id":"5fbd4f728509fe0eda407ec0","study_id":"60edd13110225f80f9f3709b","session_id":"6196c7007dda1dfd233e5036","condition":"contingent","relevant_dimensions":["wings","pattern"],"bee_group":{"antennae":"X","wings":"1","pattern":"D","legs":"X"},"action":"harvest","summary":"good-harvest","bonus":0.22000000000000025},{"rt":1160.300000011921,"stimulus":"\n                    <p><b>Action: <em>harvest</em></b></p>\n                    <p>This is the bee that you just saw.</p>\n                    <img src=\"bees-with-color/bee-A1SF.svg\" width=\"200\">\n                    <p><span class=\"greenText\"><b>Successful harvest!</b></span><br>Your pay has increased by $0.02. Your bonus pay is now $0.36.</p>\n            ","response":0,"trial_type":"html-button-response","trial_index":40,"time_elapsed":306069,"internal_node_id":"0.0-4.0-1.16","subject_id":"5fbd4f728509fe0eda407ec0","study_id":"60edd13110225f80f9f3709b","session_id":"6196c7007dda1dfd233e5036","condition":"contingent","relevant_dimensions":["wings","pattern"],"bee_group":{"antennae":"X","wings":"1","pattern":"D","legs":"X"},"bonus":0.22000000000000025},{"rt":1055,"stimulus":"bees-with-color/bee-A1DM.svg","response":1,"trial_type":"image-button-response","trial_index":41,"time_elapsed":307126,"internal_node_id":"0.0-4.0-0.17","subject_id":"5fbd4f728509fe0eda407ec0","study_id":"60edd13110225f80f9f3709b","session_id":"6196c7007dda1dfd233e5036","condition":"contingent","relevant_dimensions":["wings","pattern"],"bee_group":{"antennae":"X","wings":"1","pattern":"D","legs":"X"},"action":"avoid","summary":"good-avoid","bonus":0.22000000000000025},{"rt":1439.5999999940395,"stimulus":"\n                    <p><b>Action: <em>avoid</em></b></p>\n                    <p>This is the bee that you just saw.</p>\n                    <img src=\"bees-with-color/bee-A1DM.svg\" width=\"200\">\n                    <p><br>Your bonus pay is unchanged, and remains at $0.36.</p>\n            ","response":0,"trial_type":"html-button-response","trial_index":42,"time_elapsed":308567,"internal_node_id":"0.0-4.0-1.17","subject_id":"5fbd4f728509fe0eda407ec0","study_id":"60edd13110225f80f9f3709b","session_id":"6196c7007dda1dfd233e5036","condition":"contingent","relevant_dimensions":["wings","pattern"],"bee_group":{"antennae":"X","wings":"1","pattern":"D","legs":"X"},"bonus":0.22000000000000025},{"rt":1653.5,"stimulus":"bees-with-color/bee-A2SF.svg","response":1,"trial_type":"image-button-response","trial_index":43,"time_elapsed":310222,"internal_node_id":"0.0-4.0-0.18","subject_id":"5fbd4f728509fe0eda407ec0","study_id":"60edd13110225f80f9f3709b","session_id":"6196c7007dda1dfd233e5036","condition":"contingent","relevant_dimensions":["wings","pattern"],"bee_group":{"antennae":"X","wings":"1","pattern":"D","legs":"X"},"action":"avoid","summary":"bad-avoid","bonus":0.22000000000000025},{"rt":870.5,"stimulus":"\n                    <p><b>Action: <em>avoid</em></b></p>\n                    <p>This is the bee that you just saw.</p>\n                    <img src=\"bees-with-color/bee-A2SF.svg\" width=\"200\">\n                    <p><br>Your bonus pay is unchanged, and remains at $0.36.</p>\n            ","response":0,"trial_type":"html-button-response","trial_index":44,"time_elapsed":311094,"internal_node_id":"0.0-4.0-1.18","subject_id":"5fbd4f728509fe0eda407ec0","study_id":"60edd13110225f80f9f3709b","session_id":"6196c7007dda1dfd233e5036","condition":"contingent","relevant_dimensions":["wings","pattern"],"bee_group":{"antennae":"X","wings":"1","pattern":"D","legs":"X"},"bonus":0.22000000000000025},{"rt":1068.6000000238419,"stimulus":"bees-with-color/bee-B1SM.svg","response":0,"trial_type":"image-button-response","trial_index":45,"time_elapsed":312164,"internal_node_id":"0.0-4.0-0.19","subject_id":"5fbd4f728509fe0eda407ec0","study_id":"60edd13110225f80f9f3709b","session_id":"6196c7007dda1dfd233e5036","condition":"contingent","relevant_dimensions":["wings","pattern"],"bee_group":{"antennae":"X","wings":"1","pattern":"D","legs":"X"},"action":"harvest","summary":"good-harvest","bonus":0.22000000000000025},{"rt":833,"stimulus":"\n                    <p><b>Action: <em>harvest</em></b></p>\n                    <p>This is the bee that you just saw.</p>\n                    <img src=\"bees-with-color/bee-B1SM.svg\" width=\"200\">\n                    <p><span class=\"greenText\"><b>Successful harvest!</b></span><br>Your pay has increased by $0.02. Your bonus pay is now $0.38.</p>\n            ","response":0,"trial_type":"html-button-response","trial_index":46,"time_elapsed":312999,"internal_node_id":"0.0-4.0-1.19","subject_id":"5fbd4f728509fe0eda407ec0","study_id":"60edd13110225f80f9f3709b","session_id":"6196c7007dda1dfd233e5036","condition":"contingent","relevant_dimensions":["wings","pattern"],"bee_group":{"antennae":"X","wings":"1","pattern":"D","legs":"X"},"bonus":0.22000000000000025},{"rt":1122.5999999940395,"stimulus":"bees-with-color/bee-B2SF.svg","response":1,"trial_type":"image-button-response","trial_index":47,"time_elapsed":314123,"internal_node_id":"0.0-4.0-0.20","subject_id":"5fbd4f728509fe0eda407ec0","study_id":"60edd13110225f80f9f3709b","session_id":"6196c7007dda1dfd233e5036","condition":"contingent","relevant_dimensions":["wings","pattern"],"bee_group":{"antennae":"X","wings":"1","pattern":"D","legs":"X"},"action":"avoid","summary":"bad-avoid","bonus":0.22000000000000025},{"rt":13408.90000000596,"stimulus":"\n                    <p><b>Action: <em>avoid</em></b></p>\n                    <p>This is the bee that you just saw.</p>\n                    <img src=\"bees-with-color/bee-B2SF.svg\" width=\"200\">\n                    <p><br>Your bonus pay is unchanged, and remains at $0.38.</p>\n            ","response":0,"trial_type":"html-button-response","trial_index":48,"time_elapsed":327534,"internal_node_id":"0.0-4.0-1.20","subject_id":"5fbd4f728509fe0eda407ec0","study_id":"60edd13110225f80f9f3709b","session_id":"6196c7007dda1dfd233e5036","condition":"contingent","relevant_dimensions":["wings","pattern"],"bee_group":{"antennae":"X","wings":"1","pattern":"D","legs":"X"},"bonus":0.22000000000000025},{"rt":1881.5,"stimulus":"bees-with-color/bee-B2SM.svg","response":1,"trial_type":"image-button-response","trial_index":49,"time_elapsed":329417,"internal_node_id":"0.0-4.0-0.21","subject_id":"5fbd4f728509fe0eda407ec0","study_id":"60edd13110225f80f9f3709b","session_id":"6196c7007dda1dfd233e5036","condition":"contingent","relevant_dimensions":["wings","pattern"],"bee_group":{"antennae":"X","wings":"1","pattern":"D","legs":"X"},"action":"avoid","summary":"bad-avoid","bonus":0.22000000000000025},{"rt":869.4000000059605,"stimulus":"\n                    <p><b>Action: <em>avoid</em></b></p>\n                    <p>This is the bee that you just saw.</p>\n                    <img src=\"bees-with-color/bee-B2SM.svg\" width=\"200\">\n                    <p><br>Your bonus pay is unchanged, and remains at $0.38.</p>\n            ","response":0,"trial_type":"html-button-response","trial_index":50,"time_elapsed":330288,"internal_node_id":"0.0-4.0-1.21","subject_id":"5fbd4f728509fe0eda407ec0","study_id":"60edd13110225f80f9f3709b","session_id":"6196c7007dda1dfd233e5036","condition":"contingent","relevant_dimensions":["wings","pattern"],"bee_group":{"antennae":"X","wings":"1","pattern":"D","legs":"X"},"bonus":0.22000000000000025},{"rt":1523.9000000059605,"stimulus":"bees-with-color/bee-B1DF.svg","response":0,"trial_type":"image-button-response","trial_index":51,"time_elapsed":331813,"internal_node_id":"0.0-4.0-0.22","subject_id":"5fbd4f728509fe0eda407ec0","study_id":"60edd13110225f80f9f3709b","session_id":"6196c7007dda1dfd233e5036","condition":"contingent","relevant_dimensions":["wings","pattern"],"bee_group":{"antennae":"X","wings":"1","pattern":"D","legs":"X"},"action":"harvest","summary":"bad-harvest","bonus":0.22000000000000025},{"rt":1011.1999999880791,"stimulus":"\n                    <p><b>Action: <em>harvest</em></b></p>\n                    <p>This is the bee that you just saw.</p>\n                    <img src=\"bees-with-color/bee-B1DF.svg\" width=\"200\">\n                    <p><span class=\"redText\">Bad choice, the bee was angry.</span><br><b>You have been stung!</b><br>Your pay has been decreased by $0.10. Your bonus pay is now $0.28.</p>\n            ","response":0,"trial_type":"html-button-response","trial_index":52,"time_elapsed":332826,"internal_node_id":"0.0-4.0-1.22","subject_id":"5fbd4f728509fe0eda407ec0","study_id":"60edd13110225f80f9f3709b","session_id":"6196c7007dda1dfd233e5036","condition":"contingent","relevant_dimensions":["wings","pattern"],"bee_group":{"antennae":"X","wings":"1","pattern":"D","legs":"X"},"bonus":0.22000000000000025},{"rt":732.7000000178814,"stimulus":"bees-with-color/bee-B2DM.svg","response":1,"trial_type":"image-button-response","trial_index":53,"time_elapsed":333560,"internal_node_id":"0.0-4.0-0.23","subject_id":"5fbd4f728509fe0eda407ec0","study_id":"60edd13110225f80f9f3709b","session_id":"6196c7007dda1dfd233e5036","condition":"contingent","relevant_dimensions":["wings","pattern"],"bee_group":{"antennae":"X","wings":"1","pattern":"D","legs":"X"},"action":"avoid","summary":"bad-avoid","bonus":0.22000000000000025},{"rt":756.8000000119209,"stimulus":"\n                    <p><b>Action: <em>avoid</em></b></p>\n                    <p>This is the bee that you just saw.</p>\n                    <img src=\"bees-with-color/bee-B2DM.svg\" width=\"200\">\n                    <p><br>Your bonus pay is unchanged, and remains at $0.28.</p>\n            ","response":0,"trial_type":"html-button-response","trial_index":54,"time_elapsed":334318,"internal_node_id":"0.0-4.0-1.23","subject_id":"5fbd4f728509fe0eda407ec0","study_id":"60edd13110225f80f9f3709b","session_id":"6196c7007dda1dfd233e5036","condition":"contingent","relevant_dimensions":["wings","pattern"],"bee_group":{"antennae":"X","wings":"1","pattern":"D","legs":"X"},"bonus":0.22000000000000025},{"rt":804.9000000059605,"stimulus":"bees-with-color/bee-B2DF.svg","response":0,"trial_type":"image-button-response","trial_index":55,"time_elapsed":335124,"internal_node_id":"0.0-4.0-0.24","subject_id":"5fbd4f728509fe0eda407ec0","study_id":"60edd13110225f80f9f3709b","session_id":"6196c7007dda1dfd233e5036","condition":"contingent","relevant_dimensions":["wings","pattern"],"bee_group":{"antennae":"X","wings":"1","pattern":"D","legs":"X"},"action":"harvest","summary":"good-harvest","bonus":0.22000000000000025},{"rt":779,"stimulus":"\n                    <p><b>Action: <em>harvest</em></b></p>\n                    <p>This is the bee that you just saw.</p>\n                    <img src=\"bees-with-color/bee-B2DF.svg\" width=\"200\">\n                    <p><span class=\"greenText\"><b>Successful harvest!</b></span><br>Your pay has increased by $0.02. Your bonus pay is now $0.30.</p>\n            ","response":0,"trial_type":"html-button-response","trial_index":56,"time_elapsed":335905,"internal_node_id":"0.0-4.0-1.24","subject_id":"5fbd4f728509fe0eda407ec0","study_id":"60edd13110225f80f9f3709b","session_id":"6196c7007dda1dfd233e5036","condition":"contingent","relevant_dimensions":["wings","pattern"],"bee_group":{"antennae":"X","wings":"1","pattern":"D","legs":"X"},"bonus":0.22000000000000025},{"rt":1788.0999999940395,"stimulus":"bees-with-color/bee-A2SM.svg","response":1,"trial_type":"image-button-response","trial_index":57,"time_elapsed":337695,"internal_node_id":"0.0-4.0-0.25","subject_id":"5fbd4f728509fe0eda407ec0","study_id":"60edd13110225f80f9f3709b","session_id":"6196c7007dda1dfd233e5036","condition":"contingent","relevant_dimensions":["wings","pattern"],"bee_group":{"antennae":"X","wings":"1","pattern":"D","legs":"X"},"action":"avoid","summary":"bad-avoid","bonus":0.22000000000000025},{"rt":758.0999999940395,"stimulus":"\n                    <p><b>Action: <em>avoid</em></b></p>\n                    <p>This is the bee that you just saw.</p>\n                    <img src=\"bees-with-color/bee-A2SM.svg\" width=\"200\">\n                    <p><br>Your bonus pay is unchanged, and remains at $0.30.</p>\n            ","response":0,"trial_type":"html-button-response","trial_index":58,"time_elapsed":338455,"internal_node_id":"0.0-4.0-1.25","subject_id":"5fbd4f728509fe0eda407ec0","study_id":"60edd13110225f80f9f3709b","session_id":"6196c7007dda1dfd233e5036","condition":"contingent","relevant_dimensions":["wings","pattern"],"bee_group":{"antennae":"X","wings":"1","pattern":"D","legs":"X"},"bonus":0.22000000000000025},{"rt":740.1999999880791,"stimulus":"bees-with-color/bee-A2DF.svg","response":1,"trial_type":"image-button-response","trial_index":59,"time_elapsed":339197,"internal_node_id":"0.0-4.0-0.26","subject_id":"5fbd4f728509fe0eda407ec0","study_id":"60edd13110225f80f9f3709b","session_id":"6196c7007dda1dfd233e5036","condition":"contingent","relevant_dimensions":["wings","pattern"],"bee_group":{"antennae":"X","wings":"1","pattern":"D","legs":"X"},"action":"avoid","summary":"bad-avoid","bonus":0.22000000000000025},{"rt":754.6999999880791,"stimulus":"\n                    <p><b>Action: <em>avoid</em></b></p>\n                    <p>This is the bee that you just saw.</p>\n                    <img src=\"bees-with-color/bee-A2DF.svg\" width=\"200\">\n                    <p><br>Your bonus pay is unchanged, and remains at $0.30.</p>\n            ","response":0,"trial_type":"html-button-response","trial_index":60,"time_elapsed":339953,"internal_node_id":"0.0-4.0-1.26","subject_id":"5fbd4f728509fe0eda407ec0","study_id":"60edd13110225f80f9f3709b","session_id":"6196c7007dda1dfd233e5036","condition":"contingent","relevant_dimensions":["wings","pattern"],"bee_group":{"antennae":"X","wings":"1","pattern":"D","legs":"X"},"bonus":0.22000000000000025},{"rt":948.3000000119209,"stimulus":"bees-with-color/bee-A1SM.svg","response":1,"trial_type":"image-button-response","trial_index":61,"time_elapsed":340903,"internal_node_id":"0.0-4.0-0.27","subject_id":"5fbd4f728509fe0eda407ec0","study_id":"60edd13110225f80f9f3709b","session_id":"6196c7007dda1dfd233e5036","condition":"contingent","relevant_dimensions":["wings","pattern"],"bee_group":{"antennae":"X","wings":"1","pattern":"D","legs":"X"},"action":"avoid","summary":"bad-avoid","bonus":0.22000000000000025},{"rt":585.2999999821186,"stimulus":"\n                    <p><b>Action: <em>avoid</em></b></p>\n                    <p>This is the bee that you just saw.</p>\n                    <img src=\"bees-with-color/bee-A1SM.svg\" width=\"200\">\n                    <p><br>Your bonus pay is unchanged, and remains at $0.30.</p>\n            ","response":0,"trial_type":"html-button-response","trial_index":62,"time_elapsed":341490,"internal_node_id":"0.0-4.0-1.27","subject_id":"5fbd4f728509fe0eda407ec0","study_id":"60edd13110225f80f9f3709b","session_id":"6196c7007dda1dfd233e5036","condition":"contingent","relevant_dimensions":["wings","pattern"],"bee_group":{"antennae":"X","wings":"1","pattern":"D","legs":"X"},"bonus":0.22000000000000025},{"rt":772.9000000059605,"stimulus":"bees-with-color/bee-A2DM.svg","response":1,"trial_type":"image-button-response","trial_index":63,"time_elapsed":342264,"internal_node_id":"0.0-4.0-0.28","subject_id":"5fbd4f728509fe0eda407ec0","study_id":"60edd13110225f80f9f3709b","session_id":"6196c7007dda1dfd233e5036","condition":"contingent","relevant_dimensions":["wings","pattern"],"bee_group":{"antennae":"X","wings":"1","pattern":"D","legs":"X"},"action":"avoid","summary":"bad-avoid","bonus":0.22000000000000025},{"rt":799.7999999821186,"stimulus":"\n                    <p><b>Action: <em>avoid</em></b></p>\n                    <p>This is the bee that you just saw.</p>\n                    <img src=\"bees-with-color/bee-A2DM.svg\" width=\"200\">\n                    <p><br>Your bonus pay is unchanged, and remains at $0.30.</p>\n            ","response":0,"trial_type":"html-button-response","trial_index":64,"time_elapsed":343065,"internal_node_id":"0.0-4.0-1.28","subject_id":"5fbd4f728509fe0eda407ec0","study_id":"60edd13110225f80f9f3709b","session_id":"6196c7007dda1dfd233e5036","condition":"contingent","relevant_dimensions":["wings","pattern"],"bee_group":{"antennae":"X","wings":"1","pattern":"D","legs":"X"},"bonus":0.22000000000000025},{"rt":1167.699999988079,"stimulus":"bees-with-color/bee-B1DM.svg","response":1,"trial_type":"image-button-response","trial_index":65,"time_elapsed":344234,"internal_node_id":"0.0-4.0-0.29","subject_id":"5fbd4f728509fe0eda407ec0","study_id":"60edd13110225f80f9f3709b","session_id":"6196c7007dda1dfd233e5036","condition":"contingent","relevant_dimensions":["wings","pattern"],"bee_group":{"antennae":"X","wings":"1","pattern":"D","legs":"X"},"action":"avoid","summary":"good-avoid","bonus":0.22000000000000025},{"rt":595.6999999880791,"stimulus":"\n                    <p><b>Action: <em>avoid</em></b></p>\n                    <p>This is the bee that you just saw.</p>\n                    <img src=\"bees-with-color/bee-B1DM.svg\" width=\"200\">\n                    <p><br>Your bonus pay is unchanged, and remains at $0.30.</p>\n            ","response":0,"trial_type":"html-button-response","trial_index":66,"time_elapsed":344831,"internal_node_id":"0.0-4.0-1.29","subject_id":"5fbd4f728509fe0eda407ec0","study_id":"60edd13110225f80f9f3709b","session_id":"6196c7007dda1dfd233e5036","condition":"contingent","relevant_dimensions":["wings","pattern"],"bee_group":{"antennae":"X","wings":"1","pattern":"D","legs":"X"},"bonus":0.22000000000000025},{"rt":599.7999999821186,"stimulus":"bees-with-color/bee-A1DF.svg","response":1,"trial_type":"image-button-response","trial_index":67,"time_elapsed":345432,"internal_node_id":"0.0-4.0-0.30","subject_id":"5fbd4f728509fe0eda407ec0","study_id":"60edd13110225f80f9f3709b","session_id":"6196c7007dda1dfd233e5036","condition":"contingent","relevant_dimensions":["wings","pattern"],"bee_group":{"antennae":"X","wings":"1","pattern":"D","legs":"X"},"action":"avoid","summary":"good-avoid","bonus":0.22000000000000025},{"rt":678.5999999940395,"stimulus":"\n                    <p><b>Action: <em>avoid</em></b></p>\n                    <p>This is the bee that you just saw.</p>\n                    <img src=\"bees-with-color/bee-A1DF.svg\" width=\"200\">\n                    <p><br>Your bonus pay is unchanged, and remains at $0.30.</p>\n            ","response":0,"trial_type":"html-button-response","trial_index":68,"time_elapsed":346112,"internal_node_id":"0.0-4.0-1.30","subject_id":"5fbd4f728509fe0eda407ec0","study_id":"60edd13110225f80f9f3709b","session_id":"6196c7007dda1dfd233e5036","condition":"contingent","relevant_dimensions":["wings","pattern"],"bee_group":{"antennae":"X","wings":"1","pattern":"D","legs":"X"},"bonus":0.22000000000000025},{"rt":788.5999999940395,"stimulus":"bees-with-color/bee-B1SF.svg","response":0,"trial_type":"image-button-response","trial_index":69,"time_elapsed":346902,"internal_node_id":"0.0-4.0-0.31","subject_id":"5fbd4f728509fe0eda407ec0","study_id":"60edd13110225f80f9f3709b","session_id":"6196c7007dda1dfd233e5036","condition":"contingent","relevant_dimensions":["wings","pattern"],"bee_group":{"antennae":"X","wings":"1","pattern":"D","legs":"X"},"action":"harvest","summary":"good-harvest","bonus":0.22000000000000025},{"rt":763.5,"stimulus":"\n                    <p><b>Action: <em>harvest</em></b></p>\n                    <p>This is the bee that you just saw.</p>\n                    <img src=\"bees-with-color/bee-B1SF.svg\" width=\"200\">\n                    <p><span class=\"greenText\"><b>Successful harvest!</b></span><br>Your pay has increased by $0.02. Your bonus pay is now $0.32.</p>\n            ","response":0,"trial_type":"html-button-response","trial_index":70,"time_elapsed":347667,"internal_node_id":"0.0-4.0-1.31","subject_id":"5fbd4f728509fe0eda407ec0","study_id":"60edd13110225f80f9f3709b","session_id":"6196c7007dda1dfd233e5036","condition":"contingent","relevant_dimensions":["wings","pattern"],"bee_group":{"antennae":"X","wings":"1","pattern":"D","legs":"X"},"bonus":0.22000000000000025},{"rt":725.6000000238419,"stimulus":"bees-with-color/bee-B1DM.svg","response":1,"trial_type":"image-button-response","trial_index":71,"time_elapsed":348394,"internal_node_id":"0.0-4.0-0.32","subject_id":"5fbd4f728509fe0eda407ec0","study_id":"60edd13110225f80f9f3709b","session_id":"6196c7007dda1dfd233e5036","condition":"contingent","relevant_dimensions":["wings","pattern"],"bee_group":{"antennae":"X","wings":"1","pattern":"D","legs":"X"},"action":"avoid","summary":"good-avoid","bonus":0.22000000000000025},{"rt":820.8000000119209,"stimulus":"\n                    <p><b>Action: <em>avoid</em></b></p>\n                    <p>This is the bee that you just saw.</p>\n                    <img src=\"bees-with-color/bee-B1DM.svg\" width=\"200\">\n                    <p><br>Your bonus pay is unchanged, and remains at $0.32.</p>\n            ","response":0,"trial_type":"html-button-response","trial_index":72,"time_elapsed":349217,"internal_node_id":"0.0-4.0-1.32","subject_id":"5fbd4f728509fe0eda407ec0","study_id":"60edd13110225f80f9f3709b","session_id":"6196c7007dda1dfd233e5036","condition":"contingent","relevant_dimensions":["wings","pattern"],"bee_group":{"antennae":"X","wings":"1","pattern":"D","legs":"X"},"bonus":0.22000000000000025},{"rt":628.6999999880791,"stimulus":"bees-with-color/bee-A1SF.svg","response":1,"trial_type":"image-button-response","trial_index":73,"time_elapsed":349847,"internal_node_id":"0.0-4.0-0.33","subject_id":"5fbd4f728509fe0eda407ec0","study_id":"60edd13110225f80f9f3709b","session_id":"6196c7007dda1dfd233e5036","condition":"contingent","relevant_dimensions":["wings","pattern"],"bee_group":{"antennae":"X","wings":"1","pattern":"D","legs":"X"},"action":"avoid","summary":"bad-avoid","bonus":0.22000000000000025},{"rt":12680.399999976158,"stimulus":"\n                    <p><b>Action: <em>avoid</em></b></p>\n                    <p>This is the bee that you just saw.</p>\n                    <img src=\"bees-with-color/bee-A1SF.svg\" width=\"200\">\n                    <p><br>Your bonus pay is unchanged, and remains at $0.32.</p>\n            ","response":0,"trial_type":"html-button-response","trial_index":74,"time_elapsed":362529,"internal_node_id":"0.0-4.0-1.33","subject_id":"5fbd4f728509fe0eda407ec0","study_id":"60edd13110225f80f9f3709b","session_id":"6196c7007dda1dfd233e5036","condition":"contingent","relevant_dimensions":["wings","pattern"],"bee_group":{"antennae":"X","wings":"1","pattern":"D","legs":"X"},"bonus":0.22000000000000025},{"rt":959.8000000119209,"stimulus":"bees-with-color/bee-A2SM.svg","response":1,"trial_type":"image-button-response","trial_index":75,"time_elapsed":363491,"internal_node_id":"0.0-4.0-0.34","subject_id":"5fbd4f728509fe0eda407ec0","study_id":"60edd13110225f80f9f3709b","session_id":"6196c7007dda1dfd233e5036","condition":"contingent","relevant_dimensions":["wings","pattern"],"bee_group":{"antennae":"X","wings":"1","pattern":"D","legs":"X"},"action":"avoid","summary":"bad-avoid","bonus":0.22000000000000025},{"rt":1251.699999988079,"stimulus":"\n                    <p><b>Action: <em>avoid</em></b></p>\n                    <p>This is the bee that you just saw.</p>\n                    <img src=\"bees-with-color/bee-A2SM.svg\" width=\"200\">\n                    <p><br>Your bonus pay is unchanged, and remains at $0.32.</p>\n            ","response":0,"trial_type":"html-button-response","trial_index":76,"time_elapsed":364744,"internal_node_id":"0.0-4.0-1.34","subject_id":"5fbd4f728509fe0eda407ec0","study_id":"60edd13110225f80f9f3709b","session_id":"6196c7007dda1dfd233e5036","condition":"contingent","relevant_dimensions":["wings","pattern"],"bee_group":{"antennae":"X","wings":"1","pattern":"D","legs":"X"},"bonus":0.22000000000000025},{"rt":1035.699999988079,"stimulus":"bees-with-color/bee-B1DF.svg","response":0,"trial_type":"image-button-response","trial_index":77,"time_elapsed":365781,"internal_node_id":"0.0-4.0-0.35","subject_id":"5fbd4f728509fe0eda407ec0","study_id":"60edd13110225f80f9f3709b","session_id":"6196c7007dda1dfd233e5036","condition":"contingent","relevant_dimensions":["wings","pattern"],"bee_group":{"antennae":"X","wings":"1","pattern":"D","legs":"X"},"action":"harvest","summary":"bad-harvest","bonus":0.22000000000000025},{"rt":966.5999999940395,"stimulus":"\n                    <p><b>Action: <em>harvest</em></b></p>\n                    <p>This is the bee that you just saw.</p>\n                    <img src=\"bees-with-color/bee-B1DF.svg\" width=\"200\">\n                    <p><span class=\"redText\">Bad choice, the bee was angry.</span><br><b>You have been stung!</b><br>Your pay has been decreased by $0.10. Your bonus pay is now $0.22.</p>\n            ","response":0,"trial_type":"html-button-response","trial_index":78,"time_elapsed":366749,"internal_node_id":"0.0-4.0-1.35","subject_id":"5fbd4f728509fe0eda407ec0","study_id":"60edd13110225f80f9f3709b","session_id":"6196c7007dda1dfd233e5036","condition":"contingent","relevant_dimensions":["wings","pattern"],"bee_group":{"antennae":"X","wings":"1","pattern":"D","legs":"X"},"bonus":0.22000000000000025},{"rt":647.5999999940395,"stimulus":"bees-with-color/bee-A1SM.svg","response":1,"trial_type":"image-button-response","trial_index":79,"time_elapsed":367398,"internal_node_id":"0.0-4.0-0.36","subject_id":"5fbd4f728509fe0eda407ec0","study_id":"60edd13110225f80f9f3709b","session_id":"6196c7007dda1dfd233e5036","condition":"contingent","relevant_dimensions":["wings","pattern"],"bee_group":{"antennae":"X","wings":"1","pattern":"D","legs":"X"},"action":"avoid","summary":"bad-avoid","bonus":0.22000000000000025},{"rt":745.6000000238419,"stimulus":"\n                    <p><b>Action: <em>avoid</em></b></p>\n                    <p>This is the bee that you just saw.</p>\n                    <img src=\"bees-with-color/bee-A1SM.svg\" width=\"200\">\n                    <p><br>Your bonus pay is unchanged, and remains at $0.22.</p>\n            ","response":0,"trial_type":"html-button-response","trial_index":80,"time_elapsed":368145,"internal_node_id":"0.0-4.0-1.36","subject_id":"5fbd4f728509fe0eda407ec0","study_id":"60edd13110225f80f9f3709b","session_id":"6196c7007dda1dfd233e5036","condition":"contingent","relevant_dimensions":["wings","pattern"],"bee_group":{"antennae":"X","wings":"1","pattern":"D","legs":"X"},"bonus":0.22000000000000025},{"rt":607.2000000178814,"stimulus":"bees-with-color/bee-A2SF.svg","response":0,"trial_type":"image-button-response","trial_index":81,"time_elapsed":368754,"internal_node_id":"0.0-4.0-0.37","subject_id":"5fbd4f728509fe0eda407ec0","study_id":"60edd13110225f80f9f3709b","session_id":"6196c7007dda1dfd233e5036","condition":"contingent","relevant_dimensions":["wings","pattern"],"bee_group":{"antennae":"X","wings":"1","pattern":"D","legs":"X"},"action":"harvest","summary":"good-harvest","bonus":0.22000000000000025},{"rt":908.0999999940395,"stimulus":"\n                    <p><b>Action: <em>harvest</em></b></p>\n                    <p>This is the bee that you just saw.</p>\n                    <img src=\"bees-with-color/bee-A2SF.svg\" width=\"200\">\n                    <p><span class=\"greenText\"><b>Successful harvest!</b></span><br>Your pay has increased by $0.02. Your bonus pay is now $0.24.</p>\n            ","response":0,"trial_type":"html-button-response","trial_index":82,"time_elapsed":369664,"internal_node_id":"0.0-4.0-1.37","subject_id":"5fbd4f728509fe0eda407ec0","study_id":"60edd13110225f80f9f3709b","session_id":"6196c7007dda1dfd233e5036","condition":"contingent","relevant_dimensions":["wings","pattern"],"bee_group":{"antennae":"X","wings":"1","pattern":"D","legs":"X"},"bonus":0.22000000000000025},{"rt":706.1999999880791,"stimulus":"bees-with-color/bee-B2DF.svg","response":1,"trial_type":"image-button-response","trial_index":83,"time_elapsed":370372,"internal_node_id":"0.0-4.0-0.38","subject_id":"5fbd4f728509fe0eda407ec0","study_id":"60edd13110225f80f9f3709b","session_id":"6196c7007dda1dfd233e5036","condition":"contingent","relevant_dimensions":["wings","pattern"],"bee_group":{"antennae":"X","wings":"1","pattern":"D","legs":"X"},"action":"avoid","summary":"bad-avoid","bonus":0.22000000000000025},{"rt":890.8000000119209,"stimulus":"\n                    <p><b>Action: <em>avoid</em></b></p>\n                    <p>This is the bee that you just saw.</p>\n                    <img src=\"bees-with-color/bee-B2DF.svg\" width=\"200\">\n                    <p><br>Your bonus pay is unchanged, and remains at $0.24.</p>\n            ","response":0,"trial_type":"html-button-response","trial_index":84,"time_elapsed":371264,"internal_node_id":"0.0-4.0-1.38","subject_id":"5fbd4f728509fe0eda407ec0","study_id":"60edd13110225f80f9f3709b","session_id":"6196c7007dda1dfd233e5036","condition":"contingent","relevant_dimensions":["wings","pattern"],"bee_group":{"antennae":"X","wings":"1","pattern":"D","legs":"X"},"bonus":0.22000000000000025},{"rt":2332.5999999940395,"stimulus":"bees-with-color/bee-B1SM.svg","response":1,"trial_type":"image-button-response","trial_index":85,"time_elapsed":373597,"internal_node_id":"0.0-4.0-0.39","subject_id":"5fbd4f728509fe0eda407ec0","study_id":"60edd13110225f80f9f3709b","session_id":"6196c7007dda1dfd233e5036","condition":"contingent","relevant_dimensions":["wings","pattern"],"bee_group":{"antennae":"X","wings":"1","pattern":"D","legs":"X"},"action":"avoid","summary":"bad-avoid","bonus":0.22000000000000025},{"rt":919.2000000178814,"stimulus":"\n                    <p><b>Action: <em>avoid</em></b></p>\n                    <p>This is the bee that you just saw.</p>\n                    <img src=\"bees-with-color/bee-B1SM.svg\" width=\"200\">\n                    <p><br>Your bonus pay is unchanged, and remains at $0.24.</p>\n            ","response":0,"trial_type":"html-button-response","trial_index":86,"time_elapsed":374518,"internal_node_id":"0.0-4.0-1.39","subject_id":"5fbd4f728509fe0eda407ec0","study_id":"60edd13110225f80f9f3709b","session_id":"6196c7007dda1dfd233e5036","condition":"contingent","relevant_dimensions":["wings","pattern"],"bee_group":{"antennae":"X","wings":"1","pattern":"D","legs":"X"},"bonus":0.22000000000000025},{"rt":1130,"stimulus":"bees-with-color/bee-A1DF.svg","response":1,"trial_type":"image-button-response","trial_index":87,"time_elapsed":375649,"internal_node_id":"0.0-4.0-0.40","subject_id":"5fbd4f728509fe0eda407ec0","study_id":"60edd13110225f80f9f3709b","session_id":"6196c7007dda1dfd233e5036","condition":"contingent","relevant_dimensions":["wings","pattern"],"bee_group":{"antennae":"X","wings":"1","pattern":"D","legs":"X"},"action":"avoid","summary":"good-avoid","bonus":0.22000000000000025},{"rt":1600.7999999821186,"stimulus":"\n                    <p><b>Action: <em>avoid</em></b></p>\n                    <p>This is the bee that you just saw.</p>\n                    <img src=\"bees-with-color/bee-A1DF.svg\" width=\"200\">\n                    <p><br>Your bonus pay is unchanged, and remains at $0.24.</p>\n            ","response":0,"trial_type":"html-button-response","trial_index":88,"time_elapsed":377251,"internal_node_id":"0.0-4.0-1.40","subject_id":"5fbd4f728509fe0eda407ec0","study_id":"60edd13110225f80f9f3709b","session_id":"6196c7007dda1dfd233e5036","condition":"contingent","relevant_dimensions":["wings","pattern"],"bee_group":{"antennae":"X","wings":"1","pattern":"D","legs":"X"},"bonus":0.22000000000000025},{"rt":875.9000000059605,"stimulus":"bees-with-color/bee-A2DF.svg","response":1,"trial_type":"image-button-response","trial_index":89,"time_elapsed":378129,"internal_node_id":"0.0-4.0-0.41","subject_id":"5fbd4f728509fe0eda407ec0","study_id":"60edd13110225f80f9f3709b","session_id":"6196c7007dda1dfd233e5036","condition":"contingent","relevant_dimensions":["wings","pattern"],"bee_group":{"antennae":"X","wings":"1","pattern":"D","legs":"X"},"action":"avoid","summary":"bad-avoid","bonus":0.22000000000000025},{"rt":737.2000000178814,"stimulus":"\n                    <p><b>Action: <em>avoid</em></b></p>\n                    <p>This is the bee that you just saw.</p>\n                    <img src=\"bees-with-color/bee-A2DF.svg\" width=\"200\">\n                    <p><br>Your bonus pay is unchanged, and remains at $0.24.</p>\n            ","response":0,"trial_type":"html-button-response","trial_index":90,"time_elapsed":378867,"internal_node_id":"0.0-4.0-1.41","subject_id":"5fbd4f728509fe0eda407ec0","study_id":"60edd13110225f80f9f3709b","session_id":"6196c7007dda1dfd233e5036","condition":"contingent","relevant_dimensions":["wings","pattern"],"bee_group":{"antennae":"X","wings":"1","pattern":"D","legs":"X"},"bonus":0.22000000000000025},{"rt":1002,"stimulus":"bees-with-color/bee-B1SF.svg","response":0,"trial_type":"image-button-response","trial_index":91,"time_elapsed":379870,"internal_node_id":"0.0-4.0-0.42","subject_id":"5fbd4f728509fe0eda407ec0","study_id":"60edd13110225f80f9f3709b","session_id":"6196c7007dda1dfd233e5036","condition":"contingent","relevant_dimensions":["wings","pattern"],"bee_group":{"antennae":"X","wings":"1","pattern":"D","legs":"X"},"action":"harvest","summary":"good-harvest","bonus":0.22000000000000025},{"rt":899.8000000119209,"stimulus":"\n                    <p><b>Action: <em>harvest</em></b></p>\n                    <p>This is the bee that you just saw.</p>\n                    <img src=\"bees-with-color/bee-B1SF.svg\" width=\"200\">\n                    <p><span class=\"greenText\"><b>Successful harvest!</b></span><br>Your pay has increased by $0.02. Your bonus pay is now $0.26.</p>\n            ","response":0,"trial_type":"html-button-response","trial_index":92,"time_elapsed":380771,"internal_node_id":"0.0-4.0-1.42","subject_id":"5fbd4f728509fe0eda407ec0","study_id":"60edd13110225f80f9f3709b","session_id":"6196c7007dda1dfd233e5036","condition":"contingent","relevant_dimensions":["wings","pattern"],"bee_group":{"antennae":"X","wings":"1","pattern":"D","legs":"X"},"bonus":0.22000000000000025},{"rt":710.9000000059605,"stimulus":"bees-with-color/bee-B2SM.svg","response":1,"trial_type":"image-button-response","trial_index":93,"time_elapsed":381484,"internal_node_id":"0.0-4.0-0.43","subject_id":"5fbd4f728509fe0eda407ec0","study_id":"60edd13110225f80f9f3709b","session_id":"6196c7007dda1dfd233e5036","condition":"contingent","relevant_dimensions":["wings","pattern"],"bee_group":{"antennae":"X","wings":"1","pattern":"D","legs":"X"},"action":"avoid","summary":"bad-avoid","bonus":0.22000000000000025},{"rt":1376,"stimulus":"\n                    <p><b>Action: <em>avoid</em></b></p>\n                    <p>This is the bee that you just saw.</p>\n                    <img src=\"bees-with-color/bee-B2SM.svg\" width=\"200\">\n                    <p><br>Your bonus pay is unchanged, and remains at $0.26.</p>\n            ","response":0,"trial_type":"html-button-response","trial_index":94,"time_elapsed":382861,"internal_node_id":"0.0-4.0-1.43","subject_id":"5fbd4f728509fe0eda407ec0","study_id":"60edd13110225f80f9f3709b","session_id":"6196c7007dda1dfd233e5036","condition":"contingent","relevant_dimensions":["wings","pattern"],"bee_group":{"antennae":"X","wings":"1","pattern":"D","legs":"X"},"bonus":0.22000000000000025},{"rt":581.2999999821186,"stimulus":"bees-with-color/bee-A1DM.svg","response":1,"trial_type":"image-button-response","trial_index":95,"time_elapsed":383444,"internal_node_id":"0.0-4.0-0.44","subject_id":"5fbd4f728509fe0eda407ec0","study_id":"60edd13110225f80f9f3709b","session_id":"6196c7007dda1dfd233e5036","condition":"contingent","relevant_dimensions":["wings","pattern"],"bee_group":{"antennae":"X","wings":"1","pattern":"D","legs":"X"},"action":"avoid","summary":"good-avoid","bonus":0.22000000000000025},{"rt":585.8000000119209,"stimulus":"\n                    <p><b>Action: <em>avoid</em></b></p>\n                    <p>This is the bee that you just saw.</p>\n                    <img src=\"bees-with-color/bee-A1DM.svg\" width=\"200\">\n                    <p><br>Your bonus pay is unchanged, and remains at $0.26.</p>\n            ","response":0,"trial_type":"html-button-response","trial_index":96,"time_elapsed":384031,"internal_node_id":"0.0-4.0-1.44","subject_id":"5fbd4f728509fe0eda407ec0","study_id":"60edd13110225f80f9f3709b","session_id":"6196c7007dda1dfd233e5036","condition":"contingent","relevant_dimensions":["wings","pattern"],"bee_group":{"antennae":"X","wings":"1","pattern":"D","legs":"X"},"bonus":0.22000000000000025},{"rt":615,"stimulus":"bees-with-color/bee-B2DM.svg","response":1,"trial_type":"image-button-response","trial_index":97,"time_elapsed":384647,"internal_node_id":"0.0-4.0-0.45","subject_id":"5fbd4f728509fe0eda407ec0","study_id":"60edd13110225f80f9f3709b","session_id":"6196c7007dda1dfd233e5036","condition":"contingent","relevant_dimensions":["wings","pattern"],"bee_group":{"antennae":"X","wings":"1","pattern":"D","legs":"X"},"action":"avoid","summary":"bad-avoid","bonus":0.22000000000000025},{"rt":633.6999999880791,"stimulus":"\n                    <p><b>Action: <em>avoid</em></b></p>\n                    <p>This is the bee that you just saw.</p>\n                    <img src=\"bees-with-color/bee-B2DM.svg\" width=\"200\">\n                    <p><br>Your bonus pay is unchanged, and remains at $0.26.</p>\n            ","response":0,"trial_type":"html-button-response","trial_index":98,"time_elapsed":385282,"internal_node_id":"0.0-4.0-1.45","subject_id":"5fbd4f728509fe0eda407ec0","study_id":"60edd13110225f80f9f3709b","session_id":"6196c7007dda1dfd233e5036","condition":"contingent","relevant_dimensions":["wings","pattern"],"bee_group":{"antennae":"X","wings":"1","pattern":"D","legs":"X"},"bonus":0.22000000000000025},{"rt":704.5999999940395,"stimulus":"bees-with-color/bee-B2SF.svg","response":1,"trial_type":"image-button-response","trial_index":99,"time_elapsed":385988,"internal_node_id":"0.0-4.0-0.46","subject_id":"5fbd4f728509fe0eda407ec0","study_id":"60edd13110225f80f9f3709b","session_id":"6196c7007dda1dfd233e5036","condition":"contingent","relevant_dimensions":["wings","pattern"],"bee_group":{"antennae":"X","wings":"1","pattern":"D","legs":"X"},"action":"avoid","summary":"bad-avoid","bonus":0.22000000000000025},{"rt":783.6999999880791,"stimulus":"\n                    <p><b>Action: <em>avoid</em></b></p>\n                    <p>This is the bee that you just saw.</p>\n                    <img src=\"bees-with-color/bee-B2SF.svg\" width=\"200\">\n                    <p><br>Your bonus pay is unchanged, and remains at $0.26.</p>\n            ","response":0,"trial_type":"html-button-response","trial_index":100,"time_elapsed":386773,"internal_node_id":"0.0-4.0-1.46","subject_id":"5fbd4f728509fe0eda407ec0","study_id":"60edd13110225f80f9f3709b","session_id":"6196c7007dda1dfd233e5036","condition":"contingent","relevant_dimensions":["wings","pattern"],"bee_group":{"antennae":"X","wings":"1","pattern":"D","legs":"X"},"bonus":0.22000000000000025},{"rt":613,"stimulus":"bees-with-color/bee-A2DM.svg","response":1,"trial_type":"image-button-response","trial_index":101,"time_elapsed":387387,"internal_node_id":"0.0-4.0-0.47","subject_id":"5fbd4f728509fe0eda407ec0","study_id":"60edd13110225f80f9f3709b","session_id":"6196c7007dda1dfd233e5036","condition":"contingent","relevant_dimensions":["wings","pattern"],"bee_group":{"antennae":"X","wings":"1","pattern":"D","legs":"X"},"action":"avoid","summary":"bad-avoid","bonus":0.22000000000000025},{"rt":872.4000000059605,"stimulus":"\n                    <p><b>Action: <em>avoid</em></b></p>\n                    <p>This is the bee that you just saw.</p>\n                    <img src=\"bees-with-color/bee-A2DM.svg\" width=\"200\">\n                    <p><br>Your bonus pay is unchanged, and remains at $0.26.</p>\n            ","response":0,"trial_type":"html-button-response","trial_index":102,"time_elapsed":388261,"internal_node_id":"0.0-4.0-1.47","subject_id":"5fbd4f728509fe0eda407ec0","study_id":"60edd13110225f80f9f3709b","session_id":"6196c7007dda1dfd233e5036","condition":"contingent","relevant_dimensions":["wings","pattern"],"bee_group":{"antennae":"X","wings":"1","pattern":"D","legs":"X"},"bonus":0.22000000000000025},{"rt":514.4000000059605,"stimulus":"bees-with-color/bee-A1DM.svg","response":0,"trial_type":"image-button-response","trial_index":103,"time_elapsed":388777,"internal_node_id":"0.0-4.0-0.48","subject_id":"5fbd4f728509fe0eda407ec0","study_id":"60edd13110225f80f9f3709b","session_id":"6196c7007dda1dfd233e5036","condition":"contingent","relevant_dimensions":["wings","pattern"],"bee_group":{"antennae":"X","wings":"1","pattern":"D","legs":"X"},"action":"harvest","summary":"bad-harvest","bonus":0.22000000000000025},{"rt":879.7000000178814,"stimulus":"\n                    <p><b>Action: <em>harvest</em></b></p>\n                    <p>This is the bee that you just saw.</p>\n                    <img src=\"bees-with-color/bee-A1DM.svg\" width=\"200\">\n                    <p><span class=\"redText\">Bad choice, the bee was angry.</span><br><b>You have been stung!</b><br>Your pay has been decreased by $0.10. Your bonus pay is now $0.16.</p>\n            ","response":0,"trial_type":"html-button-response","trial_index":104,"time_elapsed":389658,"internal_node_id":"0.0-4.0-1.48","subject_id":"5fbd4f728509fe0eda407ec0","study_id":"60edd13110225f80f9f3709b","session_id":"6196c7007dda1dfd233e5036","condition":"contingent","relevant_dimensions":["wings","pattern"],"bee_group":{"antennae":"X","wings":"1","pattern":"D","legs":"X"},"bonus":0.22000000000000025},{"rt":593.7000000178814,"stimulus":"bees-with-color/bee-B1DF.svg","response":1,"trial_type":"image-button-response","trial_index":105,"time_elapsed":390253,"internal_node_id":"0.0-4.0-0.49","subject_id":"5fbd4f728509fe0eda407ec0","study_id":"60edd13110225f80f9f3709b","session_id":"6196c7007dda1dfd233e5036","condition":"contingent","relevant_dimensions":["wings","pattern"],"bee_group":{"antennae":"X","wings":"1","pattern":"D","legs":"X"},"action":"avoid","summary":"good-avoid","bonus":0.22000000000000025},{"rt":596.6999999880791,"stimulus":"\n                    <p><b>Action: <em>avoid</em></b></p>\n                    <p>This is the bee that you just saw.</p>\n                    <img src=\"bees-with-color/bee-B1DF.svg\" width=\"200\">\n                    <p><br>Your bonus pay is unchanged, and remains at $0.16.</p>\n            ","response":0,"trial_type":"html-button-response","trial_index":106,"time_elapsed":390852,"internal_node_id":"0.0-4.0-1.49","subject_id":"5fbd4f728509fe0eda407ec0","study_id":"60edd13110225f80f9f3709b","session_id":"6196c7007dda1dfd233e5036","condition":"contingent","relevant_dimensions":["wings","pattern"],"bee_group":{"antennae":"X","wings":"1","pattern":"D","legs":"X"},"bonus":0.22000000000000025},{"rt":549.7999999821186,"stimulus":"bees-with-color/bee-B2SM.svg","response":0,"trial_type":"image-button-response","trial_index":107,"time_elapsed":391403,"internal_node_id":"0.0-4.0-0.50","subject_id":"5fbd4f728509fe0eda407ec0","study_id":"60edd13110225f80f9f3709b","session_id":"6196c7007dda1dfd233e5036","condition":"contingent","relevant_dimensions":["wings","pattern"],"bee_group":{"antennae":"X","wings":"1","pattern":"D","legs":"X"},"action":"harvest","summary":"good-harvest","bonus":0.22000000000000025},{"rt":771.4000000059605,"stimulus":"\n                    <p><b>Action: <em>harvest</em></b></p>\n                    <p>This is the bee that you just saw.</p>\n                    <img src=\"bees-with-color/bee-B2SM.svg\" width=\"200\">\n                    <p><span class=\"greenText\"><b>Successful harvest!</b></span><br>Your pay has increased by $0.02. Your bonus pay is now $0.18.</p>\n            ","response":0,"trial_type":"html-button-response","trial_index":108,"time_elapsed":392176,"internal_node_id":"0.0-4.0-1.50","subject_id":"5fbd4f728509fe0eda407ec0","study_id":"60edd13110225f80f9f3709b","session_id":"6196c7007dda1dfd233e5036","condition":"contingent","relevant_dimensions":["wings","pattern"],"bee_group":{"antennae":"X","wings":"1","pattern":"D","legs":"X"},"bonus":0.22000000000000025},{"rt":1087.5999999940395,"stimulus":"bees-with-color/bee-A2DF.svg","response":0,"trial_type":"image-button-response","trial_index":109,"time_elapsed":393265,"internal_node_id":"0.0-4.0-0.51","subject_id":"5fbd4f728509fe0eda407ec0","study_id":"60edd13110225f80f9f3709b","session_id":"6196c7007dda1dfd233e5036","condition":"contingent","relevant_dimensions":["wings","pattern"],"bee_group":{"antennae":"X","wings":"1","pattern":"D","legs":"X"},"action":"harvest","summary":"good-harvest","bonus":0.22000000000000025},{"rt":852.6000000238419,"stimulus":"\n                    <p><b>Action: <em>harvest</em></b></p>\n                    <p>This is the bee that you just saw.</p>\n                    <img src=\"bees-with-color/bee-A2DF.svg\" width=\"200\">\n                    <p><span class=\"greenText\"><b>Successful harvest!</b></span><br>Your pay has increased by $0.02. Your bonus pay is now $0.20.</p>\n            ","response":0,"trial_type":"html-button-response","trial_index":110,"time_elapsed":394119,"internal_node_id":"0.0-4.0-1.51","subject_id":"5fbd4f728509fe0eda407ec0","study_id":"60edd13110225f80f9f3709b","session_id":"6196c7007dda1dfd233e5036","condition":"contingent","relevant_dimensions":["wings","pattern"],"bee_group":{"antennae":"X","wings":"1","pattern":"D","legs":"X"},"bonus":0.22000000000000025},{"rt":581.5999999940395,"stimulus":"bees-with-color/bee-A2SM.svg","response":1,"trial_type":"image-button-response","trial_index":111,"time_elapsed":394702,"internal_node_id":"0.0-4.0-0.52","subject_id":"5fbd4f728509fe0eda407ec0","study_id":"60edd13110225f80f9f3709b","session_id":"6196c7007dda1dfd233e5036","condition":"contingent","relevant_dimensions":["wings","pattern"],"bee_group":{"antennae":"X","wings":"1","pattern":"D","legs":"X"},"action":"avoid","summary":"bad-avoid","bonus":0.22000000000000025},{"rt":496.40000000596046,"stimulus":"\n                    <p><b>Action: <em>avoid</em></b></p>\n                    <p>This is the bee that you just saw.</p>\n                    <img src=\"bees-with-color/bee-A2SM.svg\" width=\"200\">\n                    <p><br>Your bonus pay is unchanged, and remains at $0.20.</p>\n            ","response":0,"trial_type":"html-button-response","trial_index":112,"time_elapsed":395200,"internal_node_id":"0.0-4.0-1.52","subject_id":"5fbd4f728509fe0eda407ec0","study_id":"60edd13110225f80f9f3709b","session_id":"6196c7007dda1dfd233e5036","condition":"contingent","relevant_dimensions":["wings","pattern"],"bee_group":{"antennae":"X","wings":"1","pattern":"D","legs":"X"},"bonus":0.22000000000000025},{"rt":512.9000000059605,"stimulus":"bees-with-color/bee-B2SF.svg","response":1,"trial_type":"image-button-response","trial_index":113,"time_elapsed":395714,"internal_node_id":"0.0-4.0-0.53","subject_id":"5fbd4f728509fe0eda407ec0","study_id":"60edd13110225f80f9f3709b","session_id":"6196c7007dda1dfd233e5036","condition":"contingent","relevant_dimensions":["wings","pattern"],"bee_group":{"antennae":"X","wings":"1","pattern":"D","legs":"X"},"action":"avoid","summary":"bad-avoid","bonus":0.22000000000000025},{"rt":491.59999999403954,"stimulus":"\n                    <p><b>Action: <em>avoid</em></b></p>\n                    <p>This is the bee that you just saw.</p>\n                    <img src=\"bees-with-color/bee-B2SF.svg\" width=\"200\">\n                    <p><br>Your bonus pay is unchanged, and remains at $0.20.</p>\n            ","response":0,"trial_type":"html-button-response","trial_index":114,"time_elapsed":396207,"internal_node_id":"0.0-4.0-1.53","subject_id":"5fbd4f728509fe0eda407ec0","study_id":"60edd13110225f80f9f3709b","session_id":"6196c7007dda1dfd233e5036","condition":"contingent","relevant_dimensions":["wings","pattern"],"bee_group":{"antennae":"X","wings":"1","pattern":"D","legs":"X"},"bonus":0.22000000000000025},{"rt":539,"stimulus":"bees-with-color/bee-B2DM.svg","response":1,"trial_type":"image-button-response","trial_index":115,"time_elapsed":396747,"internal_node_id":"0.0-4.0-0.54","subject_id":"5fbd4f728509fe0eda407ec0","study_id":"60edd13110225f80f9f3709b","session_id":"6196c7007dda1dfd233e5036","condition":"contingent","relevant_dimensions":["wings","pattern"],"bee_group":{"antennae":"X","wings":"1","pattern":"D","legs":"X"},"action":"avoid","summary":"bad-avoid","bonus":0.22000000000000025},{"rt":636.7999999821186,"stimulus":"\n                    <p><b>Action: <em>avoid</em></b></p>\n                    <p>This is the bee that you just saw.</p>\n                    <img src=\"bees-with-color/bee-B2DM.svg\" width=\"200\">\n                    <p><br>Your bonus pay is unchanged, and remains at $0.20.</p>\n            ","response":0,"trial_type":"html-button-response","trial_index":116,"time_elapsed":397386,"internal_node_id":"0.0-4.0-1.54","subject_id":"5fbd4f728509fe0eda407ec0","study_id":"60edd13110225f80f9f3709b","session_id":"6196c7007dda1dfd233e5036","condition":"contingent","relevant_dimensions":["wings","pattern"],"bee_group":{"antennae":"X","wings":"1","pattern":"D","legs":"X"},"bonus":0.22000000000000025},{"rt":723.0999999940395,"stimulus":"bees-with-color/bee-B2DF.svg","response":1,"trial_type":"image-button-response","trial_index":117,"time_elapsed":398110,"internal_node_id":"0.0-4.0-0.55","subject_id":"5fbd4f728509fe0eda407ec0","study_id":"60edd13110225f80f9f3709b","session_id":"6196c7007dda1dfd233e5036","condition":"contingent","relevant_dimensions":["wings","pattern"],"bee_group":{"antennae":"X","wings":"1","pattern":"D","legs":"X"},"action":"avoid","summary":"bad-avoid","bonus":0.22000000000000025},{"rt":469.30000001192093,"stimulus":"\n                    <p><b>Action: <em>avoid</em></b></p>\n                    <p>This is the bee that you just saw.</p>\n                    <img src=\"bees-with-color/bee-B2DF.svg\" width=\"200\">\n                    <p><br>Your bonus pay is unchanged, and remains at $0.20.</p>\n            ","response":0,"trial_type":"html-button-response","trial_index":118,"time_elapsed":398581,"internal_node_id":"0.0-4.0-1.55","subject_id":"5fbd4f728509fe0eda407ec0","study_id":"60edd13110225f80f9f3709b","session_id":"6196c7007dda1dfd233e5036","condition":"contingent","relevant_dimensions":["wings","pattern"],"bee_group":{"antennae":"X","wings":"1","pattern":"D","legs":"X"},"bonus":0.22000000000000025},{"rt":505.7000000178814,"stimulus":"bees-with-color/bee-A1DF.svg","response":1,"trial_type":"image-button-response","trial_index":119,"time_elapsed":399088,"internal_node_id":"0.0-4.0-0.56","subject_id":"5fbd4f728509fe0eda407ec0","study_id":"60edd13110225f80f9f3709b","session_id":"6196c7007dda1dfd233e5036","condition":"contingent","relevant_dimensions":["wings","pattern"],"bee_group":{"antennae":"X","wings":"1","pattern":"D","legs":"X"},"action":"avoid","summary":"good-avoid","bonus":0.22000000000000025},{"rt":505.90000000596046,"stimulus":"\n                    <p><b>Action: <em>avoid</em></b></p>\n                    <p>This is the bee that you just saw.</p>\n                    <img src=\"bees-with-color/bee-A1DF.svg\" width=\"200\">\n                    <p><br>Your bonus pay is unchanged, and remains at $0.20.</p>\n            ","response":0,"trial_type":"html-button-response","trial_index":120,"time_elapsed":399595,"internal_node_id":"0.0-4.0-1.56","subject_id":"5fbd4f728509fe0eda407ec0","study_id":"60edd13110225f80f9f3709b","session_id":"6196c7007dda1dfd233e5036","condition":"contingent","relevant_dimensions":["wings","pattern"],"bee_group":{"antennae":"X","wings":"1","pattern":"D","legs":"X"},"bonus":0.22000000000000025},{"rt":528.9000000059605,"stimulus":"bees-with-color/bee-A2DM.svg","response":1,"trial_type":"image-button-response","trial_index":121,"time_elapsed":400126,"internal_node_id":"0.0-4.0-0.57","subject_id":"5fbd4f728509fe0eda407ec0","study_id":"60edd13110225f80f9f3709b","session_id":"6196c7007dda1dfd233e5036","condition":"contingent","relevant_dimensions":["wings","pattern"],"bee_group":{"antennae":"X","wings":"1","pattern":"D","legs":"X"},"action":"avoid","summary":"bad-avoid","bonus":0.22000000000000025},{"rt":482.40000000596046,"stimulus":"\n                    <p><b>Action: <em>avoid</em></b></p>\n                    <p>This is the bee that you just saw.</p>\n                    <img src=\"bees-with-color/bee-A2DM.svg\" width=\"200\">\n                    <p><br>Your bonus pay is unchanged, and remains at $0.20.</p>\n            ","response":0,"trial_type":"html-button-response","trial_index":122,"time_elapsed":400610,"internal_node_id":"0.0-4.0-1.57","subject_id":"5fbd4f728509fe0eda407ec0","study_id":"60edd13110225f80f9f3709b","session_id":"6196c7007dda1dfd233e5036","condition":"contingent","relevant_dimensions":["wings","pattern"],"bee_group":{"antennae":"X","wings":"1","pattern":"D","legs":"X"},"bonus":0.22000000000000025},{"rt":442,"stimulus":"bees-with-color/bee-A1SF.svg","response":1,"trial_type":"image-button-response","trial_index":123,"time_elapsed":401053,"internal_node_id":"0.0-4.0-0.58","subject_id":"5fbd4f728509fe0eda407ec0","study_id":"60edd13110225f80f9f3709b","session_id":"6196c7007dda1dfd233e5036","condition":"contingent","relevant_dimensions":["wings","pattern"],"bee_group":{"antennae":"X","wings":"1","pattern":"D","legs":"X"},"action":"avoid","summary":"bad-avoid","bonus":0.22000000000000025},{"rt":469.69999998807907,"stimulus":"\n                    <p><b>Action: <em>avoid</em></b></p>\n                    <p>This is the bee that you just saw.</p>\n                    <img src=\"bees-with-color/bee-A1SF.svg\" width=\"200\">\n                    <p><br>Your bonus pay is unchanged, and remains at $0.20.</p>\n            ","response":0,"trial_type":"html-button-response","trial_index":124,"time_elapsed":401524,"internal_node_id":"0.0-4.0-1.58","subject_id":"5fbd4f728509fe0eda407ec0","study_id":"60edd13110225f80f9f3709b","session_id":"6196c7007dda1dfd233e5036","condition":"contingent","relevant_dimensions":["wings","pattern"],"bee_group":{"antennae":"X","wings":"1","pattern":"D","legs":"X"},"bonus":0.22000000000000025},{"rt":965.6999999880791,"stimulus":"bees-with-color/bee-B1DM.svg","response":1,"trial_type":"image-button-response","trial_index":125,"time_elapsed":402491,"internal_node_id":"0.0-4.0-0.59","subject_id":"5fbd4f728509fe0eda407ec0","study_id":"60edd13110225f80f9f3709b","session_id":"6196c7007dda1dfd233e5036","condition":"contingent","relevant_dimensions":["wings","pattern"],"bee_group":{"antennae":"X","wings":"1","pattern":"D","legs":"X"},"action":"avoid","summary":"good-avoid","bonus":0.22000000000000025},{"rt":757.5999999940395,"stimulus":"\n                    <p><b>Action: <em>avoid</em></b></p>\n                    <p>This is the bee that you just saw.</p>\n                    <img src=\"bees-with-color/bee-B1DM.svg\" width=\"200\">\n                    <p><br>Your bonus pay is unchanged, and remains at $0.20.</p>\n            ","response":0,"trial_type":"html-button-response","trial_index":126,"time_elapsed":403250,"internal_node_id":"0.0-4.0-1.59","subject_id":"5fbd4f728509fe0eda407ec0","study_id":"60edd13110225f80f9f3709b","session_id":"6196c7007dda1dfd233e5036","condition":"contingent","relevant_dimensions":["wings","pattern"],"bee_group":{"antennae":"X","wings":"1","pattern":"D","legs":"X"},"bonus":0.22000000000000025},{"rt":473.19999998807907,"stimulus":"bees-with-color/bee-B1SM.svg","response":1,"trial_type":"image-button-response","trial_index":127,"time_elapsed":403725,"internal_node_id":"0.0-4.0-0.60","subject_id":"5fbd4f728509fe0eda407ec0","study_id":"60edd13110225f80f9f3709b","session_id":"6196c7007dda1dfd233e5036","condition":"contingent","relevant_dimensions":["wings","pattern"],"bee_group":{"antennae":"X","wings":"1","pattern":"D","legs":"X"},"action":"avoid","summary":"bad-avoid","bonus":0.22000000000000025},{"rt":607.4000000059605,"stimulus":"\n                    <p><b>Action: <em>avoid</em></b></p>\n                    <p>This is the bee that you just saw.</p>\n                    <img src=\"bees-with-color/bee-B1SM.svg\" width=\"200\">\n                    <p><br>Your bonus pay is unchanged, and remains at $0.20.</p>\n            ","response":0,"trial_type":"html-button-response","trial_index":128,"time_elapsed":404333,"internal_node_id":"0.0-4.0-1.60","subject_id":"5fbd4f728509fe0eda407ec0","study_id":"60edd13110225f80f9f3709b","session_id":"6196c7007dda1dfd233e5036","condition":"contingent","relevant_dimensions":["wings","pattern"],"bee_group":{"antennae":"X","wings":"1","pattern":"D","legs":"X"},"bonus":0.22000000000000025},{"rt":664.8000000119209,"stimulus":"bees-with-color/bee-B1SF.svg","response":1,"trial_type":"image-button-response","trial_index":129,"time_elapsed":404999,"internal_node_id":"0.0-4.0-0.61","subject_id":"5fbd4f728509fe0eda407ec0","study_id":"60edd13110225f80f9f3709b","session_id":"6196c7007dda1dfd233e5036","condition":"contingent","relevant_dimensions":["wings","pattern"],"bee_group":{"antennae":"X","wings":"1","pattern":"D","legs":"X"},"action":"avoid","summary":"bad-avoid","bonus":0.22000000000000025},{"rt":519.6999999880791,"stimulus":"\n                    <p><b>Action: <em>avoid</em></b></p>\n                    <p>This is the bee that you just saw.</p>\n                    <img src=\"bees-with-color/bee-B1SF.svg\" width=\"200\">\n                    <p><br>Your bonus pay is unchanged, and remains at $0.20.</p>\n            ","response":0,"trial_type":"html-button-response","trial_index":130,"time_elapsed":405520,"internal_node_id":"0.0-4.0-1.61","subject_id":"5fbd4f728509fe0eda407ec0","study_id":"60edd13110225f80f9f3709b","session_id":"6196c7007dda1dfd233e5036","condition":"contingent","relevant_dimensions":["wings","pattern"],"bee_group":{"antennae":"X","wings":"1","pattern":"D","legs":"X"},"bonus":0.22000000000000025},{"rt":577.8000000119209,"stimulus":"bees-with-color/bee-A2SF.svg","response":1,"trial_type":"image-button-response","trial_index":131,"time_elapsed":406099,"internal_node_id":"0.0-4.0-0.62","subject_id":"5fbd4f728509fe0eda407ec0","study_id":"60edd13110225f80f9f3709b","session_id":"6196c7007dda1dfd233e5036","condition":"contingent","relevant_dimensions":["wings","pattern"],"bee_group":{"antennae":"X","wings":"1","pattern":"D","legs":"X"},"action":"avoid","summary":"bad-avoid","bonus":0.22000000000000025},{"rt":470.5,"stimulus":"\n                    <p><b>Action: <em>avoid</em></b></p>\n                    <p>This is the bee that you just saw.</p>\n                    <img src=\"bees-with-color/bee-A2SF.svg\" width=\"200\">\n                    <p><br>Your bonus pay is unchanged, and remains at $0.20.</p>\n            ","response":0,"trial_type":"html-button-response","trial_index":132,"time_elapsed":406571,"internal_node_id":"0.0-4.0-1.62","subject_id":"5fbd4f728509fe0eda407ec0","study_id":"60edd13110225f80f9f3709b","session_id":"6196c7007dda1dfd233e5036","condition":"contingent","relevant_dimensions":["wings","pattern"],"bee_group":{"antennae":"X","wings":"1","pattern":"D","legs":"X"},"bonus":0.22000000000000025},{"rt":617,"stimulus":"bees-with-color/bee-A1SM.svg","response":1,"trial_type":"image-button-response","trial_index":133,"time_elapsed":407190,"internal_node_id":"0.0-4.0-0.63","subject_id":"5fbd4f728509fe0eda407ec0","study_id":"60edd13110225f80f9f3709b","session_id":"6196c7007dda1dfd233e5036","condition":"contingent","relevant_dimensions":["wings","pattern"],"bee_group":{"antennae":"X","wings":"1","pattern":"D","legs":"X"},"action":"avoid","summary":"bad-avoid","bonus":0.22000000000000025},{"rt":646.8000000119209,"stimulus":"\n                    <p><b>Action: <em>avoid</em></b></p>\n                    <p>This is the bee that you just saw.</p>\n                    <img src=\"bees-with-color/bee-A1SM.svg\" width=\"200\">\n                    <p><br>Your bonus pay is unchanged, and remains at $0.20.</p>\n            ","response":0,"trial_type":"html-button-response","trial_index":134,"time_elapsed":407838,"internal_node_id":"0.0-4.0-1.63","subject_id":"5fbd4f728509fe0eda407ec0","study_id":"60edd13110225f80f9f3709b","session_id":"6196c7007dda1dfd233e5036","condition":"contingent","relevant_dimensions":["wings","pattern"],"bee_group":{"antennae":"X","wings":"1","pattern":"D","legs":"X"},"bonus":0.22000000000000025},{"rt":7774.4000000059605,"stimulus":"You have completed the first part of this experiment.<br><br>You will now begin a shorter second part, in which you will receive no feedback.<br>The same rules regarding bonus pay apply.<br><br>Press any key to begin.","response":"arrowup","trial_type":"html-keyboard-response","trial_index":135,"time_elapsed":415614,"internal_node_id":"0.0-5.0","subject_id":"5fbd4f728509fe0eda407ec0","study_id":"60edd13110225f80f9f3709b","session_id":"6196c7007dda1dfd233e5036","condition":"contingent","relevant_dimensions":["wings","pattern"],"bee_group":{"antennae":"X","wings":"1","pattern":"D","legs":"X"},"bonus":0.22000000000000025},{"rt":2110.199999988079,"stimulus":"bees-with-color/bee-B2DM.svg","response":1,"trial_type":"image-button-response","trial_index":136,"time_elapsed":417731,"internal_node_id":"0.0-6.0-0.0","subject_id":"5fbd4f728509fe0eda407ec0","study_id":"60edd13110225f80f9f3709b","session_id":"6196c7007dda1dfd233e5036","condition":"contingent","relevant_dimensions":["wings","pattern"],"bee_group":{"antennae":"X","wings":"1","pattern":"D","legs":"X"},"bonus":0.22000000000000025},{"rt":1081.4000000059605,"stimulus":"bees-with-color/bee-B1SM.svg","response":1,"trial_type":"image-button-response","trial_index":137,"time_elapsed":418815,"internal_node_id":"0.0-6.0-0.1","subject_id":"5fbd4f728509fe0eda407ec0","study_id":"60edd13110225f80f9f3709b","session_id":"6196c7007dda1dfd233e5036","condition":"contingent","relevant_dimensions":["wings","pattern"],"bee_group":{"antennae":"X","wings":"1","pattern":"D","legs":"X"},"bonus":0.22000000000000025},{"rt":471.80000001192093,"stimulus":"bees-with-color/bee-A2SF.svg","response":1,"trial_type":"image-button-response","trial_index":138,"time_elapsed":419289,"internal_node_id":"0.0-6.0-0.2","subject_id":"5fbd4f728509fe0eda407ec0","study_id":"60edd13110225f80f9f3709b","session_id":"6196c7007dda1dfd233e5036","condition":"contingent","relevant_dimensions":["wings","pattern"],"bee_group":{"antennae":"X","wings":"1","pattern":"D","legs":"X"},"bonus":0.22000000000000025},{"rt":485.90000000596046,"stimulus":"bees-with-color/bee-A2SM.svg","response":1,"trial_type":"image-button-response","trial_index":139,"time_elapsed":419777,"internal_node_id":"0.0-6.0-0.3","subject_id":"5fbd4f728509fe0eda407ec0","study_id":"60edd13110225f80f9f3709b","session_id":"6196c7007dda1dfd233e5036","condition":"contingent","relevant_dimensions":["wings","pattern"],"bee_group":{"antennae":"X","wings":"1","pattern":"D","legs":"X"},"bonus":0.22000000000000025},{"rt":1503.300000011921,"stimulus":"bees-with-color/bee-B2SM.svg","response":0,"trial_type":"image-button-response","trial_index":140,"time_elapsed":421282,"internal_node_id":"0.0-6.0-0.4","subject_id":"5fbd4f728509fe0eda407ec0","study_id":"60edd13110225f80f9f3709b","session_id":"6196c7007dda1dfd233e5036","condition":"contingent","relevant_dimensions":["wings","pattern"],"bee_group":{"antennae":"X","wings":"1","pattern":"D","legs":"X"},"bonus":0.22000000000000025},{"rt":669.0999999940395,"stimulus":"bees-with-color/bee-B1DM.svg","response":1,"trial_type":"image-button-response","trial_index":141,"time_elapsed":421953,"internal_node_id":"0.0-6.0-0.5","subject_id":"5fbd4f728509fe0eda407ec0","study_id":"60edd13110225f80f9f3709b","session_id":"6196c7007dda1dfd233e5036","condition":"contingent","relevant_dimensions":["wings","pattern"],"bee_group":{"antennae":"X","wings":"1","pattern":"D","legs":"X"},"bonus":0.22000000000000025},{"rt":186.19999998807907,"stimulus":"bees-with-color/bee-A2DM.svg","response":1,"trial_type":"image-button-response","trial_index":142,"time_elapsed":422141,"internal_node_id":"0.0-6.0-0.6","subject_id":"5fbd4f728509fe0eda407ec0","study_id":"60edd13110225f80f9f3709b","session_id":"6196c7007dda1dfd233e5036","condition":"contingent","relevant_dimensions":["wings","pattern"],"bee_group":{"antennae":"X","wings":"1","pattern":"D","legs":"X"},"bonus":0.22000000000000025},{"rt":177.90000000596046,"stimulus":"bees-with-color/bee-A1DF.svg","response":1,"trial_type":"image-button-response","trial_index":143,"time_elapsed":422321,"internal_node_id":"0.0-6.0-0.7","subject_id":"5fbd4f728509fe0eda407ec0","study_id":"60edd13110225f80f9f3709b","session_id":"6196c7007dda1dfd233e5036","condition":"contingent","relevant_dimensions":["wings","pattern"],"bee_group":{"antennae":"X","wings":"1","pattern":"D","legs":"X"},"bonus":0.22000000000000025},{"rt":173.7000000178814,"stimulus":"bees-with-color/bee-B1SF.svg","response":1,"trial_type":"image-button-response","trial_index":144,"time_elapsed":422497,"internal_node_id":"0.0-6.0-0.8","subject_id":"5fbd4f728509fe0eda407ec0","study_id":"60edd13110225f80f9f3709b","session_id":"6196c7007dda1dfd233e5036","condition":"contingent","relevant_dimensions":["wings","pattern"],"bee_group":{"antennae":"X","wings":"1","pattern":"D","legs":"X"},"bonus":0.22000000000000025},{"rt":189.80000001192093,"stimulus":"bees-with-color/bee-A1SM.svg","response":1,"trial_type":"image-button-response","trial_index":145,"time_elapsed":422688,"internal_node_id":"0.0-6.0-0.9","subject_id":"5fbd4f728509fe0eda407ec0","study_id":"60edd13110225f80f9f3709b","session_id":"6196c7007dda1dfd233e5036","condition":"contingent","relevant_dimensions":["wings","pattern"],"bee_group":{"antennae":"X","wings":"1","pattern":"D","legs":"X"},"bonus":0.22000000000000025},{"rt":174.30000001192093,"stimulus":"bees-with-color/bee-B2DF.svg","response":1,"trial_type":"image-button-response","trial_index":146,"time_elapsed":422864,"internal_node_id":"0.0-6.0-0.10","subject_id":"5fbd4f728509fe0eda407ec0","study_id":"60edd13110225f80f9f3709b","session_id":"6196c7007dda1dfd233e5036","condition":"contingent","relevant_dimensions":["wings","pattern"],"bee_group":{"antennae":"X","wings":"1","pattern":"D","legs":"X"},"bonus":0.22000000000000025},{"rt":184.90000000596046,"stimulus":"bees-with-color/bee-B1DF.svg","response":1,"trial_type":"image-button-response","trial_index":147,"time_elapsed":423051,"internal_node_id":"0.0-6.0-0.11","subject_id":"5fbd4f728509fe0eda407ec0","study_id":"60edd13110225f80f9f3709b","session_id":"6196c7007dda1dfd233e5036","condition":"contingent","relevant_dimensions":["wings","pattern"],"bee_group":{"antennae":"X","wings":"1","pattern":"D","legs":"X"},"bonus":0.22000000000000025},{"rt":204.2999999821186,"stimulus":"bees-with-color/bee-B2SF.svg","response":1,"trial_type":"image-button-response","trial_index":148,"time_elapsed":423257,"internal_node_id":"0.0-6.0-0.12","subject_id":"5fbd4f728509fe0eda407ec0","study_id":"60edd13110225f80f9f3709b","session_id":"6196c7007dda1dfd233e5036","condition":"contingent","relevant_dimensions":["wings","pattern"],"bee_group":{"antennae":"X","wings":"1","pattern":"D","legs":"X"},"bonus":0.22000000000000025},{"rt":185.09999999403954,"stimulus":"bees-with-color/bee-A1DM.svg","response":1,"trial_type":"image-button-response","trial_index":149,"time_elapsed":423444,"internal_node_id":"0.0-6.0-0.13","subject_id":"5fbd4f728509fe0eda407ec0","study_id":"60edd13110225f80f9f3709b","session_id":"6196c7007dda1dfd233e5036","condition":"contingent","relevant_dimensions":["wings","pattern"],"bee_group":{"antennae":"X","wings":"1","pattern":"D","legs":"X"},"bonus":0.22000000000000025},{"rt":170.90000000596046,"stimulus":"bees-with-color/bee-A2DF.svg","response":1,"trial_type":"image-button-response","trial_index":150,"time_elapsed":423618,"internal_node_id":"0.0-6.0-0.14","subject_id":"5fbd4f728509fe0eda407ec0","study_id":"60edd13110225f80f9f3709b","session_id":"6196c7007dda1dfd233e5036","condition":"contingent","relevant_dimensions":["wings","pattern"],"bee_group":{"antennae":"X","wings":"1","pattern":"D","legs":"X"},"bonus":0.22000000000000025},{"rt":184.09999999403954,"stimulus":"bees-with-color/bee-A1SF.svg","response":1,"trial_type":"image-button-response","trial_index":151,"time_elapsed":423804,"internal_node_id":"0.0-6.0-0.15","subject_id":"5fbd4f728509fe0eda407ec0","study_id":"60edd13110225f80f9f3709b","session_id":"6196c7007dda1dfd233e5036","condition":"contingent","relevant_dimensions":["wings","pattern"],"bee_group":{"antennae":"X","wings":"1","pattern":"D","legs":"X"},"bonus":0.22000000000000025},{"rt":183.39999997615814,"stimulus":"bees-with-color/bee-A1DM.svg","response":1,"trial_type":"image-button-response","trial_index":152,"time_elapsed":423989,"internal_node_id":"0.0-6.0-0.16","subject_id":"5fbd4f728509fe0eda407ec0","study_id":"60edd13110225f80f9f3709b","session_id":"6196c7007dda1dfd233e5036","condition":"contingent","relevant_dimensions":["wings","pattern"],"bee_group":{"antennae":"X","wings":"1","pattern":"D","legs":"X"},"bonus":0.22000000000000025},{"rt":178.39999997615814,"stimulus":"bees-with-color/bee-A2SM.svg","response":1,"trial_type":"image-button-response","trial_index":153,"time_elapsed":424169,"internal_node_id":"0.0-6.0-0.17","subject_id":"5fbd4f728509fe0eda407ec0","study_id":"60edd13110225f80f9f3709b","session_id":"6196c7007dda1dfd233e5036","condition":"contingent","relevant_dimensions":["wings","pattern"],"bee_group":{"antennae":"X","wings":"1","pattern":"D","legs":"X"},"bonus":0.22000000000000025},{"rt":193.5,"stimulus":"bees-with-color/bee-B1DM.svg","response":1,"trial_type":"image-button-response","trial_index":154,"time_elapsed":424364,"internal_node_id":"0.0-6.0-0.18","subject_id":"5fbd4f728509fe0eda407ec0","study_id":"60edd13110225f80f9f3709b","session_id":"6196c7007dda1dfd233e5036","condition":"contingent","relevant_dimensions":["wings","pattern"],"bee_group":{"antennae":"X","wings":"1","pattern":"D","legs":"X"},"bonus":0.22000000000000025},{"rt":204.69999998807907,"stimulus":"bees-with-color/bee-A2DF.svg","response":1,"trial_type":"image-button-response","trial_index":155,"time_elapsed":424570,"internal_node_id":"0.0-6.0-0.19","subject_id":"5fbd4f728509fe0eda407ec0","study_id":"60edd13110225f80f9f3709b","session_id":"6196c7007dda1dfd233e5036","condition":"contingent","relevant_dimensions":["wings","pattern"],"bee_group":{"antennae":"X","wings":"1","pattern":"D","legs":"X"},"bonus":0.22000000000000025},{"rt":180.2000000178814,"stimulus":"bees-with-color/bee-B2SF.svg","response":1,"trial_type":"image-button-response","trial_index":156,"time_elapsed":424752,"internal_node_id":"0.0-6.0-0.20","subject_id":"5fbd4f728509fe0eda407ec0","study_id":"60edd13110225f80f9f3709b","session_id":"6196c7007dda1dfd233e5036","condition":"contingent","relevant_dimensions":["wings","pattern"],"bee_group":{"antennae":"X","wings":"1","pattern":"D","legs":"X"},"bonus":0.22000000000000025},{"rt":214.5,"stimulus":"bees-with-color/bee-B1SM.svg","response":1,"trial_type":"image-button-response","trial_index":157,"time_elapsed":424968,"internal_node_id":"0.0-6.0-0.21","subject_id":"5fbd4f728509fe0eda407ec0","study_id":"60edd13110225f80f9f3709b","session_id":"6196c7007dda1dfd233e5036","condition":"contingent","relevant_dimensions":["wings","pattern"],"bee_group":{"antennae":"X","wings":"1","pattern":"D","legs":"X"},"bonus":0.22000000000000025},{"rt":188.09999999403954,"stimulus":"bees-with-color/bee-A2SF.svg","response":1,"trial_type":"image-button-response","trial_index":158,"time_elapsed":425158,"internal_node_id":"0.0-6.0-0.22","subject_id":"5fbd4f728509fe0eda407ec0","study_id":"60edd13110225f80f9f3709b","session_id":"6196c7007dda1dfd233e5036","condition":"contingent","relevant_dimensions":["wings","pattern"],"bee_group":{"antennae":"X","wings":"1","pattern":"D","legs":"X"},"bonus":0.22000000000000025},{"rt":167.69999998807907,"stimulus":"bees-with-color/bee-A1SM.svg","response":1,"trial_type":"image-button-response","trial_index":159,"time_elapsed":425328,"internal_node_id":"0.0-6.0-0.23","subject_id":"5fbd4f728509fe0eda407ec0","study_id":"60edd13110225f80f9f3709b","session_id":"6196c7007dda1dfd233e5036","condition":"contingent","relevant_dimensions":["wings","pattern"],"bee_group":{"antennae":"X","wings":"1","pattern":"D","legs":"X"},"bonus":0.22000000000000025},{"rt":185.5,"stimulus":"bees-with-color/bee-B1DF.svg","response":1,"trial_type":"image-button-response","trial_index":160,"time_elapsed":425515,"internal_node_id":"0.0-6.0-0.24","subject_id":"5fbd4f728509fe0eda407ec0","study_id":"60edd13110225f80f9f3709b","session_id":"6196c7007dda1dfd233e5036","condition":"contingent","relevant_dimensions":["wings","pattern"],"bee_group":{"antennae":"X","wings":"1","pattern":"D","legs":"X"},"bonus":0.22000000000000025},{"rt":204.09999999403954,"stimulus":"bees-with-color/bee-B2SM.svg","response":1,"trial_type":"image-button-response","trial_index":161,"time_elapsed":425721,"internal_node_id":"0.0-6.0-0.25","subject_id":"5fbd4f728509fe0eda407ec0","study_id":"60edd13110225f80f9f3709b","session_id":"6196c7007dda1dfd233e5036","condition":"contingent","relevant_dimensions":["wings","pattern"],"bee_group":{"antennae":"X","wings":"1","pattern":"D","legs":"X"},"bonus":0.22000000000000025},{"rt":190.5,"stimulus":"bees-with-color/bee-B2DF.svg","response":1,"trial_type":"image-button-response","trial_index":162,"time_elapsed":425913,"internal_node_id":"0.0-6.0-0.26","subject_id":"5fbd4f728509fe0eda407ec0","study_id":"60edd13110225f80f9f3709b","session_id":"6196c7007dda1dfd233e5036","condition":"contingent","relevant_dimensions":["wings","pattern"],"bee_group":{"antennae":"X","wings":"1","pattern":"D","legs":"X"},"bonus":0.22000000000000025},{"rt":204.40000000596046,"stimulus":"bees-with-color/bee-A1DF.svg","response":1,"trial_type":"image-button-response","trial_index":163,"time_elapsed":426119,"internal_node_id":"0.0-6.0-0.27","subject_id":"5fbd4f728509fe0eda407ec0","study_id":"60edd13110225f80f9f3709b","session_id":"6196c7007dda1dfd233e5036","condition":"contingent","relevant_dimensions":["wings","pattern"],"bee_group":{"antennae":"X","wings":"1","pattern":"D","legs":"X"},"bonus":0.22000000000000025},{"rt":181.40000000596046,"stimulus":"bees-with-color/bee-A2DM.svg","response":1,"trial_type":"image-button-response","trial_index":164,"time_elapsed":426302,"internal_node_id":"0.0-6.0-0.28","subject_id":"5fbd4f728509fe0eda407ec0","study_id":"60edd13110225f80f9f3709b","session_id":"6196c7007dda1dfd233e5036","condition":"contingent","relevant_dimensions":["wings","pattern"],"bee_group":{"antennae":"X","wings":"1","pattern":"D","legs":"X"},"bonus":0.22000000000000025},{"rt":179.40000000596046,"stimulus":"bees-with-color/bee-B1SF.svg","response":1,"trial_type":"image-button-response","trial_index":165,"time_elapsed":426483,"internal_node_id":"0.0-6.0-0.29","subject_id":"5fbd4f728509fe0eda407ec0","study_id":"60edd13110225f80f9f3709b","session_id":"6196c7007dda1dfd233e5036","condition":"contingent","relevant_dimensions":["wings","pattern"],"bee_group":{"antennae":"X","wings":"1","pattern":"D","legs":"X"},"bonus":0.22000000000000025