[{"success":true,"trial_type":"fullscreen","trial_index":0,"time_elapsed":4718,"internal_node_id":"0.0-0.0","subject_id":"6100420439c2eeab8326fe25","study_id":"6197b3f67c2b5cd3b6d9596a","session_id":"6197b9f04c1af4d577c279a1","condition":"full-information","relevant_dimensions":["wings","legs"],"bee_group":{"antennae":"X","wings":"2","pattern":"X","legs":"M"},"bonus":1.480000000000001},{"success":true,"timeout":false,"failed_images":[],"failed_audio":[],"failed_video":[],"trial_type":"preload","trial_index":1,"time_elapsed":9177,"internal_node_id":"0.0-1.0","subject_id":"6100420439c2eeab8326fe25","study_id":"6197b3f67c2b5cd3b6d9596a","session_id":"6197b9f04c1af4d577c279a1","condition":"full-information","relevant_dimensions":["wings","legs"],"bee_group":{"antennae":"X","wings":"2","pattern":"X","legs":"M"},"bonus":1.480000000000001},{"rt":2527.5,"stimulus":"Welcome! Press any key to begin.","response":" ","trial_type":"html-keyboard-response","trial_index":2,"time_elapsed":11706,"internal_node_id":"0.0-2.0","subject_id":"6100420439c2eeab8326fe25","study_id":"6197b3f67c2b5cd3b6d9596a","session_id":"6197b9f04c1af4d577c279a1","condition":"full-information","relevant_dimensions":["wings","legs"],"bee_group":{"antennae":"X","wings":"2","pattern":"X","legs":"M"},"bonus":1.480000000000001},{"view_history":[{"page_index":0,"viewing_time":8182.0999999940395},{"page_index":1,"viewing_time":31031.70000001788},{"page_index":2,"viewing_time":28286.899999976158},{"page_index":3,"viewing_time":31735.90000000596},{"page_index":4,"viewing_time":9475.800000011921},{"page_index":5,"viewing_time":27455},{"page_index":6,"viewing_time":27661},{"page_index":7,"viewing_time":7864.5999999940395},{"page_index":8,"viewing_time":30446.59999999404},{"page_index":9,"viewing_time":16282.800000011921},{"page_index":10,"viewing_time":11568.40000000596},{"page_index":11,"viewing_time":10795.59999999404},{"page_index":12,"viewing_time":19024.90000000596},{"page_index":13,"viewing_time":1874},{"page_index":14,"viewing_time":1847.3999999761581}],"rt":263533.40000000596,"trial_type":"instructions","trial_index":3,"time_elapsed":275239,"internal_node_id":"0.0-3.0-0.0","subject_id":"6100420439c2eeab8326fe25","study_id":"6197b3f67c2b5cd3b6d9596a","session_id":"6197b9f04c1af4d577c279a1","condition":"full-information","relevant_dimensions":["wings","legs"],"bee_group":{"antennae":"X","wings":"2","pattern":"X","legs":"M"},"bonus":1.480000000000001},{"rt":18910.80000001192,"response":{"Q0":["Two or six legs","Stripes or spots on body","Single or double wings","Antennae or no antennae"]},"question_order":[0],"trial_type":"survey-multi-select","trial_index":4,"time_elapsed":294156,"internal_node_id":"0.0-3.0-1.0","subject_id":"6100420439c2eeab8326fe25","study_id":"6197b3f67c2b5cd3b6d9596a","session_id":"6197b9f04c1af4d577c279a1","condition":"full-information","relevant_dimensions":["wings","legs"],"bee_group":{"antennae":"X","wings":"2","pattern":"X","legs":"M"},"correct":true,"bonus":1.480000000000001},{"rt":27212.59999999404,"response":{"Q1":"No.","Q2":"Based on the four features of the bee.","Q3":"You learn if it was friendly or dangerous, but do not alter your bonus."},"question_order":[0,1,2],"trial_type":"survey-multi-choice","trial_index":5,"time_elapsed":321373,"internal_node_id":"0.0-3.0-2.0","subject_id":"6100420439c2eeab8326fe25","study_id":"6197b3f67c2b5cd3b6d9596a","session_id":"6197b9f04c1af4d577c279a1","condition":"full-information","relevant_dimensions":["wings","legs"],"bee_group":{"antennae":"X","wings":"2","pattern":"X","legs":"M"},"correct":true,"bonus":1.480000000000001},{"rt":4106.0999999940395,"stimulus":"<p>Congrats, you got everything right<br>When you're ready, click the button below to continue to the experiment.</p>","response":0,"trial_type":"html-button-response","trial_index":6,"time_elapsed":325483,"internal_node_id":"0.0-3.0-3.0","subject_id":"6100420439c2eeab8326fe25","study_id":"6197b3f67c2b5cd3b6d9596a","session_id":"6197b9f04c1af4d577c279a1","condition":"full-information","relevant_dimensions":["wings","legs"],"bee_group":{"antennae":"X","wings":"2","pattern":"X","legs":"M"},"bonus":1.480000000000001},{"rt":12375.09999999404,"stimulus":"bees-with-color/bee-B2DM.svg","response":0,"trial_type":"image-button-response","trial_index":7,"time_elapsed":337862,"internal_node_id":"0.0-4.0-0.0","subject_id":"6100420439c2eeab8326fe25","study_id":"6197b3f67c2b5cd3b6d9596a","session_id":"6197b9f04c1af4d577c279a1","condition":"full-information","relevant_dimensions":["wings","legs"],"bee_group":{"antennae":"X","wings":"2","pattern":"X","legs":"M"},"action":"harvest","summary":"bad-harvest","bonus":1.480000000000001},{"rt":37727.19999998808,"stimulus":"\n                    <p><b>Action: <em>harvest</em></b></p>\n                    <p>This is the bee that you just saw.</p>\n                    <img src=\"bees-with-color/bee-B2DM.svg\" width=\"200\">\n                    <p><span class=\"redText\">Bad choice, the bee was angry.</span><br><b>You have been stung!</b><br>Your pay has been decreased by $0.10. Your bonus pay is now $0.44.</p>\n            ","response":0,"trial_type":"html-button-response","trial_index":8,"time_elapsed":375594,"internal_node_id":"0.0-4.0-1.0","subject_id":"6100420439c2eeab8326fe25","study_id":"6197b3f67c2b5cd3b6d9596a","session_id":"6197b9f04c1af4d577c279a1","condition":"full-information","relevant_dimensions":["wings","legs"],"bee_group":{"antennae":"X","wings":"2","pattern":"X","legs":"M"},"bonus":1.480000000000001},{"rt":2674.300000011921,"stimulus":"bees-with-color/bee-A1DF.svg","response":0,"trial_type":"image-button-response","trial_index":9,"time_elapsed":378273,"internal_node_id":"0.0-4.0-0.1","subject_id":"6100420439c2eeab8326fe25","study_id":"6197b3f67c2b5cd3b6d9596a","session_id":"6197b9f04c1af4d577c279a1","condition":"full-information","relevant_dimensions":["wings","legs"],"bee_group":{"antennae":"X","wings":"2","pattern":"X","legs":"M"},"action":"harvest","summary":"good-harvest","bonus":1.480000000000001},{"rt":27502.09999999404,"stimulus":"\n                    <p><b>Action: <em>harvest</em></b></p>\n                    <p>This is the bee that you just saw.</p>\n                    <img src=\"bees-with-color/bee-A1DF.svg\" width=\"200\">\n                    <p><span class=\"greenText\"><b>Successful harvest!</b></span><br>Your pay has increased by $0.02. Your bonus pay is now $0.46.</p>\n            ","response":0,"trial_type":"html-button-response","trial_index":10,"time_elapsed":405778,"internal_node_id":"0.0-4.0-1.1","subject_id":"6100420439c2eeab8326fe25","study_id":"6197b3f67c2b5cd3b6d9596a","session_id":"6197b9f04c1af4d577c279a1","condition":"full-information","relevant_dimensions":["wings","legs"],"bee_group":{"antennae":"X","wings":"2","pattern":"X","legs":"M"},"bonus":1.480000000000001},{"rt":8583.199999988079,"stimulus":"bees-with-color/bee-B1DM.svg","response":1,"trial_type":"image-button-response","trial_index":11,"time_elapsed":414365,"internal_node_id":"0.0-4.0-0.2","subject_id":"6100420439c2eeab8326fe25","study_id":"6197b3f67c2b5cd3b6d9596a","session_id":"6197b9f04c1af4d577c279a1","condition":"full-information","relevant_dimensions":["wings","legs"],"bee_group":{"antennae":"X","wings":"2","pattern":"X","legs":"M"},"action":"avoid","summary":"bad-avoid","bonus":1.480000000000001},{"rt":51689.20000001788,"stimulus":"\n                    <p><b>Action: <em>avoid</em></b></p>\n                    <p>This is the bee that you just saw.</p>\n                    <img src=\"bees-with-color/bee-B1DM.svg\" width=\"200\">\n                    <p><span class=\"redText\">Bad choice,</span> the bee was friendly.<br>Your bonus pay is unchanged, and remains at $0.46.</p>\n            ","response":0,"trial_type":"html-button-response","trial_index":12,"time_elapsed":466057,"internal_node_id":"0.0-4.0-1.2","subject_id":"6100420439c2eeab8326fe25","study_id":"6197b3f67c2b5cd3b6d9596a","session_id":"6197b9f04c1af4d577c279a1","condition":"full-information","relevant_dimensions":["wings","legs"],"bee_group":{"antennae":"X","wings":"2","pattern":"X","legs":"M"},"bonus":1.480000000000001},{"rt":6846.100000023842,"stimulus":"bees-with-color/bee-A2DF.svg","response":1,"trial_type":"image-button-response","trial_index":13,"time_elapsed":472906,"internal_node_id":"0.0-4.0-0.3","subject_id":"6100420439c2eeab8326fe25","study_id":"6197b3f67c2b5cd3b6d9596a","session_id":"6197b9f04c1af4d577c279a1","condition":"full-information","relevant_dimensions":["wings","legs"],"bee_group":{"antennae":"X","wings":"2","pattern":"X","legs":"M"},"action":"avoid","summary":"bad-avoid","bonus":1.480000000000001},{"rt":39431.69999998808,"stimulus":"\n                    <p><b>Action: <em>avoid</em></b></p>\n                    <p>This is the bee that you just saw.</p>\n                    <img src=\"bees-with-color/bee-A2DF.svg\" width=\"200\">\n                    <p><span class=\"redText\">Bad choice,</span> the bee was friendly.<br>Your bonus pay is unchanged, and remains at $0.46.</p>\n            ","response":0,"trial_type":"html-button-response","trial_index":14,"time_elapsed":512341,"internal_node_id":"0.0-4.0-1.3","subject_id":"6100420439c2eeab8326fe25","study_id":"6197b3f67c2b5cd3b6d9596a","session_id":"6197b9f04c1af4d577c279a1","condition":"full-information","relevant_dimensions":["wings","legs"],"bee_group":{"antennae":"X","wings":"2","pattern":"X","legs":"M"},"bonus":1.480000000000001},{"rt":4129.300000011921,"stimulus":"bees-with-color/bee-A2DM.svg","response":1,"trial_type":"image-button-response","trial_index":15,"time_elapsed":516474,"internal_node_id":"0.0-4.0-0.4","subject_id":"6100420439c2eeab8326fe25","study_id":"6197b3f67c2b5cd3b6d9596a","session_id":"6197b9f04c1af4d577c279a1","condition":"full-information","relevant_dimensions":["wings","legs"],"bee_group":{"antennae":"X","wings":"2","pattern":"X","legs":"M"},"action":"avoid","summary":"good-avoid","bonus":1.480000000000001},{"rt":40220.70000001788,"stimulus":"\n                    <p><b>Action: <em>avoid</em></b></p>\n                    <p>This is the bee that you just saw.</p>\n                    <img src=\"bees-with-color/bee-A2DM.svg\" width=\"200\">\n                    <p><span class=\"greenText\">Good choice!</span>  This bee would have stung you.<br>Your bonus pay is unchanged, and remains at $0.46.</p>\n            ","response":0,"trial_type":"html-button-response","trial_index":16,"time_elapsed":556698,"internal_node_id":"0.0-4.0-1.4","subject_id":"6100420439c2eeab8326fe25","study_id":"6197b3f67c2b5cd3b6d9596a","session_id":"6197b9f04c1af4d577c279a1","condition":"full-information","relevant_dimensions":["wings","legs"],"bee_group":{"antennae":"X","wings":"2","pattern":"X","legs":"M"},"bonus":1.480000000000001},{"rt":9885.699999988079,"stimulus":"bees-with-color/bee-B1DF.svg","response":1,"trial_type":"image-button-response","trial_index":17,"time_elapsed":566588,"internal_node_id":"0.0-4.0-0.5","subject_id":"6100420439c2eeab8326fe25","study_id":"6197b3f67c2b5cd3b6d9596a","session_id":"6197b9f04c1af4d577c279a1","condition":"full-information","relevant_dimensions":["wings","legs"],"bee_group":{"antennae":"X","wings":"2","pattern":"X","legs":"M"},"action":"avoid","summary":"bad-avoid","bonus":1.480000000000001},{"rt":28940.69999998808,"stimulus":"\n                    <p><b>Action: <em>avoid</em></b></p>\n                    <p>This is the bee that you just saw.</p>\n                    <img src=\"bees-with-color/bee-B1DF.svg\" width=\"200\">\n                    <p><span class=\"redText\">Bad choice,</span> the bee was friendly.<br>Your bonus pay is unchanged, and remains at $0.46.</p>\n            ","response":0,"trial_type":"html-button-response","trial_index":18,"time_elapsed":595532,"internal_node_id":"0.0-4.0-1.5","subject_id":"6100420439c2eeab8326fe25","study_id":"6197b3f67c2b5cd3b6d9596a","session_id":"6197b9f04c1af4d577c279a1","condition":"full-information","relevant_dimensions":["wings","legs"],"bee_group":{"antennae":"X","wings":"2","pattern":"X","legs":"M"},"bonus":1.480000000000001},{"rt":13605.09999999404,"stimulus":"bees-with-color/bee-B1SF.svg","response":0,"trial_type":"image-button-response","trial_index":19,"time_elapsed":609141,"internal_node_id":"0.0-4.0-0.6","subject_id":"6100420439c2eeab8326fe25","study_id":"6197b3f67c2b5cd3b6d9596a","session_id":"6197b9f04c1af4d577c279a1","condition":"full-information","relevant_dimensions":["wings","legs"],"bee_group":{"antennae":"X","wings":"2","pattern":"X","legs":"M"},"action":"harvest","summary":"good-harvest","bonus":1.480000000000001},{"rt":26362.59999999404,"stimulus":"\n                    <p><b>Action: <em>harvest</em></b></p>\n                    <p>This is the bee that you just saw.</p>\n                    <img src=\"bees-with-color/bee-B1SF.svg\" width=\"200\">\n                    <p><span class=\"greenText\"><b>Successful harvest!</b></span><br>Your pay has increased by $0.02. Your bonus pay is now $0.48.</p>\n            ","response":0,"trial_type":"html-button-response","trial_index":20,"time_elapsed":635507,"internal_node_id":"0.0-4.0-1.6","subject_id":"6100420439c2eeab8326fe25","study_id":"6197b3f67c2b5cd3b6d9596a","session_id":"6197b9f04c1af4d577c279a1","condition":"full-information","relevant_dimensions":["wings","legs"],"bee_group":{"antennae":"X","wings":"2","pattern":"X","legs":"M"},"bonus":1.480000000000001},{"rt":31392.70000001788,"stimulus":"bees-with-color/bee-A1DM.svg","response":1,"trial_type":"image-button-response","trial_index":21,"time_elapsed":666903,"internal_node_id":"0.0-4.0-0.7","subject_id":"6100420439c2eeab8326fe25","study_id":"6197b3f67c2b5cd3b6d9596a","session_id":"6197b9f04c1af4d577c279a1","condition":"full-information","relevant_dimensions":["wings","legs"],"bee_group":{"antennae":"X","wings":"2","pattern":"X","legs":"M"},"action":"avoid","summary":"bad-avoid","bonus":1.480000000000001},{"rt":13603.90000000596,"stimulus":"\n                    <p><b>Action: <em>avoid</em></b></p>\n                    <p>This is the bee that you just saw.</p>\n                    <img src=\"bees-with-color/bee-A1DM.svg\" width=\"200\">\n                    <p><span class=\"redText\">Bad choice,</span> the bee was friendly.<br>Your bonus pay is unchanged, and remains at $0.48.</p>\n            ","response":0,"trial_type":"html-button-response","trial_index":22,"time_elapsed":680509,"internal_node_id":"0.0-4.0-1.7","subject_id":"6100420439c2eeab8326fe25","study_id":"6197b3f67c2b5cd3b6d9596a","session_id":"6197b9f04c1af4d577c279a1","condition":"full-information","relevant_dimensions":["wings","legs"],"bee_group":{"antennae":"X","wings":"2","pattern":"X","legs":"M"},"bonus":1.480000000000001},{"rt":19157.5,"stimulus":"bees-with-color/bee-A2SF.svg","response":1,"trial_type":"image-button-response","trial_index":23,"time_elapsed":699670,"internal_node_id":"0.0-4.0-0.8","subject_id":"6100420439c2eeab8326fe25","study_id":"6197b3f67c2b5cd3b6d9596a","session_id":"6197b9f04c1af4d577c279a1","condition":"full-information","relevant_dimensions":["wings","legs"],"bee_group":{"antennae":"X","wings":"2","pattern":"X","legs":"M"},"action":"avoid","summary":"bad-avoid","bonus":1.480000000000001},{"rt":5985.0999999940395,"stimulus":"\n                    <p><b>Action: <em>avoid</em></b></p>\n                    <p>This is the bee that you just saw.</p>\n                    <img src=\"bees-with-color/bee-A2SF.svg\" width=\"200\">\n                    <p><span class=\"redText\">Bad choice,</span> the bee was friendly.<br>Your bonus pay is unchanged, and remains at $0.48.</p>\n            ","response":0,"trial_type":"html-button-response","trial_index":24,"time_elapsed":705657,"internal_node_id":"0.0-4.0-1.8","subject_id":"6100420439c2eeab8326fe25","study_id":"6197b3f67c2b5cd3b6d9596a","session_id":"6197b9f04c1af4d577c279a1","condition":"full-information","relevant_dimensions":["wings","legs"],"bee_group":{"antennae":"X","wings":"2","pattern":"X","legs":"M"},"bonus":1.480000000000001},{"rt":6788.600000023842,"stimulus":"bees-with-color/bee-A1SF.svg","response":1,"trial_type":"image-button-response","trial_index":25,"time_elapsed":712449,"internal_node_id":"0.0-4.0-0.9","subject_id":"6100420439c2eeab8326fe25","study_id":"6197b3f67c2b5cd3b6d9596a","session_id":"6197b9f04c1af4d577c279a1","condition":"full-information","relevant_dimensions":["wings","legs"],"bee_group":{"antennae":"X","wings":"2","pattern":"X","legs":"M"},"action":"avoid","summary":"bad-avoid","bonus":1.480000000000001},{"rt":8573.800000011921,"stimulus":"\n                    <p><b>Action: <em>avoid</em></b></p>\n                    <p>This is the bee that you just saw.</p>\n                    <img src=\"bees-with-color/bee-A1SF.svg\" width=\"200\">\n                    <p><span class=\"redText\">Bad choice,</span> the bee was friendly.<br>Your bonus pay is unchanged, and remains at $0.48.</p>\n            ","response":0,"trial_type":"html-button-response","trial_index":26,"time_elapsed":721025,"internal_node_id":"0.0-4.0-1.9","subject_id":"6100420439c2eeab8326fe25","study_id":"6197b3f67c2b5cd3b6d9596a","session_id":"6197b9f04c1af4d577c279a1","condition":"full-information","relevant_dimensions":["wings","legs"],"bee_group":{"antennae":"X","wings":"2","pattern":"X","legs":"M"},"bonus":1.480000000000001},{"rt":5924.700000017881,"stimulus":"bees-with-color/bee-B2SF.svg","response":1,"trial_type":"image-button-response","trial_index":27,"time_elapsed":726953,"internal_node_id":"0.0-4.0-0.10","subject_id":"6100420439c2eeab8326fe25","study_id":"6197b3f67c2b5cd3b6d9596a","session_id":"6197b9f04c1af4d577c279a1","condition":"full-information","relevant_dimensions":["wings","legs"],"bee_group":{"antennae":"X","wings":"2","pattern":"X","legs":"M"},"action":"avoid","summary":"bad-avoid","bonus":1.480000000000001},{"rt":10085.100000023842,"stimulus":"\n                    <p><b>Action: <em>avoid</em></b></p>\n                    <p>This is the bee that you just saw.</p>\n                    <img src=\"bees-with-color/bee-B2SF.svg\" width=\"200\">\n                    <p><span class=\"redText\">Bad choice,</span> the bee was friendly.<br>Your bonus pay is unchanged, and remains at $0.48.</p>\n            ","response":0,"trial_type":"html-button-response","trial_index":28,"time_elapsed":737040,"internal_node_id":"0.0-4.0-1.10","subject_id":"6100420439c2eeab8326fe25","study_id":"6197b3f67c2b5cd3b6d9596a","session_id":"6197b9f04c1af4d577c279a1","condition":"full-information","relevant_dimensions":["wings","legs"],"bee_group":{"antennae":"X","wings":"2","pattern":"X","legs":"M"},"bonus":1.480000000000001},{"rt":25110.59999999404,"stimulus":"bees-with-color/bee-B2DF.svg","response":0,"trial_type":"image-button-response","trial_index":29,"time_elapsed":762154,"internal_node_id":"0.0-4.0-0.11","subject_id":"6100420439c2eeab8326fe25","study_id":"6197b3f67c2b5cd3b6d9596a","session_id":"6197b9f04c1af4d577c279a1","condition":"full-information","relevant_dimensions":["wings","legs"],"bee_group":{"antennae":"X","wings":"2","pattern":"X","legs":"M"},"action":"harvest","summary":"good-harvest","bonus":1.480000000000001},{"rt":18244.09999999404,"stimulus":"\n                    <p><b>Action: <em>harvest</em></b></p>\n                    <p>This is the bee that you just saw.</p>\n                    <img src=\"bees-with-color/bee-B2DF.svg\" width=\"200\">\n                    <p><span class=\"greenText\"><b>Successful harvest!</b></span><br>Your pay has increased by $0.02. Your bonus pay is now $0.50.</p>\n            ","response":0,"trial_type":"html-button-response","trial_index":30,"time_elapsed":780401,"internal_node_id":"0.0-4.0-1.11","subject_id":"6100420439c2eeab8326fe25","study_id":"6197b3f67c2b5cd3b6d9596a","session_id":"6197b9f04c1af4d577c279a1","condition":"full-information","relevant_dimensions":["wings","legs"],"bee_group":{"antennae":"X","wings":"2","pattern":"X","legs":"M"},"bonus":1.480000000000001},{"rt":21775.59999999404,"stimulus":"bees-with-color/bee-B1SM.svg","response":1,"trial_type":"image-button-response","trial_index":31,"time_elapsed":802179,"internal_node_id":"0.0-4.0-0.12","subject_id":"6100420439c2eeab8326fe25","study_id":"6197b3f67c2b5cd3b6d9596a","session_id":"6197b9f04c1af4d577c279a1","condition":"full-information","relevant_dimensions":["wings","legs"],"bee_group":{"antennae":"X","wings":"2","pattern":"X","legs":"M"},"action":"avoid","summary":"bad-avoid","bonus":1.480000000000001},{"rt":4838.5,"stimulus":"\n                    <p><b>Action: <em>avoid</em></b></p>\n                    <p>This is the bee that you just saw.</p>\n                    <img src=\"bees-with-color/bee-B1SM.svg\" width=\"200\">\n                    <p><span class=\"redText\">Bad choice,</span> the bee was friendly.<br>Your bonus pay is unchanged, and remains at $0.50.</p>\n            ","response":0,"trial_type":"html-button-response","trial_index":32,"time_elapsed":807020,"internal_node_id":"0.0-4.0-1.12","subject_id":"6100420439c2eeab8326fe25","study_id":"6197b3f67c2b5cd3b6d9596a","session_id":"6197b9f04c1af4d577c279a1","condition":"full-information","relevant_dimensions":["wings","legs"],"bee_group":{"antennae":"X","wings":"2","pattern":"X","legs":"M"},"bonus":1.480000000000001},{"rt":11003.799999982119,"stimulus":"bees-with-color/bee-A1SM.svg","response":0,"trial_type":"image-button-response","trial_index":33,"time_elapsed":818027,"internal_node_id":"0.0-4.0-0.13","subject_id":"6100420439c2eeab8326fe25","study_id":"6197b3f67c2b5cd3b6d9596a","session_id":"6197b9f04c1af4d577c279a1","condition":"full-information","relevant_dimensions":["wings","legs"],"bee_group":{"antennae":"X","wings":"2","pattern":"X","legs":"M"},"action":"harvest","summary":"good-harvest","bonus":1.480000000000001},{"rt":7104.799999982119,"stimulus":"\n                    <p><b>Action: <em>harvest</em></b></p>\n                    <p>This is the bee that you just saw.</p>\n                    <img src=\"bees-with-color/bee-A1SM.svg\" width=\"200\">\n                    <p><span class=\"greenText\"><b>Successful harvest!</b></span><br>Your pay has increased by $0.02. Your bonus pay is now $0.52.</p>\n            ","response":0,"trial_type":"html-button-response","trial_index":34,"time_elapsed":825135,"internal_node_id":"0.0-4.0-1.13","subject_id":"6100420439c2eeab8326fe25","study_id":"6197b3f67c2b5cd3b6d9596a","session_id":"6197b9f04c1af4d577c279a1","condition":"full-information","relevant_dimensions":["wings","legs"],"bee_group":{"antennae":"X","wings":"2","pattern":"X","legs":"M"},"bonus":1.480000000000001},{"rt":30201.70000001788,"stimulus":"bees-with-color/bee-B2SM.svg","response":1,"trial_type":"image-button-response","trial_index":35,"time_elapsed":855340,"internal_node_id":"0.0-4.0-0.14","subject_id":"6100420439c2eeab8326fe25","study_id":"6197b3f67c2b5cd3b6d9596a","session_id":"6197b9f04c1af4d577c279a1","condition":"full-information","relevant_dimensions":["wings","legs"],"bee_group":{"antennae":"X","wings":"2","pattern":"X","legs":"M"},"action":"avoid","summary":"good-avoid","bonus":1.480000000000001},{"rt":5622.700000017881,"stimulus":"\n                    <p><b>Action: <em>avoid</em></b></p>\n                    <p>This is the bee that you just saw.</p>\n                    <img src=\"bees-with-color/bee-B2SM.svg\" width=\"200\">\n                    <p><span class=\"greenText\">Good choice!</span>  This bee would have stung you.<br>Your bonus pay is unchanged, and remains at $0.52.</p>\n            ","response":0,"trial_type":"html-button-response","trial_index":36,"time_elapsed":860965,"internal_node_id":"0.0-4.0-1.14","subject_id":"6100420439c2eeab8326fe25","study_id":"6197b3f67c2b5cd3b6d9596a","session_id":"6197b9f04c1af4d577c279a1","condition":"full-information","relevant_dimensions":["wings","legs"],"bee_group":{"antennae":"X","wings":"2","pattern":"X","legs":"M"},"bonus":1.480000000000001},{"rt":9171.399999976158,"stimulus":"bees-with-color/bee-A2SM.svg","response":0,"trial_type":"image-button-response","trial_index":37,"time_elapsed":870139,"internal_node_id":"0.0-4.0-0.15","subject_id":"6100420439c2eeab8326fe25","study_id":"6197b3f67c2b5cd3b6d9596a","session_id":"6197b9f04c1af4d577c279a1","condition":"full-information","relevant_dimensions":["wings","legs"],"bee_group":{"antennae":"X","wings":"2","pattern":"X","legs":"M"},"action":"harvest","summary":"bad-harvest","bonus":1.480000000000001},{"rt":7994.9000000059605,"stimulus":"\n                    <p><b>Action: <em>harvest</em></b></p>\n                    <p>This is the bee that you just saw.</p>\n                    <img src=\"bees-with-color/bee-A2SM.svg\" width=\"200\">\n                    <p><span class=\"redText\">Bad choice, the bee was angry.</span><br><b>You have been stung!</b><br>Your pay has been decreased by $0.10. Your bonus pay is now $0.42.</p>\n            ","response":0,"trial_type":"html-button-response","trial_index":38,"time_elapsed":878136,"internal_node_id":"0.0-4.0-1.15","subject_id":"6100420439c2eeab8326fe25","study_id":"6197b3f67c2b5cd3b6d9596a","session_id":"6197b9f04c1af4d577c279a1","condition":"full-information","relevant_dimensions":["wings","legs"],"bee_group":{"antennae":"X","wings":"2","pattern":"X","legs":"M"},"bonus":1.480000000000001},{"rt":16365.59999999404,"stimulus":"bees-with-color/bee-B2DM.svg","response":1,"trial_type":"image-button-response","trial_index":39,"time_elapsed":894505,"internal_node_id":"0.0-4.0-0.16","subject_id":"6100420439c2eeab8326fe25","study_id":"6197b3f67c2b5cd3b6d9596a","session_id":"6197b9f04c1af4d577c279a1","condition":"full-information","relevant_dimensions":["wings","legs"],"bee_group":{"antennae":"X","wings":"2","pattern":"X","legs":"M"},"action":"avoid","summary":"good-avoid","bonus":1.480000000000001},{"rt":1860.6000000238419,"stimulus":"\n                    <p><b>Action: <em>avoid</em></b></p>\n                    <p>This is the bee that you just saw.</p>\n                    <img src=\"bees-with-color/bee-B2DM.svg\" width=\"200\">\n                    <p><span class=\"greenText\">Good choice!</span>  This bee would have stung you.<br>Your bonus pay is unchanged, and remains at $0.42.</p>\n            ","response":0,"trial_type":"html-button-response","trial_index":40,"time_elapsed":896368,"internal_node_id":"0.0-4.0-1.16","subject_id":"6100420439c2eeab8326fe25","study_id":"6197b3f67c2b5cd3b6d9596a","session_id":"6197b9f04c1af4d577c279a1","condition":"full-information","relevant_dimensions":["wings","legs"],"bee_group":{"antennae":"X","wings":"2","pattern":"X","legs":"M"},"bonus":1.480000000000001},{"rt":9141.90000000596,"stimulus":"bees-with-color/bee-B2SM.svg","response":1,"trial_type":"image-button-response","trial_index":41,"time_elapsed":905514,"internal_node_id":"0.0-4.0-0.17","subject_id":"6100420439c2eeab8326fe25","study_id":"6197b3f67c2b5cd3b6d9596a","session_id":"6197b9f04c1af4d577c279a1","condition":"full-information","relevant_dimensions":["wings","legs"],"bee_group":{"antennae":"X","wings":"2","pattern":"X","legs":"M"},"action":"avoid","summary":"good-avoid","bonus":1.480000000000001},{"rt":2027.800000011921,"stimulus":"\n                    <p><b>Action: <em>avoid</em></b></p>\n                    <p>This is the bee that you just saw.</p>\n                    <img src=\"bees-with-color/bee-B2SM.svg\" width=\"200\">\n                    <p><span class=\"greenText\">Good choice!</span>  This bee would have stung you.<br>Your bonus pay is unchanged, and remains at $0.42.</p>\n            ","response":0,"trial_type":"html-button-response","trial_index":42,"time_elapsed":907544,"internal_node_id":"0.0-4.0-1.17","subject_id":"6100420439c2eeab8326fe25","study_id":"6197b3f67c2b5cd3b6d9596a","session_id":"6197b9f04c1af4d577c279a1","condition":"full-information","relevant_dimensions":["wings","legs"],"bee_group":{"antennae":"X","wings":"2","pattern":"X","legs":"M"},"bonus":1.480000000000001},{"rt":9252.59999999404,"stimulus":"bees-with-color/bee-A1SM.svg","response":0,"trial_type":"image-button-response","trial_index":43,"time_elapsed":916800,"internal_node_id":"0.0-4.0-0.18","subject_id":"6100420439c2eeab8326fe25","study_id":"6197b3f67c2b5cd3b6d9596a","session_id":"6197b9f04c1af4d577c279a1","condition":"full-information","relevant_dimensions":["wings","legs"],"bee_group":{"antennae":"X","wings":"2","pattern":"X","legs":"M"},"action":"harvest","summary":"good-harvest","bonus":1.480000000000001},{"rt":1476.5999999940395,"stimulus":"\n                    <p><b>Action: <em>harvest</em></b></p>\n                    <p>This is the bee that you just saw.</p>\n                    <img src=\"bees-with-color/bee-A1SM.svg\" width=\"200\">\n                    <p><span class=\"greenText\"><b>Successful harvest!</b></span><br>Your pay has increased by $0.02. Your bonus pay is now $0.44.</p>\n            ","response":0,"trial_type":"html-button-response","trial_index":44,"time_elapsed":918279,"internal_node_id":"0.0-4.0-1.18","subject_id":"6100420439c2eeab8326fe25","study_id":"6197b3f67c2b5cd3b6d9596a","session_id":"6197b9f04c1af4d577c279a1","condition":"full-information","relevant_dimensions":["wings","legs"],"bee_group":{"antennae":"X","wings":"2","pattern":"X","legs":"M"},"bonus":1.480000000000001},{"rt":15232.5,"stimulus":"bees-with-color/bee-B2DF.svg","response":0,"trial_type":"image-button-response","trial_index":45,"time_elapsed":933515,"internal_node_id":"0.0-4.0-0.19","subject_id":"6100420439c2eeab8326fe25","study_id":"6197b3f67c2b5cd3b6d9596a","session_id":"6197b9f04c1af4d577c279a1","condition":"full-information","relevant_dimensions":["wings","legs"],"bee_group":{"antennae":"X","wings":"2","pattern":"X","legs":"M"},"action":"harvest","summary":"good-harvest","bonus":1.480000000000001},{"rt":1499.300000011921,"stimulus":"\n                    <p><b>Action: <em>harvest</em></b></p>\n                    <p>This is the bee that you just saw.</p>\n                    <img src=\"bees-with-color/bee-B2DF.svg\" width=\"200\">\n                    <p><span class=\"greenText\"><b>Successful harvest!</b></span><br>Your pay has increased by $0.02. Your bonus pay is now $0.46.</p>\n            ","response":0,"trial_type":"html-button-response","trial_index":46,"time_elapsed":935017,"internal_node_id":"0.0-4.0-1.19","subject_id":"6100420439c2eeab8326fe25","study_id":"6197b3f67c2b5cd3b6d9596a","session_id":"6197b9f04c1af4d577c279a1","condition":"full-information","relevant_dimensions":["wings","legs"],"bee_group":{"antennae":"X","wings":"2","pattern":"X","legs":"M"},"bonus":1.480000000000001},{"rt":9970.90000000596,"stimulus":"bees-with-color/bee-A2SF.svg","response":0,"trial_type":"image-button-response","trial_index":47,"time_elapsed":944991,"internal_node_id":"0.0-4.0-0.20","subject_id":"6100420439c2eeab8326fe25","study_id":"6197b3f67c2b5cd3b6d9596a","session_id":"6197b9f04c1af4d577c279a1","condition":"full-information","relevant_dimensions":["wings","legs"],"bee_group":{"antennae":"X","wings":"2","pattern":"X","legs":"M"},"action":"harvest","summary":"good-harvest","bonus":1.480000000000001},{"rt":1130,"stimulus":"\n                    <p><b>Action: <em>harvest</em></b></p>\n                    <p>This is the bee that you just saw.</p>\n                    <img src=\"bees-with-color/bee-A2SF.svg\" width=\"200\">\n                    <p><span class=\"greenText\"><b>Successful harvest!</b></span><br>Your pay has increased by $0.02. Your bonus pay is now $0.48.</p>\n            ","response":0,"trial_type":"html-button-response","trial_index":48,"time_elapsed":946123,"internal_node_id":"0.0-4.0-1.20","subject_id":"6100420439c2eeab8326fe25","study_id":"6197b3f67c2b5cd3b6d9596a","session_id":"6197b9f04c1af4d577c279a1","condition":"full-information","relevant_dimensions":["wings","legs"],"bee_group":{"antennae":"X","wings":"2","pattern":"X","legs":"M"},"bonus":1.480000000000001},{"rt":11265.40000000596,"stimulus":"bees-with-color/bee-A2DF.svg","response":0,"trial_type":"image-button-response","trial_index":49,"time_elapsed":957391,"internal_node_id":"0.0-4.0-0.21","subject_id":"6100420439c2eeab8326fe25","study_id":"6197b3f67c2b5cd3b6d9596a","session_id":"6197b9f04c1af4d577c279a1","condition":"full-information","relevant_dimensions":["wings","legs"],"bee_group":{"antennae":"X","wings":"2","pattern":"X","legs":"M"},"action":"harvest","summary":"good-harvest","bonus":1.480000000000001},{"rt":1297.9000000059605,"stimulus":"\n                    <p><b>Action: <em>harvest</em></b></p>\n                    <p>This is the bee that you just saw.</p>\n                    <img src=\"bees-with-color/bee-A2DF.svg\" width=\"200\">\n                    <p><span class=\"greenText\"><b>Successful harvest!</b></span><br>Your pay has increased by $0.02. Your bonus pay is now $0.50.</p>\n            ","response":0,"trial_type":"html-button-response","trial_index":50,"time_elapsed":958692,"internal_node_id":"0.0-4.0-1.21","subject_id":"6100420439c2eeab8326fe25","study_id":"6197b3f67c2b5cd3b6d9596a","session_id":"6197b9f04c1af4d577c279a1","condition":"full-information","relevant_dimensions":["wings","legs"],"bee_group":{"antennae":"X","wings":"2","pattern":"X","legs":"M"},"bonus":1.480000000000001},{"rt":11753.5,"stimulus":"bees-with-color/bee-B1DF.svg","response":1,"trial_type":"image-button-response","trial_index":51,"time_elapsed":970448,"internal_node_id":"0.0-4.0-0.22","subject_id":"6100420439c2eeab8326fe25","study_id":"6197b3f67c2b5cd3b6d9596a","session_id":"6197b9f04c1af4d577c279a1","condition":"full-information","relevant_dimensions":["wings","legs"],"bee_group":{"antennae":"X","wings":"2","pattern":"X","legs":"M"},"action":"avoid","summary":"bad-avoid","bonus":1.480000000000001},{"rt":17859.40000000596,"stimulus":"\n                    <p><b>Action: <em>avoid</em></b></p>\n                    <p>This is the bee that you just saw.</p>\n                    <img src=\"bees-with-color/bee-B1DF.svg\" width=\"200\">\n                    <p><span class=\"redText\">Bad choice,</span> the bee was friendly.<br>Your bonus pay is unchanged, and remains at $0.50.</p>\n            ","response":0,"trial_type":"html-button-response","trial_index":52,"time_elapsed":988310,"internal_node_id":"0.0-4.0-1.22","subject_id":"6100420439c2eeab8326fe25","study_id":"6197b3f67c2b5cd3b6d9596a","session_id":"6197b9f04c1af4d577c279a1","condition":"full-information","relevant_dimensions":["wings","legs"],"bee_group":{"antennae":"X","wings":"2","pattern":"X","legs":"M"},"bonus":1.480000000000001},{"rt":6197.300000011921,"stimulus":"bees-with-color/bee-A1DF.svg","response":0,"trial_type":"image-button-response","trial_index":53,"time_elapsed":994510,"internal_node_id":"0.0-4.0-0.23","subject_id":"6100420439c2eeab8326fe25","study_id":"6197b3f67c2b5cd3b6d9596a","session_id":"6197b9f04c1af4d577c279a1","condition":"full-information","relevant_dimensions":["wings","legs"],"bee_group":{"antennae":"X","wings":"2","pattern":"X","legs":"M"},"action":"harvest","summary":"good-harvest","bonus":1.480000000000001},{"rt":1356.4000000059605,"stimulus":"\n                    <p><b>Action: <em>harvest</em></b></p>\n                    <p>This is the bee that you just saw.</p>\n                    <img src=\"bees-with-color/bee-A1DF.svg\" width=\"200\">\n                    <p><span class=\"greenText\"><b>Successful harvest!</b></span><br>Your pay has increased by $0.02. Your bonus pay is now $0.52.</p>\n            ","response":0,"trial_type":"html-button-response","trial_index":54,"time_elapsed":995869,"internal_node_id":"0.0-4.0-1.23","subject_id":"6100420439c2eeab8326fe25","study_id":"6197b3f67c2b5cd3b6d9596a","session_id":"6197b9f04c1af4d577c279a1","condition":"full-information","relevant_dimensions":["wings","legs"],"bee_group":{"antennae":"X","wings":"2","pattern":"X","legs":"M"},"bonus":1.480000000000001},{"rt":6241.4000000059605,"stimulus":"bees-with-color/bee-A2SM.svg","response":0,"trial_type":"image-button-response","trial_index":55,"time_elapsed":1002113,"internal_node_id":"0.0-4.0-0.24","subject_id":"6100420439c2eeab8326fe25","study_id":"6197b3f67c2b5cd3b6d9596a","session_id":"6197b9f04c1af4d577c279a1","condition":"full-information","relevant_dimensions":["wings","legs"],"bee_group":{"antennae":"X","wings":"2","pattern":"X","legs":"M"},"action":"harvest","summary":"bad-harvest","bonus":1.480000000000001},{"rt":3655.7000000178814,"stimulus":"\n                    <p><b>Action: <em>harvest</em></b></p>\n                    <p>This is the bee that you just saw.</p>\n                    <img src=\"bees-with-color/bee-A2SM.svg\" width=\"200\">\n                    <p><span class=\"redText\">Bad choice, the bee was angry.</span><br><b>You have been stung!</b><br>Your pay has been decreased by $0.10. Your bonus pay is now $0.42.</p>\n            ","response":0,"trial_type":"html-button-response","trial_index":56,"time_elapsed":1005771,"internal_node_id":"0.0-4.0-1.24","subject_id":"6100420439c2eeab8326fe25","study_id":"6197b3f67c2b5cd3b6d9596a","session_id":"6197b9f04c1af4d577c279a1","condition":"full-information","relevant_dimensions":["wings","legs"],"bee_group":{"antennae":"X","wings":"2","pattern":"X","legs":"M"},"bonus":1.480000000000001},{"rt":17901.90000000596,"stimulus":"bees-with-color/bee-A2DM.svg","response":1,"trial_type":"image-button-response","trial_index":57,"time_elapsed":1023676,"internal_node_id":"0.0-4.0-0.25","subject_id":"6100420439c2eeab8326fe25","study_id":"6197b3f67c2b5cd3b6d9596a","session_id":"6197b9f04c1af4d577c279a1","condition":"full-information","relevant_dimensions":["wings","legs"],"bee_group":{"antennae":"X","wings":"2","pattern":"X","legs":"M"},"action":"avoid","summary":"good-avoid","bonus":1.480000000000001},{"rt":1278.7000000178814,"stimulus":"\n                    <p><b>Action: <em>avoid</em></b></p>\n                    <p>This is the bee that you just saw.</p>\n                    <img src=\"bees-with-color/bee-A2DM.svg\" width=\"200\">\n                    <p><span class=\"greenText\">Good choice!</span>  This bee would have stung you.<br>Your bonus pay is unchanged, and remains at $0.42.</p>\n            ","response":0,"trial_type":"html-button-response","trial_index":58,"time_elapsed":1024957,"internal_node_id":"0.0-4.0-1.25","subject_id":"6100420439c2eeab8326fe25","study_id":"6197b3f67c2b5cd3b6d9596a","session_id":"6197b9f04c1af4d577c279a1","condition":"full-information","relevant_dimensions":["wings","legs"],"bee_group":{"antennae":"X","wings":"2","pattern":"X","legs":"M"},"bonus":1.480000000000001},{"rt":10762.800000011921,"stimulus":"bees-with-color/bee-A1DM.svg","response":0,"trial_type":"image-button-response","trial_index":59,"time_elapsed":1035722,"internal_node_id":"0.0-4.0-0.26","subject_id":"6100420439c2eeab8326fe25","study_id":"6197b3f67c2b5cd3b6d9596a","session_id":"6197b9f04c1af4d577c279a1","condition":"full-information","relevant_dimensions":["wings","legs"],"bee_group":{"antennae":"X","wings":"2","pattern":"X","legs":"M"},"action":"harvest","summary":"good-harvest","bonus":1.480000000000001},{"rt":1103,"stimulus":"\n                    <p><b>Action: <em>harvest</em></b></p>\n                    <p>This is the bee that you just saw.</p>\n                    <img src=\"bees-with-color/bee-A1DM.svg\" width=\"200\">\n                    <p><span class=\"greenText\"><b>Successful harvest!</b></span><br>Your pay has increased by $0.02. Your bonus pay is now $0.44.</p>\n            ","response":0,"trial_type":"html-button-response","trial_index":60,"time_elapsed":1036827,"internal_node_id":"0.0-4.0-1.26","subject_id":"6100420439c2eeab8326fe25","study_id":"6197b3f67c2b5cd3b6d9596a","session_id":"6197b9f04c1af4d577c279a1","condition":"full-information","relevant_dimensions":["wings","legs"],"bee_group":{"antennae":"X","wings":"2","pattern":"X","legs":"M"},"bonus":1.480000000000001},{"rt":14524.09999999404,"stimulus":"bees-with-color/bee-B1SM.svg","response":0,"trial_type":"image-button-response","trial_index":61,"time_elapsed":1051354,"internal_node_id":"0.0-4.0-0.27","subject_id":"6100420439c2eeab8326fe25","study_id":"6197b3f67c2b5cd3b6d9596a","session_id":"6197b9f04c1af4d577c279a1","condition":"full-information","relevant_dimensions":["wings","legs"],"bee_group":{"antennae":"X","wings":"2","pattern":"X","legs":"M"},"action":"harvest","summary":"good-harvest","bonus":1.480000000000001},{"rt":1446.8999999761581,"stimulus":"\n                    <p><b>Action: <em>harvest</em></b></p>\n                    <p>This is the bee that you just saw.</p>\n                    <img src=\"bees-with-color/bee-B1SM.svg\" width=\"200\">\n                    <p><span class=\"greenText\"><b>Successful harvest!</b></span><br>Your pay has increased by $0.02. Your bonus pay is now $0.46.</p>\n            ","response":0,"trial_type":"html-button-response","trial_index":62,"time_elapsed":1052803,"internal_node_id":"0.0-4.0-1.27","subject_id":"6100420439c2eeab8326fe25","study_id":"6197b3f67c2b5cd3b6d9596a","session_id":"6197b9f04c1af4d577c279a1","condition":"full-information","relevant_dimensions":["wings","legs"],"bee_group":{"antennae":"X","wings":"2","pattern":"X","legs":"M"},"bonus":1.480000000000001},{"rt":10298.90000000596,"stimulus":"bees-with-color/bee-B1DM.svg","response":0,"trial_type":"image-button-response","trial_index":63,"time_elapsed":1063105,"internal_node_id":"0.0-4.0-0.28","subject_id":"6100420439c2eeab8326fe25","study_id":"6197b3f67c2b5cd3b6d9596a","session_id":"6197b9f04c1af4d577c279a1","condition":"full-information","relevant_dimensions":["wings","legs"],"bee_group":{"antennae":"X","wings":"2","pattern":"X","legs":"M"},"action":"harvest","summary":"good-harvest","bonus":1.480000000000001},{"rt":1296.5999999940395,"stimulus":"\n                    <p><b>Action: <em>harvest</em></b></p>\n                    <p>This is the bee that you just saw.</p>\n                    <img src=\"bees-with-color/bee-B1DM.svg\" width=\"200\">\n                    <p><span class=\"greenText\"><b>Successful harvest!</b></span><br>Your pay has increased by $0.02. Your bonus pay is now $0.48.</p>\n            ","response":0,"trial_type":"html-button-response","trial_index":64,"time_elapsed":1064404,"internal_node_id":"0.0-4.0-1.28","subject_id":"6100420439c2eeab8326fe25","study_id":"6197b3f67c2b5cd3b6d9596a","session_id":"6197b9f04c1af4d577c279a1","condition":"full-information","relevant_dimensions":["wings","legs"],"bee_group":{"antennae":"X","wings":"2","pattern":"X","legs":"M"},"bonus":1.480000000000001},{"rt":10455.90000000596,"stimulus":"bees-with-color/bee-B2SF.svg","response":0,"trial_type":"image-button-response","trial_index":65,"time_elapsed":1074863,"internal_node_id":"0.0-4.0-0.29","subject_id":"6100420439c2eeab8326fe25","study_id":"6197b3f67c2b5cd3b6d9596a","session_id":"6197b9f04c1af4d577c279a1","condition":"full-information","relevant_dimensions":["wings","legs"],"bee_group":{"antennae":"X","wings":"2","pattern":"X","legs":"M"},"action":"harvest","summary":"good-harvest","bonus":1.480000000000001},{"rt":6723.5999999940395,"stimulus":"\n                    <p><b>Action: <em>harvest</em></b></p>\n                    <p>This is the bee that you just saw.</p>\n                    <img src=\"bees-with-color/bee-B2SF.svg\" width=\"200\">\n                    <p><span class=\"greenText\"><b>Successful harvest!</b></span><br>Your pay has increased by $0.02. Your bonus pay is now $0.50.</p>\n            ","response":0,"trial_type":"html-button-response","trial_index":66,"time_elapsed":1081589,"internal_node_id":"0.0-4.0-1.29","subject_id":"6100420439c2eeab8326fe25","study_id":"6197b3f67c2b5cd3b6d9596a","session_id":"6197b9f04c1af4d577c279a1","condition":"full-information","relevant_dimensions":["wings","legs"],"bee_group":{"antennae":"X","wings":"2","pattern":"X","legs":"M"},"bonus":1.480000000000001},{"rt":10468.700000017881,"stimulus":"bees-with-color/bee-A1SF.svg","response":0,"trial_type":"image-button-response","trial_index":67,"time_elapsed":1092061,"internal_node_id":"0.0-4.0-0.30","subject_id":"6100420439c2eeab8326fe25","study_id":"6197b3f67c2b5cd3b6d9596a","session_id":"6197b9f04c1af4d577c279a1","condition":"full-information","relevant_dimensions":["wings","legs"],"bee_group":{"antennae":"X","wings":"2","pattern":"X","legs":"M"},"action":"harvest","summary":"good-harvest","bonus":1.480000000000001},{"rt":1116.199999988079,"stimulus":"\n                    <p><b>Action: <em>harvest</em></b></p>\n                    <p>This is the bee that you just saw.</p>\n                    <img src=\"bees-with-color/bee-A1SF.svg\" width=\"200\">\n                    <p><span class=\"greenText\"><b>Successful harvest!</b></span><br>Your pay has increased by $0.02. Your bonus pay is now $0.52.</p>\n            ","response":0,"trial_type":"html-button-response","trial_index":68,"time_elapsed":1093180,"internal_node_id":"0.0-4.0-1.30","subject_id":"6100420439c2eeab8326fe25","study_id":"6197b3f67c2b5cd3b6d9596a","session_id":"6197b9f04c1af4d577c279a1","condition":"full-information","relevant_dimensions":["wings","legs"],"bee_group":{"antennae":"X","wings":"2","pattern":"X","legs":"M"},"bonus":1.480000000000001},{"rt":8248.100000023842,"stimulus":"bees-with-color/bee-B1SF.svg","response":0,"trial_type":"image-button-response","trial_index":69,"time_elapsed":1101431,"internal_node_id":"0.0-4.0-0.31","subject_id":"6100420439c2eeab8326fe25","study_id":"6197b3f67c2b5cd3b6d9596a","session_id":"6197b9f04c1af4d577c279a1","condition":"full-information","relevant_dimensions":["wings","legs"],"bee_group":{"antennae":"X","wings":"2","pattern":"X","legs":"M"},"action":"harvest","summary":"good-harvest","bonus":1.480000000000001},{"rt":1346,"stimulus":"\n                    <p><b>Action: <em>harvest</em></b></p>\n                    <p>This is the bee that you just saw.</p>\n                    <img src=\"bees-with-color/bee-B1SF.svg\" width=\"200\">\n                    <p><span class=\"greenText\"><b>Successful harvest!</b></span><br>Your pay has increased by $0.02. Your bonus pay is now $0.54.</p>\n            ","response":0,"trial_type":"html-button-response","trial_index":70,"time_elapsed":1102780,"internal_node_id":"0.0-4.0-1.31","subject_id":"6100420439c2eeab8326fe25","study_id":"6197b3f67c2b5cd3b6d9596a","session_id":"6197b9f04c1af4d577c279a1","condition":"full-information","relevant_dimensions":["wings","legs"],"bee_group":{"antennae":"X","wings":"2","pattern":"X","legs":"M"},"bonus":1.480000000000001},{"rt":7710.9000000059605,"stimulus":"bees-with-color/bee-A1SF.svg","response":0,"trial_type":"image-button-response","trial_index":71,"time_elapsed":1110494,"internal_node_id":"0.0-4.0-0.32","subject_id":"6100420439c2eeab8326fe25","study_id":"6197b3f67c2b5cd3b6d9596a","session_id":"6197b9f04c1af4d577c279a1","condition":"full-information","relevant_dimensions":["wings","legs"],"bee_group":{"antennae":"X","wings":"2","pattern":"X","legs":"M"},"action":"harvest","summary":"good-harvest","bonus":1.480000000000001},{"rt":1555.800000011921,"stimulus":"\n                    <p><b>Action: <em>harvest</em></b></p>\n                    <p>This is the bee that you just saw.</p>\n                    <img src=\"bees-with-color/bee-A1SF.svg\" width=\"200\">\n                    <p><span class=\"greenText\"><b>Successful harvest!</b></span><br>Your pay has increased by $0.02. Your bonus pay is now $0.56.</p>\n            ","response":0,"trial_type":"html-button-response","trial_index":72,"time_elapsed":1112052,"internal_node_id":"0.0-4.0-1.32","subject_id":"6100420439c2eeab8326fe25","study_id":"6197b3f67c2b5cd3b6d9596a","session_id":"6197b9f04c1af4d577c279a1","condition":"full-information","relevant_dimensions":["wings","legs"],"bee_group":{"antennae":"X","wings":"2","pattern":"X","legs":"M"},"bonus":1.480000000000001},{"rt":20101.90000000596,"stimulus":"bees-with-color/bee-A1DM.svg","response":0,"trial_type":"image-button-response","trial_index":73,"time_elapsed":1132157,"internal_node_id":"0.0-4.0-0.33","subject_id":"6100420439c2eeab8326fe25","study_id":"6197b3f67c2b5cd3b6d9596a","session_id":"6197b9f04c1af4d577c279a1","condition":"full-information","relevant_dimensions":["wings","legs"],"bee_group":{"antennae":"X","wings":"2","pattern":"X","legs":"M"},"action":"harvest","summary":"good-harvest","bonus":1.480000000000001},{"rt":1262.5999999940395,"stimulus":"\n                    <p><b>Action: <em>harvest</em></b></p>\n                    <p>This is the bee that you just saw.</p>\n                    <img src=\"bees-with-color/bee-A1DM.svg\" width=\"200\">\n                    <p><span class=\"greenText\"><b>Successful harvest!</b></span><br>Your pay has increased by $0.02. Your bonus pay is now $0.58.</p>\n            ","response":0,"trial_type":"html-button-response","trial_index":74,"time_elapsed":1133422,"internal_node_id":"0.0-4.0-1.33","subject_id":"6100420439c2eeab8326fe25","study_id":"6197b3f67c2b5cd3b6d9596a","session_id":"6197b9f04c1af4d577c279a1","condition":"full-information","relevant_dimensions":["wings","legs"],"bee_group":{"antennae":"X","wings":"2","pattern":"X","legs":"M"},"bonus":1.480000000000001},{"rt":7623.600000023842,"stimulus":"bees-with-color/bee-B1DF.svg","response":1,"trial_type":"image-button-response","trial_index":75,"time_elapsed":1141049,"internal_node_id":"0.0-4.0-0.34","subject_id":"6100420439c2eeab8326fe25","study_id":"6197b3f67c2b5cd3b6d9596a","session_id":"6197b9f04c1af4d577c279a1","condition":"full-information","relevant_dimensions":["wings","legs"],"bee_group":{"antennae":"X","wings":"2","pattern":"X","legs":"M"},"action":"avoid","summary":"bad-avoid","bonus":1.480000000000001},{"rt":14777.199999988079,"stimulus":"\n                    <p><b>Action: <em>avoid</em></b></p>\n                    <p>This is the bee that you just saw.</p>\n                    <img src=\"bees-with-color/bee-B1DF.svg\" width=\"200\">\n                    <p><span class=\"redText\">Bad choice,</span> the bee was friendly.<br>Your bonus pay is unchanged, and remains at $0.58.</p>\n            ","response":0,"trial_type":"html-button-response","trial_index":76,"time_elapsed":1155829,"internal_node_id":"0.0-4.0-1.34","subject_id":"6100420439c2eeab8326fe25","study_id":"6197b3f67c2b5cd3b6d9596a","session_id":"6197b9f04c1af4d577c279a1","condition":"full-information","relevant_dimensions":["wings","legs"],"bee_group":{"antennae":"X","wings":"2","pattern":"X","legs":"M"},"bonus":1.480000000000001},{"rt":8812.5,"stimulus":"bees-with-color/bee-B1DM.svg","response":0,"trial_type":"image-button-response","trial_index":77,"time_elapsed":1164645,"internal_node_id":"0.0-4.0-0.35","subject_id":"6100420439c2eeab8326fe25","study_id":"6197b3f67c2b5cd3b6d9596a","session_id":"6197b9f04c1af4d577c279a1","condition":"full-information","relevant_dimensions":["wings","legs"],"bee_group":{"antennae":"X","wings":"2","pattern":"X","legs":"M"},"action":"harvest","summary":"good-harvest","bonus":1.480000000000001},{"rt":1155,"stimulus":"\n                    <p><b>Action: <em>harvest</em></b></p>\n                    <p>This is the bee that you just saw.</p>\n                    <img src=\"bees-with-color/bee-B1DM.svg\" width=\"200\">\n                    <p><span class=\"greenText\"><b>Successful harvest!</b></span><br>Your pay has increased by $0.02. Your bonus pay is now $0.60.</p>\n            ","response":0,"trial_type":"html-button-response","trial_index":78,"time_elapsed":1165803,"internal_node_id":"0.0-4.0-1.35","subject_id":"6100420439c2eeab8326fe25","study_id":"6197b3f67c2b5cd3b6d9596a","session_id":"6197b9f04c1af4d577c279a1","condition":"full-information","relevant_dimensions":["wings","legs"],"bee_group":{"antennae":"X","wings":"2","pattern":"X","legs":"M"},"bonus":1.480000000000001},{"rt":9696.59999999404,"stimulus":"bees-with-color/bee-A2SM.svg","response":1,"trial_type":"image-button-response","trial_index":79,"time_elapsed":1175502,"internal_node_id":"0.0-4.0-0.36","subject_id":"6100420439c2eeab8326fe25","study_id":"6197b3f67c2b5cd3b6d9596a","session_id":"6197b9f04c1af4d577c279a1","condition":"full-information","relevant_dimensions":["wings","legs"],"bee_group":{"antennae":"X","wings":"2","pattern":"X","legs":"M"},"action":"avoid","summary":"good-avoid","bonus":1.480000000000001},{"rt":1351.9000000059605,"stimulus":"\n                    <p><b>Action: <em>avoid</em></b></p>\n                    <p>This is the bee that you just saw.</p>\n                    <img src=\"bees-with-color/bee-A2SM.svg\" width=\"200\">\n                    <p><span class=\"greenText\">Good choice!</span>  This bee would have stung you.<br>Your bonus pay is unchanged, and remains at $0.60.</p>\n            ","response":0,"trial_type":"html-button-response","trial_index":80,"time_elapsed":1176857,"internal_node_id":"0.0-4.0-1.36","subject_id":"6100420439c2eeab8326fe25","study_id":"6197b3f67c2b5cd3b6d9596a","session_id":"6197b9f04c1af4d577c279a1","condition":"full-information","relevant_dimensions":["wings","legs"],"bee_group":{"antennae":"X","wings":"2","pattern":"X","legs":"M"},"bonus":1.480000000000001},{"rt":11223.59999999404,"stimulus":"bees-with-color/bee-B1SM.svg","response":0,"trial_type":"image-button-response","trial_index":81,"time_elapsed":1188084,"internal_node_id":"0.0-4.0-0.37","subject_id":"6100420439c2eeab8326fe25","study_id":"6197b3f67c2b5cd3b6d9596a","session_id":"6197b9f04c1af4d577c279a1","condition":"full-information","relevant_dimensions":["wings","legs"],"bee_group":{"antennae":"X","wings":"2","pattern":"X","legs":"M"},"action":"harvest","summary":"good-harvest","bonus":1.480000000000001},{"rt":1292.7999999821186,"stimulus":"\n                    <p><b>Action: <em>harvest</em></b></p>\n                    <p>This is the bee that you just saw.</p>\n                    <img src=\"bees-with-color/bee-B1SM.svg\" width=\"200\">\n                    <p><span class=\"greenText\"><b>Successful harvest!</b></span><br>Your pay has increased by $0.02. Your bonus pay is now $0.62.</p>\n            ","response":0,"trial_type":"html-button-response","trial_index":82,"time_elapsed":1189380,"internal_node_id":"0.0-4.0-1.37","subject_id":"6100420439c2eeab8326fe25","study_id":"6197b3f67c2b5cd3b6d9596a","session_id":"6197b9f04c1af4d577c279a1","condition":"full-information","relevant_dimensions":["wings","legs"],"bee_group":{"antennae":"X","wings":"2","pattern":"X","legs":"M"},"bonus":1.480000000000001},{"rt":11356.59999999404,"stimulus":"bees-with-color/bee-A2DF.svg","response":0,"trial_type":"image-button-response","trial_index":83,"time_elapsed":1200739,"internal_node_id":"0.0-4.0-0.38","subject_id":"6100420439c2eeab8326fe25","study_id":"6197b3f67c2b5cd3b6d9596a","session_id":"6197b9f04c1af4d577c279a1","condition":"full-information","relevant_dimensions":["wings","legs"],"bee_group":{"antennae":"X","wings":"2","pattern":"X","legs":"M"},"action":"harvest","summary":"good-harvest","bonus":1.480000000000001},{"rt":1318.0999999940395,"stimulus":"\n                    <p><b>Action: <em>harvest</em></b></p>\n                    <p>This is the bee that you just saw.</p>\n                    <img src=\"bees-with-color/bee-A2DF.svg\" width=\"200\">\n                    <p><span class=\"greenText\"><b>Successful harvest!</b></span><br>Your pay has increased by $0.02. Your bonus pay is now $0.64.</p>\n            ","response":0,"trial_type":"html-button-response","trial_index":84,"time_elapsed":1202056,"internal_node_id":"0.0-4.0-1.38","subject_id":"6100420439c2eeab8326fe25","study_id":"6197b3f67c2b5cd3b6d9596a","session_id":"6197b9f04c1af4d577c279a1","condition":"full-information","relevant_dimensions":["wings","legs"],"bee_group":{"antennae":"X","wings":"2","pattern":"X","legs":"M"},"bonus":1.480000000000001},{"rt":9017.700000017881,"stimulus":"bees-with-color/bee-A2DM.svg","response":1,"trial_type":"image-button-response","trial_index":85,"time_elapsed":1211076,"internal_node_id":"0.0-4.0-0.39","subject_id":"6100420439c2eeab8326fe25","study_id":"6197b3f67c2b5cd3b6d9596a","session_id":"6197b9f04c1af4d577c279a1","condition":"full-information","relevant_dimensions":["wings","legs"],"bee_group":{"antennae":"X","wings":"2","pattern":"X","legs":"M"},"action":"avoid","summary":"good-avoid","bonus":1.480000000000001},{"rt":1341.5999999940395,"stimulus":"\n                    <p><b>Action: <em>avoid</em></b></p>\n                    <p>This is the bee that you just saw.</p>\n                    <img src=\"bees-with-color/bee-A2DM.svg\" width=\"200\">\n                    <p><span class=\"greenText\">Good choice!</span>  This bee would have stung you.<br>Your bonus pay is unchanged, and remains at $0.64.</p>\n            ","response":0,"trial_type":"html-button-response","trial_index":86,"time_elapsed":1212420,"internal_node_id":"0.0-4.0-1.39","subject_id":"6100420439c2eeab8326fe25","study_id":"6197b3f67c2b5cd3b6d9596a","session_id":"6197b9f04c1af4d577c279a1","condition":"full-information","relevant_dimensions":["wings","legs"],"bee_group":{"antennae":"X","wings":"2","pattern":"X","legs":"M"},"bonus":1.480000000000001},{"rt":12636.199999988079,"stimulus":"bees-with-color/bee-A1DF.svg","response":0,"trial_type":"image-button-response","trial_index":87,"time_elapsed":1225059,"internal_node_id":"0.0-4.0-0.40","subject_id":"6100420439c2eeab8326fe25","study_id":"6197b3f67c2b5cd3b6d9596a","session_id":"6197b9f04c1af4d577c279a1","condition":"full-information","relevant_dimensions":["wings","legs"],"bee_group":{"antennae":"X","wings":"2","pattern":"X","legs":"M"},"action":"harvest","summary":"good-harvest","bonus":1.480000000000001},{"rt":1230.9000000059605,"stimulus":"\n                    <p><b>Action: <em>harvest</em></b></p>\n                    <p>This is the bee that you just saw.</p>\n                    <img src=\"bees-with-color/bee-A1DF.svg\" width=\"200\">\n                    <p><span class=\"greenText\"><b>Successful harvest!</b></span><br>Your pay has increased by $0.02. Your bonus pay is now $0.66.</p>\n            ","response":0,"trial_type":"html-button-response","trial_index":88,"time_elapsed":1226292,"internal_node_id":"0.0-4.0-1.40","subject_id":"6100420439c2eeab8326fe25","study_id":"6197b3f67c2b5cd3b6d9596a","session_id":"6197b9f04c1af4d577c279a1","condition":"full-information","relevant_dimensions":["wings","legs"],"bee_group":{"antennae":"X","wings":"2","pattern":"X","legs":"M"},"bonus":1.480000000000001},{"rt":14249.59999999404,"stimulus":"bees-with-color/bee-B2DM.svg","response":1,"trial_type":"image-button-response","trial_index":89,"time_elapsed":1240544,"internal_node_id":"0.0-4.0-0.41","subject_id":"6100420439c2eeab8326fe25","study_id":"6197b3f67c2b5cd3b6d9596a","session_id":"6197b9f04c1af4d577c279a1","condition":"full-information","relevant_dimensions":["wings","legs"],"bee_group":{"antennae":"X","wings":"2","pattern":"X","legs":"M"},"action":"avoid","summary":"good-avoid","bonus":1.480000000000001},{"rt":1516.5,"stimulus":"\n                    <p><b>Action: <em>avoid</em></b></p>\n                    <p>This is the bee that you just saw.</p>\n                    <img src=\"bees-with-color/bee-B2DM.svg\" width=\"200\">\n                    <p><span class=\"greenText\">Good choice!</span>  This bee would have stung you.<br>Your bonus pay is unchanged, and remains at $0.66.</p>\n            ","response":0,"trial_type":"html-button-response","trial_index":90,"time_elapsed":1242062,"internal_node_id":"0.0-4.0-1.41","subject_id":"6100420439c2eeab8326fe25","study_id":"6197b3f67c2b5cd3b6d9596a","session_id":"6197b9f04c1af4d577c279a1","condition":"full-information","relevant_dimensions":["wings","legs"],"bee_group":{"antennae":"X","wings":"2","pattern":"X","legs":"M"},"bonus":1.480000000000001},{"rt":6912.0999999940395,"stimulus":"bees-with-color/bee-A1SM.svg","response":0,"trial_type":"image-button-response","trial_index":91,"time_elapsed":1248977,"internal_node_id":"0.0-4.0-0.42","subject_id":"6100420439c2eeab8326fe25","study_id":"6197b3f67c2b5cd3b6d9596a","session_id":"6197b9f04c1af4d577c279a1","condition":"full-information","relevant_dimensions":["wings","legs"],"bee_group":{"antennae":"X","wings":"2","pattern":"X","legs":"M"},"action":"harvest","summary":"good-harvest","bonus":1.480000000000001},{"rt":1207.5999999940395,"stimulus":"\n                    <p><b>Action: <em>harvest</em></b></p>\n                    <p>This is the bee that you just saw.</p>\n                    <img src=\"bees-with-color/bee-A1SM.svg\" width=\"200\">\n                    <p><span class=\"greenText\"><b>Successful harvest!</b></span><br>Your pay has increased by $0.02. Your bonus pay is now $0.68.</p>\n            ","response":0,"trial_type":"html-button-response","trial_index":92,"time_elapsed":1250187,"internal_node_id":"0.0-4.0-1.42","subject_id":"6100420439c2eeab8326fe25","study_id":"6197b3f67c2b5cd3b6d9596a","session_id":"6197b9f04c1af4d577c279a1","condition":"full-information","relevant_dimensions":["wings","legs"],"bee_group":{"antennae":"X","wings":"2","pattern":"X","legs":"M"},"bonus":1.480000000000001},{"rt":15411.40000000596,"stimulus":"bees-with-color/bee-B2SM.svg","response":1,"trial_type":"image-button-response","trial_index":93,"time_elapsed":1265605,"internal_node_id":"0.0-4.0-0.43","subject_id":"6100420439c2eeab8326fe25","study_id":"6197b3f67c2b5cd3b6d9596a","session_id":"6197b9f04c1af4d577c279a1","condition":"full-information","relevant_dimensions":["wings","legs"],"bee_group":{"antennae":"X","wings":"2","pattern":"X","legs":"M"},"action":"avoid","summary":"good-avoid","bonus":1.480000000000001},{"rt":1181.9000000059605,"stimulus":"\n                    <p><b>Action: <em>avoid</em></b></p>\n                    <p>This is the bee that you just saw.</p>\n                    <img src=\"bees-with-color/bee-B2SM.svg\" width=\"200\">\n                    <p><span class=\"greenText\">Good choice!</span>  This bee would have stung you.<br>Your bonus pay is unchanged, and remains at $0.68.</p>\n            ","response":0,"trial_type":"html-button-response","trial_index":94,"time_elapsed":1266789,"internal_node_id":"0.0-4.0-1.43","subject_id":"6100420439c2eeab8326fe25","study_id":"6197b3f67c2b5cd3b6d9596a","session_id":"6197b9f04c1af4d577c279a1","condition":"full-information","relevant_dimensions":["wings","legs"],"bee_group":{"antennae":"X","wings":"2","pattern":"X","legs":"M"},"bonus":1.480000000000001},{"rt":6907.5999999940395,"stimulus":"bees-with-color/bee-B1SF.svg","response":0,"trial_type":"image-button-response","trial_index":95,"time_elapsed":1273700,"internal_node_id":"0.0-4.0-0.44","subject_id":"6100420439c2eeab8326fe25","study_id":"6197b3f67c2b5cd3b6d9596a","session_id":"6197b9f04c1af4d577c279a1","condition":"full-information","relevant_dimensions":["wings","legs"],"bee_group":{"antennae":"X","wings":"2","pattern":"X","legs":"M"},"action":"harvest","summary":"good-harvest","bonus":1.480000000000001},{"rt":1034.7999999821186,"stimulus":"\n                    <p><b>Action: <em>harvest</em></b></p>\n                    <p>This is the bee that you just saw.</p>\n                    <img src=\"bees-with-color/bee-B1SF.svg\" width=\"200\">\n                    <p><span class=\"greenText\"><b>Successful harvest!</b></span><br>Your pay has increased by $0.02. Your bonus pay is now $0.70.</p>\n            ","response":0,"trial_type":"html-button-response","trial_index":96,"time_elapsed":1274737,"internal_node_id":"0.0-4.0-1.44","subject_id":"6100420439c2eeab8326fe25","study_id":"6197b3f67c2b5cd3b6d9596a","session_id":"6197b9f04c1af4d577c279a1","condition":"full-information","relevant_dimensions":["wings","legs"],"bee_group":{"antennae":"X","wings":"2","pattern":"X","legs":"M"},"bonus":1.480000000000001},{"rt":6919.800000011921,"stimulus":"bees-with-color/bee-B2SF.svg","response":0,"trial_type":"image-button-response","trial_index":97,"time_elapsed":1281660,"internal_node_id":"0.0-4.0-0.45","subject_id":"6100420439c2eeab8326fe25","study_id":"6197b3f67c2b5cd3b6d9596a","session_id":"6197b9f04c1af4d577c279a1","condition":"full-information","relevant_dimensions":["wings","legs"],"bee_group":{"antennae":"X","wings":"2","pattern":"X","legs":"M"},"action":"harvest","summary":"good-harvest","bonus":1.480000000000001},{"rt":1376.7999999821186,"stimulus":"\n                    <p><b>Action: <em>harvest</em></b></p>\n                    <p>This is the bee that you just saw.</p>\n                    <img src=\"bees-with-color/bee-B2SF.svg\" width=\"200\">\n                    <p><span class=\"greenText\"><b>Successful harvest!</b></span><br>Your pay has increased by $0.02. Your bonus pay is now $0.72.</p>\n            ","response":0,"trial_type":"html-button-response","trial_index":98,"time_elapsed":1283039,"internal_node_id":"0.0-4.0-1.45","subject_id":"6100420439c2eeab8326fe25","study_id":"6197b3f67c2b5cd3b6d9596a","session_id":"6197b9f04c1af4d577c279a1","condition":"full-information","relevant_dimensions":["wings","legs"],"bee_group":{"antennae":"X","wings":"2","pattern":"X","legs":"M"},"bonus":1.480000000000001},{"rt":9895,"stimulus":"bees-with-color/bee-B2DF.svg","response":0,"trial_type":"image-button-response","trial_index":99,"time_elapsed":1292937,"internal_node_id":"0.0-4.0-0.46","subject_id":"6100420439c2eeab8326fe25","study_id":"6197b3f67c2b5cd3b6d9596a","session_id":"6197b9f04c1af4d577c279a1","condition":"full-information","relevant_dimensions":["wings","legs"],"bee_group":{"antennae":"X","wings":"2","pattern":"X","legs":"M"},"action":"harvest","summary":"good-harvest","bonus":1.480000000000001},{"rt":1129.5999999940395,"stimulus":"\n                    <p><b>Action: <em>harvest</em></b></p>\n                    <p>This is the bee that you just saw.</p>\n                    <img src=\"bees-with-color/bee-B2DF.svg\" width=\"200\">\n                    <p><span class=\"greenText\"><b>Successful harvest!</b></span><br>Your pay has increased by $0.02. Your bonus pay is now $0.74.</p>\n            ","response":0,"trial_type":"html-button-response","trial_index":100,"time_elapsed":1294069,"internal_node_id":"0.0-4.0-1.46","subject_id":"6100420439c2eeab8326fe25","study_id":"6197b3f67c2b5cd3b6d9596a","session_id":"6197b9f04c1af4d577c279a1","condition":"full-information","relevant_dimensions":["wings","legs"],"bee_group":{"antennae":"X","wings":"2","pattern":"X","legs":"M"},"bonus":1.480000000000001},{"rt":11399,"stimulus":"bees-with-color/bee-A2SF.svg","response":0,"trial_type":"image-button-response","trial_index":101,"time_elapsed":1305471,"internal_node_id":"0.0-4.0-0.47","subject_id":"6100420439c2eeab8326fe25","study_id":"6197b3f67c2b5cd3b6d9596a","session_id":"6197b9f04c1af4d577c279a1","condition":"full-information","relevant_dimensions":["wings","legs"],"bee_group":{"antennae":"X","wings":"2","pattern":"X","legs":"M"},"action":"harvest","summary":"good-harvest","bonus":1.480000000000001},{"rt":1117.5,"stimulus":"\n                    <p><b>Action: <em>harvest</em></b></p>\n                    <p>This is the bee that you just saw.</p>\n                    <img src=\"bees-with-color/bee-A2SF.svg\" width=\"200\">\n                    <p><span class=\"greenText\"><b>Successful harvest!</b></span><br>Your pay has increased by $0.02. Your bonus pay is now $0.76.</p>\n            ","response":0,"trial_type":"html-button-response","trial_index":102,"time_elapsed":1306591,"internal_node_id":"0.0-4.0-1.47","subject_id":"6100420439c2eeab8326fe25","study_id":"6197b3f67c2b5cd3b6d9596a","session_id":"6197b9f04c1af4d577c279a1","condition":"full-information","relevant_dimensions":["wings","legs"],"bee_group":{"antennae":"X","wings":"2","pattern":"X","legs":"M"},"bonus":1.480000000000001},{"rt":5734.699999988079,"stimulus":"bees-with-color/bee-B1SM.svg","response":0,"trial_type":"image-button-response","trial_index":103,"time_elapsed":1312328,"internal_node_id":"0.0-4.0-0.48","subject_id":"6100420439c2eeab8326fe25","study_id":"6197b3f67c2b5cd3b6d9596a","session_id":"6197b9f04c1af4d577c279a1","condition":"full-information","relevant_dimensions":["wings","legs"],"bee_group":{"antennae":"X","wings":"2","pattern":"X","legs":"M"},"action":"harvest","summary":"good-harvest","bonus":1.480000000000001},{"rt":1067.2000000178814,"stimulus":"\n                    <p><b>Action: <em>harvest</em></b></p>\n                    <p>This is the bee that you just saw.</p>\n                    <img src=\"bees-with-color/bee-B1SM.svg\" width=\"200\">\n                    <p><span class=\"greenText\"><b>Successful harvest!</b></span><br>Your pay has increased by $0.02. Your bonus pay is now $0.78.</p>\n            ","response":0,"trial_type":"html-button-response","trial_index":104,"time_elapsed":1313398,"internal_node_id":"0.0-4.0-1.48","subject_id":"6100420439c2eeab8326fe25","study_id":"6197b3f67c2b5cd3b6d9596a","session_id":"6197b9f04c1af4d577c279a1","condition":"full-information","relevant_dimensions":["wings","legs"],"bee_group":{"antennae":"X","wings":"2","pattern":"X","legs":"M"},"bonus":1.480000000000001},{"rt":9615.799999982119,"stimulus":"bees-with-color/bee-A2DF.svg","response":0,"trial_type":"image-button-response","trial_index":105,"time_elapsed":1323017,"internal_node_id":"0.0-4.0-0.49","subject_id":"6100420439c2eeab8326fe25","study_id":"6197b3f67c2b5cd3b6d9596a","session_id":"6197b9f04c1af4d577c279a1","condition":"full-information","relevant_dimensions":["wings","legs"],"bee_group":{"antennae":"X","wings":"2","pattern":"X","legs":"M"},"action":"harvest","summary":"good-harvest","bonus":1.480000000000001},{"rt":1021.5999999940395,"stimulus":"\n                    <p><b>Action: <em>harvest</em></b></p>\n                    <p>This is the bee that you just saw.</p>\n                    <img src=\"bees-with-color/bee-A2DF.svg\" width=\"200\">\n                    <p><span class=\"greenText\"><b>Successful harvest!</b></span><br>Your pay has increased by $0.02. Your bonus pay is now $0.80.</p>\n            ","response":0,"trial_type":"html-button-response","trial_index":106,"time_elapsed":1324041,"internal_node_id":"0.0-4.0-1.49","subject_id":"6100420439c2eeab8326fe25","study_id":"6197b3f67c2b5cd3b6d9596a","session_id":"6197b9f04c1af4d577c279a1","condition":"full-information","relevant_dimensions":["wings","legs"],"bee_group":{"antennae":"X","wings":"2","pattern":"X","legs":"M"},"bonus":1.480000000000001},{"rt":5483.800000011921,"stimulus":"bees-with-color/bee-A1SF.svg","response":0,"trial_type":"image-button-response","trial_index":107,"time_elapsed":1329528,"internal_node_id":"0.0-4.0-0.50","subject_id":"6100420439c2eeab8326fe25","study_id":"6197b3f67c2b5cd3b6d9596a","session_id":"6197b9f04c1af4d577c279a1","condition":"full-information","relevant_dimensions":["wings","legs"],"bee_group":{"antennae":"X","wings":"2","pattern":"X","legs":"M"},"action":"harvest","summary":"good-harvest","bonus":1.480000000000001},{"rt":1150,"stimulus":"\n                    <p><b>Action: <em>harvest</em></b></p>\n                    <p>This is the bee that you just saw.</p>\n                    <img src=\"bees-with-color/bee-A1SF.svg\" width=\"200\">\n                    <p><span class=\"greenText\"><b>Successful harvest!</b></span><br>Your pay has increased by $0.02. Your bonus pay is now $0.82.</p>\n            ","response":0,"trial_type":"html-button-response","trial_index":108,"time_elapsed":1330680,"internal_node_id":"0.0-4.0-1.50","subject_id":"6100420439c2eeab8326fe25","study_id":"6197b3f67c2b5cd3b6d9596a","session_id":"6197b9f04c1af4d577c279a1","condition":"full-information","relevant_dimensions":["wings","legs"],"bee_group":{"antennae":"X","wings":"2","pattern":"X","legs":"M"},"bonus":1.480000000000001},{"rt":9876.100000023842,"stimulus":"bees-with-color/bee-B2DF.svg","response":0,"trial_type":"image-button-response","trial_index":109,"time_elapsed":1340559,"internal_node_id":"0.0-4.0-0.51","subject_id":"6100420439c2eeab8326fe25","study_id":"6197b3f67c2b5cd3b6d9596a","session_id":"6197b9f04c1af4d577c279a1","condition":"full-information","relevant_dimensions":["wings","legs"],"bee_group":{"antennae":"X","wings":"2","pattern":"X","legs":"M"},"action":"harvest","summary":"good-harvest","bonus":1.480000000000001},{"rt":1107.8999999761581,"stimulus":"\n                    <p><b>Action: <em>harvest</em></b></p>\n                    <p>This is the bee that you just saw.</p>\n                    <img src=\"bees-with-color/bee-B2DF.svg\" width=\"200\">\n                    <p><span class=\"greenText\"><b>Successful harvest!</b></span><br>Your pay has increased by $0.02. Your bonus pay is now $0.84.</p>\n            ","response":0,"trial_type":"html-button-response","trial_index":110,"time_elapsed":1341670,"internal_node_id":"0.0-4.0-1.51","subject_id":"6100420439c2eeab8326fe25","study_id":"6197b3f67c2b5cd3b6d9596a","session_id":"6197b9f04c1af4d577c279a1","condition":"full-information","relevant_dimensions":["wings","legs"],"bee_group":{"antennae":"X","wings":"2","pattern":"X","legs":"M"},"bonus":1.480000000000001},{"rt":7604.100000023842,"stimulus":"bees-with-color/bee-A2SM.svg","response":1,"trial_type":"image-button-response","trial_index":111,"time_elapsed":1349277,"internal_node_id":"0.0-4.0-0.52","subject_id":"6100420439c2eeab8326fe25","study_id":"6197b3f67c2b5cd3b6d9596a","session_id":"6197b9f04c1af4d577c279a1","condition":"full-information","relevant_dimensions":["wings","legs"],"bee_group":{"antennae":"X","wings":"2","pattern":"X","legs":"M"},"action":"avoid","summary":"good-avoid","bonus":1.480000000000001},{"rt":1592.5,"stimulus":"\n                    <p><b>Action: <em>avoid</em></b></p>\n                    <p>This is the bee that you just saw.</p>\n                    <img src=\"bees-with-color/bee-A2SM.svg\" width=\"200\">\n                    <p><span class=\"greenText\">Good choice!</span>  This bee would have stung you.<br>Your bonus pay is unchanged, and remains at $0.84.</p>\n            ","response":0,"trial_type":"html-button-response","trial_index":112,"time_elapsed":1350872,"internal_node_id":"0.0-4.0-1.52","subject_id":"6100420439c2eeab8326fe25","study_id":"6197b3f67c2b5cd3b6d9596a","session_id":"6197b9f04c1af4d577c279a1","condition":"full-information","relevant_dimensions":["wings","legs"],"bee_group":{"antennae":"X","wings":"2","pattern":"X","legs":"M"},"bonus":1.480000000000001},{"rt":9832,"stimulus":"bees-with-color/bee-A1DM.svg","response":0,"trial_type":"image-button-response","trial_index":113,"time_elapsed":1360707,"internal_node_id":"0.0-4.0-0.53","subject_id":"6100420439c2eeab8326fe25","study_id":"6197b3f67c2b5cd3b6d9596a","session_id":"6197b9f04c1af4d577c279a1","condition":"full-information","relevant_dimensions":["wings","legs"],"bee_group":{"antennae":"X","wings":"2","pattern":"X","legs":"M"},"action":"harvest","summary":"good-harvest","bonus":1.480000000000001},{"rt":1196.2999999821186,"stimulus":"\n                    <p><b>Action: <em>harvest</em></b></p>\n                    <p>This is the bee that you just saw.</p>\n                    <img src=\"bees-with-color/bee-A1DM.svg\" width=\"200\">\n                    <p><span class=\"greenText\"><b>Successful harvest!</b></span><br>Your pay has increased by $0.02. Your bonus pay is now $0.86.</p>\n            ","response":0,"trial_type":"html-button-response","trial_index":114,"time_elapsed":1361906,"internal_node_id":"0.0-4.0-1.53","subject_id":"6100420439c2eeab8326fe25","study_id":"6197b3f67c2b5cd3b6d9596a","session_id":"6197b9f04c1af4d577c279a1","condition":"full-information","relevant_dimensions":["wings","legs"],"bee_group":{"antennae":"X","wings":"2","pattern":"X","legs":"M"},"bonus":1.480000000000001},{"rt":6552.299999982119,"stimulus":"bees-with-color/bee-A1SM.svg","response":0,"trial_type":"image-button-response","trial_index":115,"time_elapsed":1368462,"internal_node_id":"0.0-4.0-0.54","subject_id":"6100420439c2eeab8326fe25","study_id":"6197b3f67c2b5cd3b6d9596a","session_id":"6197b9f04c1af4d577c279a1","condition":"full-information","relevant_dimensions":["wings","legs"],"bee_group":{"antennae":"X","wings":"2","pattern":"X","legs":"M"},"action":"harvest","summary":"good-harvest","bonus":1.480000000000001},{"rt":1065.2000000178814,"stimulus":"\n                    <p><b>Action: <em>harvest</em></b></p>\n                    <p>This is the bee that you just saw.</p>\n                    <img src=\"bees-with-color/bee-A1SM.svg\" width=\"200\">\n                    <p><span class=\"greenText\"><b>Successful harvest!</b></span><br>Your pay has increased by $0.02. Your bonus pay is now $0.88.</p>\n            ","response":0,"trial_type":"html-button-response","trial_index":116,"time_elapsed":1369530,"internal_node_id":"0.0-4.0-1.54","subject_id":"6100420439c2eeab8326fe25","study_id":"6197b3f67c2b5cd3b6d9596a","session_id":"6197b9f04c1af4d577c279a1","condition":"full-information","relevant_dimensions":["wings","legs"],"bee_group":{"antennae":"X","wings":"2","pattern":"X","legs":"M"},"bonus":1.480000000000001},{"rt":14931.300000011921,"stimulus":"bees-with-color/bee-B2DM.svg","response":1,"trial_type":"image-button-response","trial_index":117,"time_elapsed":1384465,"internal_node_id":"0.0-4.0-0.55","subject_id":"6100420439c2eeab8326fe25","study_id":"6197b3f67c2b5cd3b6d9596a","session_id":"6197b9f04c1af4d577c279a1","condition":"full-information","relevant_dimensions":["wings","legs"],"bee_group":{"antennae":"X","wings":"2","pattern":"X","legs":"M"},"action":"avoid","summary":"good-avoid","bonus":1.480000000000001},{"rt":1371.5,"stimulus":"\n                    <p><b>Action: <em>avoid</em></b></p>\n                    <p>This is the bee that you just saw.</p>\n                    <img src=\"bees-with-color/bee-B2DM.svg\" width=\"200\">\n                    <p><span class=\"greenText\">Good choice!</span>  This bee would have stung you.<br>Your bonus pay is unchanged, and remains at $0.88.</p>\n            ","response":0,"trial_type":"html-button-response","trial_index":118,"time_elapsed":1385839,"internal_node_id":"0.0-4.0-1.55","subject_id":"6100420439c2eeab8326fe25","study_id":"6197b3f67c2b5cd3b6d9596a","session_id":"6197b9f04c1af4d577c279a1","condition":"full-information","relevant_dimensions":["wings","legs"],"bee_group":{"antennae":"X","wings":"2","pattern":"X","legs":"M"},"bonus":1.480000000000001},{"rt":7609.0999999940395,"stimulus":"bees-with-color/bee-B1SF.svg","response":0,"trial_type":"image-button-response","trial_index":119,"time_elapsed":1393451,"internal_node_id":"0.0-4.0-0.56","subject_id":"6100420439c2eeab8326fe25","study_id":"6197b3f67c2b5cd3b6d9596a","session_id":"6197b9f04c1af4d577c279a1","condition":"full-information","relevant_dimensions":["wings","legs"],"bee_group":{"antennae":"X","wings":"2","pattern":"X","legs":"M"},"action":"harvest","summary":"good-harvest","bonus":1.480000000000001},{"rt":1320.5999999940395,"stimulus":"\n                    <p><b>Action: <em>harvest</em></b></p>\n                    <p>This is the bee that you just saw.</p>\n                    <img src=\"bees-with-color/bee-B1SF.svg\" width=\"200\">\n                    <p><span class=\"greenText\"><b>Successful harvest!</b></span><br>Your pay has increased by $0.02. Your bonus pay is now $0.90.</p>\n            ","response":0,"trial_type":"html-button-response","trial_index":120,"time_elapsed":1394774,"internal_node_id":"0.0-4.0-1.56","subject_id":"6100420439c2eeab8326fe25","study_id":"6197b3f67c2b5cd3b6d9596a","session_id":"6197b9f04c1af4d577c279a1","condition":"full-information","relevant_dimensions":["wings","legs"],"bee_group":{"antennae":"X","wings":"2","pattern":"X","legs":"M"},"bonus":1.480000000000001},{"rt":18755.100000023842,"stimulus":"bees-with-color/bee-B1DM.svg","response":0,"trial_type":"image-button-response","trial_index":121,"time_elapsed":1413532,"internal_node_id":"0.0-4.0-0.57","subject_id":"6100420439c2eeab8326fe25","study_id":"6197b3f67c2b5cd3b6d9596a","session_id":"6197b9f04c1af4d577c279a1","condition":"full-information","relevant_dimensions":["wings","legs"],"bee_group":{"antennae":"X","wings":"2","pattern":"X","legs":"M"},"action":"harvest","summary":"good-harvest","bonus":1.480000000000001},{"rt":1303.5999999940395,"stimulus":"\n                    <p><b>Action: <em>harvest</em></b></p>\n                    <p>This is the bee that you just saw.</p>\n                    <img src=\"bees-with-color/bee-B1DM.svg\" width=\"200\">\n                    <p><span class=\"greenText\"><b>Successful harvest!</b></span><br>Your pay has increased by $0.02. Your bonus pay is now $0.92.</p>\n            ","response":0,"trial_type":"html-button-response","trial_index":122,"time_elapsed":1414837,"internal_node_id":"0.0-4.0-1.57","subject_id":"6100420439c2eeab8326fe25","study_id":"6197b3f67c2b5cd3b6d9596a","session_id":"6197b9f04c1af4d577c279a1","condition":"full-information","relevant_dimensions":["wings","legs"],"bee_group":{"antennae":"X","wings":"2","pattern":"X","legs":"M"},"bonus":1.480000000000001},{"rt":4455.700000017881,"stimulus":"bees-with-color/bee-B2SF.svg","response":0,"trial_type":"image-button-response","trial_index":123,"time_elapsed":1419296,"internal_node_id":"0.0-4.0-0.58","subject_id":"6100420439c2eeab8326fe25","study_id":"6197b3f67c2b5cd3b6d9596a","session_id":"6197b9f04c1af4d577c279a1","condition":"full-information","relevant_dimensions":["wings","legs"],"bee_group":{"antennae":"X","wings":"2","pattern":"X","legs":"M"},"action":"harvest","summary":"good-harvest","bonus":1.480000000000001},{"rt":1016.9000000059605,"stimulus":"\n                    <p><b>Action: <em>harvest</em></b></p>\n                    <p>This is the bee that you just saw.</p>\n                    <img src=\"bees-with-color/bee-B2SF.svg\" width=\"200\">\n                    <p><span class=\"greenText\"><b>Successful harvest!</b></span><br>Your pay has increased by $0.02. Your bonus pay is now $0.94.</p>\n            ","response":0,"trial_type":"html-button-response","trial_index":124,"time_elapsed":1420315,"internal_node_id":"0.0-4.0-1.58","subject_id":"6100420439c2eeab8326fe25","study_id":"6197b3f67c2b5cd3b6d9596a","session_id":"6197b9f04c1af4d577c279a1","condition":"full-information","relevant_dimensions":["wings","legs"],"bee_group":{"antennae":"X","wings":"2","pattern":"X","legs":"M"},"bonus":1.480000000000001},{"rt":4891.800000011921,"stimulus":"bees-with-color/bee-B2SM.svg","response":1,"trial_type":"image-button-response","trial_index":125,"time_elapsed":1425209,"internal_node_id":"0.0-4.0-0.59","subject_id":"6100420439c2eeab8326fe25","study_id":"6197b3f67c2b5cd3b6d9596a","session_id":"6197b9f04c1af4d577c279a1","condition":"full-information","relevant_dimensions":["wings","legs"],"bee_group":{"antennae":"X","wings":"2","pattern":"X","legs":"M"},"action":"avoid","summary":"good-avoid","bonus":1.480000000000001},{"rt":1637.0999999940395,"stimulus":"\n                    <p><b>Action: <em>avoid</em></b></p>\n                    <p>This is the bee that you just saw.</p>\n                    <img src=\"bees-with-color/bee-B2SM.svg\" width=\"200\">\n                    <p><span class=\"greenText\">Good choice!</span>  This bee would have stung you.<br>Your bonus pay is unchanged, and remains at $0.94.</p>\n            ","response":0,"trial_type":"html-button-response","trial_index":126,"time_elapsed":1426848,"internal_node_id":"0.0-4.0-1.59","subject_id":"6100420439c2eeab8326fe25","study_id":"6197b3f67c2b5cd3b6d9596a","session_id":"6197b9f04c1af4d577c279a1","condition":"full-information","relevant_dimensions":["wings","legs"],"bee_group":{"antennae":"X","wings":"2","pattern":"X","legs":"M"},"bonus":1.480000000000001},{"rt":14489.299999982119,"stimulus":"bees-with-color/bee-B1DF.svg","response":0,"trial_type":"image-button-response","trial_index":127,"time_elapsed":1441340,"internal_node_id":"0.0-4.0-0.60","subject_id":"6100420439c2eeab8326fe25","study_id":"6197b3f67c2b5cd3b6d9596a","session_id":"6197b9f04c1af4d577c279a1","condition":"full-information","relevant_dimensions":["wings","legs"],"bee_group":{"antennae":"X","wings":"2","pattern":"X","legs":"M"},"action":"harvest","summary":"good-harvest","bonus":1.480000000000001},{"rt":1091.5,"stimulus":"\n                    <p><b>Action: <em>harvest</em></b></p>\n                    <p>This is the bee that you just saw.</p>\n                    <img src=\"bees-with-color/bee-B1DF.svg\" width=\"200\">\n                    <p><span class=\"greenText\"><b>Successful harvest!</b></span><br>Your pay has increased by $0.02. Your bonus pay is now $0.96.</p>\n            ","response":0,"trial_type":"html-button-response","trial_index":128,"time_elapsed":1442434,"internal_node_id":"0.0-4.0-1.60","subject_id":"6100420439c2eeab8326fe25","study_id":"6197b3f67c2b5cd3b6d9596a","session_id":"6197b9f04c1af4d577c279a1","condition":"full-information","relevant_dimensions":["wings","legs"],"bee_group":{"antennae":"X","wings":"2","pattern":"X","legs":"M"},"bonus":1.480000000000001},{"rt":13368,"stimulus":"bees-with-color/bee-A1DF.svg","response":0,"trial_type":"image-button-response","trial_index":129,"time_elapsed":1455790,"internal_node_id":"0.0-4.0-0.61","subject_id":"6100420439c2eeab8326fe25","study_id":"6197b3f67c2b5cd3b6d9596a","session_id":"6197b9f04c1af4d577c279a1","condition":"full-information","relevant_dimensions":["wings","legs"],"bee_group":{"antennae":"X","wings":"2","pattern":"X","legs":"M"},"action":"harvest","summary":"good-harvest","bonus":1.480000000000001},{"rt":1200.199999988079,"stimulus":"\n                    <p><b>Action: <em>harvest</em></b></p>\n                    <p>This is the bee that you just saw.</p>\n                    <img src=\"bees-with-color/bee-A1DF.svg\" width=\"200\">\n                    <p><span class=\"greenText\"><b>Successful harvest!</b></span><br>Your pay has increased by $0.02. Your bonus pay is now $0.98.</p>\n            ","response":0,"trial_type":"html-button-response","trial_index":130,"time_elapsed":1456993,"internal_node_id":"0.0-4.0-1.61","subject_id":"6100420439c2eeab8326fe25","study_id":"6197b3f67c2b5cd3b6d9596a","session_id":"6197b9f04c1af4d577c279a1","condition":"full-information","relevant_dimensions":["wings","legs"],"bee_group":{"antennae":"X","wings":"2","pattern":"X","legs":"M"},"bonus":1.480000000000001},{"rt":7595.9000000059605,"stimulus":"bees-with-color/bee-A2SF.svg","response":0,"trial_type":"image-button-response","trial_index":131,"time_elapsed":1464591,"internal_node_id":"0.0-4.0-0.62","subject_id":"6100420439c2eeab8326fe25","study_id":"6197b3f67c2b5cd3b6d9596a","session_id":"6197b9f04c1af4d577c279a1","condition":"full-information","relevant_dimensions":["wings","legs"],"bee_group":{"antennae":"X","wings":"2","pattern":"X","legs":"M"},"action":"harvest","summary":"good-harvest","bonus":1.480000000000001},{"rt":2229,"stimulus":"\n                    <p><b>Action: <em>harvest</em></b></p>\n                    <p>This is the bee that you just saw.</p>\n                    <img src=\"bees-with-color/bee-A2SF.svg\" width=\"200\">\n                    <p><span class=\"greenText\"><b>Successful harvest!</b></span><br>Your pay has increased by $0.02. Your bonus pay is now $1.00.</p>\n            ","response":0,"trial_type":"html-button-response","trial_index":132,"time_elapsed":1466823,"internal_node_id":"0.0-4.0-1.62","subject_id":"6100420439c2eeab8326fe25","study_id":"6197b3f67c2b5cd3b6d9596a","session_id":"6197b9f04c1af4d577c279a1","condition":"full-information","relevant_dimensions":["wings","legs"],"bee_group":{"antennae":"X","wings":"2","pattern":"X","legs":"M"},"bonus":1.480000000000001},{"rt":7172.5999999940395,"stimulus":"bees-with-color/bee-A2DM.svg","response":1,"trial_type":"image-button-response","trial_index":133,"time_elapsed":1473998,"internal_node_id":"0.0-4.0-0.63","subject_id":"6100420439c2eeab8326fe25","study_id":"6197b3f67c2b5cd3b6d9596a","session_id":"6197b9f04c1af4d577c279a1","condition":"full-information","relevant_dimensions":["wings","legs"],"bee_group":{"antennae":"X","wings":"2","pattern":"X","legs":"M"},"action":"avoid","summary":"good-avoid","bonus":1.480000000000001},{"rt":1707.699999988079,"stimulus":"\n                    <p><b>Action: <em>avoid</em></b></p>\n                    <p>This is the bee that you just saw.</p>\n                    <img src=\"bees-with-color/bee-A2DM.svg\" width=\"200\">\n                    <p><span class=\"greenText\">Good choice!</span>  This bee would have stung you.<br>Your bonus pay is unchanged, and remains at $1.00.</p>\n            ","response":0,"trial_type":"html-button-response","trial_index":134,"time_elapsed":1475708,"internal_node_id":"0.0-4.0-1.63","subject_id":"6100420439c2eeab8326fe25","study_id":"6197b3f67c2b5cd3b6d9596a","session_id":"6197b9f04c1af4d577c279a1","condition":"full-information","relevant_dimensions":["wings","legs"],"bee_group":{"antennae":"X","wings":"2","pattern":"X","legs":"M"},"bonus":1.480000000000001},{"rt":7168.200000017881,"stimulus":"You have completed the first part of this experiment.<br><br>You will now begin a shorter second part, in which you will receive no feedback.<br>The same rules regarding bonus pay apply.<br><br>Press any key to begin.","response":" ","trial_type":"html-keyboard-response","trial_index":135,"time_elapsed":1482879,"internal_node_id":"0.0-5.0","subject_id":"6100420439c2eeab8326fe25","study_id":"6197b3f67c2b5cd3b6d9596a","session_id":"6197b9f04c1af4d577c279a1","condition":"full-information","relevant_dimensions":["wings","legs"],"bee_group":{"antennae":"X","wings":"2","pattern":"X","legs":"M"},"bonus":1.480000000000001},{"rt":19368.899999976158,"stimulus":"bees-with-color/bee-B2DM.svg","response":1,"trial_type":"image-button-response","trial_index":136,"time_elapsed":1502265,"internal_node_id":"0.0-6.0-0.0","subject_id":"6100420439c2eeab8326fe25","study_id":"6197b3f67c2b5cd3b6d9596a","session_id":"6197b9f04c1af4d577c279a1","condition":"full-information","relevant_dimensions":["wings","legs"],"bee_group":{"antennae":"X","wings":"2","pattern":"X","legs":"M"},"bonus":1.480000000000001},{"rt":8244.899999976158,"stimulus":"bees-with-color/bee-A2SF.svg","response":0,"trial_type":"image-button-response","trial_index":137,"time_elapsed":1510514,"internal_node_id":"0.0-6.0-0.1","subject_id":"6100420439c2eeab8326fe25","study_id":"6197b3f67c2b5cd3b6d9596a","session_id":"6197b9f04c1af4d577c279a1","condition":"full-information","relevant_dimensions":["wings","legs"],"bee_group":{"antennae":"X","wings":"2","pattern":"X","legs":"M"},"bonus":1.480000000000001},{"rt":13822.800000011921,"stimulus":"bees-with-color/bee-A1DM.svg","response":0,"trial_type":"image-button-response","trial_index":138,"time_elapsed":1524356,"internal_node_id":"0.0-6.0-0.2","subject_id":"6100420439c2eeab8326fe25","study_id":"6197b3f67c2b5cd3b6d9596a","session_id":"6197b9f04c1af4d577c279a1","condition":"full-information","relevant_dimensions":["wings","legs"],"bee_group":{"antennae":"X","wings":"2","pattern":"X","legs":"M"},"bonus":1.480000000000001},{"rt":9612.59999999404,"stimulus":"bees-with-color/bee-A1SM.svg","response":0,"trial_type":"image-button-response","trial_index":139,"time_elapsed":1533973,"internal_node_id":"0.0-6.0-0.3","subject_id":"6100420439c2eeab8326fe25","study_id":"6197b3f67c2b5cd3b6d9596a","session_id":"6197b9f04c1af4d577c279a1","condition":"full-information","relevant_dimensions":["wings","legs"],"bee_group":{"antennae":"X","wings":"2","pattern":"X","legs":"M"},"bonus":1.480000000000001},{"rt":7800.699999988079,"stimulus":"bees-with-color/bee-B2DF.svg","response":0,"trial_type":"image-button-response","trial_index":140,"time_elapsed":1541777,"internal_node_id":"0.0-6.0-0.4","subject_id":"6100420439c2eeab8326fe25","study_id":"6197b3f67c2b5cd3b6d9596a","session_id":"6197b9f04c1af4d577c279a1","condition":"full-information","relevant_dimensions":["wings","legs"],"bee_group":{"antennae":"X","wings":"2","pattern":"X","legs":"M"},"bonus":1.480000000000001},{"rt":4919,"stimulus":"bees-with-color/bee-B2SF.svg","response":0,"trial_type":"image-button-response","trial_index":141,"time_elapsed":1546701,"internal_node_id":"0.0-6.0-0.5","subject_id":"6100420439c2eeab8326fe25","study_id":"6197b3f67c2b5cd3b6d9596a","session_id":"6197b9f04c1af4d577c279a1","condition":"full-information","relevant_dimensions":["wings","legs"],"bee_group":{"antennae":"X","wings":"2","pattern":"X","legs":"M"},"bonus":1.480000000000001},{"rt":6088.9000000059605,"stimulus":"bees-with-color/bee-A2SM.svg","response":1,"trial_type":"image-button-response","trial_index":142,"time_elapsed":1552794,"internal_node_id":"0.0-6.0-0.6","subject_id":"6100420439c2eeab8326fe25","study_id":"6197b3f67c2b5cd3b6d9596a","session_id":"6197b9f04c1af4d577c279a1","condition":"full-information","relevant_dimensions":["wings","legs"],"bee_group":{"antennae":"X","wings":"2","pattern":"X","legs":"M"},"bonus":1.480000000000001},{"rt":7763.0999999940395,"stimulus":"bees-with-color/bee-B1SM.svg","response":0,"trial_type":"image-button-response","trial_index":143,"time_elapsed":1560561,"internal_node_id":"0.0-6.0-0.7","subject_id":"6100420439c2eeab8326fe25","study_id":"6197b3f67c2b5cd3b6d9596a","session_id":"6197b9f04c1af4d577c279a1","condition":"full-information","relevant_dimensions":["wings","legs"],"bee_group":{"antennae":"X","wings":"2","pattern":"X","legs":"M"},"bonus":1.480000000000001},{"rt":5605.299999982119,"stimulus":"bees-with-color/bee-A1SF.svg","response":0,"trial_type":"image-button-response","trial_index":144,"time_elapsed":1566171,"internal_node_id":"0.0-6.0-0.8","subject_id":"6100420439c2eeab8326fe25","study_id":"6197b3f67c2b5cd3b6d9596a","session_id":"6197b9f04c1af4d577c279a1","condition":"full-information","relevant_dimensions":["wings","legs"],"bee_group":{"antennae":"X","wings":"2","pattern":"X","legs":"M"},"bonus":1.480000000000001},{"rt":9823.40000000596,"stimulus":"bees-with-color/bee-A2DM.svg","response":1,"trial_type":"image-button-response","trial_index":145,"time_elapsed":1575998,"internal_node_id":"0.0-6.0-0.9","subject_id":"6100420439c2eeab8326fe25","study_id":"6197b3f67c2b5cd3b6d9596a","session_id":"6197b9f04c1af4d577c279a1","condition":"full-information","relevant_dimensions":["wings","legs"],"bee_group":{"antennae":"X","wings":"2","pattern":"X","legs":"M"},"bonus":1.480000000000001},{"rt":7947.4000000059605,"stimulus":"bees-with-color/bee-B1DF.svg","response":0,"trial_type":"image-button-response","trial_index":146,"time_elapsed":1583949,"internal_node_id":"0.0-6.0-0.10","subject_id":"6100420439c2eeab8326fe25","study_id":"6197b3f67c2b5cd3b6d9596a","session_id":"6197b9f04c1af4d577c279a1","condition":"full-information","relevant_dimensions":["wings","legs"],"bee_group":{"antennae":"X","wings":"2","pattern":"X","legs":"M"},"bonus":1.480000000000001},{"rt":16141.699999988079,"stimulus":"bees-with-color/bee-A1DF.svg","response":0,"trial_type":"image-button-response","trial_index":147,"time_elapsed":1600095,"internal_node_id":"0.0-6.0-0.11","subject_id":"6100420439c2eeab8326fe25","study_id":"6197b3f67c2b5cd3b6d9596a","session_id":"6197b9f04c1af4d577c279a1","condition":"full-information","relevant_dimensions":["wings","legs"],"bee_group":{"antennae":"X","wings":"2","pattern":"X","legs":"M"},"bonus":1.480000000000001},{"rt":3955.0999999940395,"stimulus":"bees-with-color/bee-B2SM.svg","response":1,"trial_type":"image-button-response","trial_index":148,"time_elapsed":1604054,"internal_node_id":"0.0-6.0-0.12","subject_id":"6100420439c2eeab8326fe25","study_id":"6197b3f67c2b5cd3b6d9596a","session_id":"6197b9f04c1af4d577c279a1","condition":"full-information","relevant_dimensions":["wings","legs"],"bee_group":{"antennae":"X","wings":"2","pattern":"X","legs":"M"},"bonus":1.480000000000001},{"rt":10307,"stimulus":"bees-with-color/bee-B1DM.svg","response":0,"trial_type":"image-button-response","trial_index":149,"time_elapsed":1614364,"internal_node_id":"0.0-6.0-0.13","subject_id":"6100420439c2eeab8326fe25","study_id":"6197b3f67c2b5cd3b6d9596a","session_id":"6197b9f04c1af4d577c279a1","condition":"full-information","relevant_dimensions":["wings","legs"],"bee_group":{"antennae":"X","wings":"2","pattern":"X","legs":"M"},"bonus":1.480000000000001},{"rt":2701.5,"stimulus":"bees-with-color/bee-B1SF.svg","response":0,"trial_type":"image-button-response","trial_index":150,"time_elapsed":1617070,"internal_node_id":"0.0-6.0-0.14","subject_id":"6100420439c2eeab8326fe25","study_id":"6197b3f67c2b5cd3b6d9596a","session_id":"6197b9f04c1af4d577c279a1","condition":"full-information","relevant_dimensions":["wings","legs"],"bee_group":{"antennae":"X","wings":"2","pattern":"X","legs":"M"},"bonus":1.480000000000001},{"rt":33864.29999998212,"stimulus":"bees-with-color/bee-A2DF.svg","response":0,"trial_type":"image-button-response","trial_index":151,"time_elapsed":1650938,"internal_node_id":"0.0-6.0-0.15","subject_id":"6100420439c2eeab8326fe25","study_id":"6197b3f67c2b5cd3b6d9596a","session_id":"6197b9f04c1af4d577c279a1","condition":"full-information","relevant_dimensions":["wings","legs"],"bee_group":{"antennae":"X","wings":"2","pattern":"X","legs":"M"},"bonus":1.480000000000001},{"rt":2212.800000011921,"stimulus":"bees-with-color/bee-B1SF.svg","response":0,"trial_type":"image-button-response","trial_index":152,"time_elapsed":1653155,"internal_node_id":"0.0-6.0-0.16","subject_id":"6100420439c2eeab8326fe25","study_id":"6197b3f67c2b5cd3b6d9596a","session_id":"6197b9f04c1af4d577c279a1","condition":"full-information","relevant_dimensions":["wings","legs"],"bee_group":{"antennae":"X","wings":"2","pattern":"X","legs":"M"},"bonus":1.480000000000001},{"rt":4305.4000000059605,"stimulus":"bees-with-color/bee-B2SF.svg","response":0,"trial_type":"image-button-response","trial_index":153,"time_elapsed":1657463,"internal_node_id":"0.0-6.0-0.17","subject_id":"6100420439c2eeab8326fe25","study_id":"6197b3f67c2b5cd3b6d9596a","session_id":"6197b9f04c1af4d577c279a1","condition":"full-information","relevant_dimensions":["wings","legs"],"bee_group":{"antennae":"X","wings":"2","pattern":"X","legs":"M"},"bonus":1.480000000000001},{"rt":8926.300000011921,"stimulus":"bees-with-color/bee-A1DF.svg","response":0,"trial_type":"image-button-response","trial_index":154,"time_elapsed":1666393,"internal_node_id":"0.0-6.0-0.18","subject_id":"6100420439c2eeab8326fe25","study_id":"6197b3f67c2b5cd3b6d9596a","session_id":"6197b9f04c1af4d577c279a1","condition":"full-information","relevant_dimensions":["wings","legs"],"bee_group":{"antennae":"X","wings":"2","pattern":"X","legs":"M"},"bonus":1.480000000000001},{"rt":2993.800000011921,"stimulus":"bees-with-color/bee-A2SM.svg","response":1,"trial_type":"image-button-response","trial_index":155,"time_elapsed":1669390,"internal_node_id":"0.0-6.0-0.19","subject_id":"6100420439c2eeab8326fe25","study_id":"6197b3f67c2b5cd3b6d9596a","session_id":"6197b9f04c1af4d577c279a1","condition":"full-information","relevant_dimensions":["wings","legs"],"bee_group":{"antennae":"X","wings":"2","pattern":"X","legs":"M"},"bonus":1.480000000000001},{"rt":2759.199999988079,"stimulus":"bees-with-color/bee-B2SM.svg","response":1,"trial_type":"image-button-response","trial_index":156,"time_elapsed":1672153,"internal_node_id":"0.0-6.0-0.20","subject_id":"6100420439c2eeab8326fe25","study_id":"6197b3f67c2b5cd3b6d9596a","session_id":"6197b9f04c1af4d577c279a1","condition":"full-information","relevant_dimensions":["wings","legs"],"bee_group":{"antennae":"X","wings":"2","pattern":"X","legs":"M"},"bonus":1.480000000000001},{"rt":6225.199999988079,"stimulus":"bees-with-color/bee-A2SF.svg","response":0,"trial_type":"image-button-response","trial_index":157,"time_elapsed":1678381,"internal_node_id":"0.0-6.0-0.21","subject_id":"6100420439c2eeab8326fe25","study_id":"6197b3f67c2b5cd3b6d9596a","session_id":"6197b9f04c1af4d577c279a1","condition":"full-information","relevant_dimensions":["wings","legs"],"bee_group":{"antennae":"X","wings":"2","pattern":"X","legs":"M"},"bonus":1.480000000000001},{"rt":4158.5999999940395,"stimulus":"bees-with-color/bee-A1SF.svg","response":0,"trial_type":"image-button-response","trial_index":158,"time_elapsed":1682543,"internal_node_id":"0.0-6.0-0.22","subject_id":"6100420439c2eeab8326fe25","study_id":"6197b3f67c2b5cd3b6