[{"success":true,"trial_type":"fullscreen","trial_index":0,"time_elapsed":2967,"internal_node_id":"0.0-0.0","subject_id":"5bb5896d56161d0001ff93b4","study_id":"6197b3f67c2b5cd3b6d9596a","session_id":"619beef18660575b9589030c","condition":"contingent","relevant_dimensions":["wings","pattern"],"bee_group":{"antennae":"X","wings":"2","pattern":"D","legs":"X"},"bonus":1.120000000000001},{"success":true,"timeout":false,"failed_images":[],"failed_audio":[],"failed_video":[],"trial_type":"preload","trial_index":1,"time_elapsed":4567,"internal_node_id":"0.0-1.0","subject_id":"5bb5896d56161d0001ff93b4","study_id":"6197b3f67c2b5cd3b6d9596a","session_id":"619beef18660575b9589030c","condition":"contingent","relevant_dimensions":["wings","pattern"],"bee_group":{"antennae":"X","wings":"2","pattern":"D","legs":"X"},"bonus":1.120000000000001},{"rt":1167.4000000003725,"stimulus":"Welcome! Press any key to begin.","response":" ","trial_type":"html-keyboard-response","trial_index":2,"time_elapsed":5737,"internal_node_id":"0.0-2.0","subject_id":"5bb5896d56161d0001ff93b4","study_id":"6197b3f67c2b5cd3b6d9596a","session_id":"619beef18660575b9589030c","condition":"contingent","relevant_dimensions":["wings","pattern"],"bee_group":{"antennae":"X","wings":"2","pattern":"D","legs":"X"},"bonus":1.120000000000001},{"view_history":[{"page_index":0,"viewing_time":2475.100000000559},{"page_index":1,"viewing_time":7334.399999999441},{"page_index":2,"viewing_time":8633.100000000559},{"page_index":3,"viewing_time":12871.599999999627},{"page_index":4,"viewing_time":4481.200000000186},{"page_index":5,"viewing_time":7309.899999999441},{"page_index":6,"viewing_time":7066.300000000745},{"page_index":7,"viewing_time":4262},{"page_index":8,"viewing_time":1736.5999999996275},{"page_index":9,"viewing_time":1395.7999999998137},{"page_index":10,"viewing_time":1712.5},{"page_index":11,"viewing_time":6241.100000000559},{"page_index":12,"viewing_time":4892.799999999814},{"page_index":13,"viewing_time":1530},{"page_index":14,"viewing_time":1262.7000000001863}],"rt":73205.90000000037,"trial_type":"instructions","trial_index":3,"time_elapsed":78945,"internal_node_id":"0.0-3.0-0.0","subject_id":"5bb5896d56161d0001ff93b4","study_id":"6197b3f67c2b5cd3b6d9596a","session_id":"619beef18660575b9589030c","condition":"contingent","relevant_dimensions":["wings","pattern"],"bee_group":{"antennae":"X","wings":"2","pattern":"D","legs":"X"},"bonus":1.120000000000001},{"rt":8988.299999999814,"response":{"Q0":["Two or six legs","Stripes or spots on body","Single or double wings","Antennae or no antennae"]},"question_order":[0],"trial_type":"survey-multi-select","trial_index":4,"time_elapsed":87944,"internal_node_id":"0.0-3.0-1.0","subject_id":"5bb5896d56161d0001ff93b4","study_id":"6197b3f67c2b5cd3b6d9596a","session_id":"619beef18660575b9589030c","condition":"contingent","relevant_dimensions":["wings","pattern"],"bee_group":{"antennae":"X","wings":"2","pattern":"D","legs":"X"},"correct":true,"bonus":1.120000000000001},{"rt":15282.099999999627,"response":{"Q1":"No.","Q2":"Based on the four features of the bee.","Q3":"You do not learn if it was friendly or dangerous, and do not alter your bonus."},"question_order":[0,1,2],"trial_type":"survey-multi-choice","trial_index":5,"time_elapsed":103231,"internal_node_id":"0.0-3.0-2.0","subject_id":"5bb5896d56161d0001ff93b4","study_id":"6197b3f67c2b5cd3b6d9596a","session_id":"619beef18660575b9589030c","condition":"contingent","relevant_dimensions":["wings","pattern"],"bee_group":{"antennae":"X","wings":"2","pattern":"D","legs":"X"},"correct":true,"bonus":1.120000000000001},{"rt":2190.9000000003725,"stimulus":"<p>Congrats, you got everything right<br>When you're ready, click the button below to continue to the experiment.</p>","response":0,"trial_type":"html-button-response","trial_index":6,"time_elapsed":105427,"internal_node_id":"0.0-3.0-3.0","subject_id":"5bb5896d56161d0001ff93b4","study_id":"6197b3f67c2b5cd3b6d9596a","session_id":"619beef18660575b9589030c","condition":"contingent","relevant_dimensions":["wings","pattern"],"bee_group":{"antennae":"X","wings":"2","pattern":"D","legs":"X"},"bonus":1.120000000000001},{"rt":2409.7000000001863,"stimulus":"bees-with-color/bee-A1SM.svg","response":0,"trial_type":"image-button-response","trial_index":7,"time_elapsed":107843,"internal_node_id":"0.0-4.0-0.0","subject_id":"5bb5896d56161d0001ff93b4","study_id":"6197b3f67c2b5cd3b6d9596a","session_id":"619beef18660575b9589030c","condition":"contingent","relevant_dimensions":["wings","pattern"],"bee_group":{"antennae":"X","wings":"2","pattern":"D","legs":"X"},"action":"harvest","summary":"good-harvest","bonus":1.120000000000001},{"rt":6561.700000000186,"stimulus":"\n                    <p><b>Action: <em>harvest</em></b></p>\n                    <p>This is the bee that you just saw.</p>\n                    <img src=\"bees-with-color/bee-A1SM.svg\" width=\"200\">\n                    <p><span class=\"greenText\"><b>Successful harvest!</b></span><br>Your pay has increased by $0.02. Your bonus pay is now $0.56.</p>\n            ","response":0,"trial_type":"html-button-response","trial_index":8,"time_elapsed":114410,"internal_node_id":"0.0-4.0-1.0","subject_id":"5bb5896d56161d0001ff93b4","study_id":"6197b3f67c2b5cd3b6d9596a","session_id":"619beef18660575b9589030c","condition":"contingent","relevant_dimensions":["wings","pattern"],"bee_group":{"antennae":"X","wings":"2","pattern":"D","legs":"X"},"bonus":1.120000000000001},{"rt":1854.8999999994412,"stimulus":"bees-with-color/bee-B1SF.svg","response":1,"trial_type":"image-button-response","trial_index":9,"time_elapsed":116269,"internal_node_id":"0.0-4.0-0.1","subject_id":"5bb5896d56161d0001ff93b4","study_id":"6197b3f67c2b5cd3b6d9596a","session_id":"619beef18660575b9589030c","condition":"contingent","relevant_dimensions":["wings","pattern"],"bee_group":{"antennae":"X","wings":"2","pattern":"D","legs":"X"},"action":"avoid","summary":"bad-avoid","bonus":1.120000000000001},{"rt":3224.4000000003725,"stimulus":"\n                    <p><b>Action: <em>avoid</em></b></p>\n                    <p>This is the bee that you just saw.</p>\n                    <img src=\"bees-with-color/bee-B1SF.svg\" width=\"200\">\n                    <p><br>Your bonus pay is unchanged, and remains at $0.56.</p>\n            ","response":0,"trial_type":"html-button-response","trial_index":10,"time_elapsed":119497,"internal_node_id":"0.0-4.0-1.1","subject_id":"5bb5896d56161d0001ff93b4","study_id":"6197b3f67c2b5cd3b6d9596a","session_id":"619beef18660575b9589030c","condition":"contingent","relevant_dimensions":["wings","pattern"],"bee_group":{"antennae":"X","wings":"2","pattern":"D","legs":"X"},"bonus":1.120000000000001},{"rt":1865.9000000003725,"stimulus":"bees-with-color/bee-A2SM.svg","response":0,"trial_type":"image-button-response","trial_index":11,"time_elapsed":121367,"internal_node_id":"0.0-4.0-0.2","subject_id":"5bb5896d56161d0001ff93b4","study_id":"6197b3f67c2b5cd3b6d9596a","session_id":"619beef18660575b9589030c","condition":"contingent","relevant_dimensions":["wings","pattern"],"bee_group":{"antennae":"X","wings":"2","pattern":"D","legs":"X"},"action":"harvest","summary":"good-harvest","bonus":1.120000000000001},{"rt":2158.2000000001863,"stimulus":"\n                    <p><b>Action: <em>harvest</em></b></p>\n                    <p>This is the bee that you just saw.</p>\n                    <img src=\"bees-with-color/bee-A2SM.svg\" width=\"200\">\n                    <p><span class=\"greenText\"><b>Successful harvest!</b></span><br>Your pay has increased by $0.02. Your bonus pay is now $0.58.</p>\n            ","response":0,"trial_type":"html-button-response","trial_index":12,"time_elapsed":123529,"internal_node_id":"0.0-4.0-1.2","subject_id":"5bb5896d56161d0001ff93b4","study_id":"6197b3f67c2b5cd3b6d9596a","session_id":"619beef18660575b9589030c","condition":"contingent","relevant_dimensions":["wings","pattern"],"bee_group":{"antennae":"X","wings":"2","pattern":"D","legs":"X"},"bonus":1.120000000000001},{"rt":1258.5,"stimulus":"bees-with-color/bee-A2DF.svg","response":0,"trial_type":"image-button-response","trial_index":13,"time_elapsed":124792,"internal_node_id":"0.0-4.0-0.3","subject_id":"5bb5896d56161d0001ff93b4","study_id":"6197b3f67c2b5cd3b6d9596a","session_id":"619beef18660575b9589030c","condition":"contingent","relevant_dimensions":["wings","pattern"],"bee_group":{"antennae":"X","wings":"2","pattern":"D","legs":"X"},"action":"harvest","summary":"bad-harvest","bonus":1.120000000000001},{"rt":3103.0999999996275,"stimulus":"\n                    <p><b>Action: <em>harvest</em></b></p>\n                    <p>This is the bee that you just saw.</p>\n                    <img src=\"bees-with-color/bee-A2DF.svg\" width=\"200\">\n                    <p><span class=\"redText\">Bad choice, the bee was angry.</span><br><b>You have been stung!</b><br>Your pay has been decreased by $0.10. Your bonus pay is now $0.48.</p>\n            ","response":0,"trial_type":"html-button-response","trial_index":14,"time_elapsed":127899,"internal_node_id":"0.0-4.0-1.3","subject_id":"5bb5896d56161d0001ff93b4","study_id":"6197b3f67c2b5cd3b6d9596a","session_id":"619beef18660575b9589030c","condition":"contingent","relevant_dimensions":["wings","pattern"],"bee_group":{"antennae":"X","wings":"2","pattern":"D","legs":"X"},"bonus":1.120000000000001},{"rt":1333.2000000001863,"stimulus":"bees-with-color/bee-B1DF.svg","response":0,"trial_type":"image-button-response","trial_index":15,"time_elapsed":129237,"internal_node_id":"0.0-4.0-0.4","subject_id":"5bb5896d56161d0001ff93b4","study_id":"6197b3f67c2b5cd3b6d9596a","session_id":"619beef18660575b9589030c","condition":"contingent","relevant_dimensions":["wings","pattern"],"bee_group":{"antennae":"X","wings":"2","pattern":"D","legs":"X"},"action":"harvest","summary":"good-harvest","bonus":1.120000000000001},{"rt":1900.4000000003725,"stimulus":"\n                    <p><b>Action: <em>harvest</em></b></p>\n                    <p>This is the bee that you just saw.</p>\n                    <img src=\"bees-with-color/bee-B1DF.svg\" width=\"200\">\n                    <p><span class=\"greenText\"><b>Successful harvest!</b></span><br>Your pay has increased by $0.02. Your bonus pay is now $0.50.</p>\n            ","response":0,"trial_type":"html-button-response","trial_index":16,"time_elapsed":131141,"internal_node_id":"0.0-4.0-1.4","subject_id":"5bb5896d56161d0001ff93b4","study_id":"6197b3f67c2b5cd3b6d9596a","session_id":"619beef18660575b9589030c","condition":"contingent","relevant_dimensions":["wings","pattern"],"bee_group":{"antennae":"X","wings":"2","pattern":"D","legs":"X"},"bonus":1.120000000000001},{"rt":1088.7999999998137,"stimulus":"bees-with-color/bee-A1DM.svg","response":0,"trial_type":"image-button-response","trial_index":17,"time_elapsed":132234,"internal_node_id":"0.0-4.0-0.5","subject_id":"5bb5896d56161d0001ff93b4","study_id":"6197b3f67c2b5cd3b6d9596a","session_id":"619beef18660575b9589030c","condition":"contingent","relevant_dimensions":["wings","pattern"],"bee_group":{"antennae":"X","wings":"2","pattern":"D","legs":"X"},"action":"harvest","summary":"good-harvest","bonus":1.120000000000001},{"rt":1355.7000000001863,"stimulus":"\n                    <p><b>Action: <em>harvest</em></b></p>\n                    <p>This is the bee that you just saw.</p>\n                    <img src=\"bees-with-color/bee-A1DM.svg\" width=\"200\">\n                    <p><span class=\"greenText\"><b>Successful harvest!</b></span><br>Your pay has increased by $0.02. Your bonus pay is now $0.52.</p>\n            ","response":0,"trial_type":"html-button-response","trial_index":18,"time_elapsed":133595,"internal_node_id":"0.0-4.0-1.5","subject_id":"5bb5896d56161d0001ff93b4","study_id":"6197b3f67c2b5cd3b6d9596a","session_id":"619beef18660575b9589030c","condition":"contingent","relevant_dimensions":["wings","pattern"],"bee_group":{"antennae":"X","wings":"2","pattern":"D","legs":"X"},"bonus":1.120000000000001},{"rt":2021.7000000001863,"stimulus":"bees-with-color/bee-A2SF.svg","response":0,"trial_type":"image-button-response","trial_index":19,"time_elapsed":135622,"internal_node_id":"0.0-4.0-0.6","subject_id":"5bb5896d56161d0001ff93b4","study_id":"6197b3f67c2b5cd3b6d9596a","session_id":"619beef18660575b9589030c","condition":"contingent","relevant_dimensions":["wings","pattern"],"bee_group":{"antennae":"X","wings":"2","pattern":"D","legs":"X"},"action":"harvest","summary":"good-harvest","bonus":1.120000000000001},{"rt":1417,"stimulus":"\n                    <p><b>Action: <em>harvest</em></b></p>\n                    <p>This is the bee that you just saw.</p>\n                    <img src=\"bees-with-color/bee-A2SF.svg\" width=\"200\">\n                    <p><span class=\"greenText\"><b>Successful harvest!</b></span><br>Your pay has increased by $0.02. Your bonus pay is now $0.54.</p>\n            ","response":0,"trial_type":"html-button-response","trial_index":20,"time_elapsed":137042,"internal_node_id":"0.0-4.0-1.6","subject_id":"5bb5896d56161d0001ff93b4","study_id":"6197b3f67c2b5cd3b6d9596a","session_id":"619beef18660575b9589030c","condition":"contingent","relevant_dimensions":["wings","pattern"],"bee_group":{"antennae":"X","wings":"2","pattern":"D","legs":"X"},"bonus":1.120000000000001},{"rt":1586.2000000001863,"stimulus":"bees-with-color/bee-A2DM.svg","response":0,"trial_type":"image-button-response","trial_index":21,"time_elapsed":138632,"internal_node_id":"0.0-4.0-0.7","subject_id":"5bb5896d56161d0001ff93b4","study_id":"6197b3f67c2b5cd3b6d9596a","session_id":"619beef18660575b9589030c","condition":"contingent","relevant_dimensions":["wings","pattern"],"bee_group":{"antennae":"X","wings":"2","pattern":"D","legs":"X"},"action":"harvest","summary":"bad-harvest","bonus":1.120000000000001},{"rt":2594.5999999996275,"stimulus":"\n                    <p><b>Action: <em>harvest</em></b></p>\n                    <p>This is the bee that you just saw.</p>\n                    <img src=\"bees-with-color/bee-A2DM.svg\" width=\"200\">\n                    <p><span class=\"redText\">Bad choice, the bee was angry.</span><br><b>You have been stung!</b><br>Your pay has been decreased by $0.10. Your bonus pay is now $0.44.</p>\n            ","response":0,"trial_type":"html-button-response","trial_index":22,"time_elapsed":141231,"internal_node_id":"0.0-4.0-1.7","subject_id":"5bb5896d56161d0001ff93b4","study_id":"6197b3f67c2b5cd3b6d9596a","session_id":"619beef18660575b9589030c","condition":"contingent","relevant_dimensions":["wings","pattern"],"bee_group":{"antennae":"X","wings":"2","pattern":"D","legs":"X"},"bonus":1.120000000000001},{"rt":1075.2000000001863,"stimulus":"bees-with-color/bee-B2SF.svg","response":0,"trial_type":"image-button-response","trial_index":23,"time_elapsed":142312,"internal_node_id":"0.0-4.0-0.8","subject_id":"5bb5896d56161d0001ff93b4","study_id":"6197b3f67c2b5cd3b6d9596a","session_id":"619beef18660575b9589030c","condition":"contingent","relevant_dimensions":["wings","pattern"],"bee_group":{"antennae":"X","wings":"2","pattern":"D","legs":"X"},"action":"harvest","summary":"good-harvest","bonus":1.120000000000001},{"rt":1379.7999999998137,"stimulus":"\n                    <p><b>Action: <em>harvest</em></b></p>\n                    <p>This is the bee that you just saw.</p>\n                    <img src=\"bees-with-color/bee-B2SF.svg\" width=\"200\">\n                    <p><span class=\"greenText\"><b>Successful harvest!</b></span><br>Your pay has increased by $0.02. Your bonus pay is now $0.46.</p>\n            ","response":0,"trial_type":"html-button-response","trial_index":24,"time_elapsed":143696,"internal_node_id":"0.0-4.0-1.8","subject_id":"5bb5896d56161d0001ff93b4","study_id":"6197b3f67c2b5cd3b6d9596a","session_id":"619beef18660575b9589030c","condition":"contingent","relevant_dimensions":["wings","pattern"],"bee_group":{"antennae":"X","wings":"2","pattern":"D","legs":"X"},"bonus":1.120000000000001},{"rt":1428.2000000001863,"stimulus":"bees-with-color/bee-A1SF.svg","response":0,"trial_type":"image-button-response","trial_index":25,"time_elapsed":145129,"internal_node_id":"0.0-4.0-0.9","subject_id":"5bb5896d56161d0001ff93b4","study_id":"6197b3f67c2b5cd3b6d9596a","session_id":"619beef18660575b9589030c","condition":"contingent","relevant_dimensions":["wings","pattern"],"bee_group":{"antennae":"X","wings":"2","pattern":"D","legs":"X"},"action":"harvest","summary":"good-harvest","bonus":1.120000000000001},{"rt":2229.9000000003725,"stimulus":"\n                    <p><b>Action: <em>harvest</em></b></p>\n                    <p>This is the bee that you just saw.</p>\n                    <img src=\"bees-with-color/bee-A1SF.svg\" width=\"200\">\n                    <p><span class=\"greenText\"><b>Successful harvest!</b></span><br>Your pay has increased by $0.02. Your bonus pay is now $0.48.</p>\n            ","response":0,"trial_type":"html-button-response","trial_index":26,"time_elapsed":147363,"internal_node_id":"0.0-4.0-1.9","subject_id":"5bb5896d56161d0001ff93b4","study_id":"6197b3f67c2b5cd3b6d9596a","session_id":"619beef18660575b9589030c","condition":"contingent","relevant_dimensions":["wings","pattern"],"bee_group":{"antennae":"X","wings":"2","pattern":"D","legs":"X"},"bonus":1.120000000000001},{"rt":1246.8999999994412,"stimulus":"bees-with-color/bee-B2SM.svg","response":0,"trial_type":"image-button-response","trial_index":27,"time_elapsed":148613,"internal_node_id":"0.0-4.0-0.10","subject_id":"5bb5896d56161d0001ff93b4","study_id":"6197b3f67c2b5cd3b6d9596a","session_id":"619beef18660575b9589030c","condition":"contingent","relevant_dimensions":["wings","pattern"],"bee_group":{"antennae":"X","wings":"2","pattern":"D","legs":"X"},"action":"harvest","summary":"good-harvest","bonus":1.120000000000001},{"rt":1318.5,"stimulus":"\n                    <p><b>Action: <em>harvest</em></b></p>\n                    <p>This is the bee that you just saw.</p>\n                    <img src=\"bees-with-color/bee-B2SM.svg\" width=\"200\">\n                    <p><span class=\"greenText\"><b>Successful harvest!</b></span><br>Your pay has increased by $0.02. Your bonus pay is now $0.50.</p>\n            ","response":0,"trial_type":"html-button-response","trial_index":28,"time_elapsed":149936,"internal_node_id":"0.0-4.0-1.10","subject_id":"5bb5896d56161d0001ff93b4","study_id":"6197b3f67c2b5cd3b6d9596a","session_id":"619beef18660575b9589030c","condition":"contingent","relevant_dimensions":["wings","pattern"],"bee_group":{"antennae":"X","wings":"2","pattern":"D","legs":"X"},"bonus":1.120000000000001},{"rt":1003.7999999998137,"stimulus":"bees-with-color/bee-B1SM.svg","response":0,"trial_type":"image-button-response","trial_index":29,"time_elapsed":150943,"internal_node_id":"0.0-4.0-0.11","subject_id":"5bb5896d56161d0001ff93b4","study_id":"6197b3f67c2b5cd3b6d9596a","session_id":"619beef18660575b9589030c","condition":"contingent","relevant_dimensions":["wings","pattern"],"bee_group":{"antennae":"X","wings":"2","pattern":"D","legs":"X"},"action":"harvest","summary":"good-harvest","bonus":1.120000000000001},{"rt":1150.6000000005588,"stimulus":"\n                    <p><b>Action: <em>harvest</em></b></p>\n                    <p>This is the bee that you just saw.</p>\n                    <img src=\"bees-with-color/bee-B1SM.svg\" width=\"200\">\n                    <p><span class=\"greenText\"><b>Successful harvest!</b></span><br>Your pay has increased by $0.02. Your bonus pay is now $0.52.</p>\n            ","response":0,"trial_type":"html-button-response","trial_index":30,"time_elapsed":152097,"internal_node_id":"0.0-4.0-1.11","subject_id":"5bb5896d56161d0001ff93b4","study_id":"6197b3f67c2b5cd3b6d9596a","session_id":"619beef18660575b9589030c","condition":"contingent","relevant_dimensions":["wings","pattern"],"bee_group":{"antennae":"X","wings":"2","pattern":"D","legs":"X"},"bonus":1.120000000000001},{"rt":1297.3999999994412,"stimulus":"bees-with-color/bee-B2DF.svg","response":1,"trial_type":"image-button-response","trial_index":31,"time_elapsed":153397,"internal_node_id":"0.0-4.0-0.12","subject_id":"5bb5896d56161d0001ff93b4","study_id":"6197b3f67c2b5cd3b6d9596a","session_id":"619beef18660575b9589030c","condition":"contingent","relevant_dimensions":["wings","pattern"],"bee_group":{"antennae":"X","wings":"2","pattern":"D","legs":"X"},"action":"avoid","summary":"good-avoid","bonus":1.120000000000001},{"rt":1246.7000000001863,"stimulus":"\n                    <p><b>Action: <em>avoid</em></b></p>\n                    <p>This is the bee that you just saw.</p>\n                    <img src=\"bees-with-color/bee-B2DF.svg\" width=\"200\">\n                    <p><br>Your bonus pay is unchanged, and remains at $0.52.</p>\n            ","response":0,"trial_type":"html-button-response","trial_index":32,"time_elapsed":154647,"internal_node_id":"0.0-4.0-1.12","subject_id":"5bb5896d56161d0001ff93b4","study_id":"6197b3f67c2b5cd3b6d9596a","session_id":"619beef18660575b9589030c","condition":"contingent","relevant_dimensions":["wings","pattern"],"bee_group":{"antennae":"X","wings":"2","pattern":"D","legs":"X"},"bonus":1.120000000000001},{"rt":1125.9000000003725,"stimulus":"bees-with-color/bee-A1DF.svg","response":1,"trial_type":"image-button-response","trial_index":33,"time_elapsed":155776,"internal_node_id":"0.0-4.0-0.13","subject_id":"5bb5896d56161d0001ff93b4","study_id":"6197b3f67c2b5cd3b6d9596a","session_id":"619beef18660575b9589030c","condition":"contingent","relevant_dimensions":["wings","pattern"],"bee_group":{"antennae":"X","wings":"2","pattern":"D","legs":"X"},"action":"avoid","summary":"bad-avoid","bonus":1.120000000000001},{"rt":944.4000000003725,"stimulus":"\n                    <p><b>Action: <em>avoid</em></b></p>\n                    <p>This is the bee that you just saw.</p>\n                    <img src=\"bees-with-color/bee-A1DF.svg\" width=\"200\">\n                    <p><br>Your bonus pay is unchanged, and remains at $0.52.</p>\n            ","response":0,"trial_type":"html-button-response","trial_index":34,"time_elapsed":156723,"internal_node_id":"0.0-4.0-1.13","subject_id":"5bb5896d56161d0001ff93b4","study_id":"6197b3f67c2b5cd3b6d9596a","session_id":"619beef18660575b9589030c","condition":"contingent","relevant_dimensions":["wings","pattern"],"bee_group":{"antennae":"X","wings":"2","pattern":"D","legs":"X"},"bonus":1.120000000000001},{"rt":1053.5,"stimulus":"bees-with-color/bee-B1DM.svg","response":1,"trial_type":"image-button-response","trial_index":35,"time_elapsed":157780,"internal_node_id":"0.0-4.0-0.14","subject_id":"5bb5896d56161d0001ff93b4","study_id":"6197b3f67c2b5cd3b6d9596a","session_id":"619beef18660575b9589030c","condition":"contingent","relevant_dimensions":["wings","pattern"],"bee_group":{"antennae":"X","wings":"2","pattern":"D","legs":"X"},"action":"avoid","summary":"bad-avoid","bonus":1.120000000000001},{"rt":1016.2000000001863,"stimulus":"\n                    <p><b>Action: <em>avoid</em></b></p>\n                    <p>This is the bee that you just saw.</p>\n                    <img src=\"bees-with-color/bee-B1DM.svg\" width=\"200\">\n                    <p><br>Your bonus pay is unchanged, and remains at $0.52.</p>\n            ","response":0,"trial_type":"html-button-response","trial_index":36,"time_elapsed":158799,"internal_node_id":"0.0-4.0-1.14","subject_id":"5bb5896d56161d0001ff93b4","study_id":"6197b3f67c2b5cd3b6d9596a","session_id":"619beef18660575b9589030c","condition":"contingent","relevant_dimensions":["wings","pattern"],"bee_group":{"antennae":"X","wings":"2","pattern":"D","legs":"X"},"bonus":1.120000000000001},{"rt":1612.7999999998137,"stimulus":"bees-with-color/bee-B2DM.svg","response":0,"trial_type":"image-button-response","trial_index":37,"time_elapsed":160415,"internal_node_id":"0.0-4.0-0.15","subject_id":"5bb5896d56161d0001ff93b4","study_id":"6197b3f67c2b5cd3b6d9596a","session_id":"619beef18660575b9589030c","condition":"contingent","relevant_dimensions":["wings","pattern"],"bee_group":{"antennae":"X","wings":"2","pattern":"D","legs":"X"},"action":"harvest","summary":"bad-harvest","bonus":1.120000000000001},{"rt":1088.8999999994412,"stimulus":"\n                    <p><b>Action: <em>harvest</em></b></p>\n                    <p>This is the bee that you just saw.</p>\n                    <img src=\"bees-with-color/bee-B2DM.svg\" width=\"200\">\n                    <p><span class=\"redText\">Bad choice, the bee was angry.</span><br><b>You have been stung!</b><br>Your pay has been decreased by $0.10. Your bonus pay is now $0.42.</p>\n            ","response":0,"trial_type":"html-button-response","trial_index":38,"time_elapsed":161507,"internal_node_id":"0.0-4.0-1.15","subject_id":"5bb5896d56161d0001ff93b4","study_id":"6197b3f67c2b5cd3b6d9596a","session_id":"619beef18660575b9589030c","condition":"contingent","relevant_dimensions":["wings","pattern"],"bee_group":{"antennae":"X","wings":"2","pattern":"D","legs":"X"},"bonus":1.120000000000001},{"rt":1028,"stimulus":"bees-with-color/bee-B1SF.svg","response":0,"trial_type":"image-button-response","trial_index":39,"time_elapsed":162539,"internal_node_id":"0.0-4.0-0.16","subject_id":"5bb5896d56161d0001ff93b4","study_id":"6197b3f67c2b5cd3b6d9596a","session_id":"619beef18660575b9589030c","condition":"contingent","relevant_dimensions":["wings","pattern"],"bee_group":{"antennae":"X","wings":"2","pattern":"D","legs":"X"},"action":"harvest","summary":"good-harvest","bonus":1.120000000000001},{"rt":980.5,"stimulus":"\n                    <p><b>Action: <em>harvest</em></b></p>\n                    <p>This is the bee that you just saw.</p>\n                    <img src=\"bees-with-color/bee-B1SF.svg\" width=\"200\">\n                    <p><span class=\"greenText\"><b>Successful harvest!</b></span><br>Your pay has increased by $0.02. Your bonus pay is now $0.44.</p>\n            ","response":0,"trial_type":"html-button-response","trial_index":40,"time_elapsed":163523,"internal_node_id":"0.0-4.0-1.16","subject_id":"5bb5896d56161d0001ff93b4","study_id":"6197b3f67c2b5cd3b6d9596a","session_id":"619beef18660575b9589030c","condition":"contingent","relevant_dimensions":["wings","pattern"],"bee_group":{"antennae":"X","wings":"2","pattern":"D","legs":"X"},"bonus":1.120000000000001},{"rt":980.3999999994412,"stimulus":"bees-with-color/bee-B1DF.svg","response":1,"trial_type":"image-button-response","trial_index":41,"time_elapsed":164506,"internal_node_id":"0.0-4.0-0.17","subject_id":"5bb5896d56161d0001ff93b4","study_id":"6197b3f67c2b5cd3b6d9596a","session_id":"619beef18660575b9589030c","condition":"contingent","relevant_dimensions":["wings","pattern"],"bee_group":{"antennae":"X","wings":"2","pattern":"D","legs":"X"},"action":"avoid","summary":"bad-avoid","bonus":1.120000000000001},{"rt":932.1000000005588,"stimulus":"\n                    <p><b>Action: <em>avoid</em></b></p>\n                    <p>This is the bee that you just saw.</p>\n                    <img src=\"bees-with-color/bee-B1DF.svg\" width=\"200\">\n                    <p><br>Your bonus pay is unchanged, and remains at $0.44.</p>\n            ","response":0,"trial_type":"html-button-response","trial_index":42,"time_elapsed":165441,"internal_node_id":"0.0-4.0-1.17","subject_id":"5bb5896d56161d0001ff93b4","study_id":"6197b3f67c2b5cd3b6d9596a","session_id":"619beef18660575b9589030c","condition":"contingent","relevant_dimensions":["wings","pattern"],"bee_group":{"antennae":"X","wings":"2","pattern":"D","legs":"X"},"bonus":1.120000000000001},{"rt":2412.4000000003725,"stimulus":"bees-with-color/bee-B1DM.svg","response":0,"trial_type":"image-button-response","trial_index":43,"time_elapsed":167857,"internal_node_id":"0.0-4.0-0.18","subject_id":"5bb5896d56161d0001ff93b4","study_id":"6197b3f67c2b5cd3b6d9596a","session_id":"619beef18660575b9589030c","condition":"contingent","relevant_dimensions":["wings","pattern"],"bee_group":{"antennae":"X","wings":"2","pattern":"D","legs":"X"},"action":"harvest","summary":"good-harvest","bonus":1.120000000000001},{"rt":2583.5999999996275,"stimulus":"\n                    <p><b>Action: <em>harvest</em></b></p>\n                    <p>This is the bee that you just saw.</p>\n                    <img src=\"bees-with-color/bee-B1DM.svg\" width=\"200\">\n                    <p><span class=\"greenText\"><b>Successful harvest!</b></span><br>Your pay has increased by $0.02. Your bonus pay is now $0.46.</p>\n            ","response":0,"trial_type":"html-button-response","trial_index":44,"time_elapsed":170444,"internal_node_id":"0.0-4.0-1.18","subject_id":"5bb5896d56161d0001ff93b4","study_id":"6197b3f67c2b5cd3b6d9596a","session_id":"619beef18660575b9589030c","condition":"contingent","relevant_dimensions":["wings","pattern"],"bee_group":{"antennae":"X","wings":"2","pattern":"D","legs":"X"},"bonus":1.120000000000001},{"rt":2252.5,"stimulus":"bees-with-color/bee-B2DM.svg","response":0,"trial_type":"image-button-response","trial_index":45,"time_elapsed":172701,"internal_node_id":"0.0-4.0-0.19","subject_id":"5bb5896d56161d0001ff93b4","study_id":"6197b3f67c2b5cd3b6d9596a","session_id":"619beef18660575b9589030c","condition":"contingent","relevant_dimensions":["wings","pattern"],"bee_group":{"antennae":"X","wings":"2","pattern":"D","legs":"X"},"action":"harvest","summary":"bad-harvest","bonus":1.120000000000001},{"rt":1369.2000000001863,"stimulus":"\n                    <p><b>Action: <em>harvest</em></b></p>\n                    <p>This is the bee that you just saw.</p>\n                    <img src=\"bees-with-color/bee-B2DM.svg\" width=\"200\">\n                    <p><span class=\"redText\">Bad choice, the bee was angry.</span><br><b>You have been stung!</b><br>Your pay has been decreased by $0.10. Your bonus pay is now $0.36.</p>\n            ","response":0,"trial_type":"html-button-response","trial_index":46,"time_elapsed":174073,"internal_node_id":"0.0-4.0-1.19","subject_id":"5bb5896d56161d0001ff93b4","study_id":"6197b3f67c2b5cd3b6d9596a","session_id":"619beef18660575b9589030c","condition":"contingent","relevant_dimensions":["wings","pattern"],"bee_group":{"antennae":"X","wings":"2","pattern":"D","legs":"X"},"bonus":1.120000000000001},{"rt":1659.0999999996275,"stimulus":"bees-with-color/bee-A1SM.svg","response":0,"trial_type":"image-button-response","trial_index":47,"time_elapsed":175737,"internal_node_id":"0.0-4.0-0.20","subject_id":"5bb5896d56161d0001ff93b4","study_id":"6197b3f67c2b5cd3b6d9596a","session_id":"619beef18660575b9589030c","condition":"contingent","relevant_dimensions":["wings","pattern"],"bee_group":{"antennae":"X","wings":"2","pattern":"D","legs":"X"},"action":"harvest","summary":"good-harvest","bonus":1.120000000000001},{"rt":1039.7999999998137,"stimulus":"\n                    <p><b>Action: <em>harvest</em></b></p>\n                    <p>This is the bee that you just saw.</p>\n                    <img src=\"bees-with-color/bee-A1SM.svg\" width=\"200\">\n                    <p><span class=\"greenText\"><b>Successful harvest!</b></span><br>Your pay has increased by $0.02. Your bonus pay is now $0.38.</p>\n            ","response":0,"trial_type":"html-button-response","trial_index":48,"time_elapsed":176780,"internal_node_id":"0.0-4.0-1.20","subject_id":"5bb5896d56161d0001ff93b4","study_id":"6197b3f67c2b5cd3b6d9596a","session_id":"619beef18660575b9589030c","condition":"contingent","relevant_dimensions":["wings","pattern"],"bee_group":{"antennae":"X","wings":"2","pattern":"D","legs":"X"},"bonus":1.120000000000001},{"rt":1200,"stimulus":"bees-with-color/bee-A2SF.svg","response":0,"trial_type":"image-button-response","trial_index":49,"time_elapsed":177983,"internal_node_id":"0.0-4.0-0.21","subject_id":"5bb5896d56161d0001ff93b4","study_id":"6197b3f67c2b5cd3b6d9596a","session_id":"619beef18660575b9589030c","condition":"contingent","relevant_dimensions":["wings","pattern"],"bee_group":{"antennae":"X","wings":"2","pattern":"D","legs":"X"},"action":"harvest","summary":"good-harvest","bonus":1.120000000000001},{"rt":1064.9000000003725,"stimulus":"\n                    <p><b>Action: <em>harvest</em></b></p>\n                    <p>This is the bee that you just saw.</p>\n                    <img src=\"bees-with-color/bee-A2SF.svg\" width=\"200\">\n                    <p><span class=\"greenText\"><b>Successful harvest!</b></span><br>Your pay has increased by $0.02. Your bonus pay is now $0.40.</p>\n            ","response":0,"trial_type":"html-button-response","trial_index":50,"time_elapsed":179053,"internal_node_id":"0.0-4.0-1.21","subject_id":"5bb5896d56161d0001ff93b4","study_id":"6197b3f67c2b5cd3b6d9596a","session_id":"619beef18660575b9589030c","condition":"contingent","relevant_dimensions":["wings","pattern"],"bee_group":{"antennae":"X","wings":"2","pattern":"D","legs":"X"},"bonus":1.120000000000001},{"rt":1222.5999999996275,"stimulus":"bees-with-color/bee-B2SM.svg","response":0,"trial_type":"image-button-response","trial_index":51,"time_elapsed":180278,"internal_node_id":"0.0-4.0-0.22","subject_id":"5bb5896d56161d0001ff93b4","study_id":"6197b3f67c2b5cd3b6d9596a","session_id":"619beef18660575b9589030c","condition":"contingent","relevant_dimensions":["wings","pattern"],"bee_group":{"antennae":"X","wings":"2","pattern":"D","legs":"X"},"action":"harvest","summary":"good-harvest","bonus":1.120000000000001},{"rt":1064.7999999998137,"stimulus":"\n                    <p><b>Action: <em>harvest</em></b></p>\n                    <p>This is the bee that you just saw.</p>\n                    <img src=\"bees-with-color/bee-B2SM.svg\" width=\"200\">\n                    <p><span class=\"greenText\"><b>Successful harvest!</b></span><br>Your pay has increased by $0.02. Your bonus pay is now $0.42.</p>\n            ","response":0,"trial_type":"html-button-response","trial_index":52,"time_elapsed":181347,"internal_node_id":"0.0-4.0-1.22","subject_id":"5bb5896d56161d0001ff93b4","study_id":"6197b3f67c2b5cd3b6d9596a","session_id":"619beef18660575b9589030c","condition":"contingent","relevant_dimensions":["wings","pattern"],"bee_group":{"antennae":"X","wings":"2","pattern":"D","legs":"X"},"bonus":1.120000000000001},{"rt":1756.7000000001863,"stimulus":"bees-with-color/bee-A2DF.svg","response":1,"trial_type":"image-button-response","trial_index":53,"time_elapsed":183107,"internal_node_id":"0.0-4.0-0.23","subject_id":"5bb5896d56161d0001ff93b4","study_id":"6197b3f67c2b5cd3b6d9596a","session_id":"619beef18660575b9589030c","condition":"contingent","relevant_dimensions":["wings","pattern"],"bee_group":{"antennae":"X","wings":"2","pattern":"D","legs":"X"},"action":"avoid","summary":"good-avoid","bonus":1.120000000000001},{"rt":1041.5999999996275,"stimulus":"\n                    <p><b>Action: <em>avoid</em></b></p>\n                    <p>This is the bee that you just saw.</p>\n                    <img src=\"bees-with-color/bee-A2DF.svg\" width=\"200\">\n                    <p><br>Your bonus pay is unchanged, and remains at $0.42.</p>\n            ","response":0,"trial_type":"html-button-response","trial_index":54,"time_elapsed":184152,"internal_node_id":"0.0-4.0-1.23","subject_id":"5bb5896d56161d0001ff93b4","study_id":"6197b3f67c2b5cd3b6d9596a","session_id":"619beef18660575b9589030c","condition":"contingent","relevant_dimensions":["wings","pattern"],"bee_group":{"antennae":"X","wings":"2","pattern":"D","legs":"X"},"bonus":1.120000000000001},{"rt":3223.600000000559,"stimulus":"bees-with-color/bee-A2DM.svg","response":1,"trial_type":"image-button-response","trial_index":55,"time_elapsed":187381,"internal_node_id":"0.0-4.0-0.24","subject_id":"5bb5896d56161d0001ff93b4","study_id":"6197b3f67c2b5cd3b6d9596a","session_id":"619beef18660575b9589030c","condition":"contingent","relevant_dimensions":["wings","pattern"],"bee_group":{"antennae":"X","wings":"2","pattern":"D","legs":"X"},"action":"avoid","summary":"good-avoid","bonus":1.120000000000001},{"rt":1053.5,"stimulus":"\n                    <p><b>Action: <em>avoid</em></b></p>\n                    <p>This is the bee that you just saw.</p>\n                    <img src=\"bees-with-color/bee-A2DM.svg\" width=\"200\">\n                    <p><br>Your bonus pay is unchanged, and remains at $0.42.</p>\n            ","response":0,"trial_type":"html-button-response","trial_index":56,"time_elapsed":188438,"internal_node_id":"0.0-4.0-1.24","subject_id":"5bb5896d56161d0001ff93b4","study_id":"6197b3f67c2b5cd3b6d9596a","session_id":"619beef18660575b9589030c","condition":"contingent","relevant_dimensions":["wings","pattern"],"bee_group":{"antennae":"X","wings":"2","pattern":"D","legs":"X"},"bonus":1.120000000000001},{"rt":1196.8999999994412,"stimulus":"bees-with-color/bee-A2SM.svg","response":0,"trial_type":"image-button-response","trial_index":57,"time_elapsed":189639,"internal_node_id":"0.0-4.0-0.25","subject_id":"5bb5896d56161d0001ff93b4","study_id":"6197b3f67c2b5cd3b6d9596a","session_id":"619beef18660575b9589030c","condition":"contingent","relevant_dimensions":["wings","pattern"],"bee_group":{"antennae":"X","wings":"2","pattern":"D","legs":"X"},"action":"harvest","summary":"good-harvest","bonus":1.120000000000001},{"rt":1088.5,"stimulus":"\n                    <p><b>Action: <em>harvest</em></b></p>\n                    <p>This is the bee that you just saw.</p>\n                    <img src=\"bees-with-color/bee-A2SM.svg\" width=\"200\">\n                    <p><span class=\"greenText\"><b>Successful harvest!</b></span><br>Your pay has increased by $0.02. Your bonus pay is now $0.44.</p>\n            ","response":0,"trial_type":"html-button-response","trial_index":58,"time_elapsed":190732,"internal_node_id":"0.0-4.0-1.25","subject_id":"5bb5896d56161d0001ff93b4","study_id":"6197b3f67c2b5cd3b6d9596a","session_id":"619beef18660575b9589030c","condition":"contingent","relevant_dimensions":["wings","pattern"],"bee_group":{"antennae":"X","wings":"2","pattern":"D","legs":"X"},"bonus":1.120000000000001},{"rt":1151.4000000003725,"stimulus":"bees-with-color/bee-B2SF.svg","response":0,"trial_type":"image-button-response","trial_index":59,"time_elapsed":191886,"internal_node_id":"0.0-4.0-0.26","subject_id":"5bb5896d56161d0001ff93b4","study_id":"6197b3f67c2b5cd3b6d9596a","session_id":"619beef18660575b9589030c","condition":"contingent","relevant_dimensions":["wings","pattern"],"bee_group":{"antennae":"X","wings":"2","pattern":"D","legs":"X"},"action":"harvest","summary":"good-harvest","bonus":1.120000000000001},{"rt":1064.5,"stimulus":"\n                    <p><b>Action: <em>harvest</em></b></p>\n                    <p>This is the bee that you just saw.</p>\n                    <img src=\"bees-with-color/bee-B2SF.svg\" width=\"200\">\n                    <p><span class=\"greenText\"><b>Successful harvest!</b></span><br>Your pay has increased by $0.02. Your bonus pay is now $0.46.</p>\n            ","response":0,"trial_type":"html-button-response","trial_index":60,"time_elapsed":192955,"internal_node_id":"0.0-4.0-1.26","subject_id":"5bb5896d56161d0001ff93b4","study_id":"6197b3f67c2b5cd3b6d9596a","session_id":"619beef18660575b9589030c","condition":"contingent","relevant_dimensions":["wings","pattern"],"bee_group":{"antennae":"X","wings":"2","pattern":"D","legs":"X"},"bonus":1.120000000000001},{"rt":1743.7000000001863,"stimulus":"bees-with-color/bee-B2DF.svg","response":1,"trial_type":"image-button-response","trial_index":61,"time_elapsed":194703,"internal_node_id":"0.0-4.0-0.27","subject_id":"5bb5896d56161d0001ff93b4","study_id":"6197b3f67c2b5cd3b6d9596a","session_id":"619beef18660575b9589030c","condition":"contingent","relevant_dimensions":["wings","pattern"],"bee_group":{"antennae":"X","wings":"2","pattern":"D","legs":"X"},"action":"avoid","summary":"good-avoid","bonus":1.120000000000001},{"rt":846.2999999998137,"stimulus":"\n                    <p><b>Action: <em>avoid</em></b></p>\n                    <p>This is the bee that you just saw.</p>\n                    <img src=\"bees-with-color/bee-B2DF.svg\" width=\"200\">\n                    <p><br>Your bonus pay is unchanged, and remains at $0.46.</p>\n            ","response":0,"trial_type":"html-button-response","trial_index":62,"time_elapsed":195553,"internal_node_id":"0.0-4.0-1.27","subject_id":"5bb5896d56161d0001ff93b4","study_id":"6197b3f67c2b5cd3b6d9596a","session_id":"619beef18660575b9589030c","condition":"contingent","relevant_dimensions":["wings","pattern"],"bee_group":{"antennae":"X","wings":"2","pattern":"D","legs":"X"},"bonus":1.120000000000001},{"rt":1792,"stimulus":"bees-with-color/bee-A1DF.svg","response":1,"trial_type":"image-button-response","trial_index":63,"time_elapsed":197349,"internal_node_id":"0.0-4.0-0.28","subject_id":"5bb5896d56161d0001ff93b4","study_id":"6197b3f67c2b5cd3b6d9596a","session_id":"619beef18660575b9589030c","condition":"contingent","relevant_dimensions":["wings","pattern"],"bee_group":{"antennae":"X","wings":"2","pattern":"D","legs":"X"},"action":"avoid","summary":"bad-avoid","bonus":1.120000000000001},{"rt":1113.4000000003725,"stimulus":"\n                    <p><b>Action: <em>avoid</em></b></p>\n                    <p>This is the bee that you just saw.</p>\n                    <img src=\"bees-with-color/bee-A1DF.svg\" width=\"200\">\n                    <p><br>Your bonus pay is unchanged, and remains at $0.46.</p>\n            ","response":0,"trial_type":"html-button-response","trial_index":64,"time_elapsed":198467,"internal_node_id":"0.0-4.0-1.28","subject_id":"5bb5896d56161d0001ff93b4","study_id":"6197b3f67c2b5cd3b6d9596a","session_id":"619beef18660575b9589030c","condition":"contingent","relevant_dimensions":["wings","pattern"],"bee_group":{"antennae":"X","wings":"2","pattern":"D","legs":"X"},"bonus":1.120000000000001},{"rt":1477.9000000003725,"stimulus":"bees-with-color/bee-A1SF.svg","response":0,"trial_type":"image-button-response","trial_index":65,"time_elapsed":199948,"internal_node_id":"0.0-4.0-0.29","subject_id":"5bb5896d56161d0001ff93b4","study_id":"6197b3f67c2b5cd3b6d9596a","session_id":"619beef18660575b9589030c","condition":"contingent","relevant_dimensions":["wings","pattern"],"bee_group":{"antennae":"X","wings":"2","pattern":"D","legs":"X"},"action":"harvest","summary":"good-harvest","bonus":1.120000000000001},{"rt":1404.6000000005588,"stimulus":"\n                    <p><b>Action: <em>harvest</em></b></p>\n                    <p>This is the bee that you just saw.</p>\n                    <img src=\"bees-with-color/bee-A1SF.svg\" width=\"200\">\n                    <p><span class=\"greenText\"><b>Successful harvest!</b></span><br>Your pay has increased by $0.02. Your bonus pay is now $0.48.</p>\n            ","response":0,"trial_type":"html-button-response","trial_index":66,"time_elapsed":201357,"internal_node_id":"0.0-4.0-1.29","subject_id":"5bb5896d56161d0001ff93b4","study_id":"6197b3f67c2b5cd3b6d9596a","session_id":"619beef18660575b9589030c","condition":"contingent","relevant_dimensions":["wings","pattern"],"bee_group":{"antennae":"X","wings":"2","pattern":"D","legs":"X"},"bonus":1.120000000000001},{"rt":1100.7999999998137,"stimulus":"bees-with-color/bee-B1SM.svg","response":0,"trial_type":"image-button-response","trial_index":67,"time_elapsed":202461,"internal_node_id":"0.0-4.0-0.30","subject_id":"5bb5896d56161d0001ff93b4","study_id":"6197b3f67c2b5cd3b6d9596a","session_id":"619beef18660575b9589030c","condition":"contingent","relevant_dimensions":["wings","pattern"],"bee_group":{"antennae":"X","wings":"2","pattern":"D","legs":"X"},"action":"harvest","summary":"good-harvest","bonus":1.120000000000001},{"rt":1137.7999999998137,"stimulus":"\n                    <p><b>Action: <em>harvest</em></b></p>\n                    <p>This is the bee that you just saw.</p>\n                    <img src=\"bees-with-color/bee-B1SM.svg\" width=\"200\">\n                    <p><span class=\"greenText\"><b>Successful harvest!</b></span><br>Your pay has increased by $0.02. Your bonus pay is now $0.50.</p>\n            ","response":0,"trial_type":"html-button-response","trial_index":68,"time_elapsed":203603,"internal_node_id":"0.0-4.0-1.30","subject_id":"5bb5896d56161d0001ff93b4","study_id":"6197b3f67c2b5cd3b6d9596a","session_id":"619beef18660575b9589030c","condition":"contingent","relevant_dimensions":["wings","pattern"],"bee_group":{"antennae":"X","wings":"2","pattern":"D","legs":"X"},"bonus":1.120000000000001},{"rt":2569,"stimulus":"bees-with-color/bee-A1DM.svg","response":0,"trial_type":"image-button-response","trial_index":69,"time_elapsed":206177,"internal_node_id":"0.0-4.0-0.31","subject_id":"5bb5896d56161d0001ff93b4","study_id":"6197b3f67c2b5cd3b6d9596a","session_id":"619beef18660575b9589030c","condition":"contingent","relevant_dimensions":["wings","pattern"],"bee_group":{"antennae":"X","wings":"2","pattern":"D","legs":"X"},"action":"harvest","summary":"good-harvest","bonus":1.120000000000001},{"rt":1246.2999999998137,"stimulus":"\n                    <p><b>Action: <em>harvest</em></b></p>\n                    <p>This is the bee that you just saw.</p>\n                    <img src=\"bees-with-color/bee-A1DM.svg\" width=\"200\">\n                    <p><span class=\"greenText\"><b>Successful harvest!</b></span><br>Your pay has increased by $0.02. Your bonus pay is now $0.52.</p>\n            ","response":0,"trial_type":"html-button-response","trial_index":70,"time_elapsed":207427,"internal_node_id":"0.0-4.0-1.31","subject_id":"5bb5896d56161d0001ff93b4","study_id":"6197b3f67c2b5cd3b6d9596a","session_id":"619beef18660575b9589030c","condition":"contingent","relevant_dimensions":["wings","pattern"],"bee_group":{"antennae":"X","wings":"2","pattern":"D","legs":"X"},"bonus":1.120000000000001},{"rt":1210.3999999994412,"stimulus":"bees-with-color/bee-A2DF.svg","response":1,"trial_type":"image-button-response","trial_index":71,"time_elapsed":208641,"internal_node_id":"0.0-4.0-0.32","subject_id":"5bb5896d56161d0001ff93b4","study_id":"6197b3f67c2b5cd3b6d9596a","session_id":"619beef18660575b9589030c","condition":"contingent","relevant_dimensions":["wings","pattern"],"bee_group":{"antennae":"X","wings":"2","pattern":"D","legs":"X"},"action":"avoid","summary":"good-avoid","bonus":1.120000000000001},{"rt":906.5,"stimulus":"\n                    <p><b>Action: <em>avoid</em></b></p>\n                    <p>This is the bee that you just saw.</p>\n                    <img src=\"bees-with-color/bee-A2DF.svg\" width=\"200\">\n                    <p><br>Your bonus pay is unchanged, and remains at $0.52.</p>\n            ","response":0,"trial_type":"html-button-response","trial_index":72,"time_elapsed":209552,"internal_node_id":"0.0-4.0-1.32","subject_id":"5bb5896d56161d0001ff93b4","study_id":"6197b3f67c2b5cd3b6d9596a","session_id":"619beef18660575b9589030c","condition":"contingent","relevant_dimensions":["wings","pattern"],"bee_group":{"antennae":"X","wings":"2","pattern":"D","legs":"X"},"bonus":1.120000000000001},{"rt":953.7000000001863,"stimulus":"bees-with-color/bee-A2SF.svg","response":0,"trial_type":"image-button-response","trial_index":73,"time_elapsed":210511,"internal_node_id":"0.0-4.0-0.33","subject_id":"5bb5896d56161d0001ff93b4","study_id":"6197b3f67c2b5cd3b6d9596a","session_id":"619beef18660575b9589030c","condition":"contingent","relevant_dimensions":["wings","pattern"],"bee_group":{"antennae":"X","wings":"2","pattern":"D","legs":"X"},"action":"harvest","summary":"good-harvest","bonus":1.120000000000001},{"rt":931.2999999998137,"stimulus":"\n                    <p><b>Action: <em>harvest</em></b></p>\n                    <p>This is the bee that you just saw.</p>\n                    <img src=\"bees-with-color/bee-A2SF.svg\" width=\"200\">\n                    <p><span class=\"greenText\"><b>Successful harvest!</b></span><br>Your pay has increased by $0.02. Your bonus pay is now $0.54.</p>\n            ","response":0,"trial_type":"html-button-response","trial_index":74,"time_elapsed":211446,"internal_node_id":"0.0-4.0-1.33","subject_id":"5bb5896d56161d0001ff93b4","study_id":"6197b3f67c2b5cd3b6d9596a","session_id":"619beef18660575b9589030c","condition":"contingent","relevant_dimensions":["wings","pattern"],"bee_group":{"antennae":"X","wings":"2","pattern":"D","legs":"X"},"bonus":1.120000000000001},{"rt":1017.9000000003725,"stimulus":"bees-with-color/bee-B2DF.svg","response":1,"trial_type":"image-button-response","trial_index":75,"time_elapsed":212466,"internal_node_id":"0.0-4.0-0.34","subject_id":"5bb5896d56161d0001ff93b4","study_id":"6197b3f67c2b5cd3b6d9596a","session_id":"619beef18660575b9589030c","condition":"contingent","relevant_dimensions":["wings","pattern"],"bee_group":{"antennae":"X","wings":"2","pattern":"D","legs":"X"},"action":"avoid","summary":"good-avoid","bonus":1.120000000000001},{"rt":858.2000000001863,"stimulus":"\n                    <p><b>Action: <em>avoid</em></b></p>\n                    <p>This is the bee that you just saw.</p>\n                    <img src=\"bees-with-color/bee-B2DF.svg\" width=\"200\">\n                    <p><br>Your bonus pay is unchanged, and remains at $0.54.</p>\n            ","response":0,"trial_type":"html-button-response","trial_index":76,"time_elapsed":213327,"internal_node_id":"0.0-4.0-1.34","subject_id":"5bb5896d56161d0001ff93b4","study_id":"6197b3f67c2b5cd3b6d9596a","session_id":"619beef18660575b9589030c","condition":"contingent","relevant_dimensions":["wings","pattern"],"bee_group":{"antennae":"X","wings":"2","pattern":"D","legs":"X"},"bonus":1.120000000000001},{"rt":969.2000000001863,"stimulus":"bees-with-color/bee-A1SM.svg","response":0,"trial_type":"image-button-response","trial_index":77,"time_elapsed":214299,"internal_node_id":"0.0-4.0-0.35","subject_id":"5bb5896d56161d0001ff93b4","study_id":"6197b3f67c2b5cd3b6d9596a","session_id":"619beef18660575b9589030c","condition":"contingent","relevant_dimensions":["wings","pattern"],"bee_group":{"antennae":"X","wings":"2","pattern":"D","legs":"X"},"action":"harvest","summary":"good-harvest","bonus":1.120000000000001},{"rt":943.7999999998137,"stimulus":"\n                    <p><b>Action: <em>harvest</em></b></p>\n                    <p>This is the bee that you just saw.</p>\n                    <img src=\"bees-with-color/bee-A1SM.svg\" width=\"200\">\n                    <p><span class=\"greenText\"><b>Successful harvest!</b></span><br>Your pay has increased by $0.02. Your bonus pay is now $0.56.</p>\n            ","response":0,"trial_type":"html-button-response","trial_index":78,"time_elapsed":215246,"internal_node_id":"0.0-4.0-1.35","subject_id":"5bb5896d56161d0001ff93b4","study_id":"6197b3f67c2b5cd3b6d9596a","session_id":"619beef18660575b9589030c","condition":"contingent","relevant_dimensions":["wings","pattern"],"bee_group":{"antennae":"X","wings":"2","pattern":"D","legs":"X"},"bonus":1.120000000000001},{"rt":1138.9000000003725,"stimulus":"bees-with-color/bee-B1SM.svg","response":0,"trial_type":"image-button-response","trial_index":79,"time_elapsed":216387,"internal_node_id":"0.0-4.0-0.36","subject_id":"5bb5896d56161d0001ff93b4","study_id":"6197b3f67c2b5cd3b6d9596a","session_id":"619beef18660575b9589030c","condition":"contingent","relevant_dimensions":["wings","pattern"],"bee_group":{"antennae":"X","wings":"2","pattern":"D","legs":"X"},"action":"harvest","summary":"good-harvest","bonus":1.120000000000001},{"rt":907.5,"stimulus":"\n                    <p><b>Action: <em>harvest</em></b></p>\n                    <p>This is the bee that you just saw.</p>\n                    <img src=\"bees-with-color/bee-B1SM.svg\" width=\"200\">\n                    <p><span class=\"greenText\"><b>Successful harvest!</b></span><br>Your pay has increased by $0.02. Your bonus pay is now $0.58.</p>\n            ","response":0,"trial_type":"html-button-response","trial_index":80,"time_elapsed":217298,"internal_node_id":"0.0-4.0-1.36","subject_id":"5bb5896d56161d0001ff93b4","study_id":"6197b3f67c2b5cd3b6d9596a","session_id":"619beef18660575b9589030c","condition":"contingent","relevant_dimensions":["wings","pattern"],"bee_group":{"antennae":"X","wings":"2","pattern":"D","legs":"X"},"bonus":1.120000000000001},{"rt":1005.6000000005588,"stimulus":"bees-with-color/bee-B2SF.svg","response":0,"trial_type":"image-button-response","trial_index":81,"time_elapsed":218306,"internal_node_id":"0.0-4.0-0.37","subject_id":"5bb5896d56161d0001ff93b4","study_id":"6197b3f67c2b5cd3b6d9596a","session_id":"619beef18660575b9589030c","condition":"contingent","relevant_dimensions":["wings","pattern"],"bee_group":{"antennae":"X","wings":"2","pattern":"D","legs":"X"},"action":"harvest","summary":"good-harvest","bonus":1.120000000000001},{"rt":871.0999999996275,"stimulus":"\n                    <p><b>Action: <em>harvest</em></b></p>\n                    <p>This is the bee that you just saw.</p>\n                    <img src=\"bees-with-color/bee-B2SF.svg\" width=\"200\">\n                    <p><span class=\"greenText\"><b>Successful harvest!</b></span><br>Your pay has increased by $0.02. Your bonus pay is now $0.60.</p>\n            ","response":0,"trial_type":"html-button-response","trial_index":82,"time_elapsed":219181,"internal_node_id":"0.0-4.0-1.37","subject_id":"5bb5896d56161d0001ff93b4","study_id":"6197b3f67c2b5cd3b6d9596a","session_id":"619beef18660575b9589030c","condition":"contingent","relevant_dimensions":["wings","pattern"],"bee_group":{"antennae":"X","wings":"2","pattern":"D","legs":"X"},"bonus":1.120000000000001},{"rt":2934.5,"stimulus":"bees-with-color/bee-A1DM.svg","response":0,"trial_type":"image-button-response","trial_index":83,"time_elapsed":222118,"internal_node_id":"0.0-4.0-0.38","subject_id":"5bb5896d56161d0001ff93b4","study_id":"6197b3f67c2b5cd3b6d9596a","session_id":"619beef18660575b9589030c","condition":"contingent","relevant_dimensions":["wings","pattern"],"bee_group":{"antennae":"X","wings":"2","pattern":"D","legs":"X"},"action":"harvest","summary":"good-harvest","bonus":1.120000000000001},{"rt":956.2999999998137,"stimulus":"\n                    <p><b>Action: <em>harvest</em></b></p>\n                    <p>This is the bee that you just saw.</p>\n                    <img src=\"bees-with-color/bee-A1DM.svg\" width=\"200\">\n                    <p><span class=\"greenText\"><b>Successful harvest!</b></span><br>Your pay has increased by $0.02. Your bonus pay is now $0.62.</p>\n            ","response":0,"trial_type":"html-button-response","trial_index":84,"time_elapsed":223077,"internal_node_id":"0.0-4.0-1.38","subject_id":"5bb5896d56161d0001ff93b4","study_id":"6197b3f67c2b5cd3b6d9596a","session_id":"619beef18660575b9589030c","condition":"contingent","relevant_dimensions":["wings","pattern"],"bee_group":{"antennae":"X","wings":"2","pattern":"D","legs":"X"},"bonus":1.120000000000001},{"rt":1101,"stimulus":"bees-with-color/bee-B1DF.svg","response":1,"trial_type":"image-button-response","trial_index":85,"time_elapsed":224182,"internal_node_id":"0.0-4.0-0.39","subject_id":"5bb5896d56161d0001ff93b4","study_id":"6197b3f67c2b5cd3b6d9596a","session_id":"619beef18660575b9589030c","condition":"contingent","relevant_dimensions":["wings","pattern"],"bee_group":{"antennae":"X","wings":"2","pattern":"D","legs":"X"},"action":"avoid","summary":"bad-avoid","bonus":1.120000000000001},{"rt":822.5,"stimulus":"\n                    <p><b>Action: <em>avoid</em></b></p>\n                    <p>This is the bee that you just saw.</p>\n                    <img src=\"bees-with-color/bee-B1DF.svg\" width=\"200\">\n                    <p><br>Your bonus pay is unchanged, and remains at $0.62.</p>\n            ","response":0,"trial_type":"html-button-response","trial_index":86,"time_elapsed":225008,"internal_node_id":"0.0-4.0-1.39","subject_id":"5bb5896d56161d0001ff93b4","study_id":"6197b3f67c2b5cd3b6d9596a","session_id":"619beef18660575b9589030c","condition":"contingent","relevant_dimensions":["wings","pattern"],"bee_group":{"antennae":"X","wings":"2","pattern":"D","legs":"X"},"bonus":1.120000000000001},{"rt":956.8999999994412,"stimulus":"bees-with-color/bee-A2SM.svg","response":0,"trial_type":"image-button-response","trial_index":87,"time_elapsed":225968,"internal_node_id":"0.0-4.0-0.40","subject_id":"5bb5896d56161d0001ff93b4","study_id":"6197b3f67c2b5cd3b6d9596a","session_id":"619beef18660575b9589030c","condition":"contingent","relevant_dimensions":["wings","pattern"],"bee_group":{"antennae":"X","wings":"2","pattern":"D","legs":"X"},"action":"harvest","summary":"good-harvest","bonus":1.120000000000001},{"rt":883.2999999998137,"stimulus":"\n                    <p><b>Action: <em>harvest</em></b></p>\n                    <p>This is the bee that you just saw.</p>\n                    <img src=\"bees-with-color/bee-A2SM.svg\" width=\"200\">\n                    <p><span class=\"greenText\"><b>Successful harvest!</b></span><br>Your pay has increased by $0.02. Your bonus pay is now $0.64.</p>\n            ","response":0,"trial_type":"html-button-response","trial_index":88,"time_elapsed":226854,"internal_node_id":"0.0-4.0-1.40","subject_id":"5bb5896d56161d0001ff93b4","study_id":"6197b3f67c2b5cd3b6d9596a","session_id":"619beef18660575b9589030c","condition":"contingent","relevant_dimensions":["wings","pattern"],"bee_group":{"antennae":"X","wings":"2","pattern":"D","legs":"X"},"bonus":1.120000000000001},{"rt":1696.0999999996275,"stimulus":"bees-with-color/bee-A1SF.svg","response":0,"trial_type":"image-button-response","trial_index":89,"time_elapsed":228553,"internal_node_id":"0.0-4.0-0.41","subject_id":"5bb5896d56161d0001ff93b4","study_id":"6197b3f67c2b5cd3b6d9596a","session_id":"619beef18660575b9589030c","condition":"contingent","relevant_dimensions":["wings","pattern"],"bee_group":{"antennae":"X","wings":"2","pattern":"D","legs":"X"},"action":"harvest","summary":"good-harvest","bonus":1.120000000000001},{"rt":847.7000000001863,"stimulus":"\n                    <p><b>Action: <em>harvest</em></b></p>\n                    <p>This is the bee that you just saw.</p>\n                    <img src=\"bees-with-color/bee-A1SF.svg\" width=\"200\">\n                    <p><span class=\"greenText\"><b>Successful harvest!</b></span><br>Your pay has increased by $0.02. Your bonus pay is now $0.66.</p>\n            ","response":0,"trial_type":"html-button-response","trial_index":90,"time_elapsed":229404,"internal_node_id":"0.0-4.0-1.41","subject_id":"5bb5896d56161d0001ff93b4","study_id":"6197b3f67c2b5cd3b6d9596a","session_id":"619beef18660575b9589030c","condition":"contingent","relevant_dimensions":["wings","pattern"],"bee_group":{"antennae":"X","wings":"2","pattern":"D","legs":"X"},"bonus":1.120000000000001},{"rt":2740.2999999998137,"stimulus":"bees-with-color/bee-A2DM.svg","response":1,"trial_type":"image-button-response","trial_index":91,"time_elapsed":232147,"internal_node_id":"0.0-4.0-0.42","subject_id":"5bb5896d56161d0001ff93b4","study_id":"6197b3f67c2b5cd3b6d9596a","session_id":"619beef18660575b9589030c","condition":"contingent","relevant_dimensions":["wings","pattern"],"bee_group":{"antennae":"X","wings":"2","pattern":"D","legs":"X"},"action":"avoid","summary":"good-avoid","bonus":1.120000000000001},{"rt":956.2000000001863,"stimulus":"\n                    <p><b>Action: <em>avoid</em></b></p>\n                    <p>This is the bee that you just saw.</p>\n                    <img src=\"bees-with-color/bee-A2DM.svg\" width=\"200\">\n                    <p><br>Your bonus pay is unchanged, and remains at $0.66.</p>\n            ","response":0,"trial_type":"html-button-response","trial_index":92,"time_elapsed":233107,"internal_node_id":"0.0-4.0-1.42","subject_id":"5bb5896d56161d0001ff93b4","study_id":"6197b3f67c2b5cd3b6d9596a","session_id":"619beef18660575b9589030c","condition":"contingent","relevant_dimensions":["wings","pattern"],"bee_group":{"antennae":"X","wings":"2","pattern":"D","legs":"X"},"bonus":1.120000000000001},{"rt":1865.0999999996275,"stimulus":"bees-with-color/bee-B1SF.svg","response":0,"trial_type":"image-button-response","trial_index":93,"time_elapsed":234976,"internal_node_id":"0.0-4.0-0.43","subject_id":"5bb5896d56161d0001ff93b4","study_id":"6197b3f67c2b5cd3b6d9596a","session_id":"619beef18660575b9589030c","condition":"contingent","relevant_dimensions":["wings","pattern"],"bee_group":{"antennae":"X","wings":"2","pattern":"D","legs":"X"},"action":"harvest","summary":"good-harvest","bonus":1.120000000000001},{"rt":895.2000000001863,"stimulus":"\n                    <p><b>Action: <em>harvest</em></b></p>\n                    <p>This is the bee that you just saw.</p>\n                    <img src=\"bees-with-color/bee-B1SF.svg\" width=\"200\">\n                    <p><span class=\"greenText\"><b>Successful harvest!</b></span><br>Your pay has increased by $0.02. Your bonus pay is now $0.68.</p>\n            ","response":0,"trial_type":"html-button-response","trial_index":94,"time_elapsed":235874,"internal_node_id":"0.0-4.0-1.43","subject_id":"5bb5896d56161d0001ff93b4","study_id":"6197b3f67c2b5cd3b6d9596a","session_id":"619beef18660575b9589030c","condition":"contingent","relevant_dimensions":["wings","pattern"],"bee_group":{"antennae":"X","wings":"2","pattern":"D","legs":"X"},"bonus":1.120000000000001},{"rt":2594.199999999255,"stimulus":"bees-with-color/bee-B1DM.svg","response":1,"trial_type":"image-button-response","trial_index":95,"time_elapsed":238473,"internal_node_id":"0.0-4.0-0.44","subject_id":"5bb5896d56161d0001ff93b4","study_id":"6197b3f67c2b5cd3b6d9596a","session_id":"619beef18660575b9589030c","condition":"contingent","relevant_dimensions":["wings","pattern"],"bee_group":{"antennae":"X","wings":"2","pattern":"D","legs":"X"},"action":"avoid","summary":"bad-avoid","bonus":1.120000000000001},{"rt":1294.9000000003725,"stimulus":"\n                    <p><b>Action: <em>avoid</em></b></p>\n                    <p>This is the bee that you just saw.</p>\n                    <img src=\"bees-with-color/bee-B1DM.svg\" width=\"200\">\n                    <p><br>Your bonus pay is unchanged, and remains at $0.68.</p>\n            ","response":0,"trial_type":"html-button-response","trial_index":96,"time_elapsed":239772,"internal_node_id":"0.0-4.0-1.44","subject_id":"5bb5896d56161d0001ff93b4","study_id":"6197b3f67c2b5cd3b6d9596a","session_id":"619beef18660575b9589030c","condition":"contingent","relevant_dimensions":["wings","pattern"],"bee_group":{"antennae":"X","wings":"2","pattern":"D","legs":"X"},"bonus":1.120000000000001},{"rt":1125.8999999994412,"stimulus":"bees-with-color/bee-B2SM.svg","response":0,"trial_type":"image-button-response","trial_index":97,"time_elapsed":240902,"internal_node_id":"0.0-4.0-0.45","subject_id":"5bb5896d56161d0001ff93b4","study_id":"6197b3f67c2b5cd3b6d9596a","session_id":"619beef18660575b9589030c","condition":"contingent","relevant_dimensions":["wings","pattern"],"bee_group":{"antennae":"X","wings":"2","pattern":"D","legs":"X"},"action":"harvest","summary":"good-harvest","bonus":1.120000000000001},{"rt":1052.7000000001863,"stimulus":"\n                    <p><b>Action: <em>harvest</em></b></p>\n                    <p>This is the bee that you just saw.</p>\n                    <img src=\"bees-with-color/bee-B2SM.svg\" width=\"200\">\n                    <p><span class=\"greenText\"><b>Successful harvest!</b></span><br>Your pay has increased by $0.02. Your bonus pay is now $0.70.</p>\n            ","response":0,"trial_type":"html-button-response","trial_index":98,"time_elapsed":241958,"internal_node_id":"0.0-4.0-1.45","subject_id":"5bb5896d56161d0001ff93b4","study_id":"6197b3f67c2b5cd3b6d9596a","session_id":"619beef18660575b9589030c","condition":"contingent","relevant_dimensions":["wings","pattern"],"bee_group":{"antennae":"X","wings":"2","pattern":"D","legs":"X"},"bonus":1.120000000000001},{"rt":1138.6000000005588,"stimulus":"bees-with-color/bee-A1DF.svg","response":1,"trial_type":"image-button-response","trial_index":99,"time_elapsed":243099,"internal_node_id":"0.0-4.0-0.46","subject_id":"5bb5896d56161d0001ff93b4","study_id":"6197b3f67c2b5cd3b6d9596a","session_id":"619beef18660575b9589030c","condition":"contingent","relevant_dimensions":["wings","pattern"],"bee_group":{"antennae":"X","wings":"2","pattern":"D","legs":"X"},"action":"avoid","summary":"bad-avoid","bonus":1.120000000000001},{"rt":942.7999999998137,"stimulus":"\n                    <p><b>Action: <em>avoid</em></b></p>\n                    <p>This is the bee that you just saw.</p>\n                    <img src=\"bees-with-color/bee-A1DF.svg\" width=\"200\">\n                    <p><br>Your bonus pay is unchanged, and remains at $0.70.</p>\n            ","response":0,"trial_type":"html-button-response","trial_index":100,"time_elapsed":244046,"internal_node_id":"0.0-4.0-1.46","subject_id":"5bb5896d56161d0001ff93b4","study_id":"6197b3f67c2b5cd3b6d9596a","session_id":"619beef18660575b9589030c","condition":"contingent","relevant_dimensions":["wings","pattern"],"bee_group":{"antennae":"X","wings":"2","pattern":"D","legs":"X"},"bonus":1.120000000000001},{"rt":2230.2000000001863,"stimulus":"bees-with-color/bee-B2DM.svg","response":0,"trial_type":"image-button-response","trial_index":101,"time_elapsed":246279,"internal_node_id":"0.0-4.0-0.47","subject_id":"5bb5896d56161d0001ff93b4","study_id":"6197b3f67c2b5cd3b6d9596a","session_id":"619beef18660575b9589030c","condition":"contingent","relevant_dimensions":["wings","pattern"],"bee_group":{"antennae":"X","wings":"2","pattern":"D","legs":"X"},"action":"harvest","summary":"bad-harvest","bonus":1.120000000000001},{"rt":1417.5999999996275,"stimulus":"\n                    <p><b>Action: <em>harvest</em></b></p>\n                    <p>This is the bee that you just saw.</p>\n                    <img src=\"bees-with-color/bee-B2DM.svg\" width=\"200\">\n                    <p><span class=\"redText\">Bad choice, the bee was angry.</span><br><b>You have been stung!</b><br>Your pay has been decreased by $0.10. Your bonus pay is now $0.60.</p>\n            ","response":0,"trial_type":"html-button-response","trial_index":102,"time_elapsed":247700,"internal_node_id":"0.0-4.0-1.47","subject_id":"5bb5896d56161d0001ff93b4","study_id":"6197b3f67c2b5cd3b6d9596a","session_id":"619beef18660575b9589030c","condition":"contingent","relevant_dimensions":["wings","pattern"],"bee_group":{"antennae":"X","wings":"2","pattern":"D","legs":"X"},"bonus":1.120000000000001},{"rt":1487.7999999998137,"stimulus":"bees-with-color/bee-A1SM.svg","response":0,"trial_type":"image-button-response","trial_index":103,"time_elapsed":249193,"internal_node_id":"0.0-4.0-0.48","subject_id":"5bb5896d56161d0001ff93b4","study_id":"6197b3f67c2b5cd3b6d9596a","session_id":"619beef18660575b9589030c","condition":"contingent","relevant_dimensions":["wings","pattern"],"bee_group":{"antennae":"X","wings":"2","pattern":"D","legs":"X"},"action":"harvest","summary":"good-harvest","bonus":1.120000000000001},{"rt":882.1999999992549,"stimulus":"\n                    <p><b>Action: <em>harvest</em></b></p>\n                    <p>This is the bee that you just saw.</p>\n                    <img src=\"bees-with-color/bee-A1SM.svg\" width=\"200\">\n                    <p><span class=\"greenText\"><b>Successful harvest!</b></span><br>Your pay has increased by $0.02. Your bonus pay is now $0.62.</p>\n            ","response":0,"trial_type":"html-button-response","trial_index":104,"time_elapsed":250079,"internal_node_id":"0.0-4.0-1.48","subject_id":"5bb5896d56161d0001ff93b4","study_id":"6197b3f67c2b5cd3b6d9596a","session_id":"619beef18660575b9589030c","condition":"contingent","relevant_dimensions":["wings","pattern"],"bee_group":{"antennae":"X","wings":"2","pattern":"D","legs":"X"},"bonus":1.120000000000001},{"rt":1563.8999999994412,"stimulus":"bees-with-color/bee-A2DM.svg","response":1,"trial_type":"image-button-response","trial_index":105,"time_elapsed":251646,"internal_node_id":"0.0-4.0-0.49","subject_id":"5bb5896d56161d0001ff93b4","study_id":"6197b3f67c2b5cd3b6d9596a","session_id":"619beef18660575b9589030c","condition":"contingent","relevant_dimensions":["wings","pattern"],"bee_group":{"antennae":"X","wings":"2","pattern":"D","legs":"X"},"action":"avoid","summary":"good-avoid","bonus":1.120000000000001},{"rt":918.5999999996275,"stimulus":"\n                    <p><b>Action: <em>avoid</em></b></p>\n                    <p>This is the bee that you just saw.</p>\n                    <img src=\"bees-with-color/bee-A2DM.svg\" width=\"200\">\n                    <p><br>Your bonus pay is unchanged, and remains at $0.62.</p>\n            ","response":0,"trial_type":"html-button-response","trial_index":106,"time_elapsed":252568,"internal_node_id":"0.0-4.0-1.49","subject_id":"5bb5896d56161d0001ff93b4","study_id":"6197b3f67c2b5cd3b6d9596a","session_id":"619beef18660575b9589030c","condition":"contingent","relevant_dimensions":["wings","pattern"],"bee_group":{"antennae":"X","wings":"2","pattern":"D","legs":"X"},"bonus":1.120000000000001},{"rt":1331,"stimulus":"bees-with-color/bee-B1DF.svg","response":1,"trial_type":"image-button-response","trial_index":107,"time_elapsed":253903,"internal_node_id":"0.0-4.0-0.50","subject_id":"5bb5896d56161d0001ff93b4","study_id":"6197b3f67c2b5cd3b6d9596a","session_id":"619beef18660575b9589030c","condition":"contingent","relevant_dimensions":["wings","pattern"],"bee_group":{"antennae":"X","wings":"2","pattern":"D","legs":"X"},"action":"avoid","summary":"bad-avoid","bonus":1.120000000000001},{"rt":967.7999999998137,"stimulus":"\n                    <p><b>Action: <em>avoid</em></b></p>\n                    <p>This is the bee that you just saw.</p>\n                    <img src=\"bees-with-color/bee-B1DF.svg\" width=\"200\">\n                    <p><br>Your bonus pay is unchanged, and remains at $0.62.</p>\n            ","response":0,"trial_type":"html-button-response","trial_index":108,"time_elapsed":254874,"internal_node_id":"0.0-4.0-1.50","subject_id":"5bb5896d56161d0001ff93b4","study_id":"6197b3f67c2b5cd3b6d9596a","session_id":"619beef18660575b9589030c","condition":"contingent","relevant_dimensions":["wings","pattern"],"bee_group":{"antennae":"X","wings":"2","pattern":"D","legs":"X"},"bonus":1.120000000000001},{"rt":955.1000000005588,"stimulus":"bees-with-color/bee-B2SF.svg","response":0,"trial_type":"image-button-response","trial_index":109,"time_elapsed":255833,"internal_node_id":"0.0-4.0-0.51","subject_id":"5bb5896d56161d0001ff93b4","study_id":"6197b3f67c2b5cd3b6d9596a","session_id":"619beef18660575b9589030c","condition":"contingent","relevant_dimensions":["wings","pattern"],"bee_group":{"antennae":"X","wings":"2","pattern":"D","legs":"X"},"action":"harvest","summary":"good-harvest","bonus":1.120000000000001},{"rt":894.9000000003725,"stimulus":"\n                    <p><b>Action: <em>harvest</em></b></p>\n                    <p>This is the bee that you just saw.</p>\n                    <img src=\"bees-with-color/bee-B2SF.svg\" width=\"200\">\n                    <p><span class=\"greenText\"><b>Successful harvest!</b></span><br>Your pay has increased by $0.02. Your bonus pay is now $0.64.</p>\n            ","response":0,"trial_type":"html-button-response","trial_index":110,"time_elapsed":256731,"internal_node_id":"0.0-4.0-1.51","subject_id":"5bb5896d56161d0001ff93b4","study_id":"6197b3f67c2b5cd3b6d9596a","session_id":"619beef18660575b9589030c","condition":"contingent","relevant_dimensions":["wings","pattern"],"bee_group":{"antennae":"X","wings":"2","pattern":"D","legs":"X"},"bonus":1.120000000000001},{"rt":1283.2000000001863,"stimulus":"bees-with-color/bee-B2DF.svg","response":1,"trial_type":"image-button-response","trial_index":111,"time_elapsed":258018,"internal_node_id":"0.0-4.0-0.52","subject_id":"5bb5896d56161d0001ff93b4","study_id":"6197b3f67c2b5cd3b6d9596a","session_id":"619beef18660575b9589030c","condition":"contingent","relevant_dimensions":["wings","pattern"],"bee_group":{"antennae":"X","wings":"2","pattern":"D","legs":"X"},"action":"avoid","summary":"good-avoid","bonus":1.120000000000001},{"rt":846,"stimulus":"\n                    <p><b>Action: <em>avoid</em></b></p>\n                    <p>This is the bee that you just saw.</p>\n                    <img src=\"bees-with-color/bee-B2DF.svg\" width=\"200\">\n                    <p><br>Your bonus pay is unchanged, and remains at $0.64.</p>\n            ","response":0,"trial_type":"html-button-response","trial_index":112,"time_elapsed":258868,"internal_node_id":"0.0-4.0-1.52","subject_id":"5bb5896d56161d0001ff93b4","study_id":"6197b3f67c2b5cd3b6d9596a","session_id":"619beef18660575b9589030c","condition":"contingent","relevant_dimensions":["wings","pattern"],"bee_group":{"antennae":"X","wings":"2","pattern":"D","legs":"X"},"bonus":1.120000000000001},{"rt":1089.5,"stimulus":"bees-with-color/bee-B2SM.svg","response":0,"trial_type":"image-button-response","trial_index":113,"time_elapsed":259961,"internal_node_id":"0.0-4.0-0.53","subject_id":"5bb5896d56161d0001ff93b4","study_id":"6197b3f67c2b5cd3b6d9596a","session_id":"619beef18660575b9589030c","condition":"contingent","relevant_dimensions":["wings","pattern"],"bee_group":{"antennae":"X","wings":"2","pattern":"D","legs":"X"},"action":"harvest","summary":"good-harvest","bonus":1.120000000000001},{"rt":917.9000000003725,"stimulus":"\n                    <p><b>Action: <em>harvest</em></b></p>\n                    <p>This is the bee that you just saw.</p>\n                    <img src=\"bees-with-color/bee-B2SM.svg\" width=\"200\">\n                    <p><span class=\"greenText\"><b>Successful harvest!</b></span><br>Your pay has increased by $0.02. Your bonus pay is now $0.66.</p>\n            ","response":0,"trial_type":"html-button-response","trial_index":114,"time_elapsed":260883,"internal_node_id":"0.0-4.0-1.53","subject_id":"5bb5896d56161d0001ff93b4","study_id":"6197b3f67c2b5cd3b6d9596a","session_id":"619beef18660575b9589030c","condition":"contingent","relevant_dimensions":["wings","pattern"],"bee_group":{"antennae":"X","wings":"2","pattern":"D","legs":"X"},"bonus":1.120000000000001},{"rt":1089.0999999996275,"stimulus":"bees-with-color/bee-A2SF.svg","response":0,"trial_type":"image-button-response","trial_index":115,"time_elapsed":261976,"internal_node_id":"0.0-4.0-0.54","subject_id":"5bb5896d56161d0001ff93b4","study_id":"6197b3f67c2b5cd3b6d9596a","session_id":"619beef18660575b9589030c","condition":"contingent","relevant_dimensions":["wings","pattern"],"bee_group":{"antennae":"X","wings":"2","pattern":"D","legs":"X"},"action":"harvest","summary":"good-harvest","bonus":1.120000000000001},{"rt":1271,"stimulus":"\n                    <p><b>Action: <em>harvest</em></b></p>\n                    <p>This is the bee that you just saw.</p>\n                    <img src=\"bees-with-color/bee-A2SF.svg\" width=\"200\">\n                    <p><span class=\"greenText\"><b>Successful harvest!</b></span><br>Your pay has increased by $0.02. Your bonus pay is now $0.68.</p>\n            ","response":0,"trial_type":"html-button-response","trial_index":116,"time_elapsed":263251,"internal_node_id":"0.0-4.0-1.54","subject_id":"5bb5896d56161d0001ff93b4","study_id":"6197b3f67c2b5cd3b6d9596a","session_id":"619beef18660575b9589030c","condition":"contingent","relevant_dimensions":["wings","pattern"],"bee_group":{"antennae":"X","wings":"2","pattern":"D","legs":"X"},"bonus":1.120000000000001},{"rt":1185.2999999998137,"stimulus":"bees-with-color/bee-A1DF.svg","response":1,"trial_type":"image-button-response","trial_index":117,"time_elapsed":264440,"internal_node_id":"0.0-4.0-0.55","subject_id":"5bb5896d56161d0001ff93b4","study_id":"6197b3f67c2b5cd3b6d9596a","session_id":"619beef18660575b9589030c","condition":"contingent","relevant_dimensions":["wings","pattern"],"bee_group":{"antennae":"X","wings":"2","pattern":"D","legs":"X"},"action":"avoid","summary":"bad-avoid","bonus":1.120000000000001},{"rt":1004,"stimulus":"\n                    <p><b>Action: <em>avoid</em></b></p>\n                    <p>This is the bee that you just saw.</p>\n                    <img src=\"bees-with-color/bee-A1DF.svg\" width=\"200\">\n                    <p><br>Your bonus pay is unchanged, and remains at $0.68.</p>\n            ","response":0,"trial_type":"html-button-response","trial_index":118,"time_elapsed":265448,"internal_node_id":"0.0-4.0-1.55","subject_id":"5bb5896d56161d0001ff93b4","study_id":"6197b3f67c2b5cd3b6d9596a","session_id":"619beef18660575b9589030c","condition":"contingent","relevant_dimensions":["wings","pattern"],"bee_group":{"antennae":"X","wings":"2","pattern":"D","legs":"X"},"bonus":1.120000000000001},{"rt":1911.8999999994412,"stimulus":"bees-with-color/bee-B2DM.svg","response":1,"trial_type":"image-button-response","trial_index":119,"time_elapsed":267365,"internal_node_id":"0.0-4.0-0.56","subject_id":"5bb5896d56161d0001ff93b4","study_id":"6197b3f67c2b5cd3b6d9596a","session_id":"619beef18660575b9589030c","condition":"contingent","relevant_dimensions":["wings","pattern"],"bee_group":{"antennae":"X","wings":"2","pattern":"D","legs":"X"},"action":"avoid","summary":"good-avoid","bonus":1.120000000000001},{"rt":810.2000000001863,"stimulus":"\n                    <p><b>Action: <em>avoid</em></b></p>\n                    <p>This is the bee that you just saw.</p>\n                    <img src=\"bees-with-color/bee-B2DM.svg\" width=\"200\">\n                    <p><br>Your bonus pay is unchanged, and remains at $0.68.</p>\n            ","response":0,"trial_type":"html-button-response","trial_index":120,"time_elapsed":268178,"internal_node_id":"0.0-4.0-1.56","subject_id":"5bb5896d56161d0001ff93b4","study_id":"6197b3f67c2b5cd3b6d9596a","session_id":"619beef18660575b9589030c","condition":"contingent","relevant_dimensions":["wings","pattern"],"bee_group":{"antennae":"X","wings":"2","pattern":"D","legs":"X"},"bonus":1.120000000000001},{"rt":2412.2999999998137,"stimulus":"bees-with-color/bee-A1DM.svg","response":0,"trial_type":"image-button-response","trial_index":121,"time_elapsed":270593,"internal_node_id":"0.0-4.0-0.57","subject_id":"5bb5896d56161d0001ff93b4","study_id":"6197b3f67c2b5cd3b6d9596a","session_id":"619beef18660575b9589030c","condition":"contingent","relevant_dimensions":["wings","pattern"],"bee_group":{"antennae":"X","wings":"2","pattern":"D","legs":"X"},"action":"harvest","summary":"good-harvest","bonus":1.120000000000001},{"rt":1114.5,"stimulus":"\n                    <p><b>Action: <em>harvest</em></b></p>\n                    <p>This is the bee that you just saw.</p>\n                    <img src=\"bees-with-color/bee-A1DM.svg\" width=\"200\">\n                    <p><span class=\"greenText\"><b>Successful harvest!</b></span><br>Your pay has increased by $0.02. Your bonus pay is now $0.70.</p>\n            ","response":0,"trial_type":"html-button-response","trial_index":122,"time_elapsed":271711,"internal_node_id":"0.0-4.0-1.57","subject_id":"5bb5896d56161d0001ff93b4","study_id":"6197b3f67c2b5cd3b6d9596a","session_id":"619beef18660575b9589030c","condition":"contingent","relevant_dimensions":["wings","pattern"],"bee_group":{"antennae":"X","wings":"2","pattern":"D","legs":"X"},"bonus":1.120000000000001},{"rt":1245.7999999998137,"stimulus":"bees-with-color/bee-A2DF.svg","response":1,"trial_type":"image-button-response","trial_index":123,"time_elapsed":272961,"internal_node_id":"0.0-4.0-0.58","subject_id":"5bb5896d56161d0001ff93b4","study_id":"6197b3f67c2b5cd3b6d9596a","session_id":"619beef18660575b9589030c","condition":"contingent","relevant_dimensions":["wings","pattern"],"bee_group":{"antennae":"X","wings":"2","pattern":"D","legs":"X"},"action":"avoid","summary":"good-avoid","bonus":1.120000000000001},{"rt":797.9000000003725,"stimulus":"\n                    <p><b>Action: <em>avoid</em></b></p>\n                    <p>This is the bee that you just saw.</p>\n                    <img src=\"bees-with-color/bee-A2DF.svg\" width=\"200\">\n                    <p><br>Your bonus pay is unchanged, and remains at $0.70.</p>\n            ","response":0,"trial_type":"html-button-response","trial_index":124,"time_elapsed":273761,"internal_node_id":"0.0-4.0-1.58","subject_id":"5bb5896d56161d0001ff93b4","study_id":"6197b3f67c2b5cd3b6d9596a","session_id":"619beef18660575b9589030c","condition":"contingent","relevant_dimensions":["wings","pattern"],"bee_group":{"antennae":"X","wings":"2","pattern":"D","legs":"X"},"bonus":1.120000000000001},{"rt":1284.5,"stimulus":"bees-with-color/bee-B1DM.svg","response":1,"trial_type":"image-button-response","trial_index":125,"time_elapsed":275049,"internal_node_id":"0.0-4.0-0.59","subject_id":"5bb5896d56161d0001ff93b4","study_id":"6197b3f67c2b5cd3b6d9596a","session_id":"619beef18660575b9589030c","condition":"contingent","relevant_dimensions":["wings","pattern"],"bee_group":{"antennae":"X","wings":"2","pattern":"D","legs":"X"},"action":"avoid","summary":"bad-avoid","bonus":1.120000000000001},{"rt":1914.9000000003725,"stimulus":"\n                    <p><b>Action: <em>avoid</em></b></p>\n                    <p>This is the bee that you just saw.</p>\n                    <img src=\"bees-with-color/bee-B1DM.svg\" width=\"200\">\n                    <p><br>Your bonus pay is unchanged, and remains at $0.70.</p>\n            ","response":0,"trial_type":"html-button-response","trial_index":126,"time_elapsed":276967,"internal_node_id":"0.0-4.0-1.59","subject_id":"5bb5896d56161d0001ff93b4","study_id":"6197b3f67c2b5cd3b6d9596a","session_id":"619beef18660575b9589030c","condition":"contingent","relevant_dimensions":["wings","pattern"],"bee_group":{"antennae":"X","wings":"2","pattern":"D","legs":"X"},"bonus":1.120000000000001},{"rt":1842.2999999998137,"stimulus":"bees-with-color/bee-B1SF.svg","response":0,"trial_type":"image-button-response","trial_index":127,"time_elapsed":278812,"internal_node_id":"0.0-4.0-0.60","subject_id":"5bb5896d56161d0001ff93b4","study_id":"6197b3f67c2b5cd3b6d9596a","session_id":"619beef18660575b9589030c","condition":"contingent","relevant_dimensions":["wings","pattern"],"bee_group":{"antennae":"X","wings":"2","pattern":"D","legs":"X"},"action":"harvest","summary":"good-harvest","bonus":1.120000000000001},{"rt":871,"stimulus":"\n                    <p><b>Action: <em>harvest</em></b></p>\n                    <p>This is the bee that you just saw.</p>\n                    <img src=\"bees-with-color/bee-B1SF.svg\" width=\"200\">\n                    <p><span class=\"greenText\"><b>Successful harvest!</b></span><br>Your pay has increased by $0.02. Your bonus pay is now $0.72.</p>\n            ","response":0,"trial_type":"html-button-response","trial_index":128,"time_elapsed":279686,"internal_node_id":"0.0-4.0-1.60","subject_id":"5bb5896d56161d0001ff93b4","study_id":"6197b3f67c2b5cd3b6d9596a","session_id":"619beef18660575b9589030c","condition":"contingent","relevant_dimensions":["wings","pattern"],"bee_group":{"antennae":"X","wings":"2","pattern":"D","legs":"X"},"bonus":1.120000000000001},{"rt":978.5999999996275,"stimulus":"bees-with-color/bee-A1SF.svg","response":0,"trial_type":"image-button-response","trial_index":129,"time_elapsed":280669,"internal_node_id":"0.0-4.0-0.61","subject_id":"5bb5896d56161d0001ff93b4","study_id":"6197b3f67c2b5cd3b6d9596a","session_id":"619beef18660575b9589030c","condition":"contingent","relevant_dimensions":["wings","pattern"],"bee_group":{"antennae":"X","wings":"2","pattern":"D","legs":"X"},"action":"harvest","summary":"good-harvest","bonus":1.120000000000001},{"rt":884.1000000005588,"stimulus":"\n                    <p><b>Action: <em>harvest</em></b></p>\n                    <p>This is the bee that you just saw.</p>\n                    <img src=\"bees-with-color/bee-A1SF.svg\" width=\"200\">\n                    <p><span class=\"greenText\"><b>Successful harvest!</b></span><br>Your pay has increased by $0.02. Your bonus pay is now $0.74.</p>\n            ","response":0,"trial_type":"html-button-response","trial_index":130,"time_elapsed":281556,"internal_node_id":"0.0-4.0-1.61","subject_id":"5bb5896d56161d0001ff93b4","study_id":"6197b3f67c2b5cd3b6d9596a","session_id":"619beef18660575b9589030c","condition":"contingent","relevant_dimensions":["wings","pattern"],"bee_group":{"antennae":"X","wings":"2","pattern":"D","legs":"X"},"bonus":1.120000000000001},{"rt":980.5,"stimulus":"bees-with-color/bee-B1SM.svg","response":0,"trial_type":"image-button-response","trial_index":131,"time_elapsed":282539,"internal_node_id":"0.0-4.0-0.62","subject_id":"5bb5896d56161d0001ff93b4","study_id":"6197b3f67c2b5cd3b6d9596a","session_id":"619beef18660575b9589030c","condition":"contingent","relevant_dimensions":["wings","pattern"],"bee_group":{"antennae":"X","wings":"2","pattern":"D","legs":"X"},"action":"harvest","summary":"good-harvest","bonus":1.120000000000001},{"rt":967.7999999998137,"stimulus":"\n                    <p><b>Action: <em>harvest</em></b></p>\n                    <p>This is the bee that you just saw.</p>\n                    <img src=\"bees-with-color/bee-B1SM.svg\" width=\"200\">\n                    <p><span class=\"greenText\"><b>Successful harvest!</b></span><br>Your pay has increased by $0.02. Your bonus pay is now $0.76.</p>\n            ","response":0,"trial_type":"html-button-response","trial_index":132,"time_elapsed":283510,"internal_node_id":"0.0-4.0-1.62","subject_id":"5bb5896d56161d0001ff93b4","study_id":"6197b3f67c2b5cd3b6d9596a","session_id":"619beef18660575b9589030c","condition":"contingent","relevant_dimensions":["wings","pattern"],"bee_group":{"antennae":"X","wings":"2","pattern":"D","legs":"X"},"bonus":1.120000000000001},{"rt":1224,"stimulus":"bees-with-color/bee-A2SM.svg","response":0,"trial_type":"image-button-response","trial_index":133,"time_elapsed":284737,"internal_node_id":"0.0-4.0-0.63","subject_id":"5bb5896d56161d0001ff93b4","study_id":"6197b3f67c2b5cd3b6d9596a","session_id":"619beef18660575b9589030c","condition":"contingent","relevant_dimensions":["wings","pattern"],"bee_group":{"antennae":"X","wings":"2","pattern":"D","legs":"X"},"action":"harvest","summary":"good-harvest","bonus":1.120000000000001},{"rt":906.3999999994412,"stimulus":"\n                    <p><b>Action: <em>harvest</em></b></p>\n                    <p>This is the bee that you just saw.</p>\n                    <img src=\"bees-with-color/bee-A2SM.svg\" width=\"200\">\n                    <p><span class=\"greenText\"><b>Successful harvest!</b></span><br>Your pay has increased by $0.02. Your bonus pay is now $0.78.</p>\n            ","response":0,"trial_type":"html-button-response","trial_index":134,"time_elapsed":285647,"internal_node_id":"0.0-4.0-1.63","subject_id":"5bb5896d56161d0001ff93b4","study_id":"6197b3f67c2b5cd3b6d9596a","session_id":"619beef18660575b9589030c","condition":"contingent","relevant_dimensions":["wings","pattern"],"bee_group":{"antennae":"X","wings":"2","pattern":"D","legs":"X"},"bonus":1.120000000000001},{"rt":3660.5,"stimulus":"You have completed the first part of this experiment.<br><br>You will now begin a shorter second part, in which you will receive no feedback.<br>The same rules regarding bonus pay apply.<br><br>Press any key to begin.","response":" ","trial_type":"html-keyboard-response","trial_index":135,"time_elapsed":289310,"internal_node_id":"0.0-5.0","subject_id":"5bb5896d56161d0001ff93b4","study_id":"6197b3f67c2b5cd3b6d9596a","session_id":"619beef18660575b9589030c","condition":"contingent","relevant_dimensions":["wings","pattern"],"bee_group":{"antennae":"X","wings":"2","pattern":"D","legs":"X"},"bonus":1.120000000000001},{"rt":2660,"stimulus":"bees-with-color/bee-A2DF.svg","response":1,"trial_type":"image-button-response","trial_index":136,"time_elapsed":291984,"internal_node_id":"0.0-6.0-0.0","subject_id":"5bb5896d56161d0001ff93b4","study_id":"6197b3f67c2b5cd3b6d9596a","session_id":"619beef18660575b9589030c","condition":"contingent","relevant_dimensions":["wings","pattern"],"bee_group":{"antennae":"X","wings":"2","pattern":"D","legs":"X"},"bonus":1.120000000000001},{"rt":1401.800000000745,"stimulus":"bees-with-color/bee-B2DF.svg","response":1,"trial_type":"image-button-response","trial_index":137,"time_elapsed":293392,"internal_node_id":"0.0-6.0-0.1","subject_id":"5bb5896d56161d0001ff93b4","study_id":"6197b3f67c2b5cd3b6d9596a","session_id":"619beef18660575b9589030c","condition":"contingent","relevant_dimensions":["wings","pattern"],"bee_group":{"antennae":"X","wings":"2","pattern":"D","legs":"X"},"bonus":1.120000000000001},{"rt":1222.1000000005588,"stimulus":"bees-with-color/bee-B1DM.svg","response":1,"trial_type":"image-button-response","trial_index":138,"time_elapsed":294619,"internal_node_id":"0.0-6.0-0.2","subject_id":"5bb5896d56161d0001ff93b4","study_id":"6197b3f67c2b5cd3b6d9596a","session_id":"619beef18660575b9589030c","condition":"contingent","relevant_dimensions":["wings","pattern"],"bee_group":{"antennae":"X","wings":"2","pattern":"D","legs":"X"},"bonus":1.120000000000001},{"rt":1319.5999999996275,"stimulus":"bees-with-color/bee-B2SF.svg","response":0,"trial_type":"image-button-response","trial_index":139,"time_elapsed":295942,"internal_node_id":"0.0-6.0-0.3","subject_id":"5bb5896d56161d0001ff93b4","study_id":"6197b3f67c2b5cd3b6d9596a","session_id":"619beef18660575b9589030c","condition":"contingent","relevant_dimensions":["wings","pattern"],"bee_group":{"antennae":"X","wings":"2","pattern":"D","legs":"X"},"bonus":1.120000000000001},{"rt":1318.2999999998137,"stimulus":"bees-with-color/bee-A1DF.svg","response":1,"trial_type":"image-button-response","trial_index":140,"time_elapsed":297265,"internal_node_id":"0.0-6.0-0.4","subject_id":"5bb5896d56161d0001ff93b4","study_id":"6197b3f67c2b5cd3b6d9596a","session_id":"619beef18660575b9589030c","condition":"contingent","relevant_dimensions":["wings","pattern"],"bee_group":{"antennae":"X","wings":"2","pattern":"D","legs":"X"},"bonus":1.120000000000001},{"rt":2240.899999999441,"stimulus":"bees-with-color/bee-A1DM.svg","response":0,"trial_type":"image-button-response","trial_index":141,"time_elapsed":299511,"internal_node_id":"0.0-6.0-0.5","subject_id":"5bb5896d56161d0001ff93b4","study_id":"6197b3f67c2b5cd3b6d9596a","session_id":"619beef18660575b9589030c","condition":"contingent","relevant_dimensions":["wings","pattern"],"bee_group":{"antennae":"X","wings":"2","pattern":"D","legs":"X"},"bonus":1.120000000000001},{"rt":1220.3999999994412,"stimulus":"bees-with-color/bee-B1DF.svg","response":1,"trial_type":"image-button-response","trial_index":142,"time_elapsed":300738,"internal_node_id":"0.0-6.0-0.6","subject_id":"5bb5896d56161d0001ff93b4","study_id":"6197b3f67c2b5cd3b6d9596a","session_id":"619beef18660575b9589030c","condition":"contingent","relevant_dimensions":["wings","pattern"],"bee_group":{"antennae":"X","wings":"2","pattern":"D","legs":"X"},"bonus":1.120000000000001},{"rt":1100,"stimulus":"bees-with-color/bee-B1SM.svg","response":0,"trial_type":"image-button-response","trial_index":143,"time_elapsed":301843,"internal_node_id":"0.0-6.0-0.7","subject_id":"5bb5896d56161d0001ff93b4","study_id":"6197b3f67c2b5cd3b6d9596a","session_id":"619beef18660575b9589030c","condition":"contingent","relevant_dimensions":["wings","pattern"],"bee_group":{"antennae":"X","wings":"2","pattern":"D","legs":"X"},"bonus":1.120000000000001},{"rt":1148.1000000005588,"stimulus":"bees-with-color/bee-A2SF.svg","response":0,"trial_type":"image-button-response","trial_index":144,"time_elapsed":302996,"internal_node_id":"0.0-6.0-0.8","subject_id":"5bb5896d56161d0001ff93b4","study_id":"6197b3f67c2b5cd3b6d9596a","session_id":"619beef18660575b9589030c","condition":"contingent","relevant_dimensions":["wings","pattern"],"bee_group":{"antennae":"X","wings":"2","pattern":"D","legs":"X"},"bonus":1.120000000000001},{"rt":1366.5999999996275,"stimulus":"bees-with-color/bee-B2DM.svg","response":1,"trial_type":"image-button-response","trial_index":145,"time_elapsed":304367,"internal_node_id":"0.0-6.0-0.9","subject_id":"5bb5896d56161d0001ff93b4","study_id":"6197b3f67c2b5cd3b6d9596a","session_id":"619beef18660575b9589030c","condition":"contingent","relevant_dimensions":["wings","pattern"],"bee_group":{"antennae":"X","wings":"2","pattern":"D","legs":"X"},"bonus":1.120000000000001},{"rt":1549,"stimulus":"bees-with-color/bee-A2SM.svg","response":0,"trial_type":"image-button-response","trial_index":146,"time_elapsed":305921,"internal_node_id":"0.0-6.0-0.10","subject_id":"5bb5896d56161d0001ff93b4","study_id":"6197b3f67c2b5cd3b6d9596a","session_id":"619beef18660575b9589030c","condition":"contingent","relevant_dimensions":["wings","pattern"],"bee_group":{"antennae":"X","wings":"2","pattern":"D","legs":"X"},"bonus":1.120000000000001},{"rt":978.7999999998137,"stimulus":"bees-with-color/bee-A1SM.svg","response":0,"trial_type":"image-button-response","trial_index":147,"time_elapsed":306905,"internal_node_id":"0.0-6.0-0.11","subject_id":"5bb5896d56161d0001ff93b4","study_id":"6197b3f67c2b5cd3b6d9596a","session_id":"619beef18660575b9589030c","condition":"contingent","relevant_dimensions":["wings","pattern"],"bee_group":{"antennae":"X","wings":"2","pattern":"D","legs":"X"},"bonus":1.120000000000001},{"rt":1087.199999999255,"stimulus":"bees-with-color/bee-B1SF.svg","response":0,"trial_type":"image-button-response","trial_index":148,"time_elapsed":307997,"internal_node_id":"0.0-6.0-0.12","subject_id":"5bb5896d56161d0001ff93b4","study_id":"6197b3f67c2b5cd3b6d9596a","session_id":"619beef18660575b9589030c","condition":"contingent","relevant_dimensions":["wings","pattern"],"bee_group":{"antennae":"X","wings":"2","pattern":"D","legs":"X"},"bonus":1.120000000000001},{"rt":954.3999999994412,"stimulus":"bees-with-color/bee-B2SM.svg","response":0,"trial_type":"image-button-response","trial_index":149,"time_elapsed":308956,"internal_node_id":"0.0-6.0-0.13","subject_id":"5bb5896d56161d0001ff93b4","study_id":"6197b3f67c2b5cd3b6d9596a","session_id":"619beef18660575b9589030c","condition":"contingent","relevant_dimensions":["wings","pattern"],"bee_group":{"antennae":"X","wings":"2","pattern":"D","legs":"X"},"bonus":1.120000000000001},{"rt":808.7999999998137,"stimulus":"bees-with-color/bee-A1SF.svg","response":0,"trial_type":"image-button-response","trial_index":150,"time_elapsed":309770,"internal_node_id":"0.0-6.0-0.14","subject_id":"5bb5896d56161d0001ff93b4","study_id":"6197b3f67c2b5cd3b6d9596a","session_id":"619beef18660575b9589030c","condition":"contingent","relevant_dimensions":["wings","pattern"],"bee_group":{"antennae":"X","wings":"2","pattern":"D","legs":"X"},"bonus":1.120000000000001},{"rt":1181.7999999998137,"stimulus":"bees-with-color/bee-A2DM.svg","response":1,"trial_type":"image-button-response","trial_index":151,"time_elapsed":310959,"internal_node_id":"0.0-6.0-0.15","subject_id":"5bb5896d56161d0001ff93b4","study_id":"6197b3f67c2b5cd3b6d9596a","session_id":"619beef18660575b9589030c","condition":"contingent","relevant_dimensions":["wings","pattern"],"bee_group":{"antennae":"X","wings":"2","pattern":"D","legs":"X"},"bonus":1.120000000000001},{"rt":821.7000000001863,"stimulus":"bees-with-color/bee-A1DF.svg","response":1,"trial_type":"image-button-response","trial_index":152,"time_elapsed":311784,"internal_node_id":"0.0-6.0-0.16","subject_id":"5bb5896d56161d0001ff93b4","study_id":"6197b3f67c2b5cd3b6d9596a","session_id":"619beef18660575b9589030c","condition":"contingent","relevant_dimensions":["wings","pattern"],"bee_group":{"antennae":"X","wings":"2","pattern":"D","legs":"X"},"bonus":1.120000000000001},{"rt":883.6000000005588,"stimulus":"bees-with-color/bee-B1SF.svg","response":1,"trial_type":"image-button-response","trial_index":153,"time_elapsed":312671,"internal_node_id":"0.0-6.0-0.17","subject_id":"5bb5896d56161d0001ff93b4","study_id":"6197b3f67c2b5cd3b6d9596a","session_id":"619beef18660575b9589030c","condition":"contingent","relevant_dimensions":["wings","pattern"],"bee_group":{"antennae":"X","wings":"2","pattern":"D","legs":"X"},"bonus":1.120000000000001},{"rt":2230.600000000559,"stimulus":"bees-with-color/bee-A2SM.svg","response":0,"trial_type":"image-button-response","trial_index":154,"time_elapsed":314905,"internal_node_id":"0.0-6.0-0.18","subject_id":"5bb5896d56161d0001ff93b4","study_id":"6197b3f67c2b5cd3b6d9596a","session_id":"619beef18660575b9589030c","condition":"contingent","relevant_dimensions":["wings","pattern"],"bee_group":{"antennae":"X","wings":"2","pattern":"D","legs":"X"},"bonus":1.120000000000001},{"rt":2667.0999999996275,"stimulus":"bees-with-color/bee-A2DM.svg","response":1,"trial_type":"image-button-response","trial_index":155,"time_elapsed":317576,"internal_node_id":"0.0-6.0-0.19","subject_id":"5bb5896d56161d0001ff93b4","study_id":"6197b3f67c2b5cd3b6d9596a","session_id":"619beef18660575b9589030c","condition":"contingent","relevant_dimensions":["wings","pattern"],"bee_group":{"antennae":"X","wings":"2","pattern":"D","legs":"X"},"bonus":1.120000000000001},{"rt":1208.7999999998137,"stimulus":"bees-with-color/bee-A2SF.svg","response":0,"trial_type":"image-button-response","trial_index":156,"time_elapsed":318790,"internal_node_id":"0.0-6.0-0.20","subject_id":"5bb5896d56161d0001ff93b4","study_id":"6197b3f67c2b5cd3b6d9596a","session_id":"619beef18660575b9589030c","condition":"contingent","relevant_dimensions":["wings","pattern"],"bee_group":{"antennae":"X","wings":"2","pattern":"D","legs":"X"},"bonus":1.120000000000001},{"rt":919.5999999996275,"stimulus":"bees-with-color/bee-B2SF.svg","response":0,"trial_type":"image-button-response","trial_index":157,"time_elapsed":319713,"internal_node_id":"0.0-6.0-0.21","subject_id":"5bb5896d56161d0001ff93b4","study_id":"6197b3f67c2b5cd3b6d9596a","session_id":"619beef18660575b9589030c","condition":"contingent","relevant_dimensions":["wings","pattern"],"bee_group":{"antennae":"X","wings":"2","pattern":"D","legs":"X"},"bonus":1.120000000000001},{"rt":1186.8999999994412,"stimulus":"bees-with-color/bee-B1DF.svg","response":1,"trial_type":"image-button-response","trial_index":158,"time_elapsed":320904,"internal_node_id":"0.0-6.0-0.22","subject_id":"5bb5896d56161d0001ff93b4","study_id":"6197b3f67c2b5cd3b6d9596a","session_id":"619beef18660575b9589030c","condition":"contingent","relevant_dimensions":["wings","pattern"],"bee_group":{"antennae":"X","wings":"2","pattern":"D","legs":"X"},"bonus":1.120000000000001},{"rt":2338.7999999998137,"stimulus":"bees-with-color/bee-B2DM.svg","response":1,"trial_type":"image-button-response","trial_index":159,"time_elapsed":323246,"internal_node_id":"0.0-6.0-0.23","subject_id":"5bb5896d56161d0001ff93b4","study_id":"6197b3f67c2b5cd3b6d9596a","session_id":"619beef18660575b9589030c","condition":"contingent","relevant_dimensions":["wings","pattern"],"bee_group":{"antennae":"X","wings":"2","pattern":"D","legs":"X"},"bonus":1.120000000000001},{"rt":980.2999999998137,"stimulus":"bees-with-color/bee-A1SF.svg","response":0,"trial_type":"image-button-response","trial_index":160,"time_elapsed":324230,"internal_node_id":"0.0-6.0-0.24","subject_id":"5bb5896d56161d0001ff93b4","study_id":"6197b3f67c2b5cd3b6d9596a","session_id":"619beef18660575b9589030c","condition":"contingent","relevant_dimensions":["wings","pattern"],"bee_group":{"antennae":"X","wings":"2","pattern":"D","legs":"X"},"bonus":1.120000000000001},{"rt":1124.7999999998137,"stimulus":"bees-with-color/bee-A2DF.svg","response":1,"trial_type":"image-button-response","trial_index":161,"time_elapsed":325359,"internal_node_id":"0.0-6.0-0.25","subject_id":"5bb5896d56161d0001ff93b4","study_id":"6197b3f67c2b5cd3b6d9596a","session_id":"619beef18660575b9589030c","condition":"contingent","relevant_dimensions":["wings","pattern"],"bee_group":{"antennae":"X","wings":"2","pattern":"D","legs":"X"},"bonus":1.120000000000001},{"rt":955.4000000003725,"stimulus":"bees-with-color/bee-B1SM.svg","response":0,"trial_type":"image-button-response","trial_index":162,"time_elapsed":326318,"internal_node_id":"0.0-6.0-0.26","subject_id":"5bb5896d56161d0001ff93b4","study_id":"6197b3f67c2b5cd3b6d9596a","session_id":"619beef18660575b9589030c","condition":"contingent","relevant_dimensions":["wings","pattern"],"bee_group":{"antennae":"X","wings":"2","pattern":"D","legs":"X"},"bonus":1.120000000000001},{"rt":1100.2999999998137,"stimulus":"bees-with-color/bee-B2SM.s