[{"success":true,"trial_type":"fullscreen","trial_index":0,"time_elapsed":3543,"internal_node_id":"0.0-0.0","subject_id":"602ba62750c603308389e87f","study_id":"6197b3f67c2b5cd3b6d9596a","session_id":"6197bc6d1674e1427ce151bd","condition":"contingent","relevant_dimensions":["pattern","legs"],"bee_group":{"antennae":"X","wings":"X","pattern":"S","legs":"M"},"bonus":1.6800000000000013},{"success":true,"timeout":false,"failed_images":[],"failed_audio":[],"failed_video":[],"trial_type":"preload","trial_index":1,"time_elapsed":5110,"internal_node_id":"0.0-1.0","subject_id":"602ba62750c603308389e87f","study_id":"6197b3f67c2b5cd3b6d9596a","session_id":"6197bc6d1674e1427ce151bd","condition":"contingent","relevant_dimensions":["pattern","legs"],"bee_group":{"antennae":"X","wings":"X","pattern":"S","legs":"M"},"bonus":1.6800000000000013},{"rt":2502.199999988079,"stimulus":"Welcome! Press any key to begin.","response":" ","trial_type":"html-keyboard-response","trial_index":2,"time_elapsed":7613,"internal_node_id":"0.0-2.0","subject_id":"602ba62750c603308389e87f","study_id":"6197b3f67c2b5cd3b6d9596a","session_id":"6197bc6d1674e1427ce151bd","condition":"contingent","relevant_dimensions":["pattern","legs"],"bee_group":{"antennae":"X","wings":"X","pattern":"S","legs":"M"},"bonus":1.6800000000000013},{"view_history":[{"page_index":0,"viewing_time":2862},{"page_index":1,"viewing_time":10109.800000011921},{"page_index":2,"viewing_time":9246.199999988079},{"page_index":3,"viewing_time":11244.800000011921},{"page_index":4,"viewing_time":6768},{"page_index":5,"viewing_time":5490},{"page_index":6,"viewing_time":7868},{"page_index":7,"viewing_time":11606},{"page_index":8,"viewing_time":19400.09999999404},{"page_index":9,"viewing_time":9523.09999999404},{"page_index":10,"viewing_time":6832},{"page_index":11,"viewing_time":11439},{"page_index":12,"viewing_time":15692.90000000596},{"page_index":13,"viewing_time":1392},{"page_index":14,"viewing_time":2190.0999999940395}],"rt":131664.30000001192,"trial_type":"instructions","trial_index":3,"time_elapsed":139278,"internal_node_id":"0.0-3.0-0.0","subject_id":"602ba62750c603308389e87f","study_id":"6197b3f67c2b5cd3b6d9596a","session_id":"6197bc6d1674e1427ce151bd","condition":"contingent","relevant_dimensions":["pattern","legs"],"bee_group":{"antennae":"X","wings":"X","pattern":"S","legs":"M"},"bonus":1.6800000000000013},{"rt":15253.600000023842,"response":{"Q0":["Two or six legs","Stripes or spots on body","Single or double wings","Antennae or no antennae"]},"question_order":[0],"trial_type":"survey-multi-select","trial_index":4,"time_elapsed":154534,"internal_node_id":"0.0-3.0-1.0","subject_id":"602ba62750c603308389e87f","study_id":"6197b3f67c2b5cd3b6d9596a","session_id":"6197bc6d1674e1427ce151bd","condition":"contingent","relevant_dimensions":["pattern","legs"],"bee_group":{"antennae":"X","wings":"X","pattern":"S","legs":"M"},"correct":true,"bonus":1.6800000000000013},{"rt":33030.29999998212,"response":{"Q1":"No.","Q2":"Based on the four features of the bee.","Q3":"You do not learn if it was friendly or dangerous, and do not alter your bonus."},"question_order":[0,1,2],"trial_type":"survey-multi-choice","trial_index":5,"time_elapsed":187566,"internal_node_id":"0.0-3.0-2.0","subject_id":"602ba62750c603308389e87f","study_id":"6197b3f67c2b5cd3b6d9596a","session_id":"6197bc6d1674e1427ce151bd","condition":"contingent","relevant_dimensions":["pattern","legs"],"bee_group":{"antennae":"X","wings":"X","pattern":"S","legs":"M"},"correct":true,"bonus":1.6800000000000013},{"rt":4067.4000000059605,"stimulus":"<p>Congrats, you got everything right<br>When you're ready, click the button below to continue to the experiment.</p>","response":0,"trial_type":"html-button-response","trial_index":6,"time_elapsed":191635,"internal_node_id":"0.0-3.0-3.0","subject_id":"602ba62750c603308389e87f","study_id":"6197b3f67c2b5cd3b6d9596a","session_id":"6197bc6d1674e1427ce151bd","condition":"contingent","relevant_dimensions":["pattern","legs"],"bee_group":{"antennae":"X","wings":"X","pattern":"S","legs":"M"},"bonus":1.6800000000000013},{"rt":30615.19999998808,"stimulus":"bees-with-color/bee-A1SM.svg","response":0,"trial_type":"image-button-response","trial_index":7,"time_elapsed":222253,"internal_node_id":"0.0-4.0-0.0","subject_id":"602ba62750c603308389e87f","study_id":"6197b3f67c2b5cd3b6d9596a","session_id":"6197bc6d1674e1427ce151bd","condition":"contingent","relevant_dimensions":["pattern","legs"],"bee_group":{"antennae":"X","wings":"X","pattern":"S","legs":"M"},"action":"harvest","summary":"bad-harvest","bonus":1.6800000000000013},{"rt":11260.800000011921,"stimulus":"\n                    <p><b>Action: <em>harvest</em></b></p>\n                    <p>This is the bee that you just saw.</p>\n                    <img src=\"bees-with-color/bee-A1SM.svg\" width=\"200\">\n                    <p><span class=\"redText\">Bad choice, the bee was angry.</span><br><b>You have been stung!</b><br>Your pay has been decreased by $0.10. Your bonus pay is now $0.44.</p>\n            ","response":0,"trial_type":"html-button-response","trial_index":8,"time_elapsed":233516,"internal_node_id":"0.0-4.0-1.0","subject_id":"602ba62750c603308389e87f","study_id":"6197b3f67c2b5cd3b6d9596a","session_id":"6197bc6d1674e1427ce151bd","condition":"contingent","relevant_dimensions":["pattern","legs"],"bee_group":{"antennae":"X","wings":"X","pattern":"S","legs":"M"},"bonus":1.6800000000000013},{"rt":45184.20000001788,"stimulus":"bees-with-color/bee-A2DM.svg","response":0,"trial_type":"image-button-response","trial_index":9,"time_elapsed":278701,"internal_node_id":"0.0-4.0-0.1","subject_id":"602ba62750c603308389e87f","study_id":"6197b3f67c2b5cd3b6d9596a","session_id":"6197bc6d1674e1427ce151bd","condition":"contingent","relevant_dimensions":["pattern","legs"],"bee_group":{"antennae":"X","wings":"X","pattern":"S","legs":"M"},"action":"harvest","summary":"good-harvest","bonus":1.6800000000000013},{"rt":41302.90000000596,"stimulus":"\n                    <p><b>Action: <em>harvest</em></b></p>\n                    <p>This is the bee that you just saw.</p>\n                    <img src=\"bees-with-color/bee-A2DM.svg\" width=\"200\">\n                    <p><span class=\"greenText\"><b>Successful harvest!</b></span><br>Your pay has increased by $0.02. Your bonus pay is now $0.46.</p>\n            ","response":0,"trial_type":"html-button-response","trial_index":10,"time_elapsed":320005,"internal_node_id":"0.0-4.0-1.1","subject_id":"602ba62750c603308389e87f","study_id":"6197b3f67c2b5cd3b6d9596a","session_id":"6197bc6d1674e1427ce151bd","condition":"contingent","relevant_dimensions":["pattern","legs"],"bee_group":{"antennae":"X","wings":"X","pattern":"S","legs":"M"},"bonus":1.6800000000000013},{"rt":11450.59999999404,"stimulus":"bees-with-color/bee-A1DF.svg","response":0,"trial_type":"image-button-response","trial_index":11,"time_elapsed":331457,"internal_node_id":"0.0-4.0-0.2","subject_id":"602ba62750c603308389e87f","study_id":"6197b3f67c2b5cd3b6d9596a","session_id":"6197bc6d1674e1427ce151bd","condition":"contingent","relevant_dimensions":["pattern","legs"],"bee_group":{"antennae":"X","wings":"X","pattern":"S","legs":"M"},"action":"harvest","summary":"good-harvest","bonus":1.6800000000000013},{"rt":8489.59999999404,"stimulus":"\n                    <p><b>Action: <em>harvest</em></b></p>\n                    <p>This is the bee that you just saw.</p>\n                    <img src=\"bees-with-color/bee-A1DF.svg\" width=\"200\">\n                    <p><span class=\"greenText\"><b>Successful harvest!</b></span><br>Your pay has increased by $0.02. Your bonus pay is now $0.48.</p>\n            ","response":0,"trial_type":"html-button-response","trial_index":12,"time_elapsed":339948,"internal_node_id":"0.0-4.0-1.2","subject_id":"602ba62750c603308389e87f","study_id":"6197b3f67c2b5cd3b6d9596a","session_id":"6197bc6d1674e1427ce151bd","condition":"contingent","relevant_dimensions":["pattern","legs"],"bee_group":{"antennae":"X","wings":"X","pattern":"S","legs":"M"},"bonus":1.6800000000000013},{"rt":4269.9000000059605,"stimulus":"bees-with-color/bee-B1SF.svg","response":0,"trial_type":"image-button-response","trial_index":13,"time_elapsed":344219,"internal_node_id":"0.0-4.0-0.3","subject_id":"602ba62750c603308389e87f","study_id":"6197b3f67c2b5cd3b6d9596a","session_id":"6197bc6d1674e1427ce151bd","condition":"contingent","relevant_dimensions":["pattern","legs"],"bee_group":{"antennae":"X","wings":"X","pattern":"S","legs":"M"},"action":"harvest","summary":"good-harvest","bonus":1.6800000000000013},{"rt":69803,"stimulus":"\n                    <p><b>Action: <em>harvest</em></b></p>\n                    <p>This is the bee that you just saw.</p>\n                    <img src=\"bees-with-color/bee-B1SF.svg\" width=\"200\">\n                    <p><span class=\"greenText\"><b>Successful harvest!</b></span><br>Your pay has increased by $0.02. Your bonus pay is now $0.50.</p>\n            ","response":0,"trial_type":"html-button-response","trial_index":14,"time_elapsed":414024,"internal_node_id":"0.0-4.0-1.3","subject_id":"602ba62750c603308389e87f","study_id":"6197b3f67c2b5cd3b6d9596a","session_id":"6197bc6d1674e1427ce151bd","condition":"contingent","relevant_dimensions":["pattern","legs"],"bee_group":{"antennae":"X","wings":"X","pattern":"S","legs":"M"},"bonus":1.6800000000000013},{"rt":12571.800000011921,"stimulus":"bees-with-color/bee-A2SM.svg","response":0,"trial_type":"image-button-response","trial_index":15,"time_elapsed":426597,"internal_node_id":"0.0-4.0-0.4","subject_id":"602ba62750c603308389e87f","study_id":"6197b3f67c2b5cd3b6d9596a","session_id":"6197bc6d1674e1427ce151bd","condition":"contingent","relevant_dimensions":["pattern","legs"],"bee_group":{"antennae":"X","wings":"X","pattern":"S","legs":"M"},"action":"harvest","summary":"bad-harvest","bonus":1.6800000000000013},{"rt":23155.79999998212,"stimulus":"\n                    <p><b>Action: <em>harvest</em></b></p>\n                    <p>This is the bee that you just saw.</p>\n                    <img src=\"bees-with-color/bee-A2SM.svg\" width=\"200\">\n                    <p><span class=\"redText\">Bad choice, the bee was angry.</span><br><b>You have been stung!</b><br>Your pay has been decreased by $0.10. Your bonus pay is now $0.40.</p>\n            ","response":0,"trial_type":"html-button-response","trial_index":16,"time_elapsed":449754,"internal_node_id":"0.0-4.0-1.4","subject_id":"602ba62750c603308389e87f","study_id":"6197b3f67c2b5cd3b6d9596a","session_id":"6197bc6d1674e1427ce151bd","condition":"contingent","relevant_dimensions":["pattern","legs"],"bee_group":{"antennae":"X","wings":"X","pattern":"S","legs":"M"},"bonus":1.6800000000000013},{"rt":2638.800000011921,"stimulus":"bees-with-color/bee-B1DF.svg","response":0,"trial_type":"image-button-response","trial_index":17,"time_elapsed":452394,"internal_node_id":"0.0-4.0-0.5","subject_id":"602ba62750c603308389e87f","study_id":"6197b3f67c2b5cd3b6d9596a","session_id":"6197bc6d1674e1427ce151bd","condition":"contingent","relevant_dimensions":["pattern","legs"],"bee_group":{"antennae":"X","wings":"X","pattern":"S","legs":"M"},"action":"harvest","summary":"good-harvest","bonus":1.6800000000000013},{"rt":2321.7999999821186,"stimulus":"\n                    <p><b>Action: <em>harvest</em></b></p>\n                    <p>This is the bee that you just saw.</p>\n                    <img src=\"bees-with-color/bee-B1DF.svg\" width=\"200\">\n                    <p><span class=\"greenText\"><b>Successful harvest!</b></span><br>Your pay has increased by $0.02. Your bonus pay is now $0.42.</p>\n            ","response":0,"trial_type":"html-button-response","trial_index":18,"time_elapsed":454717,"internal_node_id":"0.0-4.0-1.5","subject_id":"602ba62750c603308389e87f","study_id":"6197b3f67c2b5cd3b6d9596a","session_id":"6197bc6d1674e1427ce151bd","condition":"contingent","relevant_dimensions":["pattern","legs"],"bee_group":{"antennae":"X","wings":"X","pattern":"S","legs":"M"},"bonus":1.6800000000000013},{"rt":12349.5,"stimulus":"bees-with-color/bee-B2SF.svg","response":0,"trial_type":"image-button-response","trial_index":19,"time_elapsed":467068,"internal_node_id":"0.0-4.0-0.6","subject_id":"602ba62750c603308389e87f","study_id":"6197b3f67c2b5cd3b6d9596a","session_id":"6197bc6d1674e1427ce151bd","condition":"contingent","relevant_dimensions":["pattern","legs"],"bee_group":{"antennae":"X","wings":"X","pattern":"S","legs":"M"},"action":"harvest","summary":"good-harvest","bonus":1.6800000000000013},{"rt":13125.90000000596,"stimulus":"\n                    <p><b>Action: <em>harvest</em></b></p>\n                    <p>This is the bee that you just saw.</p>\n                    <img src=\"bees-with-color/bee-B2SF.svg\" width=\"200\">\n                    <p><span class=\"greenText\"><b>Successful harvest!</b></span><br>Your pay has increased by $0.02. Your bonus pay is now $0.44.</p>\n            ","response":0,"trial_type":"html-button-response","trial_index":20,"time_elapsed":480195,"internal_node_id":"0.0-4.0-1.6","subject_id":"602ba62750c603308389e87f","study_id":"6197b3f67c2b5cd3b6d9596a","session_id":"6197bc6d1674e1427ce151bd","condition":"contingent","relevant_dimensions":["pattern","legs"],"bee_group":{"antennae":"X","wings":"X","pattern":"S","legs":"M"},"bonus":1.6800000000000013},{"rt":3418.800000011921,"stimulus":"bees-with-color/bee-A1DM.svg","response":0,"trial_type":"image-button-response","trial_index":21,"time_elapsed":483615,"internal_node_id":"0.0-4.0-0.7","subject_id":"602ba62750c603308389e87f","study_id":"6197b3f67c2b5cd3b6d9596a","session_id":"6197bc6d1674e1427ce151bd","condition":"contingent","relevant_dimensions":["pattern","legs"],"bee_group":{"antennae":"X","wings":"X","pattern":"S","legs":"M"},"action":"harvest","summary":"good-harvest","bonus":1.6800000000000013},{"rt":1374.7000000178814,"stimulus":"\n                    <p><b>Action: <em>harvest</em></b></p>\n                    <p>This is the bee that you just saw.</p>\n                    <img src=\"bees-with-color/bee-A1DM.svg\" width=\"200\">\n                    <p><span class=\"greenText\"><b>Successful harvest!</b></span><br>Your pay has increased by $0.02. Your bonus pay is now $0.46.</p>\n            ","response":0,"trial_type":"html-button-response","trial_index":22,"time_elapsed":484991,"internal_node_id":"0.0-4.0-1.7","subject_id":"602ba62750c603308389e87f","study_id":"6197b3f67c2b5cd3b6d9596a","session_id":"6197bc6d1674e1427ce151bd","condition":"contingent","relevant_dimensions":["pattern","legs"],"bee_group":{"antennae":"X","wings":"X","pattern":"S","legs":"M"},"bonus":1.6800000000000013},{"rt":4210.5,"stimulus":"bees-with-color/bee-A2DF.svg","response":0,"trial_type":"image-button-response","trial_index":23,"time_elapsed":489203,"internal_node_id":"0.0-4.0-0.8","subject_id":"602ba62750c603308389e87f","study_id":"6197b3f67c2b5cd3b6d9596a","session_id":"6197bc6d1674e1427ce151bd","condition":"contingent","relevant_dimensions":["pattern","legs"],"bee_group":{"antennae":"X","wings":"X","pattern":"S","legs":"M"},"action":"harvest","summary":"good-harvest","bonus":1.6800000000000013},{"rt":1136,"stimulus":"\n                    <p><b>Action: <em>harvest</em></b></p>\n                    <p>This is the bee that you just saw.</p>\n                    <img src=\"bees-with-color/bee-A2DF.svg\" width=\"200\">\n                    <p><span class=\"greenText\"><b>Successful harvest!</b></span><br>Your pay has increased by $0.02. Your bonus pay is now $0.48.</p>\n            ","response":0,"trial_type":"html-button-response","trial_index":24,"time_elapsed":490340,"internal_node_id":"0.0-4.0-1.8","subject_id":"602ba62750c603308389e87f","study_id":"6197b3f67c2b5cd3b6d9596a","session_id":"6197bc6d1674e1427ce151bd","condition":"contingent","relevant_dimensions":["pattern","legs"],"bee_group":{"antennae":"X","wings":"X","pattern":"S","legs":"M"},"bonus":1.6800000000000013},{"rt":1745.800000011921,"stimulus":"bees-with-color/bee-B1DM.svg","response":0,"trial_type":"image-button-response","trial_index":25,"time_elapsed":492087,"internal_node_id":"0.0-4.0-0.9","subject_id":"602ba62750c603308389e87f","study_id":"6197b3f67c2b5cd3b6d9596a","session_id":"6197bc6d1674e1427ce151bd","condition":"contingent","relevant_dimensions":["pattern","legs"],"bee_group":{"antennae":"X","wings":"X","pattern":"S","legs":"M"},"action":"harvest","summary":"good-harvest","bonus":1.6800000000000013},{"rt":1135,"stimulus":"\n                    <p><b>Action: <em>harvest</em></b></p>\n                    <p>This is the bee that you just saw.</p>\n                    <img src=\"bees-with-color/bee-B1DM.svg\" width=\"200\">\n                    <p><span class=\"greenText\"><b>Successful harvest!</b></span><br>Your pay has increased by $0.02. Your bonus pay is now $0.50.</p>\n            ","response":0,"trial_type":"html-button-response","trial_index":26,"time_elapsed":493223,"internal_node_id":"0.0-4.0-1.9","subject_id":"602ba62750c603308389e87f","study_id":"6197b3f67c2b5cd3b6d9596a","session_id":"6197bc6d1674e1427ce151bd","condition":"contingent","relevant_dimensions":["pattern","legs"],"bee_group":{"antennae":"X","wings":"X","pattern":"S","legs":"M"},"bonus":1.6800000000000013},{"rt":2172,"stimulus":"bees-with-color/bee-B2DM.svg","response":0,"trial_type":"image-button-response","trial_index":27,"time_elapsed":495396,"internal_node_id":"0.0-4.0-0.10","subject_id":"602ba62750c603308389e87f","study_id":"6197b3f67c2b5cd3b6d9596a","session_id":"6197bc6d1674e1427ce151bd","condition":"contingent","relevant_dimensions":["pattern","legs"],"bee_group":{"antennae":"X","wings":"X","pattern":"S","legs":"M"},"action":"harvest","summary":"good-harvest","bonus":1.6800000000000013},{"rt":1027.9000000059605,"stimulus":"\n                    <p><b>Action: <em>harvest</em></b></p>\n                    <p>This is the bee that you just saw.</p>\n                    <img src=\"bees-with-color/bee-B2DM.svg\" width=\"200\">\n                    <p><span class=\"greenText\"><b>Successful harvest!</b></span><br>Your pay has increased by $0.02. Your bonus pay is now $0.52.</p>\n            ","response":0,"trial_type":"html-button-response","trial_index":28,"time_elapsed":496425,"internal_node_id":"0.0-4.0-1.10","subject_id":"602ba62750c603308389e87f","study_id":"6197b3f67c2b5cd3b6d9596a","session_id":"6197bc6d1674e1427ce151bd","condition":"contingent","relevant_dimensions":["pattern","legs"],"bee_group":{"antennae":"X","wings":"X","pattern":"S","legs":"M"},"bonus":1.6800000000000013},{"rt":2658.9000000059605,"stimulus":"bees-with-color/bee-A2SF.svg","response":0,"trial_type":"image-button-response","trial_index":29,"time_elapsed":499085,"internal_node_id":"0.0-4.0-0.11","subject_id":"602ba62750c603308389e87f","study_id":"6197b3f67c2b5cd3b6d9596a","session_id":"6197bc6d1674e1427ce151bd","condition":"contingent","relevant_dimensions":["pattern","legs"],"bee_group":{"antennae":"X","wings":"X","pattern":"S","legs":"M"},"action":"harvest","summary":"good-harvest","bonus":1.6800000000000013},{"rt":1076,"stimulus":"\n                    <p><b>Action: <em>harvest</em></b></p>\n                    <p>This is the bee that you just saw.</p>\n                    <img src=\"bees-with-color/bee-A2SF.svg\" width=\"200\">\n                    <p><span class=\"greenText\"><b>Successful harvest!</b></span><br>Your pay has increased by $0.02. Your bonus pay is now $0.54.</p>\n            ","response":0,"trial_type":"html-button-response","trial_index":30,"time_elapsed":500162,"internal_node_id":"0.0-4.0-1.11","subject_id":"602ba62750c603308389e87f","study_id":"6197b3f67c2b5cd3b6d9596a","session_id":"6197bc6d1674e1427ce151bd","condition":"contingent","relevant_dimensions":["pattern","legs"],"bee_group":{"antennae":"X","wings":"X","pattern":"S","legs":"M"},"bonus":1.6800000000000013},{"rt":2188.9000000059605,"stimulus":"bees-with-color/bee-B2SM.svg","response":0,"trial_type":"image-button-response","trial_index":31,"time_elapsed":502352,"internal_node_id":"0.0-4.0-0.12","subject_id":"602ba62750c603308389e87f","study_id":"6197b3f67c2b5cd3b6d9596a","session_id":"6197bc6d1674e1427ce151bd","condition":"contingent","relevant_dimensions":["pattern","legs"],"bee_group":{"antennae":"X","wings":"X","pattern":"S","legs":"M"},"action":"harvest","summary":"bad-harvest","bonus":1.6800000000000013},{"rt":1275.800000011921,"stimulus":"\n                    <p><b>Action: <em>harvest</em></b></p>\n                    <p>This is the bee that you just saw.</p>\n                    <img src=\"bees-with-color/bee-B2SM.svg\" width=\"200\">\n                    <p><span class=\"redText\">Bad choice, the bee was angry.</span><br><b>You have been stung!</b><br>Your pay has been decreased by $0.10. Your bonus pay is now $0.44.</p>\n            ","response":0,"trial_type":"html-button-response","trial_index":32,"time_elapsed":503629,"internal_node_id":"0.0-4.0-1.12","subject_id":"602ba62750c603308389e87f","study_id":"6197b3f67c2b5cd3b6d9596a","session_id":"6197bc6d1674e1427ce151bd","condition":"contingent","relevant_dimensions":["pattern","legs"],"bee_group":{"antennae":"X","wings":"X","pattern":"S","legs":"M"},"bonus":1.6800000000000013},{"rt":1615.9000000059605,"stimulus":"bees-with-color/bee-A1SF.svg","response":0,"trial_type":"image-button-response","trial_index":33,"time_elapsed":505246,"internal_node_id":"0.0-4.0-0.13","subject_id":"602ba62750c603308389e87f","study_id":"6197b3f67c2b5cd3b6d9596a","session_id":"6197bc6d1674e1427ce151bd","condition":"contingent","relevant_dimensions":["pattern","legs"],"bee_group":{"antennae":"X","wings":"X","pattern":"S","legs":"M"},"action":"harvest","summary":"good-harvest","bonus":1.6800000000000013},{"rt":1050,"stimulus":"\n                    <p><b>Action: <em>harvest</em></b></p>\n                    <p>This is the bee that you just saw.</p>\n                    <img src=\"bees-with-color/bee-A1SF.svg\" width=\"200\">\n                    <p><span class=\"greenText\"><b>Successful harvest!</b></span><br>Your pay has increased by $0.02. Your bonus pay is now $0.46.</p>\n            ","response":0,"trial_type":"html-button-response","trial_index":34,"time_elapsed":506297,"internal_node_id":"0.0-4.0-1.13","subject_id":"602ba62750c603308389e87f","study_id":"6197b3f67c2b5cd3b6d9596a","session_id":"6197bc6d1674e1427ce151bd","condition":"contingent","relevant_dimensions":["pattern","legs"],"bee_group":{"antennae":"X","wings":"X","pattern":"S","legs":"M"},"bonus":1.6800000000000013},{"rt":2600.5,"stimulus":"bees-with-color/bee-B1SM.svg","response":1,"trial_type":"image-button-response","trial_index":35,"time_elapsed":508899,"internal_node_id":"0.0-4.0-0.14","subject_id":"602ba62750c603308389e87f","study_id":"6197b3f67c2b5cd3b6d9596a","session_id":"6197bc6d1674e1427ce151bd","condition":"contingent","relevant_dimensions":["pattern","legs"],"bee_group":{"antennae":"X","wings":"X","pattern":"S","legs":"M"},"action":"avoid","summary":"good-avoid","bonus":1.6800000000000013},{"rt":2428.9000000059605,"stimulus":"\n                    <p><b>Action: <em>avoid</em></b></p>\n                    <p>This is the bee that you just saw.</p>\n                    <img src=\"bees-with-color/bee-B1SM.svg\" width=\"200\">\n                    <p><br>Your bonus pay is unchanged, and remains at $0.46.</p>\n            ","response":0,"trial_type":"html-button-response","trial_index":36,"time_elapsed":511329,"internal_node_id":"0.0-4.0-1.14","subject_id":"602ba62750c603308389e87f","study_id":"6197b3f67c2b5cd3b6d9596a","session_id":"6197bc6d1674e1427ce151bd","condition":"contingent","relevant_dimensions":["pattern","legs"],"bee_group":{"antennae":"X","wings":"X","pattern":"S","legs":"M"},"bonus":1.6800000000000013},{"rt":2803.7000000178814,"stimulus":"bees-with-color/bee-B2DF.svg","response":0,"trial_type":"image-button-response","trial_index":37,"time_elapsed":514134,"internal_node_id":"0.0-4.0-0.15","subject_id":"602ba62750c603308389e87f","study_id":"6197b3f67c2b5cd3b6d9596a","session_id":"6197bc6d1674e1427ce151bd","condition":"contingent","relevant_dimensions":["pattern","legs"],"bee_group":{"antennae":"X","wings":"X","pattern":"S","legs":"M"},"action":"harvest","summary":"good-harvest","bonus":1.6800000000000013},{"rt":1067,"stimulus":"\n                    <p><b>Action: <em>harvest</em></b></p>\n                    <p>This is the bee that you just saw.</p>\n                    <img src=\"bees-with-color/bee-B2DF.svg\" width=\"200\">\n                    <p><span class=\"greenText\"><b>Successful harvest!</b></span><br>Your pay has increased by $0.02. Your bonus pay is now $0.48.</p>\n            ","response":0,"trial_type":"html-button-response","trial_index":38,"time_elapsed":515202,"internal_node_id":"0.0-4.0-1.15","subject_id":"602ba62750c603308389e87f","study_id":"6197b3f67c2b5cd3b6d9596a","session_id":"6197bc6d1674e1427ce151bd","condition":"contingent","relevant_dimensions":["pattern","legs"],"bee_group":{"antennae":"X","wings":"X","pattern":"S","legs":"M"},"bonus":1.6800000000000013},{"rt":1859.9000000059605,"stimulus":"bees-with-color/bee-A1SF.svg","response":0,"trial_type":"image-button-response","trial_index":39,"time_elapsed":517063,"internal_node_id":"0.0-4.0-0.16","subject_id":"602ba62750c603308389e87f","study_id":"6197b3f67c2b5cd3b6d9596a","session_id":"6197bc6d1674e1427ce151bd","condition":"contingent","relevant_dimensions":["pattern","legs"],"bee_group":{"antennae":"X","wings":"X","pattern":"S","legs":"M"},"action":"harvest","summary":"good-harvest","bonus":1.6800000000000013},{"rt":1061,"stimulus":"\n                    <p><b>Action: <em>harvest</em></b></p>\n                    <p>This is the bee that you just saw.</p>\n                    <img src=\"bees-with-color/bee-A1SF.svg\" width=\"200\">\n                    <p><span class=\"greenText\"><b>Successful harvest!</b></span><br>Your pay has increased by $0.02. Your bonus pay is now $0.50.</p>\n            ","response":0,"trial_type":"html-button-response","trial_index":40,"time_elapsed":518125,"internal_node_id":"0.0-4.0-1.16","subject_id":"602ba62750c603308389e87f","study_id":"6197b3f67c2b5cd3b6d9596a","session_id":"6197bc6d1674e1427ce151bd","condition":"contingent","relevant_dimensions":["pattern","legs"],"bee_group":{"antennae":"X","wings":"X","pattern":"S","legs":"M"},"bonus":1.6800000000000013},{"rt":2190.9000000059605,"stimulus":"bees-with-color/bee-B1DM.svg","response":0,"trial_type":"image-button-response","trial_index":41,"time_elapsed":520317,"internal_node_id":"0.0-4.0-0.17","subject_id":"602ba62750c603308389e87f","study_id":"6197b3f67c2b5cd3b6d9596a","session_id":"6197bc6d1674e1427ce151bd","condition":"contingent","relevant_dimensions":["pattern","legs"],"bee_group":{"antennae":"X","wings":"X","pattern":"S","legs":"M"},"action":"harvest","summary":"good-harvest","bonus":1.6800000000000013},{"rt":1067.0999999940395,"stimulus":"\n                    <p><b>Action: <em>harvest</em></b></p>\n                    <p>This is the bee that you just saw.</p>\n                    <img src=\"bees-with-color/bee-B1DM.svg\" width=\"200\">\n                    <p><span class=\"greenText\"><b>Successful harvest!</b></span><br>Your pay has increased by $0.02. Your bonus pay is now $0.52.</p>\n            ","response":0,"trial_type":"html-button-response","trial_index":42,"time_elapsed":521385,"internal_node_id":"0.0-4.0-1.17","subject_id":"602ba62750c603308389e87f","study_id":"6197b3f67c2b5cd3b6d9596a","session_id":"6197bc6d1674e1427ce151bd","condition":"contingent","relevant_dimensions":["pattern","legs"],"bee_group":{"antennae":"X","wings":"X","pattern":"S","legs":"M"},"bonus":1.6800000000000013},{"rt":1702.9000000059605,"stimulus":"bees-with-color/bee-B2SM.svg","response":1,"trial_type":"image-button-response","trial_index":43,"time_elapsed":523089,"internal_node_id":"0.0-4.0-0.18","subject_id":"602ba62750c603308389e87f","study_id":"6197b3f67c2b5cd3b6d9596a","session_id":"6197bc6d1674e1427ce151bd","condition":"contingent","relevant_dimensions":["pattern","legs"],"bee_group":{"antennae":"X","wings":"X","pattern":"S","legs":"M"},"action":"avoid","summary":"good-avoid","bonus":1.6800000000000013},{"rt":1108,"stimulus":"\n                    <p><b>Action: <em>avoid</em></b></p>\n                    <p>This is the bee that you just saw.</p>\n                    <img src=\"bees-with-color/bee-B2SM.svg\" width=\"200\">\n                    <p><br>Your bonus pay is unchanged, and remains at $0.52.</p>\n            ","response":0,"trial_type":"html-button-response","trial_index":44,"time_elapsed":524198,"internal_node_id":"0.0-4.0-1.18","subject_id":"602ba62750c603308389e87f","study_id":"6197b3f67c2b5cd3b6d9596a","session_id":"6197bc6d1674e1427ce151bd","condition":"contingent","relevant_dimensions":["pattern","legs"],"bee_group":{"antennae":"X","wings":"X","pattern":"S","legs":"M"},"bonus":1.6800000000000013},{"rt":1966.0999999940395,"stimulus":"bees-with-color/bee-A2DF.svg","response":0,"trial_type":"image-button-response","trial_index":45,"time_elapsed":526165,"internal_node_id":"0.0-4.0-0.19","subject_id":"602ba62750c603308389e87f","study_id":"6197b3f67c2b5cd3b6d9596a","session_id":"6197bc6d1674e1427ce151bd","condition":"contingent","relevant_dimensions":["pattern","legs"],"bee_group":{"antennae":"X","wings":"X","pattern":"S","legs":"M"},"action":"harvest","summary":"good-harvest","bonus":1.6800000000000013},{"rt":981.9000000059605,"stimulus":"\n                    <p><b>Action: <em>harvest</em></b></p>\n                    <p>This is the bee that you just saw.</p>\n                    <img src=\"bees-with-color/bee-A2DF.svg\" width=\"200\">\n                    <p><span class=\"greenText\"><b>Successful harvest!</b></span><br>Your pay has increased by $0.02. Your bonus pay is now $0.54.</p>\n            ","response":0,"trial_type":"html-button-response","trial_index":46,"time_elapsed":527148,"internal_node_id":"0.0-4.0-1.19","subject_id":"602ba62750c603308389e87f","study_id":"6197b3f67c2b5cd3b6d9596a","session_id":"6197bc6d1674e1427ce151bd","condition":"contingent","relevant_dimensions":["pattern","legs"],"bee_group":{"antennae":"X","wings":"X","pattern":"S","legs":"M"},"bonus":1.6800000000000013},{"rt":1379.800000011921,"stimulus":"bees-with-color/bee-B2DM.svg","response":0,"trial_type":"image-button-response","trial_index":47,"time_elapsed":528529,"internal_node_id":"0.0-4.0-0.20","subject_id":"602ba62750c603308389e87f","study_id":"6197b3f67c2b5cd3b6d9596a","session_id":"6197bc6d1674e1427ce151bd","condition":"contingent","relevant_dimensions":["pattern","legs"],"bee_group":{"antennae":"X","wings":"X","pattern":"S","legs":"M"},"action":"harvest","summary":"good-harvest","bonus":1.6800000000000013},{"rt":959.0999999940395,"stimulus":"\n                    <p><b>Action: <em>harvest</em></b></p>\n                    <p>This is the bee that you just saw.</p>\n                    <img src=\"bees-with-color/bee-B2DM.svg\" width=\"200\">\n                    <p><span class=\"greenText\"><b>Successful harvest!</b></span><br>Your pay has increased by $0.02. Your bonus pay is now $0.56.</p>\n            ","response":0,"trial_type":"html-button-response","trial_index":48,"time_elapsed":529489,"internal_node_id":"0.0-4.0-1.20","subject_id":"602ba62750c603308389e87f","study_id":"6197b3f67c2b5cd3b6d9596a","session_id":"6197bc6d1674e1427ce151bd","condition":"contingent","relevant_dimensions":["pattern","legs"],"bee_group":{"antennae":"X","wings":"X","pattern":"S","legs":"M"},"bonus":1.6800000000000013},{"rt":1636.9000000059605,"stimulus":"bees-with-color/bee-A2DM.svg","response":0,"trial_type":"image-button-response","trial_index":49,"time_elapsed":531127,"internal_node_id":"0.0-4.0-0.21","subject_id":"602ba62750c603308389e87f","study_id":"6197b3f67c2b5cd3b6d9596a","session_id":"6197bc6d1674e1427ce151bd","condition":"contingent","relevant_dimensions":["pattern","legs"],"bee_group":{"antennae":"X","wings":"X","pattern":"S","legs":"M"},"action":"harvest","summary":"good-harvest","bonus":1.6800000000000013},{"rt":1143.9000000059605,"stimulus":"\n                    <p><b>Action: <em>harvest</em></b></p>\n                    <p>This is the bee that you just saw.</p>\n                    <img src=\"bees-with-color/bee-A2DM.svg\" width=\"200\">\n                    <p><span class=\"greenText\"><b>Successful harvest!</b></span><br>Your pay has increased by $0.02. Your bonus pay is now $0.58.</p>\n            ","response":0,"trial_type":"html-button-response","trial_index":50,"time_elapsed":532272,"internal_node_id":"0.0-4.0-1.21","subject_id":"602ba62750c603308389e87f","study_id":"6197b3f67c2b5cd3b6d9596a","session_id":"6197bc6d1674e1427ce151bd","condition":"contingent","relevant_dimensions":["pattern","legs"],"bee_group":{"antennae":"X","wings":"X","pattern":"S","legs":"M"},"bonus":1.6800000000000013},{"rt":1414,"stimulus":"bees-with-color/bee-B1SF.svg","response":0,"trial_type":"image-button-response","trial_index":51,"time_elapsed":533687,"internal_node_id":"0.0-4.0-0.22","subject_id":"602ba62750c603308389e87f","study_id":"6197b3f67c2b5cd3b6d9596a","session_id":"6197bc6d1674e1427ce151bd","condition":"contingent","relevant_dimensions":["pattern","legs"],"bee_group":{"antennae":"X","wings":"X","pattern":"S","legs":"M"},"action":"harvest","summary":"good-harvest","bonus":1.6800000000000013},{"rt":1161.800000011921,"stimulus":"\n                    <p><b>Action: <em>harvest</em></b></p>\n                    <p>This is the bee that you just saw.</p>\n                    <img src=\"bees-with-color/bee-B1SF.svg\" width=\"200\">\n                    <p><span class=\"greenText\"><b>Successful harvest!</b></span><br>Your pay has increased by $0.02. Your bonus pay is now $0.60.</p>\n            ","response":0,"trial_type":"html-button-response","trial_index":52,"time_elapsed":534850,"internal_node_id":"0.0-4.0-1.22","subject_id":"602ba62750c603308389e87f","study_id":"6197b3f67c2b5cd3b6d9596a","session_id":"6197bc6d1674e1427ce151bd","condition":"contingent","relevant_dimensions":["pattern","legs"],"bee_group":{"antennae":"X","wings":"X","pattern":"S","legs":"M"},"bonus":1.6800000000000013},{"rt":2011.9000000059605,"stimulus":"bees-with-color/bee-A2SM.svg","response":1,"trial_type":"image-button-response","trial_index":53,"time_elapsed":536863,"internal_node_id":"0.0-4.0-0.23","subject_id":"602ba62750c603308389e87f","study_id":"6197b3f67c2b5cd3b6d9596a","session_id":"6197bc6d1674e1427ce151bd","condition":"contingent","relevant_dimensions":["pattern","legs"],"bee_group":{"antennae":"X","wings":"X","pattern":"S","legs":"M"},"action":"avoid","summary":"good-avoid","bonus":1.6800000000000013},{"rt":901.0999999940395,"stimulus":"\n                    <p><b>Action: <em>avoid</em></b></p>\n                    <p>This is the bee that you just saw.</p>\n                    <img src=\"bees-with-color/bee-A2SM.svg\" width=\"200\">\n                    <p><br>Your bonus pay is unchanged, and remains at $0.60.</p>\n            ","response":0,"trial_type":"html-button-response","trial_index":54,"time_elapsed":537765,"internal_node_id":"0.0-4.0-1.23","subject_id":"602ba62750c603308389e87f","study_id":"6197b3f67c2b5cd3b6d9596a","session_id":"6197bc6d1674e1427ce151bd","condition":"contingent","relevant_dimensions":["pattern","legs"],"bee_group":{"antennae":"X","wings":"X","pattern":"S","legs":"M"},"bonus":1.6800000000000013},{"rt":3763.100000023842,"stimulus":"bees-with-color/bee-A1DM.svg","response":0,"trial_type":"image-button-response","trial_index":55,"time_elapsed":541529,"internal_node_id":"0.0-4.0-0.24","subject_id":"602ba62750c603308389e87f","study_id":"6197b3f67c2b5cd3b6d9596a","session_id":"6197bc6d1674e1427ce151bd","condition":"contingent","relevant_dimensions":["pattern","legs"],"bee_group":{"antennae":"X","wings":"X","pattern":"S","legs":"M"},"action":"harvest","summary":"good-harvest","bonus":1.6800000000000013},{"rt":846.1999999880791,"stimulus":"\n                    <p><b>Action: <em>harvest</em></b></p>\n                    <p>This is the bee that you just saw.</p>\n                    <img src=\"bees-with-color/bee-A1DM.svg\" width=\"200\">\n                    <p><span class=\"greenText\"><b>Successful harvest!</b></span><br>Your pay has increased by $0.02. Your bonus pay is now $0.62.</p>\n            ","response":0,"trial_type":"html-button-response","trial_index":56,"time_elapsed":542376,"internal_node_id":"0.0-4.0-1.24","subject_id":"602ba62750c603308389e87f","study_id":"6197b3f67c2b5cd3b6d9596a","session_id":"6197bc6d1674e1427ce151bd","condition":"contingent","relevant_dimensions":["pattern","legs"],"bee_group":{"antennae":"X","wings":"X","pattern":"S","legs":"M"},"bonus":1.6800000000000013},{"rt":1333.9000000059605,"stimulus":"bees-with-color/bee-B1SM.svg","response":1,"trial_type":"image-button-response","trial_index":57,"time_elapsed":543711,"internal_node_id":"0.0-4.0-0.25","subject_id":"602ba62750c603308389e87f","study_id":"6197b3f67c2b5cd3b6d9596a","session_id":"6197bc6d1674e1427ce151bd","condition":"contingent","relevant_dimensions":["pattern","legs"],"bee_group":{"antennae":"X","wings":"X","pattern":"S","legs":"M"},"action":"avoid","summary":"good-avoid","bonus":1.6800000000000013},{"rt":897.0999999940395,"stimulus":"\n                    <p><b>Action: <em>avoid</em></b></p>\n                    <p>This is the bee that you just saw.</p>\n                    <img src=\"bees-with-color/bee-B1SM.svg\" width=\"200\">\n                    <p><br>Your bonus pay is unchanged, and remains at $0.62.</p>\n            ","response":0,"trial_type":"html-button-response","trial_index":58,"time_elapsed":544609,"internal_node_id":"0.0-4.0-1.25","subject_id":"602ba62750c603308389e87f","study_id":"6197b3f67c2b5cd3b6d9596a","session_id":"6197bc6d1674e1427ce151bd","condition":"contingent","relevant_dimensions":["pattern","legs"],"bee_group":{"antennae":"X","wings":"X","pattern":"S","legs":"M"},"bonus":1.6800000000000013},{"rt":1494.9000000059605,"stimulus":"bees-with-color/bee-A1SM.svg","response":1,"trial_type":"image-button-response","trial_index":59,"time_elapsed":546105,"internal_node_id":"0.0-4.0-0.26","subject_id":"602ba62750c603308389e87f","study_id":"6197b3f67c2b5cd3b6d9596a","session_id":"6197bc6d1674e1427ce151bd","condition":"contingent","relevant_dimensions":["pattern","legs"],"bee_group":{"antennae":"X","wings":"X","pattern":"S","legs":"M"},"action":"avoid","summary":"good-avoid","bonus":1.6800000000000013},{"rt":887.8000000119209,"stimulus":"\n                    <p><b>Action: <em>avoid</em></b></p>\n                    <p>This is the bee that you just saw.</p>\n                    <img src=\"bees-with-color/bee-A1SM.svg\" width=\"200\">\n                    <p><br>Your bonus pay is unchanged, and remains at $0.62.</p>\n            ","response":0,"trial_type":"html-button-response","trial_index":60,"time_elapsed":546994,"internal_node_id":"0.0-4.0-1.26","subject_id":"602ba62750c603308389e87f","study_id":"6197b3f67c2b5cd3b6d9596a","session_id":"6197bc6d1674e1427ce151bd","condition":"contingent","relevant_dimensions":["pattern","legs"],"bee_group":{"antennae":"X","wings":"X","pattern":"S","legs":"M"},"bonus":1.6800000000000013},{"rt":1164.0999999940395,"stimulus":"bees-with-color/bee-A1DF.svg","response":0,"trial_type":"image-button-response","trial_index":61,"time_elapsed":548159,"internal_node_id":"0.0-4.0-0.27","subject_id":"602ba62750c603308389e87f","study_id":"6197b3f67c2b5cd3b6d9596a","session_id":"6197bc6d1674e1427ce151bd","condition":"contingent","relevant_dimensions":["pattern","legs"],"bee_group":{"antennae":"X","wings":"X","pattern":"S","legs":"M"},"action":"harvest","summary":"good-harvest","bonus":1.6800000000000013},{"rt":916,"stimulus":"\n                    <p><b>Action: <em>harvest</em></b></p>\n                    <p>This is the bee that you just saw.</p>\n                    <img src=\"bees-with-color/bee-A1DF.svg\" width=\"200\">\n                    <p><span class=\"greenText\"><b>Successful harvest!</b></span><br>Your pay has increased by $0.02. Your bonus pay is now $0.64.</p>\n            ","response":0,"trial_type":"html-button-response","trial_index":62,"time_elapsed":549076,"internal_node_id":"0.0-4.0-1.27","subject_id":"602ba62750c603308389e87f","study_id":"6197b3f67c2b5cd3b6d9596a","session_id":"6197bc6d1674e1427ce151bd","condition":"contingent","relevant_dimensions":["pattern","legs"],"bee_group":{"antennae":"X","wings":"X","pattern":"S","legs":"M"},"bonus":1.6800000000000013},{"rt":1101.9000000059605,"stimulus":"bees-with-color/bee-B1DF.svg","response":0,"trial_type":"image-button-response","trial_index":63,"time_elapsed":550179,"internal_node_id":"0.0-4.0-0.28","subject_id":"602ba62750c603308389e87f","study_id":"6197b3f67c2b5cd3b6d9596a","session_id":"6197bc6d1674e1427ce151bd","condition":"contingent","relevant_dimensions":["pattern","legs"],"bee_group":{"antennae":"X","wings":"X","pattern":"S","legs":"M"},"action":"harvest","summary":"good-harvest","bonus":1.6800000000000013},{"rt":903.9000000059605,"stimulus":"\n                    <p><b>Action: <em>harvest</em></b></p>\n                    <p>This is the bee that you just saw.</p>\n                    <img src=\"bees-with-color/bee-B1DF.svg\" width=\"200\">\n                    <p><span class=\"greenText\"><b>Successful harvest!</b></span><br>Your pay has increased by $0.02. Your bonus pay is now $0.66.</p>\n            ","response":0,"trial_type":"html-button-response","trial_index":64,"time_elapsed":551084,"internal_node_id":"0.0-4.0-1.28","subject_id":"602ba62750c603308389e87f","study_id":"6197b3f67c2b5cd3b6d9596a","session_id":"6197bc6d1674e1427ce151bd","condition":"contingent","relevant_dimensions":["pattern","legs"],"bee_group":{"antennae":"X","wings":"X","pattern":"S","legs":"M"},"bonus":1.6800000000000013},{"rt":1233,"stimulus":"bees-with-color/bee-A2SF.svg","response":0,"trial_type":"image-button-response","trial_index":65,"time_elapsed":552318,"internal_node_id":"0.0-4.0-0.29","subject_id":"602ba62750c603308389e87f","study_id":"6197b3f67c2b5cd3b6d9596a","session_id":"6197bc6d1674e1427ce151bd","condition":"contingent","relevant_dimensions":["pattern","legs"],"bee_group":{"antennae":"X","wings":"X","pattern":"S","legs":"M"},"action":"harvest","summary":"good-harvest","bonus":1.6800000000000013},{"rt":899.9000000059605,"stimulus":"\n                    <p><b>Action: <em>harvest</em></b></p>\n                    <p>This is the bee that you just saw.</p>\n                    <img src=\"bees-with-color/bee-A2SF.svg\" width=\"200\">\n                    <p><span class=\"greenText\"><b>Successful harvest!</b></span><br>Your pay has increased by $0.02. Your bonus pay is now $0.68.</p>\n            ","response":0,"trial_type":"html-button-response","trial_index":66,"time_elapsed":553219,"internal_node_id":"0.0-4.0-1.29","subject_id":"602ba62750c603308389e87f","study_id":"6197b3f67c2b5cd3b6d9596a","session_id":"6197bc6d1674e1427ce151bd","condition":"contingent","relevant_dimensions":["pattern","legs"],"bee_group":{"antennae":"X","wings":"X","pattern":"S","legs":"M"},"bonus":1.6800000000000013},{"rt":1008.0999999940395,"stimulus":"bees-with-color/bee-B2DF.svg","response":0,"trial_type":"image-button-response","trial_index":67,"time_elapsed":554228,"internal_node_id":"0.0-4.0-0.30","subject_id":"602ba62750c603308389e87f","study_id":"6197b3f67c2b5cd3b6d9596a","session_id":"6197bc6d1674e1427ce151bd","condition":"contingent","relevant_dimensions":["pattern","legs"],"bee_group":{"antennae":"X","wings":"X","pattern":"S","legs":"M"},"action":"harvest","summary":"good-harvest","bonus":1.6800000000000013},{"rt":854.9000000059605,"stimulus":"\n                    <p><b>Action: <em>harvest</em></b></p>\n                    <p>This is the bee that you just saw.</p>\n                    <img src=\"bees-with-color/bee-B2DF.svg\" width=\"200\">\n                    <p><span class=\"greenText\"><b>Successful harvest!</b></span><br>Your pay has increased by $0.02. Your bonus pay is now $0.70.</p>\n            ","response":0,"trial_type":"html-button-response","trial_index":68,"time_elapsed":555084,"internal_node_id":"0.0-4.0-1.30","subject_id":"602ba62750c603308389e87f","study_id":"6197b3f67c2b5cd3b6d9596a","session_id":"6197bc6d1674e1427ce151bd","condition":"contingent","relevant_dimensions":["pattern","legs"],"bee_group":{"antennae":"X","wings":"X","pattern":"S","legs":"M"},"bonus":1.6800000000000013},{"rt":1503.9000000059605,"stimulus":"bees-with-color/bee-B2SF.svg","response":0,"trial_type":"image-button-response","trial_index":69,"time_elapsed":556589,"internal_node_id":"0.0-4.0-0.31","subject_id":"602ba62750c603308389e87f","study_id":"6197b3f67c2b5cd3b6d9596a","session_id":"6197bc6d1674e1427ce151bd","condition":"contingent","relevant_dimensions":["pattern","legs"],"bee_group":{"antennae":"X","wings":"X","pattern":"S","legs":"M"},"action":"harvest","summary":"good-harvest","bonus":1.6800000000000013},{"rt":741,"stimulus":"\n                    <p><b>Action: <em>harvest</em></b></p>\n                    <p>This is the bee that you just saw.</p>\n                    <img src=\"bees-with-color/bee-B2SF.svg\" width=\"200\">\n                    <p><span class=\"greenText\"><b>Successful harvest!</b></span><br>Your pay has increased by $0.02. Your bonus pay is now $0.72.</p>\n            ","response":0,"trial_type":"html-button-response","trial_index":70,"time_elapsed":557331,"internal_node_id":"0.0-4.0-1.31","subject_id":"602ba62750c603308389e87f","study_id":"6197b3f67c2b5cd3b6d9596a","session_id":"6197bc6d1674e1427ce151bd","condition":"contingent","relevant_dimensions":["pattern","legs"],"bee_group":{"antennae":"X","wings":"X","pattern":"S","legs":"M"},"bonus":1.6800000000000013},{"rt":1219.199999988079,"stimulus":"bees-with-color/bee-A1DM.svg","response":0,"trial_type":"image-button-response","trial_index":71,"time_elapsed":558551,"internal_node_id":"0.0-4.0-0.32","subject_id":"602ba62750c603308389e87f","study_id":"6197b3f67c2b5cd3b6d9596a","session_id":"6197bc6d1674e1427ce151bd","condition":"contingent","relevant_dimensions":["pattern","legs"],"bee_group":{"antennae":"X","wings":"X","pattern":"S","legs":"M"},"action":"harvest","summary":"good-harvest","bonus":1.6800000000000013},{"rt":678.0999999940395,"stimulus":"\n                    <p><b>Action: <em>harvest</em></b></p>\n                    <p>This is the bee that you just saw.</p>\n                    <img src=\"bees-with-color/bee-A1DM.svg\" width=\"200\">\n                    <p><span class=\"greenText\"><b>Successful harvest!</b></span><br>Your pay has increased by $0.02. Your bonus pay is now $0.74.</p>\n            ","response":0,"trial_type":"html-button-response","trial_index":72,"time_elapsed":559230,"internal_node_id":"0.0-4.0-1.32","subject_id":"602ba62750c603308389e87f","study_id":"6197b3f67c2b5cd3b6d9596a","session_id":"6197bc6d1674e1427ce151bd","condition":"contingent","relevant_dimensions":["pattern","legs"],"bee_group":{"antennae":"X","wings":"X","pattern":"S","legs":"M"},"bonus":1.6800000000000013},{"rt":1032.199999988079,"stimulus":"bees-with-color/bee-A2DM.svg","response":0,"trial_type":"image-button-response","trial_index":73,"time_elapsed":560263,"internal_node_id":"0.0-4.0-0.33","subject_id":"602ba62750c603308389e87f","study_id":"6197b3f67c2b5cd3b6d9596a","session_id":"6197bc6d1674e1427ce151bd","condition":"contingent","relevant_dimensions":["pattern","legs"],"bee_group":{"antennae":"X","wings":"X","pattern":"S","legs":"M"},"action":"harvest","summary":"good-harvest","bonus":1.6800000000000013},{"rt":764.7000000178814,"stimulus":"\n                    <p><b>Action: <em>harvest</em></b></p>\n                    <p>This is the bee that you just saw.</p>\n                    <img src=\"bees-with-color/bee-A2DM.svg\" width=\"200\">\n                    <p><span class=\"greenText\"><b>Successful harvest!</b></span><br>Your pay has increased by $0.02. Your bonus pay is now $0.76.</p>\n            ","response":0,"trial_type":"html-button-response","trial_index":74,"time_elapsed":561029,"internal_node_id":"0.0-4.0-1.33","subject_id":"602ba62750c603308389e87f","study_id":"6197b3f67c2b5cd3b6d9596a","session_id":"6197bc6d1674e1427ce151bd","condition":"contingent","relevant_dimensions":["pattern","legs"],"bee_group":{"antennae":"X","wings":"X","pattern":"S","legs":"M"},"bonus":1.6800000000000013},{"rt":1555,"stimulus":"bees-with-color/bee-B2SM.svg","response":1,"trial_type":"image-button-response","trial_index":75,"time_elapsed":562585,"internal_node_id":"0.0-4.0-0.34","subject_id":"602ba62750c603308389e87f","study_id":"6197b3f67c2b5cd3b6d9596a","session_id":"6197bc6d1674e1427ce151bd","condition":"contingent","relevant_dimensions":["pattern","legs"],"bee_group":{"antennae":"X","wings":"X","pattern":"S","legs":"M"},"action":"avoid","summary":"good-avoid","bonus":1.6800000000000013},{"rt":1161,"stimulus":"\n                    <p><b>Action: <em>avoid</em></b></p>\n                    <p>This is the bee that you just saw.</p>\n                    <img src=\"bees-with-color/bee-B2SM.svg\" width=\"200\">\n                    <p><br>Your bonus pay is unchanged, and remains at $0.76.</p>\n            ","response":0,"trial_type":"html-button-response","trial_index":76,"time_elapsed":563747,"internal_node_id":"0.0-4.0-1.34","subject_id":"602ba62750c603308389e87f","study_id":"6197b3f67c2b5cd3b6d9596a","session_id":"6197bc6d1674e1427ce151bd","condition":"contingent","relevant_dimensions":["pattern","legs"],"bee_group":{"antennae":"X","wings":"X","pattern":"S","legs":"M"},"bonus":1.6800000000000013},{"rt":1286,"stimulus":"bees-with-color/bee-B1DF.svg","response":0,"trial_type":"image-button-response","trial_index":77,"time_elapsed":565034,"internal_node_id":"0.0-4.0-0.35","subject_id":"602ba62750c603308389e87f","study_id":"6197b3f67c2b5cd3b6d9596a","session_id":"6197bc6d1674e1427ce151bd","condition":"contingent","relevant_dimensions":["pattern","legs"],"bee_group":{"antennae":"X","wings":"X","pattern":"S","legs":"M"},"action":"harvest","summary":"good-harvest","bonus":1.6800000000000013},{"rt":798,"stimulus":"\n                    <p><b>Action: <em>harvest</em></b></p>\n                    <p>This is the bee that you just saw.</p>\n                    <img src=\"bees-with-color/bee-B1DF.svg\" width=\"200\">\n                    <p><span class=\"greenText\"><b>Successful harvest!</b></span><br>Your pay has increased by $0.02. Your bonus pay is now $0.78.</p>\n            ","response":0,"trial_type":"html-button-response","trial_index":78,"time_elapsed":565833,"internal_node_id":"0.0-4.0-1.35","subject_id":"602ba62750c603308389e87f","study_id":"6197b3f67c2b5cd3b6d9596a","session_id":"6197bc6d1674e1427ce151bd","condition":"contingent","relevant_dimensions":["pattern","legs"],"bee_group":{"antennae":"X","wings":"X","pattern":"S","legs":"M"},"bonus":1.6800000000000013},{"rt":3147,"stimulus":"bees-with-color/bee-A2DF.svg","response":0,"trial_type":"image-button-response","trial_index":79,"time_elapsed":568981,"internal_node_id":"0.0-4.0-0.36","subject_id":"602ba62750c603308389e87f","study_id":"6197b3f67c2b5cd3b6d9596a","session_id":"6197bc6d1674e1427ce151bd","condition":"contingent","relevant_dimensions":["pattern","legs"],"bee_group":{"antennae":"X","wings":"X","pattern":"S","legs":"M"},"action":"harvest","summary":"good-harvest","bonus":1.6800000000000013},{"rt":895,"stimulus":"\n                    <p><b>Action: <em>harvest</em></b></p>\n                    <p>This is the bee that you just saw.</p>\n                    <img src=\"bees-with-color/bee-A2DF.svg\" width=\"200\">\n                    <p><span class=\"greenText\"><b>Successful harvest!</b></span><br>Your pay has increased by $0.02. Your bonus pay is now $0.80.</p>\n            ","response":0,"trial_type":"html-button-response","trial_index":80,"time_elapsed":569877,"internal_node_id":"0.0-4.0-1.36","subject_id":"602ba62750c603308389e87f","study_id":"6197b3f67c2b5cd3b6d9596a","session_id":"6197bc6d1674e1427ce151bd","condition":"contingent","relevant_dimensions":["pattern","legs"],"bee_group":{"antennae":"X","wings":"X","pattern":"S","legs":"M"},"bonus":1.6800000000000013},{"rt":1144.699999988079,"stimulus":"bees-with-color/bee-A1SM.svg","response":1,"trial_type":"image-button-response","trial_index":81,"time_elapsed":571023,"internal_node_id":"0.0-4.0-0.37","subject_id":"602ba62750c603308389e87f","study_id":"6197b3f67c2b5cd3b6d9596a","session_id":"6197bc6d1674e1427ce151bd","condition":"contingent","relevant_dimensions":["pattern","legs"],"bee_group":{"antennae":"X","wings":"X","pattern":"S","legs":"M"},"action":"avoid","summary":"good-avoid","bonus":1.6800000000000013},{"rt":796.8000000119209,"stimulus":"\n                    <p><b>Action: <em>avoid</em></b></p>\n                    <p>This is the bee that you just saw.</p>\n                    <img src=\"bees-with-color/bee-A1SM.svg\" width=\"200\">\n                    <p><br>Your bonus pay is unchanged, and remains at $0.80.</p>\n            ","response":0,"trial_type":"html-button-response","trial_index":82,"time_elapsed":571821,"internal_node_id":"0.0-4.0-1.37","subject_id":"602ba62750c603308389e87f","study_id":"6197b3f67c2b5cd3b6d9596a","session_id":"6197bc6d1674e1427ce151bd","condition":"contingent","relevant_dimensions":["pattern","legs"],"bee_group":{"antennae":"X","wings":"X","pattern":"S","legs":"M"},"bonus":1.6800000000000013},{"rt":1130.800000011921,"stimulus":"bees-with-color/bee-A1DF.svg","response":0,"trial_type":"image-button-response","trial_index":83,"time_elapsed":572953,"internal_node_id":"0.0-4.0-0.38","subject_id":"602ba62750c603308389e87f","study_id":"6197b3f67c2b5cd3b6d9596a","session_id":"6197bc6d1674e1427ce151bd","condition":"contingent","relevant_dimensions":["pattern","legs"],"bee_group":{"antennae":"X","wings":"X","pattern":"S","legs":"M"},"action":"harvest","summary":"good-harvest","bonus":1.6800000000000013},{"rt":933.8000000119209,"stimulus":"\n                    <p><b>Action: <em>harvest</em></b></p>\n                    <p>This is the bee that you just saw.</p>\n                    <img src=\"bees-with-color/bee-A1DF.svg\" width=\"200\">\n                    <p><span class=\"greenText\"><b>Successful harvest!</b></span><br>Your pay has increased by $0.02. Your bonus pay is now $0.82.</p>\n            ","response":0,"trial_type":"html-button-response","trial_index":84,"time_elapsed":573888,"internal_node_id":"0.0-4.0-1.38","subject_id":"602ba62750c603308389e87f","study_id":"6197b3f67c2b5cd3b6d9596a","session_id":"6197bc6d1674e1427ce151bd","condition":"contingent","relevant_dimensions":["pattern","legs"],"bee_group":{"antennae":"X","wings":"X","pattern":"S","legs":"M"},"bonus":1.6800000000000013},{"rt":1329.199999988079,"stimulus":"bees-with-color/bee-B1SF.svg","response":0,"trial_type":"image-button-response","trial_index":85,"time_elapsed":575218,"internal_node_id":"0.0-4.0-0.39","subject_id":"602ba62750c603308389e87f","study_id":"6197b3f67c2b5cd3b6d9596a","session_id":"6197bc6d1674e1427ce151bd","condition":"contingent","relevant_dimensions":["pattern","legs"],"bee_group":{"antennae":"X","wings":"X","pattern":"S","legs":"M"},"action":"harvest","summary":"good-harvest","bonus":1.6800000000000013},{"rt":720.0999999940395,"stimulus":"\n                    <p><b>Action: <em>harvest</em></b></p>\n                    <p>This is the bee that you just saw.</p>\n                    <img src=\"bees-with-color/bee-B1SF.svg\" width=\"200\">\n                    <p><span class=\"greenText\"><b>Successful harvest!</b></span><br>Your pay has increased by $0.02. Your bonus pay is now $0.84.</p>\n            ","response":0,"trial_type":"html-button-response","trial_index":86,"time_elapsed":575939,"internal_node_id":"0.0-4.0-1.39","subject_id":"602ba62750c603308389e87f","study_id":"6197b3f67c2b5cd3b6d9596a","session_id":"6197bc6d1674e1427ce151bd","condition":"contingent","relevant_dimensions":["pattern","legs"],"bee_group":{"antennae":"X","wings":"X","pattern":"S","legs":"M"},"bonus":1.6800000000000013},{"rt":1067.0999999940395,"stimulus":"bees-with-color/bee-B2DM.svg","response":0,"trial_type":"image-button-response","trial_index":87,"time_elapsed":577007,"internal_node_id":"0.0-4.0-0.40","subject_id":"602ba62750c603308389e87f","study_id":"6197b3f67c2b5cd3b6d9596a","session_id":"6197bc6d1674e1427ce151bd","condition":"contingent","relevant_dimensions":["pattern","legs"],"bee_group":{"antennae":"X","wings":"X","pattern":"S","legs":"M"},"action":"harvest","summary":"good-harvest","bonus":1.6800000000000013},{"rt":807.0999999940395,"stimulus":"\n                    <p><b>Action: <em>harvest</em></b></p>\n                    <p>This is the bee that you just saw.</p>\n                    <img src=\"bees-with-color/bee-B2DM.svg\" width=\"200\">\n                    <p><span class=\"greenText\"><b>Successful harvest!</b></span><br>Your pay has increased by $0.02. Your bonus pay is now $0.86.</p>\n            ","response":0,"trial_type":"html-button-response","trial_index":88,"time_elapsed":577815,"internal_node_id":"0.0-4.0-1.40","subject_id":"602ba62750c603308389e87f","study_id":"6197b3f67c2b5cd3b6d9596a","session_id":"6197bc6d1674e1427ce151bd","condition":"contingent","relevant_dimensions":["pattern","legs"],"bee_group":{"antennae":"X","wings":"X","pattern":"S","legs":"M"},"bonus":1.6800000000000013},{"rt":1074.9000000059605,"stimulus":"bees-with-color/bee-B1SM.svg","response":1,"trial_type":"image-button-response","trial_index":89,"time_elapsed":578891,"internal_node_id":"0.0-4.0-0.41","subject_id":"602ba62750c603308389e87f","study_id":"6197b3f67c2b5cd3b6d9596a","session_id":"6197bc6d1674e1427ce151bd","condition":"contingent","relevant_dimensions":["pattern","legs"],"bee_group":{"antennae":"X","wings":"X","pattern":"S","legs":"M"},"action":"avoid","summary":"good-avoid","bonus":1.6800000000000013},{"rt":754,"stimulus":"\n                    <p><b>Action: <em>avoid</em></b></p>\n                    <p>This is the bee that you just saw.</p>\n                    <img src=\"bees-with-color/bee-B1SM.svg\" width=\"200\">\n                    <p><br>Your bonus pay is unchanged, and remains at $0.86.</p>\n            ","response":0,"trial_type":"html-button-response","trial_index":90,"time_elapsed":579646,"internal_node_id":"0.0-4.0-1.41","subject_id":"602ba62750c603308389e87f","study_id":"6197b3f67c2b5cd3b6d9596a","session_id":"6197bc6d1674e1427ce151bd","condition":"contingent","relevant_dimensions":["pattern","legs"],"bee_group":{"antennae":"X","wings":"X","pattern":"S","legs":"M"},"bonus":1.6800000000000013},{"rt":4739.0999999940395,"stimulus":"bees-with-color/bee-B2SF.svg","response":0,"trial_type":"image-button-response","trial_index":91,"time_elapsed":584386,"internal_node_id":"0.0-4.0-0.42","subject_id":"602ba62750c603308389e87f","study_id":"6197b3f67c2b5cd3b6d9596a","session_id":"6197bc6d1674e1427ce151bd","condition":"contingent","relevant_dimensions":["pattern","legs"],"bee_group":{"antennae":"X","wings":"X","pattern":"S","legs":"M"},"action":"harvest","summary":"good-harvest","bonus":1.6800000000000013},{"rt":766,"stimulus":"\n                    <p><b>Action: <em>harvest</em></b></p>\n                    <p>This is the bee that you just saw.</p>\n                    <img src=\"bees-with-color/bee-B2SF.svg\" width=\"200\">\n                    <p><span class=\"greenText\"><b>Successful harvest!</b></span><br>Your pay has increased by $0.02. Your bonus pay is now $0.88.</p>\n            ","response":0,"trial_type":"html-button-response","trial_index":92,"time_elapsed":585153,"internal_node_id":"0.0-4.0-1.42","subject_id":"602ba62750c603308389e87f","study_id":"6197b3f67c2b5cd3b6d9596a","session_id":"6197bc6d1674e1427ce151bd","condition":"contingent","relevant_dimensions":["pattern","legs"],"bee_group":{"antennae":"X","wings":"X","pattern":"S","legs":"M"},"bonus":1.6800000000000013},{"rt":2175.9000000059605,"stimulus":"bees-with-color/bee-A2SF.svg","response":0,"trial_type":"image-button-response","trial_index":93,"time_elapsed":587331,"internal_node_id":"0.0-4.0-0.43","subject_id":"602ba62750c603308389e87f","study_id":"6197b3f67c2b5cd3b6d9596a","session_id":"6197bc6d1674e1427ce151bd","condition":"contingent","relevant_dimensions":["pattern","legs"],"bee_group":{"antennae":"X","wings":"X","pattern":"S","legs":"M"},"action":"harvest","summary":"good-harvest","bonus":1.6800000000000013},{"rt":713.9000000059605,"stimulus":"\n                    <p><b>Action: <em>harvest</em></b></p>\n                    <p>This is the bee that you just saw.</p>\n                    <img src=\"bees-with-color/bee-A2SF.svg\" width=\"200\">\n                    <p><span class=\"greenText\"><b>Successful harvest!</b></span><br>Your pay has increased by $0.02. Your bonus pay is now $0.90.</p>\n            ","response":0,"trial_type":"html-button-response","trial_index":94,"time_elapsed":588046,"internal_node_id":"0.0-4.0-1.43","subject_id":"602ba62750c603308389e87f","study_id":"6197b3f67c2b5cd3b6d9596a","session_id":"6197bc6d1674e1427ce151bd","condition":"contingent","relevant_dimensions":["pattern","legs"],"bee_group":{"antennae":"X","wings":"X","pattern":"S","legs":"M"},"bonus":1.6800000000000013},{"rt":1403.9000000059605,"stimulus":"bees-with-color/bee-B2DF.svg","response":0,"trial_type":"image-button-response","trial_index":95,"time_elapsed":589451,"internal_node_id":"0.0-4.0-0.44","subject_id":"602ba62750c603308389e87f","study_id":"6197b3f67c2b5cd3b6d9596a","session_id":"6197bc6d1674e1427ce151bd","condition":"contingent","relevant_dimensions":["pattern","legs"],"bee_group":{"antennae":"X","wings":"X","pattern":"S","legs":"M"},"action":"harvest","summary":"good-harvest","bonus":1.6800000000000013},{"rt":671,"stimulus":"\n                    <p><b>Action: <em>harvest</em></b></p>\n                    <p>This is the bee that you just saw.</p>\n                    <img src=\"bees-with-color/bee-B2DF.svg\" width=\"200\">\n                    <p><span class=\"greenText\"><b>Successful harvest!</b></span><br>Your pay has increased by $0.02. Your bonus pay is now $0.92.</p>\n            ","response":0,"trial_type":"html-button-response","trial_index":96,"time_elapsed":590123,"internal_node_id":"0.0-4.0-1.44","subject_id":"602ba62750c603308389e87f","study_id":"6197b3f67c2b5cd3b6d9596a","session_id":"6197bc6d1674e1427ce151bd","condition":"contingent","relevant_dimensions":["pattern","legs"],"bee_group":{"antennae":"X","wings":"X","pattern":"S","legs":"M"},"bonus":1.6800000000000013},{"rt":1910.9000000059605,"stimulus":"bees-with-color/bee-A2SM.svg","response":1,"trial_type":"image-button-response","trial_index":97,"time_elapsed":592035,"internal_node_id":"0.0-4.0-0.45","subject_id":"602ba62750c603308389e87f","study_id":"6197b3f67c2b5cd3b6d9596a","session_id":"6197bc6d1674e1427ce151bd","condition":"contingent","relevant_dimensions":["pattern","legs"],"bee_group":{"antennae":"X","wings":"X","pattern":"S","legs":"M"},"action":"avoid","summary":"good-avoid","bonus":1.6800000000000013},{"rt":668.9000000059605,"stimulus":"\n                    <p><b>Action: <em>avoid</em></b></p>\n                    <p>This is the bee that you just saw.</p>\n                    <img src=\"bees-with-color/bee-A2SM.svg\" width=\"200\">\n                    <p><br>Your bonus pay is unchanged, and remains at $0.92.</p>\n            ","response":0,"trial_type":"html-button-response","trial_index":98,"time_elapsed":592705,"internal_node_id":"0.0-4.0-1.45","subject_id":"602ba62750c603308389e87f","study_id":"6197b3f67c2b5cd3b6d9596a","session_id":"6197bc6d1674e1427ce151bd","condition":"contingent","relevant_dimensions":["pattern","legs"],"bee_group":{"antennae":"X","wings":"X","pattern":"S","legs":"M"},"bonus":1.6800000000000013},{"rt":1146.5999999940395,"stimulus":"bees-with-color/bee-B1DM.svg","response":0,"trial_type":"image-button-response","trial_index":99,"time_elapsed":593853,"internal_node_id":"0.0-4.0-0.46","subject_id":"602ba62750c603308389e87f","study_id":"6197b3f67c2b5cd3b6d9596a","session_id":"6197bc6d1674e1427ce151bd","condition":"contingent","relevant_dimensions":["pattern","legs"],"bee_group":{"antennae":"X","wings":"X","pattern":"S","legs":"M"},"action":"harvest","summary":"good-harvest","bonus":1.6800000000000013},{"rt":746.9000000059605,"stimulus":"\n                    <p><b>Action: <em>harvest</em></b></p>\n                    <p>This is the bee that you just saw.</p>\n                    <img src=\"bees-with-color/bee-B1DM.svg\" width=\"200\">\n                    <p><span class=\"greenText\"><b>Successful harvest!</b></span><br>Your pay has increased by $0.02. Your bonus pay is now $0.94.</p>\n            ","response":0,"trial_type":"html-button-response","trial_index":100,"time_elapsed":594601,"internal_node_id":"0.0-4.0-1.46","subject_id":"602ba62750c603308389e87f","study_id":"6197b3f67c2b5cd3b6d9596a","session_id":"6197bc6d1674e1427ce151bd","condition":"contingent","relevant_dimensions":["pattern","legs"],"bee_group":{"antennae":"X","wings":"X","pattern":"S","legs":"M"},"bonus":1.6800000000000013},{"rt":3471.0999999940395,"stimulus":"bees-with-color/bee-A1SF.svg","response":0,"trial_type":"image-button-response","trial_index":101,"time_elapsed":598073,"internal_node_id":"0.0-4.0-0.47","subject_id":"602ba62750c603308389e87f","study_id":"6197b3f67c2b5cd3b6d9596a","session_id":"6197bc6d1674e1427ce151bd","condition":"contingent","relevant_dimensions":["pattern","legs"],"bee_group":{"antennae":"X","wings":"X","pattern":"S","legs":"M"},"action":"harvest","summary":"good-harvest","bonus":1.6800000000000013},{"rt":732.0999999940395,"stimulus":"\n                    <p><b>Action: <em>harvest</em></b></p>\n                    <p>This is the bee that you just saw.</p>\n                    <img src=\"bees-with-color/bee-A1SF.svg\" width=\"200\">\n                    <p><span class=\"greenText\"><b>Successful harvest!</b></span><br>Your pay has increased by $0.02. Your bonus pay is now $0.96.</p>\n            ","response":0,"trial_type":"html-button-response","trial_index":102,"time_elapsed":598806,"internal_node_id":"0.0-4.0-1.47","subject_id":"602ba62750c603308389e87f","study_id":"6197b3f67c2b5cd3b6d9596a","session_id":"6197bc6d1674e1427ce151bd","condition":"contingent","relevant_dimensions":["pattern","legs"],"bee_group":{"antennae":"X","wings":"X","pattern":"S","legs":"M"},"bonus":1.6800000000000013},{"rt":4329.800000011921,"stimulus":"bees-with-color/bee-A1SF.svg","response":0,"trial_type":"image-button-response","trial_index":103,"time_elapsed":603137,"internal_node_id":"0.0-4.0-0.48","subject_id":"602ba62750c603308389e87f","study_id":"6197b3f67c2b5cd3b6d9596a","session_id":"6197bc6d1674e1427ce151bd","condition":"contingent","relevant_dimensions":["pattern","legs"],"bee_group":{"antennae":"X","wings":"X","pattern":"S","legs":"M"},"action":"harvest","summary":"good-harvest","bonus":1.6800000000000013},{"rt":629.0999999940395,"stimulus":"\n                    <p><b>Action: <em>harvest</em></b></p>\n                    <p>This is the bee that you just saw.</p>\n                    <img src=\"bees-with-color/bee-A1SF.svg\" width=\"200\">\n                    <p><span class=\"greenText\"><b>Successful harvest!</b></span><br>Your pay has increased by $0.02. Your bonus pay is now $0.98.</p>\n            ","response":0,"trial_type":"html-button-response","trial_index":104,"time_elapsed":603767,"internal_node_id":"0.0-4.0-1.48","subject_id":"602ba62750c603308389e87f","study_id":"6197b3f67c2b5cd3b6d9596a","session_id":"6197bc6d1674e1427ce151bd","condition":"contingent","relevant_dimensions":["pattern","legs"],"bee_group":{"antennae":"X","wings":"X","pattern":"S","legs":"M"},"bonus":1.6800000000000013},{"rt":2317.7000000178814,"stimulus":"bees-with-color/bee-B1SM.svg","response":1,"trial_type":"image-button-response","trial_index":105,"time_elapsed":606086,"internal_node_id":"0.0-4.0-0.49","subject_id":"602ba62750c603308389e87f","study_id":"6197b3f67c2b5cd3b6d9596a","session_id":"6197bc6d1674e1427ce151bd","condition":"contingent","relevant_dimensions":["pattern","legs"],"bee_group":{"antennae":"X","wings":"X","pattern":"S","legs":"M"},"action":"avoid","summary":"good-avoid","bonus":1.6800000000000013},{"rt":682.0999999940395,"stimulus":"\n                    <p><b>Action: <em>avoid</em></b></p>\n                    <p>This is the bee that you just saw.</p>\n                    <img src=\"bees-with-color/bee-B1SM.svg\" width=\"200\">\n                    <p><br>Your bonus pay is unchanged, and remains at $0.98.</p>\n            ","response":0,"trial_type":"html-button-response","trial_index":106,"time_elapsed":606769,"internal_node_id":"0.0-4.0-1.49","subject_id":"602ba62750c603308389e87f","study_id":"6197b3f67c2b5cd3b6d9596a","session_id":"6197bc6d1674e1427ce151bd","condition":"contingent","relevant_dimensions":["pattern","legs"],"bee_group":{"antennae":"X","wings":"X","pattern":"S","legs":"M"},"bonus":1.6800000000000013},{"rt":1295.9000000059605,"stimulus":"bees-with-color/bee-B1DM.svg","response":0,"trial_type":"image-button-response","trial_index":107,"time_elapsed":608066,"internal_node_id":"0.0-4.0-0.50","subject_id":"602ba62750c603308389e87f","study_id":"6197b3f67c2b5cd3b6d9596a","session_id":"6197bc6d1674e1427ce151bd","condition":"contingent","relevant_dimensions":["pattern","legs"],"bee_group":{"antennae":"X","wings":"X","pattern":"S","legs":"M"},"action":"harvest","summary":"good-harvest","bonus":1.6800000000000013},{"rt":866,"stimulus":"\n                    <p><b>Action: <em>harvest</em></b></p>\n                    <p>This is the bee that you just saw.</p>\n                    <img src=\"bees-with-color/bee-B1DM.svg\" width=\"200\">\n                    <p><span class=\"greenText\"><b>Successful harvest!</b></span><br>Your pay has increased by $0.02. Your bonus pay is now $1.00.</p>\n            ","response":0,"trial_type":"html-button-response","trial_index":108,"time_elapsed":608933,"internal_node_id":"0.0-4.0-1.50","subject_id":"602ba62750c603308389e87f","study_id":"6197b3f67c2b5cd3b6d9596a","session_id":"6197bc6d1674e1427ce151bd","condition":"contingent","relevant_dimensions":["pattern","legs"],"bee_group":{"antennae":"X","wings":"X","pattern":"S","legs":"M"},"bonus":1.6800000000000013},{"rt":1049,"stimulus":"bees-with-color/bee-A1DF.svg","response":0,"trial_type":"image-button-response","trial_index":109,"time_elapsed":609983,"internal_node_id":"0.0-4.0-0.51","subject_id":"602ba62750c603308389e87f","study_id":"6197b3f67c2b5cd3b6d9596a","session_id":"6197bc6d1674e1427ce151bd","condition":"contingent","relevant_dimensions":["pattern","legs"],"bee_group":{"antennae":"X","wings":"X","pattern":"S","legs":"M"},"action":"harvest","summary":"good-harvest","bonus":1.6800000000000013},{"rt":781.9000000059605,"stimulus":"\n                    <p><b>Action: <em>harvest</em></b></p>\n                    <p>This is the bee that you just saw.</p>\n                    <img src=\"bees-with-color/bee-A1DF.svg\" width=\"200\">\n                    <p><span class=\"greenText\"><b>Successful harvest!</b></span><br>Your pay has increased by $0.02. Your bonus pay is now $1.02.</p>\n            ","response":0,"trial_type":"html-button-response","trial_index":110,"time_elapsed":610766,"internal_node_id":"0.0-4.0-1.51","subject_id":"602ba62750c603308389e87f","study_id":"6197b3f67c2b5cd3b6d9596a","session_id":"6197bc6d1674e1427ce151bd","condition":"contingent","relevant_dimensions":["pattern","legs"],"bee_group":{"antennae":"X","wings":"X","pattern":"S","legs":"M"},"bonus":1.6800000000000013},{"rt":1187.9000000059605,"stimulus":"bees-with-color/bee-A1SM.svg","response":1,"trial_type":"image-button-response","trial_index":111,"time_elapsed":611955,"internal_node_id":"0.0-4.0-0.52","subject_id":"602ba62750c603308389e87f","study_id":"6197b3f67c2b5cd3b6d9596a","session_id":"6197bc6d1674e1427ce151bd","condition":"contingent","relevant_dimensions":["pattern","legs"],"bee_group":{"antennae":"X","wings":"X","pattern":"S","legs":"M"},"action":"avoid","summary":"good-avoid","bonus":1.6800000000000013},{"rt":697.8000000119209,"stimulus":"\n                    <p><b>Action: <em>avoid</em></b></p>\n                    <p>This is the bee that you just saw.</p>\n                    <img src=\"bees-with-color/bee-A1SM.svg\" width=\"200\">\n                    <p><br>Your bonus pay is unchanged, and remains at $1.02.</p>\n            ","response":0,"trial_type":"html-button-response","trial_index":112,"time_elapsed":612654,"internal_node_id":"0.0-4.0-1.52","subject_id":"602ba62750c603308389e87f","study_id":"6197b3f67c2b5cd3b6d9596a","session_id":"6197bc6d1674e1427ce151bd","condition":"contingent","relevant_dimensions":["pattern","legs"],"bee_group":{"antennae":"X","wings":"X","pattern":"S","legs":"M"},"bonus":1.6800000000000013},{"rt":887,"stimulus":"bees-with-color/bee-A2DF.svg","response":0,"trial_type":"image-button-response","trial_index":113,"time_elapsed":613542,"internal_node_id":"0.0-4.0-0.53","subject_id":"602ba62750c603308389e87f","study_id":"6197b3f67c2b5cd3b6d9596a","session_id":"6197bc6d1674e1427ce151bd","condition":"contingent","relevant_dimensions":["pattern","legs"],"bee_group":{"antennae":"X","wings":"X","pattern":"S","legs":"M"},"action":"harvest","summary":"good-harvest","bonus":1.6800000000000013},{"rt":823.8000000119209,"stimulus":"\n                    <p><b>Action: <em>harvest</em></b></p>\n                    <p>This is the bee that you just saw.</p>\n                    <img src=\"bees-with-color/bee-A2DF.svg\" width=\"200\">\n                    <p><span class=\"greenText\"><b>Successful harvest!</b></span><br>Your pay has increased by $0.02. Your bonus pay is now $1.04.</p>\n            ","response":0,"trial_type":"html-button-response","trial_index":114,"time_elapsed":614367,"internal_node_id":"0.0-4.0-1.53","subject_id":"602ba62750c603308389e87f","study_id":"6197b3f67c2b5cd3b6d9596a","session_id":"6197bc6d1674e1427ce151bd","condition":"contingent","relevant_dimensions":["pattern","legs"],"bee_group":{"antennae":"X","wings":"X","pattern":"S","legs":"M"},"bonus":1.6800000000000013},{"rt":1754,"stimulus":"bees-with-color/bee-B2DF.svg","response":0,"trial_type":"image-button-response","trial_index":115,"time_elapsed":616122,"internal_node_id":"0.0-4.0-0.54","subject_id":"602ba62750c603308389e87f","study_id":"6197b3f67c2b5cd3b6d9596a","session_id":"6197bc6d1674e1427ce151bd","condition":"contingent","relevant_dimensions":["pattern","legs"],"bee_group":{"antennae":"X","wings":"X","pattern":"S","legs":"M"},"action":"harvest","summary":"good-harvest","bonus":1.6800000000000013},{"rt":711,"stimulus":"\n                    <p><b>Action: <em>harvest</em></b></p>\n                    <p>This is the bee that you just saw.</p>\n                    <img src=\"bees-with-color/bee-B2DF.svg\" width=\"200\">\n                    <p><span class=\"greenText\"><b>Successful harvest!</b></span><br>Your pay has increased by $0.02. Your bonus pay is now $1.06.</p>\n            ","response":0,"trial_type":"html-button-response","trial_index":116,"time_elapsed":616834,"internal_node_id":"0.0-4.0-1.54","subject_id":"602ba62750c603308389e87f","study_id":"6197b3f67c2b5cd3b6d9596a","session_id":"6197bc6d1674e1427ce151bd","condition":"contingent","relevant_dimensions":["pattern","legs"],"bee_group":{"antennae":"X","wings":"X","pattern":"S","legs":"M"},"bonus":1.6800000000000013},{"rt":1164.9000000059605,"stimulus":"bees-with-color/bee-A2DM.svg","response":0,"trial_type":"image-button-response","trial_index":117,"time_elapsed":618000,"internal_node_id":"0.0-4.0-0.55","subject_id":"602ba62750c603308389e87f","study_id":"6197b3f67c2b5cd3b6d9596a","session_id":"6197bc6d1674e1427ce151bd","condition":"contingent","relevant_dimensions":["pattern","legs"],"bee_group":{"antennae":"X","wings":"X","pattern":"S","legs":"M"},"action":"harvest","summary":"good-harvest","bonus":1.6800000000000013},{"rt":705.1999999880791,"stimulus":"\n                    <p><b>Action: <em>harvest</em></b></p>\n                    <p>This is the bee that you just saw.</p>\n                    <img src=\"bees-with-color/bee-A2DM.svg\" width=\"200\">\n                    <p><span class=\"greenText\"><b>Successful harvest!</b></span><br>Your pay has increased by $0.02. Your bonus pay is now $1.08.</p>\n            ","response":0,"trial_type":"html-button-response","trial_index":118,"time_elapsed":618706,"internal_node_id":"0.0-4.0-1.55","subject_id":"602ba62750c603308389e87f","study_id":"6197b3f67c2b5cd3b6d9596a","session_id":"6197bc6d1674e1427ce151bd","condition":"contingent","relevant_dimensions":["pattern","legs"],"bee_group":{"antennae":"X","wings":"X","pattern":"S","legs":"M"},"bonus":1.6800000000000013},{"rt":1608,"stimulus":"bees-with-color/bee-B1SF.svg","response":0,"trial_type":"image-button-response","trial_index":119,"time_elapsed":620315,"internal_node_id":"0.0-4.0-0.56","subject_id":"602ba62750c603308389e87f","study_id":"6197b3f67c2b5cd3b6d9596a","session_id":"6197bc6d1674e1427ce151bd","condition":"contingent","relevant_dimensions":["pattern","legs"],"bee_group":{"antennae":"X","wings":"X","pattern":"S","legs":"M"},"action":"harvest","summary":"good-harvest","bonus":1.6800000000000013},{"rt":652.0999999940395,"stimulus":"\n                    <p><b>Action: <em>harvest</em></b></p>\n                    <p>This is the bee that you just saw.</p>\n                    <img src=\"bees-with-color/bee-B1SF.svg\" width=\"200\">\n                    <p><span class=\"greenText\"><b>Successful harvest!</b></span><br>Your pay has increased by $0.02. Your bonus pay is now $1.10.</p>\n            ","response":0,"trial_type":"html-button-response","trial_index":120,"time_elapsed":620968,"internal_node_id":"0.0-4.0-1.56","subject_id":"602ba62750c603308389e87f","study_id":"6197b3f67c2b5cd3b6d9596a","session_id":"6197bc6d1674e1427ce151bd","condition":"contingent","relevant_dimensions":["pattern","legs"],"bee_group":{"antennae":"X","wings":"X","pattern":"S","legs":"M"},"bonus":1.6800000000000013},{"rt":1483.9000000059605,"stimulus":"bees-with-color/bee-B1DF.svg","response":0,"trial_type":"image-button-response","trial_index":121,"time_elapsed":622453,"internal_node_id":"0.0-4.0-0.57","subject_id":"602ba62750c603308389e87f","study_id":"6197b3f67c2b5cd3b6d9596a","session_id":"6197bc6d1674e1427ce151bd","condition":"contingent","relevant_dimensions":["pattern","legs"],"bee_group":{"antennae":"X","wings":"X","pattern":"S","legs":"M"},"action":"harvest","summary":"good-harvest","bonus":1.6800000000000013},{"rt":660.9000000059605,"stimulus":"\n                    <p><b>Action: <em>harvest</em></b></p>\n                    <p>This is the bee that you just saw.</p>\n                    <img src=\"bees-with-color/bee-B1DF.svg\" width=\"200\">\n                    <p><span class=\"greenText\"><b>Successful harvest!</b></span><br>Your pay has increased by $0.02. Your bonus pay is now $1.12.</p>\n            ","response":0,"trial_type":"html-button-response","trial_index":122,"time_elapsed":623115,"internal_node_id":"0.0-4.0-1.57","subject_id":"602ba62750c603308389e87f","study_id":"6197b3f67c2b5cd3b6d9596a","session_id":"6197bc6d1674e1427ce151bd","condition":"contingent","relevant_dimensions":["pattern","legs"],"bee_group":{"antennae":"X","wings":"X","pattern":"S","legs":"M"},"bonus":1.6800000000000013},{"rt":1091.9000000059605,"stimulus":"bees-with-color/bee-B2DM.svg","response":0,"trial_type":"image-button-response","trial_index":123,"time_elapsed":624208,"internal_node_id":"0.0-4.0-0.58","subject_id":"602ba62750c603308389e87f","study_id":"6197b3f67c2b5cd3b6d9596a","session_id":"6197bc6d1674e1427ce151bd","condition":"contingent","relevant_dimensions":["pattern","legs"],"bee_group":{"antennae":"X","wings":"X","pattern":"S","legs":"M"},"action":"harvest","summary":"good-harvest","bonus":1.6800000000000013},{"rt":687.0999999940395,"stimulus":"\n                    <p><b>Action: <em>harvest</em></b></p>\n                    <p>This is the bee that you just saw.</p>\n                    <img src=\"bees-with-color/bee-B2DM.svg\" width=\"200\">\n                    <p><span class=\"greenText\"><b>Successful harvest!</b></span><br>Your pay has increased by $0.02. Your bonus pay is now $1.14.</p>\n            ","response":0,"trial_type":"html-button-response","trial_index":124,"time_elapsed":624896,"internal_node_id":"0.0-4.0-1.58","subject_id":"602ba62750c603308389e87f","study_id":"6197b3f67c2b5cd3b6d9596a","session_id":"6197bc6d1674e1427ce151bd","condition":"contingent","relevant_dimensions":["pattern","legs"],"bee_group":{"antennae":"X","wings":"X","pattern":"S","legs":"M"},"bonus":1.6800000000000013},{"rt":1280.0999999940395,"stimulus":"bees-with-color/bee-A2SM.svg","response":1,"trial_type":"image-button-response","trial_index":125,"time_elapsed":626177,"internal_node_id":"0.0-4.0-0.59","subject_id":"602ba62750c603308389e87f","study_id":"6197b3f67c2b5cd3b6d9596a","session_id":"6197bc6d1674e1427ce151bd","condition":"contingent","relevant_dimensions":["pattern","legs"],"bee_group":{"antennae":"X","wings":"X","pattern":"S","legs":"M"},"action":"avoid","summary":"good-avoid","bonus":1.6800000000000013},{"rt":671.7000000178814,"stimulus":"\n                    <p><b>Action: <em>avoid</em></b></p>\n                    <p>This is the bee that you just saw.</p>\n                    <img src=\"bees-with-color/bee-A2SM.svg\" width=\"200\">\n                    <p><br>Your bonus pay is unchanged, and remains at $1.14.</p>\n            ","response":0,"trial_type":"html-button-response","trial_index":126,"time_elapsed":626850,"internal_node_id":"0.0-4.0-1.59","subject_id":"602ba62750c603308389e87f","study_id":"6197b3f67c2b5cd3b6d9596a","session_id":"6197bc6d1674e1427ce151bd","condition":"contingent","relevant_dimensions":["pattern","legs"],"bee_group":{"antennae":"X","wings":"X","pattern":"S","legs":"M"},"bonus":1.6800000000000013},{"rt":2146.9000000059605,"stimulus":"bees-with-color/bee-B2SF.svg","response":0,"trial_type":"image-button-response","trial_index":127,"time_elapsed":628998,"internal_node_id":"0.0-4.0-0.60","subject_id":"602ba62750c603308389e87f","study_id":"6197b3f67c2b5cd3b6d9596a","session_id":"6197bc6d1674e1427ce151bd","condition":"contingent","relevant_dimensions":["pattern","legs"],"bee_group":{"antennae":"X","wings":"X","pattern":"S","legs":"M"},"action":"harvest","summary":"good-harvest","bonus":1.6800000000000013},{"rt":624.9000000059605,"stimulus":"\n                    <p><b>Action: <em>harvest</em></b></p>\n                    <p>This is the bee that you just saw.</p>\n                    <img src=\"bees-with-color/bee-B2SF.svg\" width=\"200\">\n                    <p><span class=\"greenText\"><b>Successful harvest!</b></span><br>Your pay has increased by $0.02. Your bonus pay is now $1.16.</p>\n            ","response":0,"trial_type":"html-button-response","trial_index":128,"time_elapsed":629624,"internal_node_id":"0.0-4.0-1.60","subject_id":"602ba62750c603308389e87f","study_id":"6197b3f67c2b5cd3b6d9596a","session_id":"6197bc6d1674e1427ce151bd","condition":"contingent","relevant_dimensions":["pattern","legs"],"bee_group":{"antennae":"X","wings":"X","pattern":"S","legs":"M"},"bonus":1.6800000000000013},{"rt":942,"stimulus":"bees-with-color/bee-A1DM.svg","response":0,"trial_type":"image-button-response","trial_index":129,"time_elapsed":630567,"internal_node_id":"0.0-4.0-0.61","subject_id":"602ba62750c603308389e87f","study_id":"6197b3f67c2b5cd3b6d9596a","session_id":"6197bc6d1674e1427ce151bd","condition":"contingent","relevant_dimensions":["pattern","legs"],"bee_group":{"antennae":"X","wings":"X","pattern":"S","legs":"M"},"action":"harvest","summary":"good-harvest","bonus":1.6800000000000013},{"rt":713.9000000059605,"stimulus":"\n                    <p><b>Action: <em>harvest</em></b></p>\n                    <p>This is the bee that you just saw.</p>\n                    <img src=\"bees-with-color/bee-A1DM.svg\" width=\"200\">\n                    <p><span class=\"greenText\"><b>Successful harvest!</b></span><br>Your pay has increased by $0.02. Your bonus pay is now $1.18.</p>\n            ","response":0,"trial_type":"html-button-response","trial_index":130,"time_elapsed":631282,"internal_node_id":"0.0-4.0-1.61","subject_id":"602ba62750c603308389e87f","study_id":"6197b3f67c2b5cd3b6d9596a","session_id":"6197bc6d1674e1427ce151bd","condition":"contingent","relevant_dimensions":["pattern","legs"],"bee_group":{"antennae":"X","wings":"X","pattern":"S","legs":"M"},"bonus":1.6800000000000013},{"rt":803,"stimulus":"bees-with-color/bee-B2SM.svg","response":1,"trial_type":"image-button-response","trial_index":131,"time_elapsed":632086,"internal_node_id":"0.0-4.0-0.62","subject_id":"602ba62750c603308389e87f","study_id":"6197b3f67c2b5cd3b6d9596a","session_id":"6197bc6d1674e1427ce151bd","condition":"contingent","relevant_dimensions":["pattern","legs"],"bee_group":{"antennae":"X","wings":"X","pattern":"S","legs":"M"},"action":"avoid","summary":"good-avoid","bonus":1.6800000000000013},{"rt":685.9000000059605,"stimulus":"\n                    <p><b>Action: <em>avoid</em></b></p>\n                    <p>This is the bee that you just saw.</p>\n                    <img src=\"bees-with-color/bee-B2SM.svg\" width=\"200\">\n                    <p><br>Your bonus pay is unchanged, and remains at $1.18.</p>\n            ","response":0,"trial_type":"html-button-response","trial_index":132,"time_elapsed":632773,"internal_node_id":"0.0-4.0-1.62","subject_id":"602ba62750c603308389e87f","study_id":"6197b3f67c2b5cd3b6d9596a","session_id":"6197bc6d1674e1427ce151bd","condition":"contingent","relevant_dimensions":["pattern","legs"],"bee_group":{"antennae":"X","wings":"X","pattern":"S","legs":"M"},"bonus":1.6800000000000013},{"rt":1743.0999999940395,"stimulus":"bees-with-color/bee-A2SF.svg","response":0,"trial_type":"image-button-response","trial_index":133,"time_elapsed":634517,"internal_node_id":"0.0-4.0-0.63","subject_id":"602ba62750c603308389e87f","study_id":"6197b3f67c2b5cd3b6d9596a","session_id":"6197bc6d1674e1427ce151bd","condition":"contingent","relevant_dimensions":["pattern","legs"],"bee_group":{"antennae":"X","wings":"X","pattern":"S","legs":"M"},"action":"harvest","summary":"good-harvest","bonus":1.6800000000000013},{"rt":715,"stimulus":"\n                    <p><b>Action: <em>harvest</em></b></p>\n                    <p>This is the bee that you just saw.</p>\n                    <img src=\"bees-with-color/bee-A2SF.svg\" width=\"200\">\n                    <p><span class=\"greenText\"><b>Successful harvest!</b></span><br>Your pay has increased by $0.02. Your bonus pay is now $1.20.</p>\n            ","response":0,"trial_type":"html-button-response","trial_index":134,"time_elapsed":635233,"internal_node_id":"0.0-4.0-1.63","subject_id":"602ba62750c603308389e87f","study_id":"6197b3f67c2b5cd3b6d9596a","session_id":"6197bc6d1674e1427ce151bd","condition":"contingent","relevant_dimensions":["pattern","legs"],"bee_group":{"antennae":"X","wings":"X","pattern":"S","legs":"M"},"bonus":1.6800000000000013},{"rt":11129.59999999404,"stimulus":"You have completed the first part of this experiment.<br><br>You will now begin a shorter second part, in which you will receive no feedback.<br>The same rules regarding bonus pay apply.<br><br>Press any key to begin.","response":" ","trial_type":"html-keyboard-response","trial_index":135,"time_elapsed":646363,"internal_node_id":"0.0-5.0","subject_id":"602ba62750c603308389e87f","study_id":"6197b3f67c2b5cd3b6d9596a","session_id":"6197bc6d1674e1427ce151bd","condition":"contingent","relevant_dimensions":["pattern","legs"],"bee_group":{"antennae":"X","wings":"X","pattern":"S","legs":"M"},"bonus":1.6800000000000013},{"rt":3543.4000000059605,"stimulus":"bees-with-color/bee-A2DM.svg","response":0,"trial_type":"image-button-response","trial_index":136,"time_elapsed":649913,"internal_node_id":"0.0-6.0-0.0","subject_id":"602ba62750c603308389e87f","study_id":"6197b3f67c2b5cd3b6d9596a","session_id":"6197bc6d1674e1427ce151bd","condition":"contingent","relevant_dimensions":["pattern","legs"],"bee_group":{"antennae":"X","wings":"X","pattern":"S","legs":"M"},"bonus":1.6800000000000013},{"rt":2488.4000000059605,"stimulus":"bees-with-color/bee-B1DF.svg","response":0,"trial_type":"image-button-response","trial_index":137,"time_elapsed":652403,"internal_node_id":"0.0-6.0-0.1","subject_id":"602ba62750c603308389e87f","study_id":"6197b3f67c2b5cd3b6d9596a","session_id":"6197bc6d1674e1427ce151bd","condition":"contingent","relevant_dimensions":["pattern","legs"],"bee_group":{"antennae":"X","wings":"X","pattern":"S","legs":"M"},"bonus":1.6800000000000013},{"rt":1279.300000011921,"stimulus":"bees-with-color/bee-A1SF.svg","response":0,"trial_type":"image-button-response","trial_index":138,"time_elapsed":653684,"internal_node_id":"0.0-6.0-0.2","subject_id":"602ba62750c603308389e87f","study_id":"6197b3f67c2b5cd3b6d9596a","session_id":"6197bc6d1674e1427ce151bd","condition":"contingent","relevant_dimensions":["pattern","legs"],"bee_group":{"antennae":"X","wings":"X","pattern":"S","legs":"M"},"bonus":1.6800000000000013},{"rt":1105.5999999940395,"stimulus":"bees-with-color/bee-A1SM.svg","response":1,"trial_type":"image-button-response","trial_index":139,"time_elapsed":654791,"internal_node_id":"0.0-6.0-0.3","subject_id":"602ba62750c603308389e87f","study_id":"6197b3f67c2b5cd3b6d9596a","session_id":"6197bc6d1674e1427ce151bd","condition":"contingent","relevant_dimensions":["pattern","legs"],"bee_group":{"antennae":"X","wings":"X","pattern":"S","legs":"M"},"bonus":1.6800000000000013},{"rt":973.5999999940395,"stimulus":"bees-with-color/bee-B2DF.svg","response":0,"trial_type":"image-button-response","trial_index":140,"time_elapsed":655766,"internal_node_id":"0.0-6.0-0.4","subject_id":"602ba62750c603308389e87f","study_id":"6197b3f67c2b5cd3b6d9596a","session_id":"6197bc6d1674e1427ce151bd","condition":"contingent","relevant_dimensions":["pattern","legs"],"bee_group":{"antennae":"X","wings":"X","pattern":"S","legs":"M"},"bonus":1.6800000000000013},{"rt":993.4000000059605,"stimulus":"bees-with-color/bee-A2SF.svg","response":0,"trial_type":"image-button-response","trial_index":141,"time_elapsed":656761,"internal_node_id":"0.0-6.0-0.5","subject_id":"602ba62750c603308389e87f","study_id":"6197b3f67c2b5cd3b6d9596a","session_id":"6197bc6d1674e1427ce151bd","condition":"contingent","relevant_dimensions":["pattern","legs"],"bee_group":{"antennae":"X","wings":"X","pattern":"S","legs":"M"},"bonus":1.6800000000000013},{"rt":987.5999999940395,"stimulus":"bees-with-color/bee-A1DF.svg","response":0,"trial_type":"image-button-response","trial_index":142,"time_elapsed":657750,"internal_node_id":"0.0-6.0-0.6","subject_id":"602ba62750c603308389e87f","study_id":"6197b3f67c2b5cd3b6d9596a","session_id":"6197bc6d1674e1427ce151bd","condition":"contingent","relevant_dimensions":["pattern","legs"],"bee_group":{"antennae":"X","wings":"X","pattern":"S","legs":"M"},"bonus":1.6800000000000013},{"rt":1174.5,"stimulus":"bees-with-color/bee-B1SM.svg","response":1,"trial_type":"image-button-response","trial_index":143,"time_elapsed":658926,"internal_node_id":"0.0-6.0-0.7","subject_id":"602ba62750c603308389e87f","study_id":"6197b3f67c2b5cd3b6d9596a","session_id":"6197bc6d1674e1427ce151bd","condition":"contingent","relevant_dimensions":["pattern","legs"],"bee_group":{"antennae":"X","wings":"X","pattern":"S","legs":"M"},"bonus":1.6800000000000013},{"rt":1288.5999999940395,"stimulus":"bees-with-color/bee-B1DM.svg","response":0,"trial_type":"image-button-response","trial_index":144,"time_elapsed":660216,"internal_node_id":"0.0-6.0-0.8","subject_id":"602ba62750c603308389e87f","study_id":"6197b3f67c2b5cd3b6d9596a","session_id":"6197bc6d1674e1427ce151bd","condition":"contingent","relevant_dimensions":["pattern","legs"],"bee_group":{"antennae":"X","wings":"X","pattern":"S","legs":"M"},"bonus":1.6800000000000013},{"rt":1248.300000011921,"stimulus":"bees-with-color/bee-B2SM.svg","response":1,"trial_type":"image-button-response","trial_index":145,"time_elapsed":661466,"internal_node_id":"0.0-6.0-0.9","subject_id":"602ba62750c603308389e87f","study_id":"6197b3f67c2b5cd3b6d9596a","session_id":"6197bc6d1674e1427ce151bd","condition":"contingent","relevant_dimensions":["pattern","legs"],"bee_group":{"antennae":"X","wings":"X","pattern":"S","legs":"M"},"bonus":1.6800000000000013},{"rt":1240.7999999821186,"stimulus":"bees-with-color/bee-A1DM.svg","response":0,"trial_type":"image-button-response","trial_index":146,"time_elapsed":662708,"internal_node_id":"0.0-6.0-0.10","subject_id":"602ba62750c603308389e87f","study_id":"6197b3f67c2b5cd3b6d9596a","session_id":"6197bc6d1674e1427ce151bd","condition":"contingent","relevant_dimensions":["pattern","legs"],"bee_group":{"antennae":"X","wings":"X","pattern":"S","legs":"M"},"bonus":1.6800000000000013},{"rt":1469.5,"stimulus":"bees-with-color/bee-B2DM.svg","response":0,"trial_type":"image-button-response","trial_index":147,"time_elapsed":664179,"internal_node_id":"0.0-6.0-0.11","subject_id":"602ba62750c603308389e87f","study_id":"6197b3f67c2b5cd3b6d9596a","session_id":"6197bc6d1674e1427ce151bd","condition":"contingent","relevant_dimensions":["pattern","legs"],"bee_group":{"antennae":"X","wings":"X","pattern":"S","legs":"M"},"bonus":1.6800000000000013},{"rt":1060.699999988079,"stimulus":"bees-with-color/bee-B2SF.svg","response":0,"trial_type":"image-button-response","trial_index":148,"time_elapsed":665241,"internal_node_id":"0.0-6.0-0.12","subject_id":"602ba62750c603308389e87f","study_id":"6197b3f67c2b5cd3b6d9596a","session_id":"6197bc6d1674e1427ce151bd","condition":"contingent","relevant_dimensions":["pattern","legs"],"bee_group":{"antennae":"X","wings":"X","pattern":"S","legs":"M"},"bonus":1.6800000000000013},{"rt":1019.5999999940395,"stimulus":"bees-with-color/bee-A2DF.svg","response":0,"trial_type":"image-button-response","trial_index":149,"time_elapsed":666262,"internal_node_id":"0.0-6.0-0.13","subject_id":"602ba62750c603308389e87f","study_id":"6197b3f67c2b5cd3b6d9596a","session_id":"6197bc6d1674e1427ce151bd","condition":"contingent","relevant_dimensions":["pattern","legs"],"bee_group":{"antennae":"X","wings":"X","pattern":"S","legs":"M"},"bonus":1.6800000000000013},{"rt":998.5999999940395,"stimulus":"bees-with-color/bee-B1SF.svg","response":0,"trial_type":"image-button-response","trial_index":150,"time_elapsed":667262,"internal_node_id":"0.0-6.0-0.14","subject_id":"602ba62750c603308389e87f","study_id":"6197b3f67c2b5cd3b6d9596a","session_id":"6197bc6d1674e1427ce151bd","condition":"contingent","relevant_dimensions":["pattern","legs"],"bee_group":{"antennae":"X","wings":"X","pattern":"S","legs":"M"},"bonus":1.6800000000000013},{"rt":1084.5,"stimulus":"bees-with-color/bee-A2SM.svg","response":1,"trial_type":"image-button-response","trial_index":151,"time_elapsed":668348,"internal_node_id":"0.0-6.0-0.15","subject_id":"602ba62750c603308389e87f","study_id":"6197b3f67c2b5cd3b6d9596a","session_id":"6197bc6d1674e1427ce151bd","condition":"contingent","relevant_dimensions":["pattern","legs"],"bee_group":{"antennae":"X","wings":"X","pattern":"S","legs":"M"},"bonus":1.6800000000000013},{"rt":959,"stimulus":"bees-with-color/bee-B2DF.svg","response":0,"trial_type":"image-button-response","trial_index":152,"time_elapsed":669308,"internal_node_id":"0.0-6.0-0.16","subject_id":"602ba62750c603308389e87f","study_id":"6197b3f67c2b5cd3b6d9596a","session_id":"6197bc6d1674e1427ce151bd","condition":"contingent","relevant_dimensions":["pattern","legs"],"bee_group":{"antennae":"X","wings":"X","pattern":"S","legs":"M"},"bonus":1.6800000000000013},{"rt":1411.5999999940395,"stimulus":"bees-with-color/bee-B1SF.svg","response":0,"trial_type":"image-button-response","trial_index":153,"time_elapsed":670721,"internal_node_id":"0.0-6.0-0.17","subject_id":"602ba62750c603308389e87f","study_id":"6197b3f67c2b5cd3b6d9596a","session_id":"6197bc6d1674e1427ce151bd","condition":"contingent","relevant_dimensions":["pattern","legs"],"bee_group":{"antennae":"X","wings":"X","pattern":"S","legs":"M"},"bonus":1.6800000000000013},{"rt":1052.7999999821186,"stimulus":"bees-with-color/bee-B1SM.svg","response":1,"trial_type":"image-button-response","trial_index":154,"time_elapsed":671775,"internal_node_id":"0.0-6.0-0.18","subject_id":"602ba62750c603308389e87f","study_id":"6197b3f67c2b5cd3b6d9596a","session_id":"6197bc6d1674e1427ce151bd","condition":"contingent","relevant_dimensions":["pattern","legs"],"bee_group":{"antennae":"X","wings":"X","pattern":"S","legs":"M"},"bonus":1.6800000000000013},{"rt":1212.7999999821186,"stimulus":"bees-with-color/bee-B1DM.svg","response":0,"trial_type":"image-button-response","trial_index":155,"time_elapsed":672989,"internal_node_id":"0.0-6.0-0.19","subject_id":"602ba62750c603308389e87f","study_id":"6197b3f67c2b5cd3b6d9596a","session_id":"6197bc6d1674e1427ce151bd","condition":"contingent","relevant_dimensions":["pattern","legs"],"bee_group":{"antennae":"X","wings":"X","pattern":"S","legs":"M"},"bonus":1.6800000000000013},{"rt":1018.8000000119209,"stimulus":"bees-with-color/bee-A1DM.svg","response":0,"trial_type":"image-button-response","trial_index":156,"time_elapsed":674009,"internal_node_id":"0.0-6.0-0.20","subject_id":"602ba62750c603308389e87f","study_id":"6197b3f67c2b5cd3b6d9596a","session_id":"6197bc6d1674e1427ce151bd","condition":"contingent","relevant_dimensions":["pattern","legs"],"bee_group":{"antennae":"X","wings":"X","pattern":"S","legs":"M"},"bonus":1.6800000000000013},{"rt":1720.2999999821186,"stimulus":"bees-with-color/bee-A2SF.svg","response":0,"trial_type":"image-button-response","trial_index":157,"time_elapsed":675731,"internal_node_id":"0.0-6.0-0.21","subject_id":"602ba62750c603308389e87f","study_id":"6197b3f67c2b5cd3b6d9596a","session_id":"6197bc6d1674e1427ce151bd","condition":"contingent","relevant_dimensions":["pattern","legs"],"bee_group":{"antennae":"X","wings":"X","pattern":"S","legs":"M"},"bonus":1.6800000000000013},{"rt":980.7999999821186,"stimulus":"bees-with-color/bee-A1SM.svg","response":1,"trial_type":"image-button-response","trial_index":158,"time_elapsed":676713,"internal_node_id":"0.0-6.0-0.22","subject_id":"602ba62750c603308389e87f","study_id":"6197b3f67c2b5cd3b6d9596a","session_id":"6197bc6d1674e1427ce151bd","condition":"contingent","relevant_dimensions":["pattern","legs"],"bee_group":{"antennae":"X","wings":"X","pattern":"S","legs":"M"},"bonus":1.6800000000000013},{"rt":992.7999999821186,"stimulus":"bees-with-color/bee-A1DF.svg","response":0,"trial_type":"image-button-response","trial_index":159,"time_elapsed":677707,"internal_node_id":"0.0-6.0-0.23","subject_id":"602ba62750c603308389e87f","study_id":"6197b3f67c2b5cd3b6d9596a","session_id":"6197bc6d1674e1427ce151bd","condition":"contingent","relevant_dimensions":["pattern","legs"],"bee_group":{"antennae":"X","wings":"X","pattern":"S","legs":"M"},"bonus":1.6800000000000013},{"rt":1228.699999988079,"stimulus":"bees-with-color/bee-B2DM.svg","response":0,"trial_type":"image-button-response","trial_index":160,"time_elapsed":678937,"internal_node_id":"0.0-6.0-0.24","subject_id":"602ba62750c603308389e87f","study_id":"6197b3f67c2b5cd3b6d9596a","session_id":"6197bc6d1674e1427ce151bd","condition":"contingent","relevant_dimensions":["pattern","legs"],"bee_group":{"antennae":"X","wings":"X","pattern":"S","legs":"M"},"bonus":1.6800000000000013},{"rt":1183.8999999761581,"stimulus":"bees-with-color/bee-B2SM.svg","response":1,"trial_type":"image-button-response","trial_index":161,"time_elapsed":680122,"internal_node_id":"0.0-6.0-0.25","subject_id":"602ba62750c603308389e87f","study_id":"6197b3f67c2b5cd3b6d9596a","session_id":"6197bc6d1674e1427ce151bd","condition":"contingent","relevant_dimensions":["pattern","legs"],"bee_group":{"antennae":"X","wings":"X","pattern":"S","legs":"M"},"bonus":1.6800000000000013},{"rt":1146.5,"stimulus":"bees-with-color/bee-B2SF.svg","response":0,"trial_type":"image-button-response","t