[{"success":true,"trial_type":"fullscreen","trial_index":0,"time_elapsed":7864,"internal_node_id":"0.0-0.0","subject_id":"5f9aba6600cdf11f1c9b915c","study_id":"6197b3f67c2b5cd3b6d9596a","session_id":"619beee6ed896ed21b14102e","condition":"contingent","relevant_dimensions":["pattern","legs"],"bee_group":{"antennae":"X","wings":"X","pattern":"S","legs":"F"},"bonus":1.400000000000001},{"success":true,"timeout":false,"failed_images":[],"failed_audio":[],"failed_video":[],"trial_type":"preload","trial_index":1,"time_elapsed":9914,"internal_node_id":"0.0-1.0","subject_id":"5f9aba6600cdf11f1c9b915c","study_id":"6197b3f67c2b5cd3b6d9596a","session_id":"619beee6ed896ed21b14102e","condition":"contingent","relevant_dimensions":["pattern","legs"],"bee_group":{"antennae":"X","wings":"X","pattern":"S","legs":"F"},"bonus":1.400000000000001},{"rt":1809.9000000357628,"stimulus":"Welcome! Press any key to begin.","response":" ","trial_type":"html-keyboard-response","trial_index":2,"time_elapsed":11724,"internal_node_id":"0.0-2.0","subject_id":"5f9aba6600cdf11f1c9b915c","study_id":"6197b3f67c2b5cd3b6d9596a","session_id":"619beee6ed896ed21b14102e","condition":"contingent","relevant_dimensions":["pattern","legs"],"bee_group":{"antennae":"X","wings":"X","pattern":"S","legs":"F"},"bonus":1.400000000000001},{"view_history":[{"page_index":0,"viewing_time":2722.399999976158},{"page_index":1,"viewing_time":4451.5},{"page_index":2,"viewing_time":2613.5},{"page_index":3,"viewing_time":8965.199999988079},{"page_index":4,"viewing_time":5366.600000023842},{"page_index":5,"viewing_time":5930},{"page_index":6,"viewing_time":4188.300000011921},{"page_index":7,"viewing_time":4014.5},{"page_index":8,"viewing_time":3806.699999988079},{"page_index":9,"viewing_time":1722.199999988079},{"page_index":10,"viewing_time":6971.5},{"page_index":11,"viewing_time":4124.199999988079},{"page_index":12,"viewing_time":6287.600000023842},{"page_index":13,"viewing_time":1256.6000000238419},{"page_index":14,"viewing_time":1946.8999999761581}],"rt":64368.09999996424,"trial_type":"instructions","trial_index":3,"time_elapsed":76090,"internal_node_id":"0.0-3.0-0.0","subject_id":"5f9aba6600cdf11f1c9b915c","study_id":"6197b3f67c2b5cd3b6d9596a","session_id":"619beee6ed896ed21b14102e","condition":"contingent","relevant_dimensions":["pattern","legs"],"bee_group":{"antennae":"X","wings":"X","pattern":"S","legs":"F"},"bonus":1.400000000000001},{"rt":12030.199999988079,"response":{"Q0":["Two or six legs","Stripes or spots on body","Single or double wings","Antennae or no antennae"]},"question_order":[0],"trial_type":"survey-multi-select","trial_index":4,"time_elapsed":88125,"internal_node_id":"0.0-3.0-1.0","subject_id":"5f9aba6600cdf11f1c9b915c","study_id":"6197b3f67c2b5cd3b6d9596a","session_id":"619beee6ed896ed21b14102e","condition":"contingent","relevant_dimensions":["pattern","legs"],"bee_group":{"antennae":"X","wings":"X","pattern":"S","legs":"F"},"correct":true,"bonus":1.400000000000001},{"rt":10014.5,"response":{"Q1":"No.","Q2":"Based on the four features of the bee.","Q3":"You do not learn if it was friendly or dangerous, and do not alter your bonus."},"question_order":[0,1,2],"trial_type":"survey-multi-choice","trial_index":5,"time_elapsed":98145,"internal_node_id":"0.0-3.0-2.0","subject_id":"5f9aba6600cdf11f1c9b915c","study_id":"6197b3f67c2b5cd3b6d9596a","session_id":"619beee6ed896ed21b14102e","condition":"contingent","relevant_dimensions":["pattern","legs"],"bee_group":{"antennae":"X","wings":"X","pattern":"S","legs":"F"},"correct":true,"bonus":1.400000000000001},{"rt":1598.2999999523163,"stimulus":"<p>Congrats, you got everything right<br>When you're ready, click the button below to continue to the experiment.</p>","response":0,"trial_type":"html-button-response","trial_index":6,"time_elapsed":99748,"internal_node_id":"0.0-3.0-3.0","subject_id":"5f9aba6600cdf11f1c9b915c","study_id":"6197b3f67c2b5cd3b6d9596a","session_id":"619beee6ed896ed21b14102e","condition":"contingent","relevant_dimensions":["pattern","legs"],"bee_group":{"antennae":"X","wings":"X","pattern":"S","legs":"F"},"bonus":1.400000000000001},{"rt":2854.5,"stimulus":"bees-with-color/bee-A1DF.svg","response":0,"trial_type":"image-button-response","trial_index":7,"time_elapsed":102606,"internal_node_id":"0.0-4.0-0.0","subject_id":"5f9aba6600cdf11f1c9b915c","study_id":"6197b3f67c2b5cd3b6d9596a","session_id":"619beee6ed896ed21b14102e","condition":"contingent","relevant_dimensions":["pattern","legs"],"bee_group":{"antennae":"X","wings":"X","pattern":"S","legs":"F"},"action":"harvest","summary":"good-harvest","bonus":1.400000000000001},{"rt":7441.700000047684,"stimulus":"\n                    <p><b>Action: <em>harvest</em></b></p>\n                    <p>This is the bee that you just saw.</p>\n                    <img src=\"bees-with-color/bee-A1DF.svg\" width=\"200\">\n                    <p><span class=\"greenText\"><b>Successful harvest!</b></span><br>Your pay has increased by $0.02. Your bonus pay is now $0.56.</p>\n            ","response":0,"trial_type":"html-button-response","trial_index":8,"time_elapsed":110051,"internal_node_id":"0.0-4.0-1.0","subject_id":"5f9aba6600cdf11f1c9b915c","study_id":"6197b3f67c2b5cd3b6d9596a","session_id":"619beee6ed896ed21b14102e","condition":"contingent","relevant_dimensions":["pattern","legs"],"bee_group":{"antennae":"X","wings":"X","pattern":"S","legs":"F"},"bonus":1.400000000000001},{"rt":4189.099999964237,"stimulus":"bees-with-color/bee-B1DF.svg","response":1,"trial_type":"image-button-response","trial_index":9,"time_elapsed":114243,"internal_node_id":"0.0-4.0-0.1","subject_id":"5f9aba6600cdf11f1c9b915c","study_id":"6197b3f67c2b5cd3b6d9596a","session_id":"619beee6ed896ed21b14102e","condition":"contingent","relevant_dimensions":["pattern","legs"],"bee_group":{"antennae":"X","wings":"X","pattern":"S","legs":"F"},"action":"avoid","summary":"bad-avoid","bonus":1.400000000000001},{"rt":5777,"stimulus":"\n                    <p><b>Action: <em>avoid</em></b></p>\n                    <p>This is the bee that you just saw.</p>\n                    <img src=\"bees-with-color/bee-B1DF.svg\" width=\"200\">\n                    <p><br>Your bonus pay is unchanged, and remains at $0.56.</p>\n            ","response":0,"trial_type":"html-button-response","trial_index":10,"time_elapsed":120017,"internal_node_id":"0.0-4.0-1.1","subject_id":"5f9aba6600cdf11f1c9b915c","study_id":"6197b3f67c2b5cd3b6d9596a","session_id":"619beee6ed896ed21b14102e","condition":"contingent","relevant_dimensions":["pattern","legs"],"bee_group":{"antennae":"X","wings":"X","pattern":"S","legs":"F"},"bonus":1.400000000000001},{"rt":2093.2000000476837,"stimulus":"bees-with-color/bee-A2DF.svg","response":0,"trial_type":"image-button-response","trial_index":11,"time_elapsed":122113,"internal_node_id":"0.0-4.0-0.2","subject_id":"5f9aba6600cdf11f1c9b915c","study_id":"6197b3f67c2b5cd3b6d9596a","session_id":"619beee6ed896ed21b14102e","condition":"contingent","relevant_dimensions":["pattern","legs"],"bee_group":{"antennae":"X","wings":"X","pattern":"S","legs":"F"},"action":"harvest","summary":"good-harvest","bonus":1.400000000000001},{"rt":2310.899999976158,"stimulus":"\n                    <p><b>Action: <em>harvest</em></b></p>\n                    <p>This is the bee that you just saw.</p>\n                    <img src=\"bees-with-color/bee-A2DF.svg\" width=\"200\">\n                    <p><span class=\"greenText\"><b>Successful harvest!</b></span><br>Your pay has increased by $0.02. Your bonus pay is now $0.58.</p>\n            ","response":0,"trial_type":"html-button-response","trial_index":12,"time_elapsed":124427,"internal_node_id":"0.0-4.0-1.2","subject_id":"5f9aba6600cdf11f1c9b915c","study_id":"6197b3f67c2b5cd3b6d9596a","session_id":"619beee6ed896ed21b14102e","condition":"contingent","relevant_dimensions":["pattern","legs"],"bee_group":{"antennae":"X","wings":"X","pattern":"S","legs":"F"},"bonus":1.400000000000001},{"rt":2685.199999988079,"stimulus":"bees-with-color/bee-B1SM.svg","response":0,"trial_type":"image-button-response","trial_index":13,"time_elapsed":127116,"internal_node_id":"0.0-4.0-0.3","subject_id":"5f9aba6600cdf11f1c9b915c","study_id":"6197b3f67c2b5cd3b6d9596a","session_id":"619beee6ed896ed21b14102e","condition":"contingent","relevant_dimensions":["pattern","legs"],"bee_group":{"antennae":"X","wings":"X","pattern":"S","legs":"F"},"action":"harvest","summary":"good-harvest","bonus":1.400000000000001},{"rt":5256.399999976158,"stimulus":"\n                    <p><b>Action: <em>harvest</em></b></p>\n                    <p>This is the bee that you just saw.</p>\n                    <img src=\"bees-with-color/bee-B1SM.svg\" width=\"200\">\n                    <p><span class=\"greenText\"><b>Successful harvest!</b></span><br>Your pay has increased by $0.02. Your bonus pay is now $0.60.</p>\n            ","response":0,"trial_type":"html-button-response","trial_index":14,"time_elapsed":132374,"internal_node_id":"0.0-4.0-1.3","subject_id":"5f9aba6600cdf11f1c9b915c","study_id":"6197b3f67c2b5cd3b6d9596a","session_id":"619beee6ed896ed21b14102e","condition":"contingent","relevant_dimensions":["pattern","legs"],"bee_group":{"antennae":"X","wings":"X","pattern":"S","legs":"F"},"bonus":1.400000000000001},{"rt":5000.300000011921,"stimulus":"bees-with-color/bee-B1DM.svg","response":1,"trial_type":"image-button-response","trial_index":15,"time_elapsed":137376,"internal_node_id":"0.0-4.0-0.4","subject_id":"5f9aba6600cdf11f1c9b915c","study_id":"6197b3f67c2b5cd3b6d9596a","session_id":"619beee6ed896ed21b14102e","condition":"contingent","relevant_dimensions":["pattern","legs"],"bee_group":{"antennae":"X","wings":"X","pattern":"S","legs":"F"},"action":"avoid","summary":"bad-avoid","bonus":1.400000000000001},{"rt":3457.100000023842,"stimulus":"\n                    <p><b>Action: <em>avoid</em></b></p>\n                    <p>This is the bee that you just saw.</p>\n                    <img src=\"bees-with-color/bee-B1DM.svg\" width=\"200\">\n                    <p><br>Your bonus pay is unchanged, and remains at $0.60.</p>\n            ","response":0,"trial_type":"html-button-response","trial_index":16,"time_elapsed":140835,"internal_node_id":"0.0-4.0-1.4","subject_id":"5f9aba6600cdf11f1c9b915c","study_id":"6197b3f67c2b5cd3b6d9596a","session_id":"619beee6ed896ed21b14102e","condition":"contingent","relevant_dimensions":["pattern","legs"],"bee_group":{"antennae":"X","wings":"X","pattern":"S","legs":"F"},"bonus":1.400000000000001},{"rt":4155.699999988079,"stimulus":"bees-with-color/bee-B2SF.svg","response":0,"trial_type":"image-button-response","trial_index":17,"time_elapsed":144993,"internal_node_id":"0.0-4.0-0.5","subject_id":"5f9aba6600cdf11f1c9b915c","study_id":"6197b3f67c2b5cd3b6d9596a","session_id":"619beee6ed896ed21b14102e","condition":"contingent","relevant_dimensions":["pattern","legs"],"bee_group":{"antennae":"X","wings":"X","pattern":"S","legs":"F"},"action":"harvest","summary":"bad-harvest","bonus":1.400000000000001},{"rt":2763.399999976158,"stimulus":"\n                    <p><b>Action: <em>harvest</em></b></p>\n                    <p>This is the bee that you just saw.</p>\n                    <img src=\"bees-with-color/bee-B2SF.svg\" width=\"200\">\n                    <p><span class=\"redText\">Bad choice, the bee was angry.</span><br><b>You have been stung!</b><br>Your pay has been decreased by $0.10. Your bonus pay is now $0.50.</p>\n            ","response":0,"trial_type":"html-button-response","trial_index":18,"time_elapsed":147758,"internal_node_id":"0.0-4.0-1.5","subject_id":"5f9aba6600cdf11f1c9b915c","study_id":"6197b3f67c2b5cd3b6d9596a","session_id":"619beee6ed896ed21b14102e","condition":"contingent","relevant_dimensions":["pattern","legs"],"bee_group":{"antennae":"X","wings":"X","pattern":"S","legs":"F"},"bonus":1.400000000000001},{"rt":2020.5,"stimulus":"bees-with-color/bee-A2DM.svg","response":0,"trial_type":"image-button-response","trial_index":19,"time_elapsed":149781,"internal_node_id":"0.0-4.0-0.6","subject_id":"5f9aba6600cdf11f1c9b915c","study_id":"6197b3f67c2b5cd3b6d9596a","session_id":"619beee6ed896ed21b14102e","condition":"contingent","relevant_dimensions":["pattern","legs"],"bee_group":{"antennae":"X","wings":"X","pattern":"S","legs":"F"},"action":"harvest","summary":"good-harvest","bonus":1.400000000000001},{"rt":1200.800000011921,"stimulus":"\n                    <p><b>Action: <em>harvest</em></b></p>\n                    <p>This is the bee that you just saw.</p>\n                    <img src=\"bees-with-color/bee-A2DM.svg\" width=\"200\">\n                    <p><span class=\"greenText\"><b>Successful harvest!</b></span><br>Your pay has increased by $0.02. Your bonus pay is now $0.52.</p>\n            ","response":0,"trial_type":"html-button-response","trial_index":20,"time_elapsed":150984,"internal_node_id":"0.0-4.0-1.6","subject_id":"5f9aba6600cdf11f1c9b915c","study_id":"6197b3f67c2b5cd3b6d9596a","session_id":"619beee6ed896ed21b14102e","condition":"contingent","relevant_dimensions":["pattern","legs"],"bee_group":{"antennae":"X","wings":"X","pattern":"S","legs":"F"},"bonus":1.400000000000001},{"rt":2046.9000000357628,"stimulus":"bees-with-color/bee-A2SF.svg","response":1,"trial_type":"image-button-response","trial_index":21,"time_elapsed":153033,"internal_node_id":"0.0-4.0-0.7","subject_id":"5f9aba6600cdf11f1c9b915c","study_id":"6197b3f67c2b5cd3b6d9596a","session_id":"619beee6ed896ed21b14102e","condition":"contingent","relevant_dimensions":["pattern","legs"],"bee_group":{"antennae":"X","wings":"X","pattern":"S","legs":"F"},"action":"avoid","summary":"good-avoid","bonus":1.400000000000001},{"rt":1999.0999999642372,"stimulus":"\n                    <p><b>Action: <em>avoid</em></b></p>\n                    <p>This is the bee that you just saw.</p>\n                    <img src=\"bees-with-color/bee-A2SF.svg\" width=\"200\">\n                    <p><br>Your bonus pay is unchanged, and remains at $0.52.</p>\n            ","response":0,"trial_type":"html-button-response","trial_index":22,"time_elapsed":155034,"internal_node_id":"0.0-4.0-1.7","subject_id":"5f9aba6600cdf11f1c9b915c","study_id":"6197b3f67c2b5cd3b6d9596a","session_id":"619beee6ed896ed21b14102e","condition":"contingent","relevant_dimensions":["pattern","legs"],"bee_group":{"antennae":"X","wings":"X","pattern":"S","legs":"F"},"bonus":1.400000000000001},{"rt":1381.5,"stimulus":"bees-with-color/bee-A2SM.svg","response":1,"trial_type":"image-button-response","trial_index":23,"time_elapsed":156419,"internal_node_id":"0.0-4.0-0.8","subject_id":"5f9aba6600cdf11f1c9b915c","study_id":"6197b3f67c2b5cd3b6d9596a","session_id":"619beee6ed896ed21b14102e","condition":"contingent","relevant_dimensions":["pattern","legs"],"bee_group":{"antennae":"X","wings":"X","pattern":"S","legs":"F"},"action":"avoid","summary":"bad-avoid","bonus":1.400000000000001},{"rt":1150,"stimulus":"\n                    <p><b>Action: <em>avoid</em></b></p>\n                    <p>This is the bee that you just saw.</p>\n                    <img src=\"bees-with-color/bee-A2SM.svg\" width=\"200\">\n                    <p><br>Your bonus pay is unchanged, and remains at $0.52.</p>\n            ","response":0,"trial_type":"html-button-response","trial_index":24,"time_elapsed":157571,"internal_node_id":"0.0-4.0-1.8","subject_id":"5f9aba6600cdf11f1c9b915c","study_id":"6197b3f67c2b5cd3b6d9596a","session_id":"619beee6ed896ed21b14102e","condition":"contingent","relevant_dimensions":["pattern","legs"],"bee_group":{"antennae":"X","wings":"X","pattern":"S","legs":"F"},"bonus":1.400000000000001},{"rt":1233.4000000357628,"stimulus":"bees-with-color/bee-B2DF.svg","response":0,"trial_type":"image-button-response","trial_index":25,"time_elapsed":158806,"internal_node_id":"0.0-4.0-0.9","subject_id":"5f9aba6600cdf11f1c9b915c","study_id":"6197b3f67c2b5cd3b6d9596a","session_id":"619beee6ed896ed21b14102e","condition":"contingent","relevant_dimensions":["pattern","legs"],"bee_group":{"antennae":"X","wings":"X","pattern":"S","legs":"F"},"action":"harvest","summary":"good-harvest","bonus":1.400000000000001},{"rt":887.5,"stimulus":"\n                    <p><b>Action: <em>harvest</em></b></p>\n                    <p>This is the bee that you just saw.</p>\n                    <img src=\"bees-with-color/bee-B2DF.svg\" width=\"200\">\n                    <p><span class=\"greenText\"><b>Successful harvest!</b></span><br>Your pay has increased by $0.02. Your bonus pay is now $0.54.</p>\n            ","response":0,"trial_type":"html-button-response","trial_index":26,"time_elapsed":159696,"internal_node_id":"0.0-4.0-1.9","subject_id":"5f9aba6600cdf11f1c9b915c","study_id":"6197b3f67c2b5cd3b6d9596a","session_id":"619beee6ed896ed21b14102e","condition":"contingent","relevant_dimensions":["pattern","legs"],"bee_group":{"antennae":"X","wings":"X","pattern":"S","legs":"F"},"bonus":1.400000000000001},{"rt":1209.300000011921,"stimulus":"bees-with-color/bee-B1SF.svg","response":1,"trial_type":"image-button-response","trial_index":27,"time_elapsed":160907,"internal_node_id":"0.0-4.0-0.10","subject_id":"5f9aba6600cdf11f1c9b915c","study_id":"6197b3f67c2b5cd3b6d9596a","session_id":"619beee6ed896ed21b14102e","condition":"contingent","relevant_dimensions":["pattern","legs"],"bee_group":{"antennae":"X","wings":"X","pattern":"S","legs":"F"},"action":"avoid","summary":"good-avoid","bonus":1.400000000000001},{"rt":1031.1000000238419,"stimulus":"\n                    <p><b>Action: <em>avoid</em></b></p>\n                    <p>This is the bee that you just saw.</p>\n                    <img src=\"bees-with-color/bee-B1SF.svg\" width=\"200\">\n                    <p><br>Your bonus pay is unchanged, and remains at $0.54.</p>\n            ","response":0,"trial_type":"html-button-response","trial_index":28,"time_elapsed":161939,"internal_node_id":"0.0-4.0-1.10","subject_id":"5f9aba6600cdf11f1c9b915c","study_id":"6197b3f67c2b5cd3b6d9596a","session_id":"619beee6ed896ed21b14102e","condition":"contingent","relevant_dimensions":["pattern","legs"],"bee_group":{"antennae":"X","wings":"X","pattern":"S","legs":"F"},"bonus":1.400000000000001},{"rt":1015.3000000119209,"stimulus":"bees-with-color/bee-A1SF.svg","response":1,"trial_type":"image-button-response","trial_index":29,"time_elapsed":162956,"internal_node_id":"0.0-4.0-0.11","subject_id":"5f9aba6600cdf11f1c9b915c","study_id":"6197b3f67c2b5cd3b6d9596a","session_id":"619beee6ed896ed21b14102e","condition":"contingent","relevant_dimensions":["pattern","legs"],"bee_group":{"antennae":"X","wings":"X","pattern":"S","legs":"F"},"action":"avoid","summary":"good-avoid","bonus":1.400000000000001},{"rt":888.6999999880791,"stimulus":"\n                    <p><b>Action: <em>avoid</em></b></p>\n                    <p>This is the bee that you just saw.</p>\n                    <img src=\"bees-with-color/bee-A1SF.svg\" width=\"200\">\n                    <p><br>Your bonus pay is unchanged, and remains at $0.54.</p>\n            ","response":0,"trial_type":"html-button-response","trial_index":30,"time_elapsed":163846,"internal_node_id":"0.0-4.0-1.11","subject_id":"5f9aba6600cdf11f1c9b915c","study_id":"6197b3f67c2b5cd3b6d9596a","session_id":"619beee6ed896ed21b14102e","condition":"contingent","relevant_dimensions":["pattern","legs"],"bee_group":{"antennae":"X","wings":"X","pattern":"S","legs":"F"},"bonus":1.400000000000001},{"rt":1275.699999988079,"stimulus":"bees-with-color/bee-A1DM.svg","response":0,"trial_type":"image-button-response","trial_index":31,"time_elapsed":165123,"internal_node_id":"0.0-4.0-0.12","subject_id":"5f9aba6600cdf11f1c9b915c","study_id":"6197b3f67c2b5cd3b6d9596a","session_id":"619beee6ed896ed21b14102e","condition":"contingent","relevant_dimensions":["pattern","legs"],"bee_group":{"antennae":"X","wings":"X","pattern":"S","legs":"F"},"action":"harvest","summary":"good-harvest","bonus":1.400000000000001},{"rt":801,"stimulus":"\n                    <p><b>Action: <em>harvest</em></b></p>\n                    <p>This is the bee that you just saw.</p>\n                    <img src=\"bees-with-color/bee-A1DM.svg\" width=\"200\">\n                    <p><span class=\"greenText\"><b>Successful harvest!</b></span><br>Your pay has increased by $0.02. Your bonus pay is now $0.56.</p>\n            ","response":0,"trial_type":"html-button-response","trial_index":32,"time_elapsed":165926,"internal_node_id":"0.0-4.0-1.12","subject_id":"5f9aba6600cdf11f1c9b915c","study_id":"6197b3f67c2b5cd3b6d9596a","session_id":"619beee6ed896ed21b14102e","condition":"contingent","relevant_dimensions":["pattern","legs"],"bee_group":{"antennae":"X","wings":"X","pattern":"S","legs":"F"},"bonus":1.400000000000001},{"rt":1547.699999988079,"stimulus":"bees-with-color/bee-B2DM.svg","response":0,"trial_type":"image-button-response","trial_index":33,"time_elapsed":167475,"internal_node_id":"0.0-4.0-0.13","subject_id":"5f9aba6600cdf11f1c9b915c","study_id":"6197b3f67c2b5cd3b6d9596a","session_id":"619beee6ed896ed21b14102e","condition":"contingent","relevant_dimensions":["pattern","legs"],"bee_group":{"antennae":"X","wings":"X","pattern":"S","legs":"F"},"action":"harvest","summary":"good-harvest","bonus":1.400000000000001},{"rt":827.4000000357628,"stimulus":"\n                    <p><b>Action: <em>harvest</em></b></p>\n                    <p>This is the bee that you just saw.</p>\n                    <img src=\"bees-with-color/bee-B2DM.svg\" width=\"200\">\n                    <p><span class=\"greenText\"><b>Successful harvest!</b></span><br>Your pay has increased by $0.02. Your bonus pay is now $0.58.</p>\n            ","response":0,"trial_type":"html-button-response","trial_index":34,"time_elapsed":168304,"internal_node_id":"0.0-4.0-1.13","subject_id":"5f9aba6600cdf11f1c9b915c","study_id":"6197b3f67c2b5cd3b6d9596a","session_id":"619beee6ed896ed21b14102e","condition":"contingent","relevant_dimensions":["pattern","legs"],"bee_group":{"antennae":"X","wings":"X","pattern":"S","legs":"F"},"bonus":1.400000000000001},{"rt":1187.5,"stimulus":"bees-with-color/bee-B2SM.svg","response":1,"trial_type":"image-button-response","trial_index":35,"time_elapsed":169493,"internal_node_id":"0.0-4.0-0.14","subject_id":"5f9aba6600cdf11f1c9b915c","study_id":"6197b3f67c2b5cd3b6d9596a","session_id":"619beee6ed896ed21b14102e","condition":"contingent","relevant_dimensions":["pattern","legs"],"bee_group":{"antennae":"X","wings":"X","pattern":"S","legs":"F"},"action":"avoid","summary":"bad-avoid","bonus":1.400000000000001},{"rt":900.5,"stimulus":"\n                    <p><b>Action: <em>avoid</em></b></p>\n                    <p>This is the bee that you just saw.</p>\n                    <img src=\"bees-with-color/bee-B2SM.svg\" width=\"200\">\n                    <p><br>Your bonus pay is unchanged, and remains at $0.58.</p>\n            ","response":0,"trial_type":"html-button-response","trial_index":36,"time_elapsed":170396,"internal_node_id":"0.0-4.0-1.14","subject_id":"5f9aba6600cdf11f1c9b915c","study_id":"6197b3f67c2b5cd3b6d9596a","session_id":"619beee6ed896ed21b14102e","condition":"contingent","relevant_dimensions":["pattern","legs"],"bee_group":{"antennae":"X","wings":"X","pattern":"S","legs":"F"},"bonus":1.400000000000001},{"rt":938.3000000119209,"stimulus":"bees-with-color/bee-A1SM.svg","response":1,"trial_type":"image-button-response","trial_index":37,"time_elapsed":171336,"internal_node_id":"0.0-4.0-0.15","subject_id":"5f9aba6600cdf11f1c9b915c","study_id":"6197b3f67c2b5cd3b6d9596a","session_id":"619beee6ed896ed21b14102e","condition":"contingent","relevant_dimensions":["pattern","legs"],"bee_group":{"antennae":"X","wings":"X","pattern":"S","legs":"F"},"action":"avoid","summary":"bad-avoid","bonus":1.400000000000001},{"rt":811,"stimulus":"\n                    <p><b>Action: <em>avoid</em></b></p>\n                    <p>This is the bee that you just saw.</p>\n                    <img src=\"bees-with-color/bee-A1SM.svg\" width=\"200\">\n                    <p><br>Your bonus pay is unchanged, and remains at $0.58.</p>\n            ","response":0,"trial_type":"html-button-response","trial_index":38,"time_elapsed":172148,"internal_node_id":"0.0-4.0-1.15","subject_id":"5f9aba6600cdf11f1c9b915c","study_id":"6197b3f67c2b5cd3b6d9596a","session_id":"619beee6ed896ed21b14102e","condition":"contingent","relevant_dimensions":["pattern","legs"],"bee_group":{"antennae":"X","wings":"X","pattern":"S","legs":"F"},"bonus":1.400000000000001},{"rt":1407.6000000238419,"stimulus":"bees-with-color/bee-B1DM.svg","response":0,"trial_type":"image-button-response","trial_index":39,"time_elapsed":173558,"internal_node_id":"0.0-4.0-0.16","subject_id":"5f9aba6600cdf11f1c9b915c","study_id":"6197b3f67c2b5cd3b6d9596a","session_id":"619beee6ed896ed21b14102e","condition":"contingent","relevant_dimensions":["pattern","legs"],"bee_group":{"antennae":"X","wings":"X","pattern":"S","legs":"F"},"action":"harvest","summary":"good-harvest","bonus":1.400000000000001},{"rt":1132.0999999642372,"stimulus":"\n                    <p><b>Action: <em>harvest</em></b></p>\n                    <p>This is the bee that you just saw.</p>\n                    <img src=\"bees-with-color/bee-B1DM.svg\" width=\"200\">\n                    <p><span class=\"greenText\"><b>Successful harvest!</b></span><br>Your pay has increased by $0.02. Your bonus pay is now $0.60.</p>\n            ","response":0,"trial_type":"html-button-response","trial_index":40,"time_elapsed":174691,"internal_node_id":"0.0-4.0-1.16","subject_id":"5f9aba6600cdf11f1c9b915c","study_id":"6197b3f67c2b5cd3b6d9596a","session_id":"619beee6ed896ed21b14102e","condition":"contingent","relevant_dimensions":["pattern","legs"],"bee_group":{"antennae":"X","wings":"X","pattern":"S","legs":"F"},"bonus":1.400000000000001},{"rt":980.3000000119209,"stimulus":"bees-with-color/bee-B1DF.svg","response":0,"trial_type":"image-button-response","trial_index":41,"time_elapsed":175673,"internal_node_id":"0.0-4.0-0.17","subject_id":"5f9aba6600cdf11f1c9b915c","study_id":"6197b3f67c2b5cd3b6d9596a","session_id":"619beee6ed896ed21b14102e","condition":"contingent","relevant_dimensions":["pattern","legs"],"bee_group":{"antennae":"X","wings":"X","pattern":"S","legs":"F"},"action":"harvest","summary":"good-harvest","bonus":1.400000000000001},{"rt":1033.6000000238419,"stimulus":"\n                    <p><b>Action: <em>harvest</em></b></p>\n                    <p>This is the bee that you just saw.</p>\n                    <img src=\"bees-with-color/bee-B1DF.svg\" width=\"200\">\n                    <p><span class=\"greenText\"><b>Successful harvest!</b></span><br>Your pay has increased by $0.02. Your bonus pay is now $0.62.</p>\n            ","response":0,"trial_type":"html-button-response","trial_index":42,"time_elapsed":176709,"internal_node_id":"0.0-4.0-1.17","subject_id":"5f9aba6600cdf11f1c9b915c","study_id":"6197b3f67c2b5cd3b6d9596a","session_id":"619beee6ed896ed21b14102e","condition":"contingent","relevant_dimensions":["pattern","legs"],"bee_group":{"antennae":"X","wings":"X","pattern":"S","legs":"F"},"bonus":1.400000000000001},{"rt":929.3999999761581,"stimulus":"bees-with-color/bee-A2DM.svg","response":0,"trial_type":"image-button-response","trial_index":43,"time_elapsed":177640,"internal_node_id":"0.0-4.0-0.18","subject_id":"5f9aba6600cdf11f1c9b915c","study_id":"6197b3f67c2b5cd3b6d9596a","session_id":"619beee6ed896ed21b14102e","condition":"contingent","relevant_dimensions":["pattern","legs"],"bee_group":{"antennae":"X","wings":"X","pattern":"S","legs":"F"},"action":"harvest","summary":"good-harvest","bonus":1.400000000000001},{"rt":720.9000000357628,"stimulus":"\n                    <p><b>Action: <em>harvest</em></b></p>\n                    <p>This is the bee that you just saw.</p>\n                    <img src=\"bees-with-color/bee-A2DM.svg\" width=\"200\">\n                    <p><span class=\"greenText\"><b>Successful harvest!</b></span><br>Your pay has increased by $0.02. Your bonus pay is now $0.64.</p>\n            ","response":0,"trial_type":"html-button-response","trial_index":44,"time_elapsed":178362,"internal_node_id":"0.0-4.0-1.18","subject_id":"5f9aba6600cdf11f1c9b915c","study_id":"6197b3f67c2b5cd3b6d9596a","session_id":"619beee6ed896ed21b14102e","condition":"contingent","relevant_dimensions":["pattern","legs"],"bee_group":{"antennae":"X","wings":"X","pattern":"S","legs":"F"},"bonus":1.400000000000001},{"rt":800.6999999880791,"stimulus":"bees-with-color/bee-A2SF.svg","response":1,"trial_type":"image-button-response","trial_index":45,"time_elapsed":179164,"internal_node_id":"0.0-4.0-0.19","subject_id":"5f9aba6600cdf11f1c9b915c","study_id":"6197b3f67c2b5cd3b6d9596a","session_id":"619beee6ed896ed21b14102e","condition":"contingent","relevant_dimensions":["pattern","legs"],"bee_group":{"antennae":"X","wings":"X","pattern":"S","legs":"F"},"action":"avoid","summary":"good-avoid","bonus":1.400000000000001},{"rt":1017.8000000119209,"stimulus":"\n                    <p><b>Action: <em>avoid</em></b></p>\n                    <p>This is the bee that you just saw.</p>\n                    <img src=\"bees-with-color/bee-A2SF.svg\" width=\"200\">\n                    <p><br>Your bonus pay is unchanged, and remains at $0.64.</p>\n            ","response":0,"trial_type":"html-button-response","trial_index":46,"time_elapsed":180185,"internal_node_id":"0.0-4.0-1.19","subject_id":"5f9aba6600cdf11f1c9b915c","study_id":"6197b3f67c2b5cd3b6d9596a","session_id":"619beee6ed896ed21b14102e","condition":"contingent","relevant_dimensions":["pattern","legs"],"bee_group":{"antennae":"X","wings":"X","pattern":"S","legs":"F"},"bonus":1.400000000000001},{"rt":1031.9000000357628,"stimulus":"bees-with-color/bee-A1DM.svg","response":0,"trial_type":"image-button-response","trial_index":47,"time_elapsed":181219,"internal_node_id":"0.0-4.0-0.20","subject_id":"5f9aba6600cdf11f1c9b915c","study_id":"6197b3f67c2b5cd3b6d9596a","session_id":"619beee6ed896ed21b14102e","condition":"contingent","relevant_dimensions":["pattern","legs"],"bee_group":{"antennae":"X","wings":"X","pattern":"S","legs":"F"},"action":"harvest","summary":"good-harvest","bonus":1.400000000000001},{"rt":1352.699999988079,"stimulus":"\n                    <p><b>Action: <em>harvest</em></b></p>\n                    <p>This is the bee that you just saw.</p>\n                    <img src=\"bees-with-color/bee-A1DM.svg\" width=\"200\">\n                    <p><span class=\"greenText\"><b>Successful harvest!</b></span><br>Your pay has increased by $0.02. Your bonus pay is now $0.66.</p>\n            ","response":0,"trial_type":"html-button-response","trial_index":48,"time_elapsed":182574,"internal_node_id":"0.0-4.0-1.20","subject_id":"5f9aba6600cdf11f1c9b915c","study_id":"6197b3f67c2b5cd3b6d9596a","session_id":"619beee6ed896ed21b14102e","condition":"contingent","relevant_dimensions":["pattern","legs"],"bee_group":{"antennae":"X","wings":"X","pattern":"S","legs":"F"},"bonus":1.400000000000001},{"rt":870,"stimulus":"bees-with-color/bee-B1SF.svg","response":1,"trial_type":"image-button-response","trial_index":49,"time_elapsed":183445,"internal_node_id":"0.0-4.0-0.21","subject_id":"5f9aba6600cdf11f1c9b915c","study_id":"6197b3f67c2b5cd3b6d9596a","session_id":"619beee6ed896ed21b14102e","condition":"contingent","relevant_dimensions":["pattern","legs"],"bee_group":{"antennae":"X","wings":"X","pattern":"S","legs":"F"},"action":"avoid","summary":"good-avoid","bonus":1.400000000000001},{"rt":822.0999999642372,"stimulus":"\n                    <p><b>Action: <em>avoid</em></b></p>\n                    <p>This is the bee that you just saw.</p>\n                    <img src=\"bees-with-color/bee-B1SF.svg\" width=\"200\">\n                    <p><br>Your bonus pay is unchanged, and remains at $0.66.</p>\n            ","response":0,"trial_type":"html-button-response","trial_index":50,"time_elapsed":184268,"internal_node_id":"0.0-4.0-1.21","subject_id":"5f9aba6600cdf11f1c9b915c","study_id":"6197b3f67c2b5cd3b6d9596a","session_id":"619beee6ed896ed21b14102e","condition":"contingent","relevant_dimensions":["pattern","legs"],"bee_group":{"antennae":"X","wings":"X","pattern":"S","legs":"F"},"bonus":1.400000000000001},{"rt":1497.4000000357628,"stimulus":"bees-with-color/bee-B2SM.svg","response":1,"trial_type":"image-button-response","trial_index":51,"time_elapsed":185767,"internal_node_id":"0.0-4.0-0.22","subject_id":"5f9aba6600cdf11f1c9b915c","study_id":"6197b3f67c2b5cd3b6d9596a","session_id":"619beee6ed896ed21b14102e","condition":"contingent","relevant_dimensions":["pattern","legs"],"bee_group":{"antennae":"X","wings":"X","pattern":"S","legs":"F"},"action":"avoid","summary":"bad-avoid","bonus":1.400000000000001},{"rt":656.6000000238419,"stimulus":"\n                    <p><b>Action: <em>avoid</em></b></p>\n                    <p>This is the bee that you just saw.</p>\n                    <img src=\"bees-with-color/bee-B2SM.svg\" width=\"200\">\n                    <p><br>Your bonus pay is unchanged, and remains at $0.66.</p>\n            ","response":0,"trial_type":"html-button-response","trial_index":52,"time_elapsed":186425,"internal_node_id":"0.0-4.0-1.22","subject_id":"5f9aba6600cdf11f1c9b915c","study_id":"6197b3f67c2b5cd3b6d9596a","session_id":"619beee6ed896ed21b14102e","condition":"contingent","relevant_dimensions":["pattern","legs"],"bee_group":{"antennae":"X","wings":"X","pattern":"S","legs":"F"},"bonus":1.400000000000001},{"rt":1057.699999988079,"stimulus":"bees-with-color/bee-A1SM.svg","response":1,"trial_type":"image-button-response","trial_index":53,"time_elapsed":187484,"internal_node_id":"0.0-4.0-0.23","subject_id":"5f9aba6600cdf11f1c9b915c","study_id":"6197b3f67c2b5cd3b6d9596a","session_id":"619beee6ed896ed21b14102e","condition":"contingent","relevant_dimensions":["pattern","legs"],"bee_group":{"antennae":"X","wings":"X","pattern":"S","legs":"F"},"action":"avoid","summary":"bad-avoid","bonus":1.400000000000001},{"rt":1205.4000000357628,"stimulus":"\n                    <p><b>Action: <em>avoid</em></b></p>\n                    <p>This is the bee that you just saw.</p>\n                    <img src=\"bees-with-color/bee-A1SM.svg\" width=\"200\">\n                    <p><br>Your bonus pay is unchanged, and remains at $0.66.</p>\n            ","response":0,"trial_type":"html-button-response","trial_index":54,"time_elapsed":188691,"internal_node_id":"0.0-4.0-1.23","subject_id":"5f9aba6600cdf11f1c9b915c","study_id":"6197b3f67c2b5cd3b6d9596a","session_id":"619beee6ed896ed21b14102e","condition":"contingent","relevant_dimensions":["pattern","legs"],"bee_group":{"antennae":"X","wings":"X","pattern":"S","legs":"F"},"bonus":1.400000000000001},{"rt":1219.5,"stimulus":"bees-with-color/bee-A2SM.svg","response":1,"trial_type":"image-button-response","trial_index":55,"time_elapsed":189912,"internal_node_id":"0.0-4.0-0.24","subject_id":"5f9aba6600cdf11f1c9b915c","study_id":"6197b3f67c2b5cd3b6d9596a","session_id":"619beee6ed896ed21b14102e","condition":"contingent","relevant_dimensions":["pattern","legs"],"bee_group":{"antennae":"X","wings":"X","pattern":"S","legs":"F"},"action":"avoid","summary":"bad-avoid","bonus":1.400000000000001},{"rt":3076.399999976158,"stimulus":"\n                    <p><b>Action: <em>avoid</em></b></p>\n                    <p>This is the bee that you just saw.</p>\n                    <img src=\"bees-with-color/bee-A2SM.svg\" width=\"200\">\n                    <p><br>Your bonus pay is unchanged, and remains at $0.66.</p>\n            ","response":0,"trial_type":"html-button-response","trial_index":56,"time_elapsed":192990,"internal_node_id":"0.0-4.0-1.24","subject_id":"5f9aba6600cdf11f1c9b915c","study_id":"6197b3f67c2b5cd3b6d9596a","session_id":"619beee6ed896ed21b14102e","condition":"contingent","relevant_dimensions":["pattern","legs"],"bee_group":{"antennae":"X","wings":"X","pattern":"S","legs":"F"},"bonus":1.400000000000001},{"rt":906.8000000119209,"stimulus":"bees-with-color/bee-A2DF.svg","response":0,"trial_type":"image-button-response","trial_index":57,"time_elapsed":193899,"internal_node_id":"0.0-4.0-0.25","subject_id":"5f9aba6600cdf11f1c9b915c","study_id":"6197b3f67c2b5cd3b6d9596a","session_id":"619beee6ed896ed21b14102e","condition":"contingent","relevant_dimensions":["pattern","legs"],"bee_group":{"antennae":"X","wings":"X","pattern":"S","legs":"F"},"action":"harvest","summary":"good-harvest","bonus":1.400000000000001},{"rt":721.1999999880791,"stimulus":"\n                    <p><b>Action: <em>harvest</em></b></p>\n                    <p>This is the bee that you just saw.</p>\n                    <img src=\"bees-with-color/bee-A2DF.svg\" width=\"200\">\n                    <p><span class=\"greenText\"><b>Successful harvest!</b></span><br>Your pay has increased by $0.02. Your bonus pay is now $0.68.</p>\n            ","response":0,"trial_type":"html-button-response","trial_index":58,"time_elapsed":194622,"internal_node_id":"0.0-4.0-1.25","subject_id":"5f9aba6600cdf11f1c9b915c","study_id":"6197b3f67c2b5cd3b6d9596a","session_id":"619beee6ed896ed21b14102e","condition":"contingent","relevant_dimensions":["pattern","legs"],"bee_group":{"antennae":"X","wings":"X","pattern":"S","legs":"F"},"bonus":1.400000000000001},{"rt":1056.800000011921,"stimulus":"bees-with-color/bee-B2DF.svg","response":0,"trial_type":"image-button-response","trial_index":59,"time_elapsed":195681,"internal_node_id":"0.0-4.0-0.26","subject_id":"5f9aba6600cdf11f1c9b915c","study_id":"6197b3f67c2b5cd3b6d9596a","session_id":"619beee6ed896ed21b14102e","condition":"contingent","relevant_dimensions":["pattern","legs"],"bee_group":{"antennae":"X","wings":"X","pattern":"S","legs":"F"},"action":"harvest","summary":"good-harvest","bonus":1.400000000000001},{"rt":764.9000000357628,"stimulus":"\n                    <p><b>Action: <em>harvest</em></b></p>\n                    <p>This is the bee that you just saw.</p>\n                    <img src=\"bees-with-color/bee-B2DF.svg\" width=\"200\">\n                    <p><span class=\"greenText\"><b>Successful harvest!</b></span><br>Your pay has increased by $0.02. Your bonus pay is now $0.70.</p>\n            ","response":0,"trial_type":"html-button-response","trial_index":60,"time_elapsed":196448,"internal_node_id":"0.0-4.0-1.26","subject_id":"5f9aba6600cdf11f1c9b915c","study_id":"6197b3f67c2b5cd3b6d9596a","session_id":"619beee6ed896ed21b14102e","condition":"contingent","relevant_dimensions":["pattern","legs"],"bee_group":{"antennae":"X","wings":"X","pattern":"S","legs":"F"},"bonus":1.400000000000001},{"rt":1163.7999999523163,"stimulus":"bees-with-color/bee-B2SF.svg","response":1,"trial_type":"image-button-response","trial_index":61,"time_elapsed":197613,"internal_node_id":"0.0-4.0-0.27","subject_id":"5f9aba6600cdf11f1c9b915c","study_id":"6197b3f67c2b5cd3b6d9596a","session_id":"619beee6ed896ed21b14102e","condition":"contingent","relevant_dimensions":["pattern","legs"],"bee_group":{"antennae":"X","wings":"X","pattern":"S","legs":"F"},"action":"avoid","summary":"good-avoid","bonus":1.400000000000001},{"rt":836.8000000119209,"stimulus":"\n                    <p><b>Action: <em>avoid</em></b></p>\n                    <p>This is the bee that you just saw.</p>\n                    <img src=\"bees-with-color/bee-B2SF.svg\" width=\"200\">\n                    <p><br>Your bonus pay is unchanged, and remains at $0.70.</p>\n            ","response":0,"trial_type":"html-button-response","trial_index":62,"time_elapsed":198453,"internal_node_id":"0.0-4.0-1.27","subject_id":"5f9aba6600cdf11f1c9b915c","study_id":"6197b3f67c2b5cd3b6d9596a","session_id":"619beee6ed896ed21b14102e","condition":"contingent","relevant_dimensions":["pattern","legs"],"bee_group":{"antennae":"X","wings":"X","pattern":"S","legs":"F"},"bonus":1.400000000000001},{"rt":2172.2000000476837,"stimulus":"bees-with-color/bee-A1DF.svg","response":0,"trial_type":"image-button-response","trial_index":63,"time_elapsed":200627,"internal_node_id":"0.0-4.0-0.28","subject_id":"5f9aba6600cdf11f1c9b915c","study_id":"6197b3f67c2b5cd3b6d9596a","session_id":"619beee6ed896ed21b14102e","condition":"contingent","relevant_dimensions":["pattern","legs"],"bee_group":{"antennae":"X","wings":"X","pattern":"S","legs":"F"},"action":"harvest","summary":"good-harvest","bonus":1.400000000000001},{"rt":1523.6000000238419,"stimulus":"\n                    <p><b>Action: <em>harvest</em></b></p>\n                    <p>This is the bee that you just saw.</p>\n                    <img src=\"bees-with-color/bee-A1DF.svg\" width=\"200\">\n                    <p><span class=\"greenText\"><b>Successful harvest!</b></span><br>Your pay has increased by $0.02. Your bonus pay is now $0.72.</p>\n            ","response":0,"trial_type":"html-button-response","trial_index":64,"time_elapsed":202152,"internal_node_id":"0.0-4.0-1.28","subject_id":"5f9aba6600cdf11f1c9b915c","study_id":"6197b3f67c2b5cd3b6d9596a","session_id":"619beee6ed896ed21b14102e","condition":"contingent","relevant_dimensions":["pattern","legs"],"bee_group":{"antennae":"X","wings":"X","pattern":"S","legs":"F"},"bonus":1.400000000000001},{"rt":670.5,"stimulus":"bees-with-color/bee-B1SM.svg","response":1,"trial_type":"image-button-response","trial_index":65,"time_elapsed":202824,"internal_node_id":"0.0-4.0-0.29","subject_id":"5f9aba6600cdf11f1c9b915c","study_id":"6197b3f67c2b5cd3b6d9596a","session_id":"619beee6ed896ed21b14102e","condition":"contingent","relevant_dimensions":["pattern","legs"],"bee_group":{"antennae":"X","wings":"X","pattern":"S","legs":"F"},"action":"avoid","summary":"bad-avoid","bonus":1.400000000000001},{"rt":761.2000000476837,"stimulus":"\n                    <p><b>Action: <em>avoid</em></b></p>\n                    <p>This is the bee that you just saw.</p>\n                    <img src=\"bees-with-color/bee-B1SM.svg\" width=\"200\">\n                    <p><br>Your bonus pay is unchanged, and remains at $0.72.</p>\n            ","response":0,"trial_type":"html-button-response","trial_index":66,"time_elapsed":203587,"internal_node_id":"0.0-4.0-1.29","subject_id":"5f9aba6600cdf11f1c9b915c","study_id":"6197b3f67c2b5cd3b6d9596a","session_id":"619beee6ed896ed21b14102e","condition":"contingent","relevant_dimensions":["pattern","legs"],"bee_group":{"antennae":"X","wings":"X","pattern":"S","legs":"F"},"bonus":1.400000000000001},{"rt":1331.699999988079,"stimulus":"bees-with-color/bee-B2DM.svg","response":0,"trial_type":"image-button-response","trial_index":67,"time_elapsed":204920,"internal_node_id":"0.0-4.0-0.30","subject_id":"5f9aba6600cdf11f1c9b915c","study_id":"6197b3f67c2b5cd3b6d9596a","session_id":"619beee6ed896ed21b14102e","condition":"contingent","relevant_dimensions":["pattern","legs"],"bee_group":{"antennae":"X","wings":"X","pattern":"S","legs":"F"},"action":"harvest","summary":"good-harvest","bonus":1.400000000000001},{"rt":605.5,"stimulus":"\n                    <p><b>Action: <em>harvest</em></b></p>\n                    <p>This is the bee that you just saw.</p>\n                    <img src=\"bees-with-color/bee-B2DM.svg\" width=\"200\">\n                    <p><span class=\"greenText\"><b>Successful harvest!</b></span><br>Your pay has increased by $0.02. Your bonus pay is now $0.74.</p>\n            ","response":0,"trial_type":"html-button-response","trial_index":68,"time_elapsed":205528,"internal_node_id":"0.0-4.0-1.30","subject_id":"5f9aba6600cdf11f1c9b915c","study_id":"6197b3f67c2b5cd3b6d9596a","session_id":"619beee6ed896ed21b14102e","condition":"contingent","relevant_dimensions":["pattern","legs"],"bee_group":{"antennae":"X","wings":"X","pattern":"S","legs":"F"},"bonus":1.400000000000001},{"rt":645.8000000119209,"stimulus":"bees-with-color/bee-A1SF.svg","response":1,"trial_type":"image-button-response","trial_index":69,"time_elapsed":206176,"internal_node_id":"0.0-4.0-0.31","subject_id":"5f9aba6600cdf11f1c9b915c","study_id":"6197b3f67c2b5cd3b6d9596a","session_id":"619beee6ed896ed21b14102e","condition":"contingent","relevant_dimensions":["pattern","legs"],"bee_group":{"antennae":"X","wings":"X","pattern":"S","legs":"F"},"action":"avoid","summary":"good-avoid","bonus":1.400000000000001},{"rt":794.0999999642372,"stimulus":"\n                    <p><b>Action: <em>avoid</em></b></p>\n                    <p>This is the bee that you just saw.</p>\n                    <img src=\"bees-with-color/bee-A1SF.svg\" width=\"200\">\n                    <p><br>Your bonus pay is unchanged, and remains at $0.74.</p>\n            ","response":0,"trial_type":"html-button-response","trial_index":70,"time_elapsed":206973,"internal_node_id":"0.0-4.0-1.31","subject_id":"5f9aba6600cdf11f1c9b915c","study_id":"6197b3f67c2b5cd3b6d9596a","session_id":"619beee6ed896ed21b14102e","condition":"contingent","relevant_dimensions":["pattern","legs"],"bee_group":{"antennae":"X","wings":"X","pattern":"S","legs":"F"},"bonus":1.400000000000001},{"rt":884.1999999880791,"stimulus":"bees-with-color/bee-A2DM.svg","response":0,"trial_type":"image-button-response","trial_index":71,"time_elapsed":207860,"internal_node_id":"0.0-4.0-0.32","subject_id":"5f9aba6600cdf11f1c9b915c","study_id":"6197b3f67c2b5cd3b6d9596a","session_id":"619beee6ed896ed21b14102e","condition":"contingent","relevant_dimensions":["pattern","legs"],"bee_group":{"antennae":"X","wings":"X","pattern":"S","legs":"F"},"action":"harvest","summary":"good-harvest","bonus":1.400000000000001},{"rt":1162.199999988079,"stimulus":"\n                    <p><b>Action: <em>harvest</em></b></p>\n                    <p>This is the bee that you just saw.</p>\n                    <img src=\"bees-with-color/bee-A2DM.svg\" width=\"200\">\n                    <p><span class=\"greenText\"><b>Successful harvest!</b></span><br>Your pay has increased by $0.02. Your bonus pay is now $0.76.</p>\n            ","response":0,"trial_type":"html-button-response","trial_index":72,"time_elapsed":209023,"internal_node_id":"0.0-4.0-1.32","subject_id":"5f9aba6600cdf11f1c9b915c","study_id":"6197b3f67c2b5cd3b6d9596a","session_id":"619beee6ed896ed21b14102e","condition":"contingent","relevant_dimensions":["pattern","legs"],"bee_group":{"antennae":"X","wings":"X","pattern":"S","legs":"F"},"bonus":1.400000000000001},{"rt":1085.5999999642372,"stimulus":"bees-with-color/bee-B1DF.svg","response":0,"trial_type":"image-button-response","trial_index":73,"time_elapsed":210110,"internal_node_id":"0.0-4.0-0.33","subject_id":"5f9aba6600cdf11f1c9b915c","study_id":"6197b3f67c2b5cd3b6d9596a","session_id":"619beee6ed896ed21b14102e","condition":"contingent","relevant_dimensions":["pattern","legs"],"bee_group":{"antennae":"X","wings":"X","pattern":"S","legs":"F"},"action":"harvest","summary":"good-harvest","bonus":1.400000000000001},{"rt":1462.9000000357628,"stimulus":"\n                    <p><b>Action: <em>harvest</em></b></p>\n                    <p>This is the bee that you just saw.</p>\n                    <img src=\"bees-with-color/bee-B1DF.svg\" width=\"200\">\n                    <p><span class=\"greenText\"><b>Successful harvest!</b></span><br>Your pay has increased by $0.02. Your bonus pay is now $0.78.</p>\n            ","response":0,"trial_type":"html-button-response","trial_index":74,"time_elapsed":211574,"internal_node_id":"0.0-4.0-1.33","subject_id":"5f9aba6600cdf11f1c9b915c","study_id":"6197b3f67c2b5cd3b6d9596a","session_id":"619beee6ed896ed21b14102e","condition":"contingent","relevant_dimensions":["pattern","legs"],"bee_group":{"antennae":"X","wings":"X","pattern":"S","legs":"F"},"bonus":1.400000000000001},{"rt":1159.300000011921,"stimulus":"bees-with-color/bee-A2SF.svg","response":1,"trial_type":"image-button-response","trial_index":75,"time_elapsed":212735,"internal_node_id":"0.0-4.0-0.34","subject_id":"5f9aba6600cdf11f1c9b915c","study_id":"6197b3f67c2b5cd3b6d9596a","session_id":"619beee6ed896ed21b14102e","condition":"contingent","relevant_dimensions":["pattern","legs"],"bee_group":{"antennae":"X","wings":"X","pattern":"S","legs":"F"},"action":"avoid","summary":"good-avoid","bonus":1.400000000000001},{"rt":745.6999999880791,"stimulus":"\n                    <p><b>Action: <em>avoid</em></b></p>\n                    <p>This is the bee that you just saw.</p>\n                    <img src=\"bees-with-color/bee-A2SF.svg\" width=\"200\">\n                    <p><br>Your bonus pay is unchanged, and remains at $0.78.</p>\n            ","response":0,"trial_type":"html-button-response","trial_index":76,"time_elapsed":213482,"internal_node_id":"0.0-4.0-1.34","subject_id":"5f9aba6600cdf11f1c9b915c","study_id":"6197b3f67c2b5cd3b6d9596a","session_id":"619beee6ed896ed21b14102e","condition":"contingent","relevant_dimensions":["pattern","legs"],"bee_group":{"antennae":"X","wings":"X","pattern":"S","legs":"F"},"bonus":1.400000000000001},{"rt":955.2999999523163,"stimulus":"bees-with-color/bee-A2SM.svg","response":1,"trial_type":"image-button-response","trial_index":77,"time_elapsed":214439,"internal_node_id":"0.0-4.0-0.35","subject_id":"5f9aba6600cdf11f1c9b915c","study_id":"6197b3f67c2b5cd3b6d9596a","session_id":"619beee6ed896ed21b14102e","condition":"contingent","relevant_dimensions":["pattern","legs"],"bee_group":{"antennae":"X","wings":"X","pattern":"S","legs":"F"},"action":"avoid","summary":"bad-avoid","bonus":1.400000000000001},{"rt":786.1000000238419,"stimulus":"\n                    <p><b>Action: <em>avoid</em></b></p>\n                    <p>This is the bee that you just saw.</p>\n                    <img src=\"bees-with-color/bee-A2SM.svg\" width=\"200\">\n                    <p><br>Your bonus pay is unchanged, and remains at $0.78.</p>\n            ","response":0,"trial_type":"html-button-response","trial_index":78,"time_elapsed":215226,"internal_node_id":"0.0-4.0-1.35","subject_id":"5f9aba6600cdf11f1c9b915c","study_id":"6197b3f67c2b5cd3b6d9596a","session_id":"619beee6ed896ed21b14102e","condition":"contingent","relevant_dimensions":["pattern","legs"],"bee_group":{"antennae":"X","wings":"X","pattern":"S","legs":"F"},"bonus":1.400000000000001},{"rt":848.3000000119209,"stimulus":"bees-with-color/bee-B1SM.svg","response":1,"trial_type":"image-button-response","trial_index":79,"time_elapsed":216076,"internal_node_id":"0.0-4.0-0.36","subject_id":"5f9aba6600cdf11f1c9b915c","study_id":"6197b3f67c2b5cd3b6d9596a","session_id":"619beee6ed896ed21b14102e","condition":"contingent","relevant_dimensions":["pattern","legs"],"bee_group":{"antennae":"X","wings":"X","pattern":"S","legs":"F"},"action":"avoid","summary":"bad-avoid","bonus":1.400000000000001},{"rt":875.9000000357628,"stimulus":"\n                    <p><b>Action: <em>avoid</em></b></p>\n                    <p>This is the bee that you just saw.</p>\n                    <img src=\"bees-with-color/bee-B1SM.svg\" width=\"200\">\n                    <p><br>Your bonus pay is unchanged, and remains at $0.78.</p>\n            ","response":0,"trial_type":"html-button-response","trial_index":80,"time_elapsed":216953,"internal_node_id":"0.0-4.0-1.36","subject_id":"5f9aba6600cdf11f1c9b915c","study_id":"6197b3f67c2b5cd3b6d9596a","session_id":"619beee6ed896ed21b14102e","condition":"contingent","relevant_dimensions":["pattern","legs"],"bee_group":{"antennae":"X","wings":"X","pattern":"S","legs":"F"},"bonus":1.400000000000001},{"rt":783.0999999642372,"stimulus":"bees-with-color/bee-B1SF.svg","response":1,"trial_type":"image-button-response","trial_index":81,"time_elapsed":217738,"internal_node_id":"0.0-4.0-0.37","subject_id":"5f9aba6600cdf11f1c9b915c","study_id":"6197b3f67c2b5cd3b6d9596a","session_id":"619beee6ed896ed21b14102e","condition":"contingent","relevant_dimensions":["pattern","legs"],"bee_group":{"antennae":"X","wings":"X","pattern":"S","legs":"F"},"action":"avoid","summary":"good-avoid","bonus":1.400000000000001},{"rt":671.3000000119209,"stimulus":"\n                    <p><b>Action: <em>avoid</em></b></p>\n                    <p>This is the bee that you just saw.</p>\n                    <img src=\"bees-with-color/bee-B1SF.svg\" width=\"200\">\n                    <p><br>Your bonus pay is unchanged, and remains at $0.78.</p>\n            ","response":0,"trial_type":"html-button-response","trial_index":82,"time_elapsed":218411,"internal_node_id":"0.0-4.0-1.37","subject_id":"5f9aba6600cdf11f1c9b915c","study_id":"6197b3f67c2b5cd3b6d9596a","session_id":"619beee6ed896ed21b14102e","condition":"contingent","relevant_dimensions":["pattern","legs"],"bee_group":{"antennae":"X","wings":"X","pattern":"S","legs":"F"},"bonus":1.400000000000001},{"rt":852.2000000476837,"stimulus":"bees-with-color/bee-A2DF.svg","response":0,"trial_type":"image-button-response","trial_index":83,"time_elapsed":219265,"internal_node_id":"0.0-4.0-0.38","subject_id":"5f9aba6600cdf11f1c9b915c","study_id":"6197b3f67c2b5cd3b6d9596a","session_id":"619beee6ed896ed21b14102e","condition":"contingent","relevant_dimensions":["pattern","legs"],"bee_group":{"antennae":"X","wings":"X","pattern":"S","legs":"F"},"action":"harvest","summary":"good-harvest","bonus":1.400000000000001},{"rt":580.5,"stimulus":"\n                    <p><b>Action: <em>harvest</em></b></p>\n                    <p>This is the bee that you just saw.</p>\n                    <img src=\"bees-with-color/bee-A2DF.svg\" width=\"200\">\n                    <p><span class=\"greenText\"><b>Successful harvest!</b></span><br>Your pay has increased by $0.02. Your bonus pay is now $0.80.</p>\n            ","response":0,"trial_type":"html-button-response","trial_index":84,"time_elapsed":219847,"internal_node_id":"0.0-4.0-1.38","subject_id":"5f9aba6600cdf11f1c9b915c","study_id":"6197b3f67c2b5cd3b6d9596a","session_id":"619beee6ed896ed21b14102e","condition":"contingent","relevant_dimensions":["pattern","legs"],"bee_group":{"antennae":"X","wings":"X","pattern":"S","legs":"F"},"bonus":1.400000000000001},{"rt":748.9000000357628,"stimulus":"bees-with-color/bee-A1SM.svg","response":1,"trial_type":"image-button-response","trial_index":85,"time_elapsed":220598,"internal_node_id":"0.0-4.0-0.39","subject_id":"5f9aba6600cdf11f1c9b915c","study_id":"6197b3f67c2b5cd3b6d9596a","session_id":"619beee6ed896ed21b14102e","condition":"contingent","relevant_dimensions":["pattern","legs"],"bee_group":{"antennae":"X","wings":"X","pattern":"S","legs":"F"},"action":"avoid","summary":"bad-avoid","bonus":1.400000000000001},{"rt":679.8000000119209,"stimulus":"\n                    <p><b>Action: <em>avoid</em></b></p>\n                    <p>This is the bee that you just saw.</p>\n                    <img src=\"bees-with-color/bee-A1SM.svg\" width=\"200\">\n                    <p><br>Your bonus pay is unchanged, and remains at $0.80.</p>\n            ","response":0,"trial_type":"html-button-response","trial_index":86,"time_elapsed":221280,"internal_node_id":"0.0-4.0-1.39","subject_id":"5f9aba6600cdf11f1c9b915c","study_id":"6197b3f67c2b5cd3b6d9596a","session_id":"619beee6ed896ed21b14102e","condition":"contingent","relevant_dimensions":["pattern","legs"],"bee_group":{"antennae":"X","wings":"X","pattern":"S","legs":"F"},"bonus":1.400000000000001},{"rt":801.8000000119209,"stimulus":"bees-with-color/bee-B1DM.svg","response":0,"trial_type":"image-button-response","trial_index":87,"time_elapsed":222083,"internal_node_id":"0.0-4.0-0.40","subject_id":"5f9aba6600cdf11f1c9b915c","study_id":"6197b3f67c2b5cd3b6d9596a","session_id":"619beee6ed896ed21b14102e","condition":"contingent","relevant_dimensions":["pattern","legs"],"bee_group":{"antennae":"X","wings":"X","pattern":"S","legs":"F"},"action":"harvest","summary":"good-harvest","bonus":1.400000000000001},{"rt":1006.8999999761581,"stimulus":"\n                    <p><b>Action: <em>harvest</em></b></p>\n                    <p>This is the bee that you just saw.</p>\n                    <img src=\"bees-with-color/bee-B1DM.svg\" width=\"200\">\n                    <p><span class=\"greenText\"><b>Successful harvest!</b></span><br>Your pay has increased by $0.02. Your bonus pay is now $0.82.</p>\n            ","response":0,"trial_type":"html-button-response","trial_index":88,"time_elapsed":223092,"internal_node_id":"0.0-4.0-1.40","subject_id":"5f9aba6600cdf11f1c9b915c","study_id":"6197b3f67c2b5cd3b6d9596a","session_id":"619beee6ed896ed21b14102e","condition":"contingent","relevant_dimensions":["pattern","legs"],"bee_group":{"antennae":"X","wings":"X","pattern":"S","legs":"F"},"bonus":1.400000000000001},{"rt":569.3000000119209,"stimulus":"bees-with-color/bee-A1DM.svg","response":1,"trial_type":"image-button-response","trial_index":89,"time_elapsed":223663,"internal_node_id":"0.0-4.0-0.41","subject_id":"5f9aba6600cdf11f1c9b915c","study_id":"6197b3f67c2b5cd3b6d9596a","session_id":"619beee6ed896ed21b14102e","condition":"contingent","relevant_dimensions":["pattern","legs"],"bee_group":{"antennae":"X","wings":"X","pattern":"S","legs":"F"},"action":"avoid","summary":"bad-avoid","bonus":1.400000000000001},{"rt":9892.899999976158,"stimulus":"\n                    <p><b>Action: <em>avoid</em></b></p>\n                    <p>This is the bee that you just saw.</p>\n                    <img src=\"bees-with-color/bee-A1DM.svg\" width=\"200\">\n                    <p><br>Your bonus pay is unchanged, and remains at $0.82.</p>\n            ","response":0,"trial_type":"html-button-response","trial_index":90,"time_elapsed":233557,"internal_node_id":"0.0-4.0-1.41","subject_id":"5f9aba6600cdf11f1c9b915c","study_id":"6197b3f67c2b5cd3b6d9596a","session_id":"619beee6ed896ed21b14102e","condition":"contingent","relevant_dimensions":["pattern","legs"],"bee_group":{"antennae":"X","wings":"X","pattern":"S","legs":"F"},"bonus":1.400000000000001},{"rt":1264.3999999761581,"stimulus":"bees-with-color/bee-A1SF.svg","response":0,"trial_type":"image-button-response","trial_index":91,"time_elapsed":234823,"internal_node_id":"0.0-4.0-0.42","subject_id":"5f9aba6600cdf11f1c9b915c","study_id":"6197b3f67c2b5cd3b6d9596a","session_id":"619beee6ed896ed21b14102e","condition":"contingent","relevant_dimensions":["pattern","legs"],"bee_group":{"antennae":"X","wings":"X","pattern":"S","legs":"F"},"action":"harvest","summary":"bad-harvest","bonus":1.400000000000001},{"rt":4141.5,"stimulus":"\n                    <p><b>Action: <em>harvest</em></b></p>\n                    <p>This is the bee that you just saw.</p>\n                    <img src=\"bees-with-color/bee-A1SF.svg\" width=\"200\">\n                    <p><span class=\"redText\">Bad choice, the bee was angry.</span><br><b>You have been stung!</b><br>Your pay has been decreased by $0.10. Your bonus pay is now $0.72.</p>\n            ","response":0,"trial_type":"html-button-response","trial_index":92,"time_elapsed":238964,"internal_node_id":"0.0-4.0-1.42","subject_id":"5f9aba6600cdf11f1c9b915c","study_id":"6197b3f67c2b5cd3b6d9596a","session_id":"619beee6ed896ed21b14102e","condition":"contingent","relevant_dimensions":["pattern","legs"],"bee_group":{"antennae":"X","wings":"X","pattern":"S","legs":"F"},"bonus":1.400000000000001},{"rt":1176.9000000357628,"stimulus":"bees-with-color/bee-B2DF.svg","response":0,"trial_type":"image-button-response","trial_index":93,"time_elapsed":240143,"internal_node_id":"0.0-4.0-0.43","subject_id":"5f9aba6600cdf11f1c9b915c","study_id":"6197b3f67c2b5cd3b6d9596a","session_id":"619beee6ed896ed21b14102e","condition":"contingent","relevant_dimensions":["pattern","legs"],"bee_group":{"antennae":"X","wings":"X","pattern":"S","legs":"F"},"action":"harvest","summary":"good-harvest","bonus":1.400000000000001},{"rt":969.8999999761581,"stimulus":"\n                    <p><b>Action: <em>harvest</em></b></p>\n                    <p>This is the bee that you just saw.</p>\n                    <img src=\"bees-with-color/bee-B2DF.svg\" width=\"200\">\n                    <p><span class=\"greenText\"><b>Successful harvest!</b></span><br>Your pay has increased by $0.02. Your bonus pay is now $0.74.</p>\n            ","response":0,"trial_type":"html-button-response","trial_index":94,"time_elapsed":241114,"internal_node_id":"0.0-4.0-1.43","subject_id":"5f9aba6600cdf11f1c9b915c","study_id":"6197b3f67c2b5cd3b6d9596a","session_id":"619beee6ed896ed21b14102e","condition":"contingent","relevant_dimensions":["pattern","legs"],"bee_group":{"antennae":"X","wings":"X","pattern":"S","legs":"F"},"bonus":1.400000000000001},{"rt":984.1000000238419,"stimulus":"bees-with-color/bee-B2SF.svg","response":1,"trial_type":"image-button-response","trial_index":95,"time_elapsed":242099,"internal_node_id":"0.0-4.0-0.44","subject_id":"5f9aba6600cdf11f1c9b915c","study_id":"6197b3f67c2b5cd3b6d9596a","session_id":"619beee6ed896ed21b14102e","condition":"contingent","relevant_dimensions":["pattern","legs"],"bee_group":{"antennae":"X","wings":"X","pattern":"S","legs":"F"},"action":"avoid","summary":"good-avoid","bonus":1.400000000000001},{"rt":1625.800000011921,"stimulus":"\n                    <p><b>Action: <em>avoid</em></b></p>\n                    <p>This is the bee that you just saw.</p>\n                    <img src=\"bees-with-color/bee-B2SF.svg\" width=\"200\">\n                    <p><br>Your bonus pay is unchanged, and remains at $0.74.</p>\n            ","response":0,"trial_type":"html-button-response","trial_index":96,"time_elapsed":243727,"internal_node_id":"0.0-4.0-1.44","subject_id":"5f9aba6600cdf11f1c9b915c","study_id":"6197b3f67c2b5cd3b6d9596a","session_id":"619beee6ed896ed21b14102e","condition":"contingent","relevant_dimensions":["pattern","legs"],"bee_group":{"antennae":"X","wings":"X","pattern":"S","legs":"F"},"bonus":1.400000000000001},{"rt":2204.599999964237,"stimulus":"bees-with-color/bee-B2SM.svg","response":0,"trial_type":"image-button-response","trial_index":97,"time_elapsed":245933,"internal_node_id":"0.0-4.0-0.45","subject_id":"5f9aba6600cdf11f1c9b915c","study_id":"6197b3f67c2b5cd3b6d9596a","session_id":"619beee6ed896ed21b14102e","condition":"contingent","relevant_dimensions":["pattern","legs"],"bee_group":{"antennae":"X","wings":"X","pattern":"S","legs":"F"},"action":"harvest","summary":"good-harvest","bonus":1.400000000000001},{"rt":1181.8999999761581,"stimulus":"\n                    <p><b>Action: <em>harvest</em></b></p>\n                    <p>This is the bee that you just saw.</p>\n                    <img src=\"bees-with-color/bee-B2SM.svg\" width=\"200\">\n                    <p><span class=\"greenText\"><b>Successful harvest!</b></span><br>Your pay has increased by $0.02. Your bonus pay is now $0.76.</p>\n            ","response":0,"trial_type":"html-button-response","trial_index":98,"time_elapsed":247117,"internal_node_id":"0.0-4.0-1.45","subject_id":"5f9aba6600cdf11f1c9b915c","study_id":"6197b3f67c2b5cd3b6d9596a","session_id":"619beee6ed896ed21b14102e","condition":"contingent","relevant_dimensions":["pattern","legs"],"bee_group":{"antennae":"X","wings":"X","pattern":"S","legs":"F"},"bonus":1.400000000000001},{"rt":3502.100000023842,"stimulus":"bees-with-color/bee-B2DM.svg","response":0,"trial_type":"image-button-response","trial_index":99,"time_elapsed":250620,"internal_node_id":"0.0-4.0-0.46","subject_id":"5f9aba6600cdf11f1c9b915c","study_id":"6197b3f67c2b5cd3b6d9596a","session_id":"619beee6ed896ed21b14102e","condition":"contingent","relevant_dimensions":["pattern","legs"],"bee_group":{"antennae":"X","wings":"X","pattern":"S","legs":"F"},"action":"harvest","summary":"good-harvest","bonus":1.400000000000001},{"rt":959.2999999523163,"stimulus":"\n                    <p><b>Action: <em>harvest</em></b></p>\n                    <p>This is the bee that you just saw.</p>\n                    <img src=\"bees-with-color/bee-B2DM.svg\" width=\"200\">\n                    <p><span class=\"greenText\"><b>Successful harvest!</b></span><br>Your pay has increased by $0.02. Your bonus pay is now $0.78.</p>\n            ","response":0,"trial_type":"html-button-response","trial_index":100,"time_elapsed":251581,"internal_node_id":"0.0-4.0-1.46","subject_id":"5f9aba6600cdf11f1c9b915c","study_id":"6197b3f67c2b5cd3b6d9596a","session_id":"619beee6ed896ed21b14102e","condition":"contingent","relevant_dimensions":["pattern","legs"],"bee_group":{"antennae":"X","wings":"X","pattern":"S","legs":"F"},"bonus":1.400000000000001},{"rt":773.8999999761581,"stimulus":"bees-with-color/bee-A1DF.svg","response":0,"trial_type":"image-button-response","trial_index":101,"time_elapsed":252357,"internal_node_id":"0.0-4.0-0.47","subject_id":"5f9aba6600cdf11f1c9b915c","study_id":"6197b3f67c2b5cd3b6d9596a","session_id":"619beee6ed896ed21b14102e","condition":"contingent","relevant_dimensions":["pattern","legs"],"bee_group":{"antennae":"X","wings":"X","pattern":"S","legs":"F"},"action":"harvest","summary":"good-harvest","bonus":1.400000000000001},{"rt":644.1999999880791,"stimulus":"\n                    <p><b>Action: <em>harvest</em></b></p>\n                    <p>This is the bee that you just saw.</p>\n                    <img src=\"bees-with-color/bee-A1DF.svg\" width=\"200\">\n                    <p><span class=\"greenText\"><b>Successful harvest!</b></span><br>Your pay has increased by $0.02. Your bonus pay is now $0.80.</p>\n            ","response":0,"trial_type":"html-button-response","trial_index":102,"time_elapsed":253003,"internal_node_id":"0.0-4.0-1.47","subject_id":"5f9aba6600cdf11f1c9b915c","study_id":"6197b3f67c2b5cd3b6d9596a","session_id":"619beee6ed896ed21b14102e","condition":"contingent","relevant_dimensions":["pattern","legs"],"bee_group":{"antennae":"X","wings":"X","pattern":"S","legs":"F"},"bonus":1.400000000000001},{"rt":671.5,"stimulus":"bees-with-color/bee-B1DF.svg","response":0,"trial_type":"image-button-response","trial_index":103,"time_elapsed":253676,"internal_node_id":"0.0-4.0-0.48","subject_id":"5f9aba6600cdf11f1c9b915c","study_id":"6197b3f67c2b5cd3b6d9596a","session_id":"619beee6ed896ed21b14102e","condition":"contingent","relevant_dimensions":["pattern","legs"],"bee_group":{"antennae":"X","wings":"X","pattern":"S","legs":"F"},"action":"harvest","summary":"good-harvest","bonus":1.400000000000001},{"rt":1007.8000000119209,"stimulus":"\n                    <p><b>Action: <em>harvest</em></b></p>\n                    <p>This is the bee that you just saw.</p>\n                    <img src=\"bees-with-color/bee-B1DF.svg\" width=\"200\">\n                    <p><span class=\"greenText\"><b>Successful harvest!</b></span><br>Your pay has increased by $0.02. Your bonus pay is now $0.82.</p>\n            ","response":0,"trial_type":"html-button-response","trial_index":104,"time_elapsed":254686,"internal_node_id":"0.0-4.0-1.48","subject_id":"5f9aba6600cdf11f1c9b915c","study_id":"6197b3f67c2b5cd3b6d9596a","session_id":"619beee6ed896ed21b14102e","condition":"contingent","relevant_dimensions":["pattern","legs"],"bee_group":{"antennae":"X","wings":"X","pattern":"S","legs":"F"},"bonus":1.400000000000001},{"rt":773.8999999761581,"stimulus":"bees-with-color/bee-A1DF.svg","response":0,"trial_type":"image-button-response","trial_index":105,"time_elapsed":255463,"internal_node_id":"0.0-4.0-0.49","subject_id":"5f9aba6600cdf11f1c9b915c","study_id":"6197b3f67c2b5cd3b6d9596a","session_id":"619beee6ed896ed21b14102e","condition":"contingent","relevant_dimensions":["pattern","legs"],"bee_group":{"antennae":"X","wings":"X","pattern":"S","legs":"F"},"action":"harvest","summary":"good-harvest","bonus":1.400000000000001},{"rt":619.8000000119209,"stimulus":"\n                    <p><b>Action: <em>harvest</em></b></p>\n                    <p>This is the bee that you just saw.</p>\n                    <img src=\"bees-with-color/bee-A1DF.svg\" width=\"200\">\n                    <p><span class=\"greenText\"><b>Successful harvest!</b></span><br>Your pay has increased by $0.02. Your bonus pay is now $0.84.</p>\n            ","response":0,"trial_type":"html-button-response","trial_index":106,"time_elapsed":256084,"internal_node_id":"0.0-4.0-1.49","subject_id":"5f9aba6600cdf11f1c9b915c","study_id":"6197b3f67c2b5cd3b6d9596a","session_id":"619beee6ed896ed21b14102e","condition":"contingent","relevant_dimensions":["pattern","legs"],"bee_group":{"antennae":"X","wings":"X","pattern":"S","legs":"F"},"bonus":1.400000000000001},{"rt":878.1000000238419,"stimulus":"bees-with-color/bee-A1SF.svg","response":1,"trial_type":"image-button-response","trial_index":107,"time_elapsed":256964,"internal_node_id":"0.0-4.0-0.50","subject_id":"5f9aba6600cdf11f1c9b915c","study_id":"6197b3f67c2b5cd3b6d9596a","session_id":"619beee6ed896ed21b14102e","condition":"contingent","relevant_dimensions":["pattern","legs"],"bee_group":{"antennae":"X","wings":"X","pattern":"S","legs":"F"},"action":"avoid","summary":"good-avoid","bonus":1.400000000000001},{"rt":902.4000000357628,"stimulus":"\n                    <p><b>Action: <em>avoid</em></b></p>\n                    <p>This is the bee that you just saw.</p>\n                    <img src=\"bees-with-color/bee-A1SF.svg\" width=\"200\">\n                    <p><br>Your bonus pay is unchanged, and remains at $0.84.</p>\n            ","response":0,"trial_type":"html-button-response","trial_index":108,"time_elapsed":257868,"internal_node_id":"0.0-4.0-1.50","subject_id":"5f9aba6600cdf11f1c9b915c","study_id":"6197b3f67c2b5cd3b6d9596a","session_id":"619beee6ed896ed21b14102e","condition":"contingent","relevant_dimensions":["pattern","legs"],"bee_group":{"antennae":"X","wings":"X","pattern":"S","legs":"F"},"bonus":1.400000000000001},{"rt":1071.9000000357628,"stimulus":"bees-with-color/bee-B1SM.svg","response":1,"trial_type":"image-button-response","trial_index":109,"time_elapsed":258942,"internal_node_id":"0.0-4.0-0.51","subject_id":"5f9aba6600cdf11f1c9b915c","study_id":"6197b3f67c2b5cd3b6d9596a","session_id":"619beee6ed896ed21b14102e","condition":"contingent","relevant_dimensions":["pattern","legs"],"bee_group":{"antennae":"X","wings":"X","pattern":"S","legs":"F"},"action":"avoid","summary":"bad-avoid","bonus":1.400000000000001},{"rt":708.6999999880791,"stimulus":"\n                    <p><b>Action: <em>avoid</em></b></p>\n                    <p>This is the bee that you just saw.</p>\n                    <img src=\"bees-with-color/bee-B1SM.svg\" width=\"200\">\n                    <p><br>Your bonus pay is unchanged, and remains at $0.84.</p>\n            ","response":0,"trial_type":"html-button-response","trial_index":110,"time_elapsed":259652,"internal_node_id":"0.0-4.0-1.51","subject_id":"5f9aba6600cdf11f1c9b915c","study_id":"6197b3f67c2b5cd3b6d9596a","session_id":"619beee6ed896ed21b14102e","condition":"contingent","relevant_dimensions":["pattern","legs"],"bee_group":{"antennae":"X","wings":"X","pattern":"S","legs":"F"},"bonus":1.400000000000001},{"rt":851.0999999642372,"stimulus":"bees-with-color/bee-B1DM.svg","response":0,"trial_type":"image-button-response","trial_index":111,"time_elapsed":260505,"internal_node_id":"0.0-4.0-0.52","subject_id":"5f9aba6600cdf11f1c9b915c","study_id":"6197b3f67c2b5cd3b6d9596a","session_id":"619beee6ed896ed21b14102e","condition":"contingent","relevant_dimensions":["pattern","legs"],"bee_group":{"antennae":"X","wings":"X","pattern":"S","legs":"F"},"action":"harvest","summary":"good-harvest","bonus":1.400000000000001},{"rt":670.8000000119209,"stimulus":"\n                    <p><b>Action: <em>harvest</em></b></p>\n                    <p>This is the bee that you just saw.</p>\n                    <img src=\"bees-with-color/bee-B1DM.svg\" width=\"200\">\n                    <p><span class=\"greenText\"><b>Successful harvest!</b></span><br>Your pay has increased by $0.02. Your bonus pay is now $0.86.</p>\n            ","response":0,"trial_type":"html-button-response","trial_index":112,"time_elapsed":261178,"internal_node_id":"0.0-4.0-1.52","subject_id":"5f9aba6600cdf11f1c9b915c","study_id":"6197b3f67c2b5cd3b6d9596a","session_id":"619beee6ed896ed21b14102e","condition":"contingent","relevant_dimensions":["pattern","legs"],"bee_group":{"antennae":"X","wings":"X","pattern":"S","legs":"F"},"bonus":1.400000000000001},{"rt":593.1999999880791,"stimulus":"bees-with-color/bee-B2DF.svg","response":0,"trial_type":"image-button-response","trial_index":113,"time_elapsed":261773,"internal_node_id":"0.0-4.0-0.53","subject_id":"5f9aba6600cdf11f1c9b915c","study_id":"6197b3f67c2b5cd3b6d9596a","session_id":"619beee6ed896ed21b14102e","condition":"contingent","relevant_dimensions":["pattern","legs"],"bee_group":{"antennae":"X","wings":"X","pattern":"S","legs":"F"},"action":"harvest","summary":"good-harvest","bonus":1.400000000000001},{"rt":969.1000000238419,"stimulus":"\n                    <p><b>Action: <em>harvest</em></b></p>\n                    <p>This is the bee that you just saw.</p>\n                    <img src=\"bees-with-color/bee-B2DF.svg\" width=\"200\">\n                    <p><span class=\"greenText\"><b>Successful harvest!</b></span><br>Your pay has increased by $0.02. Your bonus pay is now $0.88.</p>\n            ","response":0,"trial_type":"html-button-response","trial_index":114,"time_elapsed":262743,"internal_node_id":"0.0-4.0-1.53","subject_id":"5f9aba6600cdf11f1c9b915c","study_id":"6197b3f67c2b5cd3b6d9596a","session_id":"619beee6ed896ed21b14102e","condition":"contingent","relevant_dimensions":["pattern","legs"],"bee_group":{"antennae":"X","wings":"X","pattern":"S","legs":"F"},"bonus":1.400000000000001},{"rt":1182.800000011921,"stimulus":"bees-with-color/bee-A2DF.svg","response":0,"trial_type":"image-button-response","trial_index":115,"time_elapsed":263927,"internal_node_id":"0.0-4.0-0.54","subject_id":"5f9aba6600cdf11f1c9b915c","study_id":"6197b3f67c2b5cd3b6d9596a","session_id":"619beee6ed896ed21b14102e","condition":"contingent","relevant_dimensions":["pattern","legs"],"bee_group":{"antennae":"X","wings":"X","pattern":"S","legs":"F"},"action":"harvest","summary":"good-harvest","bonus":1.400000000000001},{"rt":671.3000000119209,"stimulus":"\n                    <p><b>Action: <em>harvest</em></b></p>\n                    <p>This is the bee that you just saw.</p>\n                    <img src=\"bees-with-color/bee-A2DF.svg\" width=\"200\">\n                    <p><span class=\"greenText\"><b>Successful harvest!</b></span><br>Your pay has increased by $0.02. Your bonus pay is now $0.90.</p>\n            ","response":0,"trial_type":"html-button-response","trial_index":116,"time_elapsed":264600,"internal_node_id":"0.0-4.0-1.54","subject_id":"5f9aba6600cdf11f1c9b915c","study_id":"6197b3f67c2b5cd3b6d9596a","session_id":"619beee6ed896ed21b14102e","condition":"contingent","relevant_dimensions":["pattern","legs"],"bee_group":{"antennae":"X","wings":"X","pattern":"S","legs":"F"},"bonus":1.400000000000001},{"rt":1034.5,"stimulus":"bees-with-color/bee-A2SF.svg","response":1,"trial_type":"image-button-response","trial_index":117,"time_elapsed":265636,"internal_node_id":"0.0-4.0-0.55","subject_id":"5f9aba6600cdf11f1c9b915c","study_id":"6197b3f67c2b5cd3b6d9596a","session_id":"619beee6ed896ed21b14102e","condition":"contingent","relevant_dimensions":["pattern","legs"],"bee_group":{"antennae":"X","wings":"X","pattern":"S","legs":"F"},"action":"avoid","summary":"good-avoid","bonus":1.400000000000001},{"rt":722.8000000119209,"stimulus":"\n                    <p><b>Action: <em>avoid</em></b></p>\n                    <p>This is the bee that you just saw.</p>\n                    <img src=\"bees-with-color/bee-A2SF.svg\" width=\"200\">\n                    <p><br>Your bonus pay is unchanged, and remains at $0.90.</p>\n            ","response":0,"trial_type":"html-button-response","trial_index":118,"time_elapsed":266360,"internal_node_id":"0.0-4.0-1.55","subject_id":"5f9aba6600cdf11f1c9b915c","study_id":"6197b3f67c2b5cd3b6d9596a","session_id":"619beee6ed896ed21b14102e","condition":"contingent","relevant_dimensions":["pattern","legs"],"bee_group":{"antennae":"X","wings":"X","pattern":"S","legs":"F"},"bonus":1.400000000000001},{"rt":947.8000000119209,"stimulus":"bees-with-color/bee-A1SM.svg","response":0,"trial_type":"image-button-response","trial_index":119,"time_elapsed":267309,"internal_node_id":"0.0-4.0-0.56","subject_id":"5f9aba6600cdf11f1c9b915c","study_id":"6197b3f67c2b5cd3b6d9596a","session_id":"619beee6ed896ed21b14102e","condition":"contingent","relevant_dimensions":["pattern","legs"],"bee_group":{"antennae":"X","wings":"X","pattern":"S","legs":"F"},"action":"harvest","summary":"good-harvest","bonus":1.400000000000001},{"rt":5036.800000011921,"stimulus":"\n                    <p><b>Action: <em>harvest</em></b></p>\n                    <p>This is the bee that you just saw.</p>\n                    <img src=\"bees-with-color/bee-A1SM.svg\" width=\"200\">\n                    <p><span class=\"greenText\"><b>Successful harvest!</b></span><br>Your pay has increased by $0.02. Your bonus pay is now $0.92.</p>\n            ","response":0,"trial_type":"html-button-response","trial_index":120,"time_elapsed":272348,"internal_node_id":"0.0-4.0-1.56","subject_id":"5f9aba6600cdf11f1c9b915c","study_id":"6197b3f67c2b5cd3b6d9596a","session_id":"619beee6ed896ed21b14102e","condition":"contingent","relevant_dimensions":["pattern","legs"],"bee_group":{"antennae":"X","wings":"X","pattern":"S","legs":"F"},"bonus":1.400000000000001},{"rt":1846.5,"stimulus":"bees-with-color/bee-A2SM.svg","response":0,"trial_type":"image-button-response","trial_index":121,"time_elapsed":274197,"internal_node_id":"0.0-4.0-0.57","subject_id":"5f9aba6600cdf11f1c9b915c","study_id":"6197b3f67c2b5cd3b6d9596a","session_id":"619beee6ed896ed21b14102e","condition":"contingent","relevant_dimensions":["pattern","legs"],"bee_group":{"antennae":"X","wings":"X","pattern":"S","legs":"F"},"action":"harvest","summary":"good-harvest","bonus":1.400000000000001},{"rt":866.6000000238419,"stimulus":"\n                    <p><b>Action: <em>harvest</em></b></p>\n                    <p>This is the bee that you just saw.</p>\n                    <img src=\"bees-with-color/bee-A2SM.svg\" width=\"200\">\n                    <p><span class=\"greenText\"><b>Successful harvest!</b></span><br>Your pay has increased by $0.02. Your bonus pay is now $0.94.</p>\n            ","response":0,"trial_type":"html-button-response","trial_index":122,"time_elapsed":275065,"internal_node_id":"0.0-4.0-1.57","subject_id":"5f9aba6600cdf11f1c9b915c","study_id":"6197b3f67c2b5cd3b6d9596a","session_id":"619beee6ed896ed21b14102e","condition":"contingent","relevant_dimensions":["pattern","legs"],"bee_group":{"antennae":"X","wings":"X","pattern":"S","legs":"F"},"bonus":1.400000000000001},{"rt":1674.199999988079,"stimulus":"bees-with-color/bee-B2SF.svg","response":1,"trial_type":"image-button-response","trial_index":123,"time_elapsed":276740,"internal_node_id":"0.0-4.0-0.58","subject_id":"5f9aba6600cdf11f1c9b915c","study_id":"6197b3f67c2b5cd3b6d9596a","session_id":"619beee6ed896ed21b14102e","condition":"contingent","relevant_dimensions":["pattern","legs"],"bee_group":{"antennae":"X","wings":"X","pattern":"S","legs":"F"},"action":"avoid","summary":"good-avoid","bonus":1.400000000000001},{"rt":1043.5999999642372,"stimulus":"\n                    <p><b>Action: <em>avoid</em></b></p>\n                    <p>This is the bee that you just saw.</p>\n                    <img src=\"bees-with-color/bee-B2SF.svg\" width=\"200\">\n                    <p><br>Your bonus pay is unchanged, and remains at $0.94.</p>\n            ","response":0,"trial_type":"html-button-response","trial_index":124,"time_elapsed":277786,"internal_node_id":"0.0-4.0-1.58","subject_id":"5f9aba6600cdf11f1c9b915c","study_id":"6197b3f67c2b5cd3b6d9596a","session_id":"619beee6ed896ed21b14102e","condition":"contingent","relevant_dimensions":["pattern","legs"],"bee_group":{"antennae":"X","wings":"X","pattern":"S","legs":"F"},"bonus":1.400000000000001},{"rt":1245.3999999761581,"stimulus":"bees-with-color/bee-B2DM.svg","response":0,"trial_type":"image-button-response","trial_index":125,"time_elapsed":279033,"internal_node_id":"0.0-4.0-0.59","subject_id":"5f9aba6600cdf11f1c9b915c","study_id":"6197b3f67c2b5cd3b6d9596a","session_id":"619beee6ed896ed21b14102e","condition":"contingent","relevant_dimensions":["pattern","legs"],"bee_group":{"antennae":"X","wings":"X","pattern":"S","legs":"F"},"action":"harvest","summary":"good-harvest","bonus":1.400000000000001},{"rt":898.5,"stimulus":"\n                    <p><b>Action: <em>harvest</em></b></p>\n                    <p>This is the bee that you just saw.</p>\n                    <img src=\"bees-with-color/bee-B2DM.svg\" width=\"200\">\n                    <p><span class=\"greenText\"><b>Successful harvest!</b></span><br>Your pay has increased by $0.02. Your bonus pay is now $0.96.</p>\n            ","response":0,"trial_type":"html-button-response","trial_index":126,"time_elapsed":279933,"internal_node_id":"0.0-4.0-1.59","subject_id":"5f9aba6600cdf11f1c9b915c","study_id":"6197b3f67c2b5cd3b6d9596a","session_id":"619beee6ed896ed21b14102e","condition":"contingent","relevant_dimensions":["pattern","legs"],"bee_group":{"antennae":"X","wings":"X","pattern":"S","legs":"F"},"bonus":1.400000000000001},{"rt":714.8999999761581,"stimulus":"bees-with-color/bee-A1DM.svg","response":0,"trial_type":"image-button-response","trial_index":127,"time_elapsed":280650,"internal_node_id":"0.0-4.0-0.60","subject_id":"5f9aba6600cdf11f1c9b915c","study_id":"6197b3f67c2b5cd3b6d9596a","session_id":"619beee6ed896ed21b14102e","condition":"contingent","relevant_dimensions":["pattern","legs"],"bee_group":{"antennae":"X","wings":"X","pattern":"S","legs":"F"},"action":"harvest","summary":"good-harvest","bonus":1.400000000000001},{"rt":942,"stimulus":"\n                    <p><b>Action: <em>harvest</em></b></p>\n                    <p>This is the bee that you just saw.</p>\n                    <img src=\"bees-with-color/bee-A1DM.svg\" width=\"200\">\n                    <p><span class=\"greenText\"><b>Successful harvest!</b></span><br>Your pay has increased by $0.02. Your bonus pay is now $0.98.</p>\n            ","response":0,"trial_type":"html-button-response","trial_index":128,"time_elapsed":281594,"internal_node_id":"0.0-4.0-1.60","subject_id":"5f9aba6600cdf11f1c9b915c","study_id":"6197b3f67c2b5cd3b6d9596a","session_id":"619beee6ed896ed21b14102e","condition":"contingent","relevant_dimensions":["pattern","legs"],"bee_group":{"antennae":"X","wings":"X","pattern":"S","legs":"F"},"bonus":1.400000000000001},{"rt":1176.3999999761581,"stimulus":"bees-with-color/bee-B1SF.svg","response":1,"trial_type":"image-button-response","trial_index":129,"time_elapsed":282772,"internal_node_id":"0.0-4.0-0.61","subject_id":"5f9aba6600cdf11f1c9b915c","study_id":"6197b3f67c2b5cd3b6d9596a","session_id":"619beee6ed896ed21b14102e","condition":"contingent","relevant_dimensions":["pattern","legs"],"bee_group":{"antennae":"X","wings":"X","pattern":"S","legs":"F"},"action":"avoid","summary":"good-avoid","bonus":1.400000000000001},{"rt":645.5999999642372,"stimulus":"\n                    <p><b>Action: <em>avoid</em></b></p>\n                    <p>This is the bee that you just saw.</p>\n                    <img src=\"bees-with-color/bee-B1SF.svg\" width=\"200\">\n                    <p><br>Your bonus pay is unchanged, and remains at $0.98.</p>\n            ","response":0,"trial_type":"html-button-response","trial_index":130,"time_elapsed":283420,"internal_node_id":"0.0-4.0-1.61","subject_id":"5f9aba6600cdf11f1c9b915c","study_id":"6197b3f67c2b5cd3b6d9596a","session_id":"619beee6ed896ed21b14102e","condition":"contingent","relevant_dimensions":["pattern","legs"],"bee_group":{"antennae":"X","wings":"X","pattern":"S","legs":"F"},"bonus":1.400000000000001},{"rt":994.0999999642372,"stimulus":"bees-with-color/bee-A2DM.svg","response":0,"trial_type":"image-button-response","trial_index":131,"time_elapsed":284416,"internal_node_id":"0.0-4.0-0.62","subject_id":"5f9aba6600cdf11f1c9b915c","study_id":"6197b3f67c2b5cd3b6d9596a","session_id":"619beee6ed896ed21b14102e","condition":"contingent","relevant_dimensions":["pattern","legs"],"bee_group":{"antennae":"X","wings":"X","pattern":"S","legs":"F"},"action":"harvest","summary":"good-harvest","bonus":1.400000000000001},{"rt":1305.5,"stimulus":"\n                    <p><b>Action: <em>harvest</em></b></p>\n                    <p>This is the bee that you just saw.</p>\n                    <img src=\"bees-with-color/bee-A2DM.svg\" width=\"200\">\n                    <p><span class=\"greenText\"><b>Successful harvest!</b></span><br>Your pay has increased by $0.02. Your bonus pay is now $1.00.</p>\n            ","response":0,"trial_type":"html-button-response","trial_index":132,"time_elapsed":285723,"internal_node_id":"0.0-4.0-1.62","subject_id":"5f9aba6600cdf11f1c9b915c","study_id":"6197b3f67c2b5cd3b6d9596a","session_id":"619beee6ed896ed21b14102e","condition":"contingent","relevant_dimensions":["pattern","legs"],"bee_group":{"antennae":"X","wings":"X","pattern":"S","legs":"F"},"bonus":1.400000000000001},{"rt":1937,"stimulus":"bees-with-color/bee-B2SM.svg","response":0,"trial_type":"image-button-response","trial_index":133,"time_elapsed":287662,"internal_node_id":"0.0-4.0-0.63","subject_id":"5f9aba6600cdf11f1c9b915c","study_id":"6197b3f67c2b5cd3b6d9596a","session_id":"619beee6ed896ed21b14102e","condition":"contingent","relevant_dimensions":["pattern","legs"],"bee_group":{"antennae":"X","wings":"X","pattern":"S","legs":"F"},"action":"harvest","summary":"good-harvest","bonus":1.400000000000001},{"rt":2353,"stimulus":"\n                    <p><b>Action: <em>harvest</em></b></p>\n                    <p>This is the bee that you just saw.</p>\n                    <img src=\"bees-with-color/bee-B2SM.svg\" width=\"200\">\n                    <p><span class=\"greenText\"><b>Successful harvest!</b></span><br>Your pay has increased by $0.02. Your bonus pay is now $1.02.</p>\n            ","response":0,"trial_type":"html-button-response","trial_index":134,"time_elapsed":290016,"internal_node_id":"0.0-4.0-1.63","subject_id":"5f9aba6600cdf11f1c9b915c","study_id":"6197b3f67c2b5cd3b6d9596a","session_id":"619beee6ed896ed21b14102e","condition":"contingent","relevant_dimensions":["pattern","legs"],"bee_group":{"antennae":"X","wings":"X","pattern":"S","legs":"F"},"bonus":1.400000000000001},{"rt":3089.400000035763,"stimulus":"You have completed the first part of this experiment.<br><br>You will now begin a shorter second part, in which you will receive no feedback.<br>The same rules regarding bonus pay apply.<br><br>Press any key to begin.","response":" ","trial_type":"html-keyboard-response","trial_index":135,"time_elapsed":293108,"internal_node_id":"0.0-5.0","subject_id":"5f9aba6600cdf11f1c9b915c","study_id":"6197b3f67c2b5cd3b6d9596a","session_id":"619beee6ed896ed21b14102e","condition":"contingent","relevant_dimensions":["pattern","legs"],"bee_group":{"antennae":"X","wings":"X","pattern":"S","legs":"F"},"bonus":1.400000000000001},{"rt":1895.199999988079,"stimulus":"bees-with-color/bee-B1DM.svg","response":0,"trial_type":"image-button-response","trial_index":136,"time_elapsed":295012,"internal_node_id":"0.0-6.0-0.0","subject_id":"5f9aba6600cdf11f1c9b915c","study_id":"6197b3f67c2b5cd3b6d9596a","session_id":"619beee6ed896ed21b14102e","condition":"contingent","relevant_dimensions":["pattern","legs"],"bee_group":{"antennae":"X","wings":"X","pattern":"S","legs":"F"},"bonus":1.400000000000001},{"rt":3154.899999976158,"stimulus":"bees-with-color/bee-A2DF.svg","response":0,"trial_type":"image-button-response","trial_index":137,"time_elapsed":298166,"internal_node_id":"0.0-6.0-0.1","subject_id":"5f9aba6600cdf11f1c9b915c","study_id":"6197b3f67c2b5cd3b6d9596a","session_id":"619beee6ed896ed21b14102e","condition":"contingent","relevant_dimensions":["pattern","legs"],"bee_group":{"antennae":"X","wings":"X","pattern":"S","legs":"F"},"bonus":1.400000000000001},{"rt":2353.900000035763,"stimulus":"bees-with-color/bee-B1SF.svg","response":1,"trial_type":"image-button-response","trial_index":138,"time_elapsed":300522,"internal_node_id":"0.0-6.0-0.2","subject_id":"5f9aba6600cdf11f1c9b915c","study_id":"6197b3f67c2b5cd3b6d9596a","session_id":"619beee6ed896ed21b14102e","condition":"contingent","relevant_dimensions":["pattern","legs"],"bee_group":{"antennae":"X","wings":"X","pattern":"S","legs":"F"},"bonus":1.400000000000001},{"rt":1833.1000000238419,"stimulus":"bees-with-color/bee-B2SM.svg","response":0,"trial_type":"image-button-response","trial_index":139,"time_elapsed":302357,"internal_node_id":"0.0-6.0-0.3","subject_id":"5f9aba6600cdf11f1c9b915c","study_id":"6197b3f67c2b5cd3b6d9596a","session_id":"619beee6ed896ed21b14102e","condition":"contingent","relevant_dimensions":["pattern","legs"],"bee_group":{"antennae":"X","wings":"X","pattern":"S","legs":"F"},"bonus":1.400000000000001},{"rt":1628.0999999642372,"stimulus":"bees-with-color/bee-B2DM.svg","response":0,"trial_type":"image-button-response","trial_index":140,"time_elapsed":303988,"internal_node_id":"0.0-6.0-0.4","subject_id":"5f9aba6600cdf11f1c9b915c","study_id":"6197b3f67c2b5cd3b6d9596a","session_id":"619beee6ed896ed21b14102e","condition":"contingent","relevant_dimensions":["pattern","legs"],"bee_group":{"antennae":"X","wings":"X","pattern":"S","legs":"F"},"bonus":1.400000000000001},{"rt":1125.0999999642372,"stimulus":"bees-with-color/bee-A1SM.svg","response":1,"trial_type":"image-button-response","trial_index":141,"time_elapsed":305115,"internal_node_id":"0.0-6.0-0.5","subject_id":"5f9aba6600cdf11f1c9b915c","study_id":"6197b3f67c2b5cd3b6d9596a","session_id":"619beee6ed896ed21b14102e","condition":"contingent","relevant_dimensions":["pattern","legs"],"bee_group":{"antennae":"X","wings":"X","pattern":"S","legs":"F"},"bonus":1.400000000000001},{"rt":1337.8999999761581,"stimulus":"bees-with-color/bee-B2SF.svg","response":1,"trial_type":"image-button-response","trial_index":142,"time_elapsed":306455,"internal_node_id":"0.0-6.0-0.6","subject_id":"5f9aba6600cdf11f1c9b915c","study_id":"6197b3f67c2b5cd3b6d9596a","session_id":"619beee6ed896ed21b14102e","condition":"contingent","relevant_dimensions":["pattern","legs"],"bee_group":{"antennae":"X","wings":"X","pattern":"S","legs":"F"},"bonus":1.400000000000001},{"rt":876.7999999523163,"stimulus":"bees-with-color/bee-B2DF.svg","response":0,"trial_type":"image-button-response","trial_index":143,"time_elapsed":307335,"internal_node_id":"0.0-6.0-0.7","subject_id":"5f9aba6600cdf11f1c9b915c","study_id":"6197b3f67c2b5cd3b6d9596a","session_id":"619beee6ed896ed21b14102e","condition":"contingent","relevant_dimensions":["pattern","legs"],"bee_group":{"antennae":"X","wings":"X","pattern":"S","legs":"F"},"bonus":1.400000000000001},{"rt":900,"stimulus":"bees-with-color/bee-A2SF.svg","response":1,"trial_type":"image-button-response","trial_index":144,"time_elapsed":308237,"internal_node_id":"0.0-6.0-0.8","subject_id":"5f9aba6600cdf11f1c9b915c","study_id":"6197b3f67c2b5cd3b6d9596a","session_id":"619beee6ed896ed21b14102e","condition":"contingent","relevant_dimensions":["pattern","legs"],"bee_group":{"antennae":"X","wings":"X","pattern":"S","legs":"F"},"bonus":1.400000000000001},{"rt":686.6999999880791,"stimulus":"bees-with-color/bee-B1DF.svg","response":0,"trial_type":"image-button-response","trial_index":145,"time_elapsed":308927,"internal_node_id":"0.0-6.0-0.9","subject_id":"5f9aba6600cdf11f1c9b915c","study_id":"6197b3f67c2b5cd3b6d9596a","session_id":"619beee6ed896ed21b14102e","condition":"contingent","relevant_dimensions":["pattern","legs"],"bee_group":{"antennae":"X","wings":"X","pattern":"S","legs":"F"},"bonus":1.400000000000001},{"rt":1838.5,"stimulus":"bees-with-color/bee-A2SM.svg","response":0,"trial_type":"image-button-response","trial_index":146,"time_elapsed":310767,"internal_node_id":"0.0-6.0-0.10","subject_id":"5f9aba6600cdf11f1c9b915c","study_id":"6197b3f67c2b5cd3b6d9596a","session_id":"619beee6ed896ed21b14102e","condition":"contingent","relevant_dimensions":["pattern","legs"],"bee_group":{"antennae":"X","wings":"X","pattern":"S","legs":"F"},"bonus":1.400000000000001},{"rt":1573.1000000238419,"stimulus":"bees-with-color/bee-A1DF.svg","response":0,"trial_type":"image-button-response","trial_index":147,"time_elapsed":312342,"internal_node_id":"0.0-6.0-0.11","subject_id":"5f9aba6600cdf11f1c9b915c","study_id":"6197b3f67c2b5cd3b6d9596a","session_id":"619beee6ed896ed21b14102e","condition":"contingent","relevant_dimensions":["pattern","legs"],"bee_group":{"antennae":"X","wings":"X","pattern":"S","legs":"F"},"bonus":1.400000000000001},{"rt":3130,"stimulus":"bees-with-color/bee-B1SM.svg","response":1,"trial_type":"image-button-response","trial_index":148,"time_elapsed":315474,"internal_node_id":"0.0-6.0-0.12","subject_id":"5f9aba6600cdf11f1c9b915c","study_id":"6197b3f67c2b5cd3b6d9596a","session_id":"619beee6ed896ed21b14102e","condition":"contingent","relevant_dimensions":["pattern","legs"],"bee_group":{"antennae":"X","wings":"X","pattern":"S","legs":"F"},"bonus":1.400000000000001},{"rt":812.4000000357628,"stimulus":"bees-with-color/bee-A2DM.svg","response":0,"trial_type":"image-button-response","trial_index":149,"time_elapsed":316289,"internal_node_id":"0.0-6.0-0.13","subject_id":"5f9aba6600cdf11f1c9b915c","study_id":"6197b3f67c2b5cd3b6d9596a","session_id":"619beee6ed896ed21b14102e","condition":"contingent","relevant_dimensions":["pattern","legs"],"bee_group":{"antennae":"X","wings":"X","pattern":"S","legs":"F"},"bonus":1.400000000000001},{"rt":608.1999999880791,"stimulus":"bees-with-color/bee-A1DM.svg","response":0,"trial_type":"image-button-response","trial_index":150,"time_elapsed":316899,"internal_node_id":"0.0-6.0-0.14","subject_id":"5f9aba6600cdf11f1c9b915c","study_id":"6197b3f67c2b5cd3b6d9596a","session_id":"619beee6ed896ed21b14102e","condition":"contingent","relevant_dimensions":["pattern","legs"],"bee_group":{"antennae":"X","wings":"X","pattern":"S","legs":"F"},"bonus":1.400000000000001},{"rt":955.1999999880791,"stimulus":"bees-with-color/bee-A1SF.svg","response":1,"trial_type":"image-button-response","trial_index":151,"time_elapsed":317857,"internal_node_id":"0.0-6.0-0.15","subject_id":"5f9aba6600cdf11f1c9b915c","study_id":"6197b3f67c2b5cd3b6d9596a","session_id":"619beee6ed896ed21b14102e","condition":"contingent","relevant_dimensions":["pattern","legs"],"bee_group":{"antennae":"X","wings":"X","pattern":"S","legs":"F"},"bonus":1.400000000000001},{"rt":1084.7000000476837,"stimulus":"bees-with-color/bee-B1DM.svg","response":0,"trial_type":"image-button-response","trial_index":152,"time_elapsed":318943,"internal_node_id":"0.0-6.0-0.16","subject_id":"5f9aba6600cdf11f1c9b915c","study_id":"6197b3f67c2b5cd3b6d9596a","session_id":"619beee6ed896ed21b14102e","condition":"contingent","relevant_dimensions":["pattern","legs"],"bee_group":{"antennae":"X","wings":"X","pattern":"S","legs":"F"},"bonus":1.400000000000001},{"rt":568.0999999642372,"stimulus":"bees-with-color/bee-A1DF.svg","response":0,"trial_type":"image-button-response","trial_index":153,"time_elapsed":319513,"internal_node_id":"0.0-6.0-0.17","subject_id":"5f9aba6600cdf11f1c9b915c","study_id":"6197b3f67c2b5cd3b6d9596a","session_id":"619beee6ed896ed21b14102e","condition":"contingent","relevant_dimensions":["pattern","legs"],"bee_group":{"antennae":"X","wings":"X","pattern":"S","legs":"F"},"bonus":1.400000000000001},{"rt":893.8000000119209,"stimulus":"bees-with-color/bee-A2SF.svg","response":1,"trial_type":"image-button-response","trial_index":154,"time_elapsed":320409,"internal_node_id":"0.0-6.0-0.18","subject_id":"5f9aba6600cdf11f1c9b915c","study_id":"6197b3f67c2b5cd3b6d9596a","session_id":"619beee6ed896ed21b14102e","condition":"contingent","relevant_dimensions":["pattern","legs"],"bee_group":{"antennae":"X","wings":"X","pattern":"S","legs":"F"},"bonus":1.400000000000001},{"rt":646.1999999880791,"stimulus":"bees-with-color/bee-B2DF.svg","response":0,"trial_type":"image-button-response","trial_index":155,"time_elapsed":321057,"internal_node_id":"0.0-6.0-0.19","subject_id":"5f9aba6600cdf11f1c9b915c","study_id":"6197b3f67c2b5cd3b6d9596a","session_id":"619beee6ed896ed21b14102e","condition":"contingent","relevant_dimensions":["pattern","legs"],"bee_group":{"antennae":"X","wings":"X","pattern":"S","legs":"F"},"bonus":1.400000000000001},{"rt":879.5,"stimulus":"bees-with-color/bee-B2SF.svg","response":1,"trial_type":"image-button-response","trial_index":156,"time_elapsed":321938,"internal_node_id":"0.0-6.0-0.20","subject_id":"5f9aba6600cdf11f1c9b915c","study_id":"6197b3f67c2b5cd3b6d9596a","session_id":"619beee6ed896ed21b14102e","condition":"contingent","relevant_dimensions":["pattern","legs"],"bee_group":{"antennae":"X","wings":"X","pattern":"S","legs":"F"},"bonus":1.400000000000001},{"rt":867.4000000357628,"stimulus":"bees-with-color/bee-B2SM.svg","response":1,"trial_type":"image-button-response","trial_index":157,"time_elapsed":322807,"internal_node_id":"0.0-6.0-0.21","subject_id":"5f9aba6600cdf11f1c9b915c","study_id":"6197b3f67c2b5cd3b6d9596a","session_id":"619beee6ed896ed21b14102e","condition":"contingent","relevant_dimensions":["pattern","legs"],"bee_group":{"antennae":"X","wings":"X","pattern":"S","legs":"F"},"bonus":1.400000000000001},{"rt":860.6999999880791,"stimulus":"bees-with-color/bee-B1DF.svg","response":0,"trial_type":"image-button-response","trial_index":158,"time_elapsed":323670,"internal_node_id":"0.0-6.0-0.22","subject_id":"5f9aba6600cdf11f1c9b915c","study_id":"6197b3f67c2b5cd3b6d9596a","session_id":"619beee6ed896ed21b14102e","condition":"contingent","relevant_dimensions":["pattern","legs"],"bee_group":{"antennae":"X","wings":"X","pattern":"S","legs":"F"},"bonus":1.400000000000001},{"rt":745.8999999761581,"stimulus":"bees-with-color/bee-B2DM.svg","response":0,"trial_type":"image-button-response","trial_index":159,"time_elapsed":324417,"internal_node_id":"0.0-6.0-0.23","subject_id":"5f9aba6600cdf11f1c9b915c","study_id":"6197b3f67c2b5cd3b6d9596a","session_id":"619beee6ed896ed21b14102e","condition":"contingent","relevant_dimensions":["pattern","legs"],"bee_group":{"antennae":"X","wings":"X","pattern":"S","legs":"F"},"bonus":1.400000000000001},{"rt":1294,"stimulus":"bees-with-color/bee-A2SM.svg","response":0,"trial_type":"image-button-response","trial_index":160,"time_elapsed":325713,"internal_node_id":"0.0-6.0-0.24","subject_id":"5f9aba6600cdf11f1c9b915c","study_id":"6197b3f67c2b5cd3b6d9596a","session_id":"619beee6ed896ed21b14102e","condition":"contingent","relevant_dimensions":["pattern","legs"],"bee_group":{"antennae":"X","wings":"X","pattern":"S","legs":"F"},"bonus":1.400000000000001},{"rt":928.5,"stimulus":"bees-with-color/bee-A1DM.svg","response":0,"trial_type":"image-button-response","trial_index":161,"time_elapsed":326643,"internal_node_id":"0.0-6.0-0.25","subject_id":"5f9aba6600cdf11f1c9b915c","study_id":"6197b3f67c2b5cd3b6d9596a","session_id":"619beee6ed896ed21b14102e","condition":"contingent","relevant_dimensions":["pattern","legs"],"bee_group":{"antennae":"X","wings":"X","pattern":"S","legs":"F"},"bonus":1.400000000000001},{"rt":1151.6000000238419,"stimulus":"bees-with-color/bee-A1SF.svg","response":1,"trial_type":"image-button-response","trial_index":162,"time_elapsed":327796,"internal_node_id":"0.0-6.0-0.26","subject_id":"5f9aba6600cdf11f1c9b915c","study_id":"6197b3f67c2b5cd3b6d9596a","session_id":"619beee6ed896ed21b14102e","condition":"contingent","relevant_dimensions":["pattern","legs"],"bee_group":{"antennae":"X","wings":"X","pattern":"S","legs":"F"},"bonus":1.400000000000001},{"rt":1574.0999999642372,"stimulus":"bees-with-color/bee-B1SF.svg","response":1,"trial_type":"image-button-response","trial_index":163,"time_elapsed":329373,"internal_node_id":"0.0-6.0-0.27","subject_id":"5f9aba6600cdf11f1c9b915c","study_id":"6197b3f67c2b5cd3b6d9596a","session_id":"619beee6ed896ed21b14102e","condition":"contingent","relevant_dimensions":["pattern","legs"],"bee_group":{"antennae":"X","wings":"X","pattern":"S","legs":"F"},"bonus":1.400000000000001},{"rt":1060,"stimulus":"bees-with-color/bee-A1SM.svg","response":1,"trial_type":"image-button-response","trial_index":164,"time_elapsed":330435,"internal_node_id":"0.0-6.0-0.28","subject_id":"5f9aba6600cdf11f1c9b915c","study_id":"6197b3f67c2b5cd3b6d9596a","session_id":"619beee6ed896ed21b14102e","condition":"contingent","relevant_dimensions":["pattern","legs"],"bee_group":{"antennae"