[{"success":true,"trial_type":"fullscreen","trial_index":0,"time_elapsed":30462,"internal_node_id":"0.0-0.0","subject_id":"57fe6296035f6e0001d71d05","study_id":"60edd13110225f80f9f3709b","session_id":"6196c6ffa86484a0affe55f9","condition":"contingent","relevant_dimensions":["antennae","legs"],"bee_group":{"antennae":"B","wings":"X","pattern":"X","legs":"M"},"bonus":0.6200000000000009},{"success":true,"timeout":false,"failed_images":[],"failed_audio":[],"failed_video":[],"trial_type":"preload","trial_index":1,"time_elapsed":32970,"internal_node_id":"0.0-1.0","subject_id":"57fe6296035f6e0001d71d05","study_id":"60edd13110225f80f9f3709b","session_id":"6196c6ffa86484a0affe55f9","condition":"contingent","relevant_dimensions":["antennae","legs"],"bee_group":{"antennae":"B","wings":"X","pattern":"X","legs":"M"},"bonus":0.6200000000000009},{"rt":3124,"stimulus":"Welcome! Press any key to begin.","response":"arrowup","trial_type":"html-keyboard-response","trial_index":2,"time_elapsed":36099,"internal_node_id":"0.0-2.0","subject_id":"57fe6296035f6e0001d71d05","study_id":"60edd13110225f80f9f3709b","session_id":"6196c6ffa86484a0affe55f9","condition":"contingent","relevant_dimensions":["antennae","legs"],"bee_group":{"antennae":"B","wings":"X","pattern":"X","legs":"M"},"bonus":0.6200000000000009},{"view_history":[{"page_index":0,"viewing_time":5945},{"page_index":1,"viewing_time":14928},{"page_index":2,"viewing_time":12056},{"page_index":3,"viewing_time":27656},{"page_index":4,"viewing_time":6608},{"page_index":5,"viewing_time":6192},{"page_index":6,"viewing_time":9367},{"page_index":7,"viewing_time":5368},{"page_index":8,"viewing_time":3633},{"page_index":9,"viewing_time":3632},{"page_index":10,"viewing_time":3248},{"page_index":11,"viewing_time":11840},{"page_index":12,"viewing_time":7295},{"page_index":13,"viewing_time":1241},{"page_index":14,"viewing_time":1848}],"rt":120857,"trial_type":"instructions","trial_index":3,"time_elapsed":156957,"internal_node_id":"0.0-3.0-0.0","subject_id":"57fe6296035f6e0001d71d05","study_id":"60edd13110225f80f9f3709b","session_id":"6196c6ffa86484a0affe55f9","condition":"contingent","relevant_dimensions":["antennae","legs"],"bee_group":{"antennae":"B","wings":"X","pattern":"X","legs":"M"},"bonus":0.6200000000000009},{"rt":11568,"response":{"Q0":["Two or six legs","Stripes or spots on body","Single or double wings","Antennae or no antennae"]},"question_order":[0],"trial_type":"survey-multi-select","trial_index":4,"time_elapsed":168532,"internal_node_id":"0.0-3.0-1.0","subject_id":"57fe6296035f6e0001d71d05","study_id":"60edd13110225f80f9f3709b","session_id":"6196c6ffa86484a0affe55f9","condition":"contingent","relevant_dimensions":["antennae","legs"],"bee_group":{"antennae":"B","wings":"X","pattern":"X","legs":"M"},"correct":true,"bonus":0.6200000000000009},{"rt":30447,"response":{"Q1":"No.","Q2":"Based on the four features of the bee.","Q3":"You do not learn if it was friendly or dangerous, and do not alter your bonus."},"question_order":[0,1,2],"trial_type":"survey-multi-choice","trial_index":5,"time_elapsed":198982,"internal_node_id":"0.0-3.0-2.0","subject_id":"57fe6296035f6e0001d71d05","study_id":"60edd13110225f80f9f3709b","session_id":"6196c6ffa86484a0affe55f9","condition":"contingent","relevant_dimensions":["antennae","legs"],"bee_group":{"antennae":"B","wings":"X","pattern":"X","legs":"M"},"correct":true,"bonus":0.6200000000000009},{"rt":3589,"stimulus":"<p>Congrats, you got everything right<br>When you're ready, click the button below to continue to the experiment.</p>","response":0,"trial_type":"html-button-response","trial_index":6,"time_elapsed":202573,"internal_node_id":"0.0-3.0-3.0","subject_id":"57fe6296035f6e0001d71d05","study_id":"60edd13110225f80f9f3709b","session_id":"6196c6ffa86484a0affe55f9","condition":"contingent","relevant_dimensions":["antennae","legs"],"bee_group":{"antennae":"B","wings":"X","pattern":"X","legs":"M"},"bonus":0.6200000000000009},{"rt":2973,"stimulus":"bees-with-color/bee-A1SM.svg","response":0,"trial_type":"image-button-response","trial_index":7,"time_elapsed":205549,"internal_node_id":"0.0-4.0-0.0","subject_id":"57fe6296035f6e0001d71d05","study_id":"60edd13110225f80f9f3709b","session_id":"6196c6ffa86484a0affe55f9","condition":"contingent","relevant_dimensions":["antennae","legs"],"bee_group":{"antennae":"B","wings":"X","pattern":"X","legs":"M"},"action":"harvest","summary":"good-harvest","bonus":0.6200000000000009},{"rt":5834,"stimulus":"\n                    <p><b>Action: <em>harvest</em></b></p>\n                    <p>This is the bee that you just saw.</p>\n                    <img src=\"bees-with-color/bee-A1SM.svg\" width=\"200\">\n                    <p><span class=\"greenText\"><b>Successful harvest!</b></span><br>Your pay has increased by $0.02. Your bonus pay is now $0.56.</p>\n            ","response":0,"trial_type":"html-button-response","trial_index":8,"time_elapsed":211404,"internal_node_id":"0.0-4.0-1.0","subject_id":"57fe6296035f6e0001d71d05","study_id":"60edd13110225f80f9f3709b","session_id":"6196c6ffa86484a0affe55f9","condition":"contingent","relevant_dimensions":["antennae","legs"],"bee_group":{"antennae":"B","wings":"X","pattern":"X","legs":"M"},"bonus":0.6200000000000009},{"rt":3271,"stimulus":"bees-with-color/bee-A1DM.svg","response":1,"trial_type":"image-button-response","trial_index":9,"time_elapsed":214677,"internal_node_id":"0.0-4.0-0.1","subject_id":"57fe6296035f6e0001d71d05","study_id":"60edd13110225f80f9f3709b","session_id":"6196c6ffa86484a0affe55f9","condition":"contingent","relevant_dimensions":["antennae","legs"],"bee_group":{"antennae":"B","wings":"X","pattern":"X","legs":"M"},"action":"avoid","summary":"bad-avoid","bonus":0.6200000000000009},{"rt":4637,"stimulus":"\n                    <p><b>Action: <em>avoid</em></b></p>\n                    <p>This is the bee that you just saw.</p>\n                    <img src=\"bees-with-color/bee-A1DM.svg\" width=\"200\">\n                    <p><br>Your bonus pay is unchanged, and remains at $0.56.</p>\n            ","response":0,"trial_type":"html-button-response","trial_index":10,"time_elapsed":219317,"internal_node_id":"0.0-4.0-1.1","subject_id":"57fe6296035f6e0001d71d05","study_id":"60edd13110225f80f9f3709b","session_id":"6196c6ffa86484a0affe55f9","condition":"contingent","relevant_dimensions":["antennae","legs"],"bee_group":{"antennae":"B","wings":"X","pattern":"X","legs":"M"},"bonus":0.6200000000000009},{"rt":1903,"stimulus":"bees-with-color/bee-A2DF.svg","response":1,"trial_type":"image-button-response","trial_index":11,"time_elapsed":221221,"internal_node_id":"0.0-4.0-0.2","subject_id":"57fe6296035f6e0001d71d05","study_id":"60edd13110225f80f9f3709b","session_id":"6196c6ffa86484a0affe55f9","condition":"contingent","relevant_dimensions":["antennae","legs"],"bee_group":{"antennae":"B","wings":"X","pattern":"X","legs":"M"},"action":"avoid","summary":"bad-avoid","bonus":0.6200000000000009},{"rt":1837,"stimulus":"\n                    <p><b>Action: <em>avoid</em></b></p>\n                    <p>This is the bee that you just saw.</p>\n                    <img src=\"bees-with-color/bee-A2DF.svg\" width=\"200\">\n                    <p><br>Your bonus pay is unchanged, and remains at $0.56.</p>\n            ","response":0,"trial_type":"html-button-response","trial_index":12,"time_elapsed":223061,"internal_node_id":"0.0-4.0-1.2","subject_id":"57fe6296035f6e0001d71d05","study_id":"60edd13110225f80f9f3709b","session_id":"6196c6ffa86484a0affe55f9","condition":"contingent","relevant_dimensions":["antennae","legs"],"bee_group":{"antennae":"B","wings":"X","pattern":"X","legs":"M"},"bonus":0.6200000000000009},{"rt":7414,"stimulus":"bees-with-color/bee-B2SM.svg","response":0,"trial_type":"image-button-response","trial_index":13,"time_elapsed":230476,"internal_node_id":"0.0-4.0-0.3","subject_id":"57fe6296035f6e0001d71d05","study_id":"60edd13110225f80f9f3709b","session_id":"6196c6ffa86484a0affe55f9","condition":"contingent","relevant_dimensions":["antennae","legs"],"bee_group":{"antennae":"B","wings":"X","pattern":"X","legs":"M"},"action":"harvest","summary":"bad-harvest","bonus":0.6200000000000009},{"rt":4559,"stimulus":"\n                    <p><b>Action: <em>harvest</em></b></p>\n                    <p>This is the bee that you just saw.</p>\n                    <img src=\"bees-with-color/bee-B2SM.svg\" width=\"200\">\n                    <p><span class=\"redText\">Bad choice, the bee was angry.</span><br><b>You have been stung!</b><br>Your pay has been decreased by $0.10. Your bonus pay is now $0.46.</p>\n            ","response":0,"trial_type":"html-button-response","trial_index":14,"time_elapsed":235037,"internal_node_id":"0.0-4.0-1.3","subject_id":"57fe6296035f6e0001d71d05","study_id":"60edd13110225f80f9f3709b","session_id":"6196c6ffa86484a0affe55f9","condition":"contingent","relevant_dimensions":["antennae","legs"],"bee_group":{"antennae":"B","wings":"X","pattern":"X","legs":"M"},"bonus":0.6200000000000009},{"rt":6327,"stimulus":"bees-with-color/bee-B2DF.svg","response":0,"trial_type":"image-button-response","trial_index":15,"time_elapsed":241365,"internal_node_id":"0.0-4.0-0.4","subject_id":"57fe6296035f6e0001d71d05","study_id":"60edd13110225f80f9f3709b","session_id":"6196c6ffa86484a0affe55f9","condition":"contingent","relevant_dimensions":["antennae","legs"],"bee_group":{"antennae":"B","wings":"X","pattern":"X","legs":"M"},"action":"harvest","summary":"good-harvest","bonus":0.6200000000000009},{"rt":12159,"stimulus":"\n                    <p><b>Action: <em>harvest</em></b></p>\n                    <p>This is the bee that you just saw.</p>\n                    <img src=\"bees-with-color/bee-B2DF.svg\" width=\"200\">\n                    <p><span class=\"greenText\"><b>Successful harvest!</b></span><br>Your pay has increased by $0.02. Your bonus pay is now $0.48.</p>\n            ","response":0,"trial_type":"html-button-response","trial_index":16,"time_elapsed":253525,"internal_node_id":"0.0-4.0-1.4","subject_id":"57fe6296035f6e0001d71d05","study_id":"60edd13110225f80f9f3709b","session_id":"6196c6ffa86484a0affe55f9","condition":"contingent","relevant_dimensions":["antennae","legs"],"bee_group":{"antennae":"B","wings":"X","pattern":"X","legs":"M"},"bonus":0.6200000000000009},{"rt":5862,"stimulus":"bees-with-color/bee-B2DM.svg","response":1,"trial_type":"image-button-response","trial_index":17,"time_elapsed":259389,"internal_node_id":"0.0-4.0-0.5","subject_id":"57fe6296035f6e0001d71d05","study_id":"60edd13110225f80f9f3709b","session_id":"6196c6ffa86484a0affe55f9","condition":"contingent","relevant_dimensions":["antennae","legs"],"bee_group":{"antennae":"B","wings":"X","pattern":"X","legs":"M"},"action":"avoid","summary":"good-avoid","bonus":0.6200000000000009},{"rt":1207,"stimulus":"\n                    <p><b>Action: <em>avoid</em></b></p>\n                    <p>This is the bee that you just saw.</p>\n                    <img src=\"bees-with-color/bee-B2DM.svg\" width=\"200\">\n                    <p><br>Your bonus pay is unchanged, and remains at $0.48.</p>\n            ","response":0,"trial_type":"html-button-response","trial_index":18,"time_elapsed":260597,"internal_node_id":"0.0-4.0-1.5","subject_id":"57fe6296035f6e0001d71d05","study_id":"60edd13110225f80f9f3709b","session_id":"6196c6ffa86484a0affe55f9","condition":"contingent","relevant_dimensions":["antennae","legs"],"bee_group":{"antennae":"B","wings":"X","pattern":"X","legs":"M"},"bonus":0.6200000000000009},{"rt":1486,"stimulus":"bees-with-color/bee-A2SM.svg","response":0,"trial_type":"image-button-response","trial_index":19,"time_elapsed":262084,"internal_node_id":"0.0-4.0-0.6","subject_id":"57fe6296035f6e0001d71d05","study_id":"60edd13110225f80f9f3709b","session_id":"6196c6ffa86484a0affe55f9","condition":"contingent","relevant_dimensions":["antennae","legs"],"bee_group":{"antennae":"B","wings":"X","pattern":"X","legs":"M"},"action":"harvest","summary":"good-harvest","bonus":0.6200000000000009},{"rt":1446,"stimulus":"\n                    <p><b>Action: <em>harvest</em></b></p>\n                    <p>This is the bee that you just saw.</p>\n                    <img src=\"bees-with-color/bee-A2SM.svg\" width=\"200\">\n                    <p><span class=\"greenText\"><b>Successful harvest!</b></span><br>Your pay has increased by $0.02. Your bonus pay is now $0.50.</p>\n            ","response":0,"trial_type":"html-button-response","trial_index":20,"time_elapsed":263533,"internal_node_id":"0.0-4.0-1.6","subject_id":"57fe6296035f6e0001d71d05","study_id":"60edd13110225f80f9f3709b","session_id":"6196c6ffa86484a0affe55f9","condition":"contingent","relevant_dimensions":["antennae","legs"],"bee_group":{"antennae":"B","wings":"X","pattern":"X","legs":"M"},"bonus":0.6200000000000009},{"rt":3397,"stimulus":"bees-with-color/bee-B1DF.svg","response":1,"trial_type":"image-button-response","trial_index":21,"time_elapsed":266933,"internal_node_id":"0.0-4.0-0.7","subject_id":"57fe6296035f6e0001d71d05","study_id":"60edd13110225f80f9f3709b","session_id":"6196c6ffa86484a0affe55f9","condition":"contingent","relevant_dimensions":["antennae","legs"],"bee_group":{"antennae":"B","wings":"X","pattern":"X","legs":"M"},"action":"avoid","summary":"bad-avoid","bonus":0.6200000000000009},{"rt":1950,"stimulus":"\n                    <p><b>Action: <em>avoid</em></b></p>\n                    <p>This is the bee that you just saw.</p>\n                    <img src=\"bees-with-color/bee-B1DF.svg\" width=\"200\">\n                    <p><br>Your bonus pay is unchanged, and remains at $0.50.</p>\n            ","response":0,"trial_type":"html-button-response","trial_index":22,"time_elapsed":268885,"internal_node_id":"0.0-4.0-1.7","subject_id":"57fe6296035f6e0001d71d05","study_id":"60edd13110225f80f9f3709b","session_id":"6196c6ffa86484a0affe55f9","condition":"contingent","relevant_dimensions":["antennae","legs"],"bee_group":{"antennae":"B","wings":"X","pattern":"X","legs":"M"},"bonus":0.6200000000000009},{"rt":3847,"stimulus":"bees-with-color/bee-B2SF.svg","response":1,"trial_type":"image-button-response","trial_index":23,"time_elapsed":272732,"internal_node_id":"0.0-4.0-0.8","subject_id":"57fe6296035f6e0001d71d05","study_id":"60edd13110225f80f9f3709b","session_id":"6196c6ffa86484a0affe55f9","condition":"contingent","relevant_dimensions":["antennae","legs"],"bee_group":{"antennae":"B","wings":"X","pattern":"X","legs":"M"},"action":"avoid","summary":"bad-avoid","bonus":0.6200000000000009},{"rt":957,"stimulus":"\n                    <p><b>Action: <em>avoid</em></b></p>\n                    <p>This is the bee that you just saw.</p>\n                    <img src=\"bees-with-color/bee-B2SF.svg\" width=\"200\">\n                    <p><br>Your bonus pay is unchanged, and remains at $0.50.</p>\n            ","response":0,"trial_type":"html-button-response","trial_index":24,"time_elapsed":273692,"internal_node_id":"0.0-4.0-1.8","subject_id":"57fe6296035f6e0001d71d05","study_id":"60edd13110225f80f9f3709b","session_id":"6196c6ffa86484a0affe55f9","condition":"contingent","relevant_dimensions":["antennae","legs"],"bee_group":{"antennae":"B","wings":"X","pattern":"X","legs":"M"},"bonus":0.6200000000000009},{"rt":2135,"stimulus":"bees-with-color/bee-A2DM.svg","response":0,"trial_type":"image-button-response","trial_index":25,"time_elapsed":275829,"internal_node_id":"0.0-4.0-0.9","subject_id":"57fe6296035f6e0001d71d05","study_id":"60edd13110225f80f9f3709b","session_id":"6196c6ffa86484a0affe55f9","condition":"contingent","relevant_dimensions":["antennae","legs"],"bee_group":{"antennae":"B","wings":"X","pattern":"X","legs":"M"},"action":"harvest","summary":"good-harvest","bonus":0.6200000000000009},{"rt":1215,"stimulus":"\n                    <p><b>Action: <em>harvest</em></b></p>\n                    <p>This is the bee that you just saw.</p>\n                    <img src=\"bees-with-color/bee-A2DM.svg\" width=\"200\">\n                    <p><span class=\"greenText\"><b>Successful harvest!</b></span><br>Your pay has increased by $0.02. Your bonus pay is now $0.52.</p>\n            ","response":0,"trial_type":"html-button-response","trial_index":26,"time_elapsed":277045,"internal_node_id":"0.0-4.0-1.9","subject_id":"57fe6296035f6e0001d71d05","study_id":"60edd13110225f80f9f3709b","session_id":"6196c6ffa86484a0affe55f9","condition":"contingent","relevant_dimensions":["antennae","legs"],"bee_group":{"antennae":"B","wings":"X","pattern":"X","legs":"M"},"bonus":0.6200000000000009},{"rt":11614,"stimulus":"bees-with-color/bee-A1DF.svg","response":0,"trial_type":"image-button-response","trial_index":27,"time_elapsed":288661,"internal_node_id":"0.0-4.0-0.10","subject_id":"57fe6296035f6e0001d71d05","study_id":"60edd13110225f80f9f3709b","session_id":"6196c6ffa86484a0affe55f9","condition":"contingent","relevant_dimensions":["antennae","legs"],"bee_group":{"antennae":"B","wings":"X","pattern":"X","legs":"M"},"action":"harvest","summary":"good-harvest","bonus":0.6200000000000009},{"rt":2207,"stimulus":"\n                    <p><b>Action: <em>harvest</em></b></p>\n                    <p>This is the bee that you just saw.</p>\n                    <img src=\"bees-with-color/bee-A1DF.svg\" width=\"200\">\n                    <p><span class=\"greenText\"><b>Successful harvest!</b></span><br>Your pay has increased by $0.02. Your bonus pay is now $0.54.</p>\n            ","response":0,"trial_type":"html-button-response","trial_index":28,"time_elapsed":290868,"internal_node_id":"0.0-4.0-1.10","subject_id":"57fe6296035f6e0001d71d05","study_id":"60edd13110225f80f9f3709b","session_id":"6196c6ffa86484a0affe55f9","condition":"contingent","relevant_dimensions":["antennae","legs"],"bee_group":{"antennae":"B","wings":"X","pattern":"X","legs":"M"},"bonus":0.6200000000000009},{"rt":2991,"stimulus":"bees-with-color/bee-B1SF.svg","response":1,"trial_type":"image-button-response","trial_index":29,"time_elapsed":293861,"internal_node_id":"0.0-4.0-0.11","subject_id":"57fe6296035f6e0001d71d05","study_id":"60edd13110225f80f9f3709b","session_id":"6196c6ffa86484a0affe55f9","condition":"contingent","relevant_dimensions":["antennae","legs"],"bee_group":{"antennae":"B","wings":"X","pattern":"X","legs":"M"},"action":"avoid","summary":"bad-avoid","bonus":0.6200000000000009},{"rt":758,"stimulus":"\n                    <p><b>Action: <em>avoid</em></b></p>\n                    <p>This is the bee that you just saw.</p>\n                    <img src=\"bees-with-color/bee-B1SF.svg\" width=\"200\">\n                    <p><br>Your bonus pay is unchanged, and remains at $0.54.</p>\n            ","response":0,"trial_type":"html-button-response","trial_index":30,"time_elapsed":294621,"internal_node_id":"0.0-4.0-1.11","subject_id":"57fe6296035f6e0001d71d05","study_id":"60edd13110225f80f9f3709b","session_id":"6196c6ffa86484a0affe55f9","condition":"contingent","relevant_dimensions":["antennae","legs"],"bee_group":{"antennae":"B","wings":"X","pattern":"X","legs":"M"},"bonus":0.6200000000000009},{"rt":5134,"stimulus":"bees-with-color/bee-A2SF.svg","response":1,"trial_type":"image-button-response","trial_index":31,"time_elapsed":299757,"internal_node_id":"0.0-4.0-0.12","subject_id":"57fe6296035f6e0001d71d05","study_id":"60edd13110225f80f9f3709b","session_id":"6196c6ffa86484a0affe55f9","condition":"contingent","relevant_dimensions":["antennae","legs"],"bee_group":{"antennae":"B","wings":"X","pattern":"X","legs":"M"},"action":"avoid","summary":"bad-avoid","bonus":0.6200000000000009},{"rt":734,"stimulus":"\n                    <p><b>Action: <em>avoid</em></b></p>\n                    <p>This is the bee that you just saw.</p>\n                    <img src=\"bees-with-color/bee-A2SF.svg\" width=\"200\">\n                    <p><br>Your bonus pay is unchanged, and remains at $0.54.</p>\n            ","response":0,"trial_type":"html-button-response","trial_index":32,"time_elapsed":300493,"internal_node_id":"0.0-4.0-1.12","subject_id":"57fe6296035f6e0001d71d05","study_id":"60edd13110225f80f9f3709b","session_id":"6196c6ffa86484a0affe55f9","condition":"contingent","relevant_dimensions":["antennae","legs"],"bee_group":{"antennae":"B","wings":"X","pattern":"X","legs":"M"},"bonus":0.6200000000000009},{"rt":3102,"stimulus":"bees-with-color/bee-B1SM.svg","response":1,"trial_type":"image-button-response","trial_index":33,"time_elapsed":303597,"internal_node_id":"0.0-4.0-0.13","subject_id":"57fe6296035f6e0001d71d05","study_id":"60edd13110225f80f9f3709b","session_id":"6196c6ffa86484a0affe55f9","condition":"contingent","relevant_dimensions":["antennae","legs"],"bee_group":{"antennae":"B","wings":"X","pattern":"X","legs":"M"},"action":"avoid","summary":"good-avoid","bonus":0.6200000000000009},{"rt":839,"stimulus":"\n                    <p><b>Action: <em>avoid</em></b></p>\n                    <p>This is the bee that you just saw.</p>\n                    <img src=\"bees-with-color/bee-B1SM.svg\" width=\"200\">\n                    <p><br>Your bonus pay is unchanged, and remains at $0.54.</p>\n            ","response":0,"trial_type":"html-button-response","trial_index":34,"time_elapsed":304437,"internal_node_id":"0.0-4.0-1.13","subject_id":"57fe6296035f6e0001d71d05","study_id":"60edd13110225f80f9f3709b","session_id":"6196c6ffa86484a0affe55f9","condition":"contingent","relevant_dimensions":["antennae","legs"],"bee_group":{"antennae":"B","wings":"X","pattern":"X","legs":"M"},"bonus":0.6200000000000009},{"rt":1366,"stimulus":"bees-with-color/bee-A1SF.svg","response":0,"trial_type":"image-button-response","trial_index":35,"time_elapsed":305804,"internal_node_id":"0.0-4.0-0.14","subject_id":"57fe6296035f6e0001d71d05","study_id":"60edd13110225f80f9f3709b","session_id":"6196c6ffa86484a0affe55f9","condition":"contingent","relevant_dimensions":["antennae","legs"],"bee_group":{"antennae":"B","wings":"X","pattern":"X","legs":"M"},"action":"harvest","summary":"good-harvest","bonus":0.6200000000000009},{"rt":911,"stimulus":"\n                    <p><b>Action: <em>harvest</em></b></p>\n                    <p>This is the bee that you just saw.</p>\n                    <img src=\"bees-with-color/bee-A1SF.svg\" width=\"200\">\n                    <p><span class=\"greenText\"><b>Successful harvest!</b></span><br>Your pay has increased by $0.02. Your bonus pay is now $0.56.</p>\n            ","response":0,"trial_type":"html-button-response","trial_index":36,"time_elapsed":306717,"internal_node_id":"0.0-4.0-1.14","subject_id":"57fe6296035f6e0001d71d05","study_id":"60edd13110225f80f9f3709b","session_id":"6196c6ffa86484a0affe55f9","condition":"contingent","relevant_dimensions":["antennae","legs"],"bee_group":{"antennae":"B","wings":"X","pattern":"X","legs":"M"},"bonus":0.6200000000000009},{"rt":6214,"stimulus":"bees-with-color/bee-B1DM.svg","response":0,"trial_type":"image-button-response","trial_index":37,"time_elapsed":312933,"internal_node_id":"0.0-4.0-0.15","subject_id":"57fe6296035f6e0001d71d05","study_id":"60edd13110225f80f9f3709b","session_id":"6196c6ffa86484a0affe55f9","condition":"contingent","relevant_dimensions":["antennae","legs"],"bee_group":{"antennae":"B","wings":"X","pattern":"X","legs":"M"},"action":"harvest","summary":"bad-harvest","bonus":0.6200000000000009},{"rt":9183,"stimulus":"\n                    <p><b>Action: <em>harvest</em></b></p>\n                    <p>This is the bee that you just saw.</p>\n                    <img src=\"bees-with-color/bee-B1DM.svg\" width=\"200\">\n                    <p><span class=\"redText\">Bad choice, the bee was angry.</span><br><b>You have been stung!</b><br>Your pay has been decreased by $0.10. Your bonus pay is now $0.46.</p>\n            ","response":0,"trial_type":"html-button-response","trial_index":38,"time_elapsed":322117,"internal_node_id":"0.0-4.0-1.15","subject_id":"57fe6296035f6e0001d71d05","study_id":"60edd13110225f80f9f3709b","session_id":"6196c6ffa86484a0affe55f9","condition":"contingent","relevant_dimensions":["antennae","legs"],"bee_group":{"antennae":"B","wings":"X","pattern":"X","legs":"M"},"bonus":0.6200000000000009},{"rt":1678,"stimulus":"bees-with-color/bee-B2SM.svg","response":1,"trial_type":"image-button-response","trial_index":39,"time_elapsed":323796,"internal_node_id":"0.0-4.0-0.16","subject_id":"57fe6296035f6e0001d71d05","study_id":"60edd13110225f80f9f3709b","session_id":"6196c6ffa86484a0affe55f9","condition":"contingent","relevant_dimensions":["antennae","legs"],"bee_group":{"antennae":"B","wings":"X","pattern":"X","legs":"M"},"action":"avoid","summary":"good-avoid","bonus":0.6200000000000009},{"rt":831,"stimulus":"\n                    <p><b>Action: <em>avoid</em></b></p>\n                    <p>This is the bee that you just saw.</p>\n                    <img src=\"bees-with-color/bee-B2SM.svg\" width=\"200\">\n                    <p><br>Your bonus pay is unchanged, and remains at $0.46.</p>\n            ","response":0,"trial_type":"html-button-response","trial_index":40,"time_elapsed":324628,"internal_node_id":"0.0-4.0-1.16","subject_id":"57fe6296035f6e0001d71d05","study_id":"60edd13110225f80f9f3709b","session_id":"6196c6ffa86484a0affe55f9","condition":"contingent","relevant_dimensions":["antennae","legs"],"bee_group":{"antennae":"B","wings":"X","pattern":"X","legs":"M"},"bonus":0.6200000000000009},{"rt":6159,"stimulus":"bees-with-color/bee-B2SF.svg","response":0,"trial_type":"image-button-response","trial_index":41,"time_elapsed":330788,"internal_node_id":"0.0-4.0-0.17","subject_id":"57fe6296035f6e0001d71d05","study_id":"60edd13110225f80f9f3709b","session_id":"6196c6ffa86484a0affe55f9","condition":"contingent","relevant_dimensions":["antennae","legs"],"bee_group":{"antennae":"B","wings":"X","pattern":"X","legs":"M"},"action":"harvest","summary":"good-harvest","bonus":0.6200000000000009},{"rt":1926,"stimulus":"\n                    <p><b>Action: <em>harvest</em></b></p>\n                    <p>This is the bee that you just saw.</p>\n                    <img src=\"bees-with-color/bee-B2SF.svg\" width=\"200\">\n                    <p><span class=\"greenText\"><b>Successful harvest!</b></span><br>Your pay has increased by $0.02. Your bonus pay is now $0.48.</p>\n            ","response":0,"trial_type":"html-button-response","trial_index":42,"time_elapsed":332717,"internal_node_id":"0.0-4.0-1.17","subject_id":"57fe6296035f6e0001d71d05","study_id":"60edd13110225f80f9f3709b","session_id":"6196c6ffa86484a0affe55f9","condition":"contingent","relevant_dimensions":["antennae","legs"],"bee_group":{"antennae":"B","wings":"X","pattern":"X","legs":"M"},"bonus":0.6200000000000009},{"rt":2383,"stimulus":"bees-with-color/bee-B2DF.svg","response":0,"trial_type":"image-button-response","trial_index":43,"time_elapsed":335101,"internal_node_id":"0.0-4.0-0.18","subject_id":"57fe6296035f6e0001d71d05","study_id":"60edd13110225f80f9f3709b","session_id":"6196c6ffa86484a0affe55f9","condition":"contingent","relevant_dimensions":["antennae","legs"],"bee_group":{"antennae":"B","wings":"X","pattern":"X","legs":"M"},"action":"harvest","summary":"good-harvest","bonus":0.6200000000000009},{"rt":967,"stimulus":"\n                    <p><b>Action: <em>harvest</em></b></p>\n                    <p>This is the bee that you just saw.</p>\n                    <img src=\"bees-with-color/bee-B2DF.svg\" width=\"200\">\n                    <p><span class=\"greenText\"><b>Successful harvest!</b></span><br>Your pay has increased by $0.02. Your bonus pay is now $0.50.</p>\n            ","response":0,"trial_type":"html-button-response","trial_index":44,"time_elapsed":336069,"internal_node_id":"0.0-4.0-1.18","subject_id":"57fe6296035f6e0001d71d05","study_id":"60edd13110225f80f9f3709b","session_id":"6196c6ffa86484a0affe55f9","condition":"contingent","relevant_dimensions":["antennae","legs"],"bee_group":{"antennae":"B","wings":"X","pattern":"X","legs":"M"},"bonus":0.6200000000000009},{"rt":2856,"stimulus":"bees-with-color/bee-A1DF.svg","response":1,"trial_type":"image-button-response","trial_index":45,"time_elapsed":338925,"internal_node_id":"0.0-4.0-0.19","subject_id":"57fe6296035f6e0001d71d05","study_id":"60edd13110225f80f9f3709b","session_id":"6196c6ffa86484a0affe55f9","condition":"contingent","relevant_dimensions":["antennae","legs"],"bee_group":{"antennae":"B","wings":"X","pattern":"X","legs":"M"},"action":"avoid","summary":"bad-avoid","bonus":0.6200000000000009},{"rt":655,"stimulus":"\n                    <p><b>Action: <em>avoid</em></b></p>\n                    <p>This is the bee that you just saw.</p>\n                    <img src=\"bees-with-color/bee-A1DF.svg\" width=\"200\">\n                    <p><br>Your bonus pay is unchanged, and remains at $0.50.</p>\n            ","response":0,"trial_type":"html-button-response","trial_index":46,"time_elapsed":339581,"internal_node_id":"0.0-4.0-1.19","subject_id":"57fe6296035f6e0001d71d05","study_id":"60edd13110225f80f9f3709b","session_id":"6196c6ffa86484a0affe55f9","condition":"contingent","relevant_dimensions":["antennae","legs"],"bee_group":{"antennae":"B","wings":"X","pattern":"X","legs":"M"},"bonus":0.6200000000000009},{"rt":2278,"stimulus":"bees-with-color/bee-B1DF.svg","response":1,"trial_type":"image-button-response","trial_index":47,"time_elapsed":341861,"internal_node_id":"0.0-4.0-0.20","subject_id":"57fe6296035f6e0001d71d05","study_id":"60edd13110225f80f9f3709b","session_id":"6196c6ffa86484a0affe55f9","condition":"contingent","relevant_dimensions":["antennae","legs"],"bee_group":{"antennae":"B","wings":"X","pattern":"X","legs":"M"},"action":"avoid","summary":"bad-avoid","bonus":0.6200000000000009},{"rt":591,"stimulus":"\n                    <p><b>Action: <em>avoid</em></b></p>\n                    <p>This is the bee that you just saw.</p>\n                    <img src=\"bees-with-color/bee-B1DF.svg\" width=\"200\">\n                    <p><br>Your bonus pay is unchanged, and remains at $0.50.</p>\n            ","response":0,"trial_type":"html-button-response","trial_index":48,"time_elapsed":342453,"internal_node_id":"0.0-4.0-1.20","subject_id":"57fe6296035f6e0001d71d05","study_id":"60edd13110225f80f9f3709b","session_id":"6196c6ffa86484a0affe55f9","condition":"contingent","relevant_dimensions":["antennae","legs"],"bee_group":{"antennae":"B","wings":"X","pattern":"X","legs":"M"},"bonus":0.6200000000000009},{"rt":1334,"stimulus":"bees-with-color/bee-A1SM.svg","response":0,"trial_type":"image-button-response","trial_index":49,"time_elapsed":343788,"internal_node_id":"0.0-4.0-0.21","subject_id":"57fe6296035f6e0001d71d05","study_id":"60edd13110225f80f9f3709b","session_id":"6196c6ffa86484a0affe55f9","condition":"contingent","relevant_dimensions":["antennae","legs"],"bee_group":{"antennae":"B","wings":"X","pattern":"X","legs":"M"},"action":"harvest","summary":"good-harvest","bonus":0.6200000000000009},{"rt":1037,"stimulus":"\n                    <p><b>Action: <em>harvest</em></b></p>\n                    <p>This is the bee that you just saw.</p>\n                    <img src=\"bees-with-color/bee-A1SM.svg\" width=\"200\">\n                    <p><span class=\"greenText\"><b>Successful harvest!</b></span><br>Your pay has increased by $0.02. Your bonus pay is now $0.52.</p>\n            ","response":0,"trial_type":"html-button-response","trial_index":50,"time_elapsed":344829,"internal_node_id":"0.0-4.0-1.21","subject_id":"57fe6296035f6e0001d71d05","study_id":"60edd13110225f80f9f3709b","session_id":"6196c6ffa86484a0affe55f9","condition":"contingent","relevant_dimensions":["antennae","legs"],"bee_group":{"antennae":"B","wings":"X","pattern":"X","legs":"M"},"bonus":0.6200000000000009},{"rt":1240,"stimulus":"bees-with-color/bee-A2DF.svg","response":1,"trial_type":"image-button-response","trial_index":51,"time_elapsed":346069,"internal_node_id":"0.0-4.0-0.22","subject_id":"57fe6296035f6e0001d71d05","study_id":"60edd13110225f80f9f3709b","session_id":"6196c6ffa86484a0affe55f9","condition":"contingent","relevant_dimensions":["antennae","legs"],"bee_group":{"antennae":"B","wings":"X","pattern":"X","legs":"M"},"action":"avoid","summary":"bad-avoid","bonus":0.6200000000000009},{"rt":591,"stimulus":"\n                    <p><b>Action: <em>avoid</em></b></p>\n                    <p>This is the bee that you just saw.</p>\n                    <img src=\"bees-with-color/bee-A2DF.svg\" width=\"200\">\n                    <p><br>Your bonus pay is unchanged, and remains at $0.52.</p>\n            ","response":0,"trial_type":"html-button-response","trial_index":52,"time_elapsed":346661,"internal_node_id":"0.0-4.0-1.22","subject_id":"57fe6296035f6e0001d71d05","study_id":"60edd13110225f80f9f3709b","session_id":"6196c6ffa86484a0affe55f9","condition":"contingent","relevant_dimensions":["antennae","legs"],"bee_group":{"antennae":"B","wings":"X","pattern":"X","legs":"M"},"bonus":0.6200000000000009},{"rt":3486,"stimulus":"bees-with-color/bee-B2DM.svg","response":1,"trial_type":"image-button-response","trial_index":53,"time_elapsed":350149,"internal_node_id":"0.0-4.0-0.23","subject_id":"57fe6296035f6e0001d71d05","study_id":"60edd13110225f80f9f3709b","session_id":"6196c6ffa86484a0affe55f9","condition":"contingent","relevant_dimensions":["antennae","legs"],"bee_group":{"antennae":"B","wings":"X","pattern":"X","legs":"M"},"action":"avoid","summary":"good-avoid","bonus":0.6200000000000009},{"rt":589,"stimulus":"\n                    <p><b>Action: <em>avoid</em></b></p>\n                    <p>This is the bee that you just saw.</p>\n                    <img src=\"bees-with-color/bee-B2DM.svg\" width=\"200\">\n                    <p><br>Your bonus pay is unchanged, and remains at $0.52.</p>\n            ","response":0,"trial_type":"html-button-response","trial_index":54,"time_elapsed":350740,"internal_node_id":"0.0-4.0-1.23","subject_id":"57fe6296035f6e0001d71d05","study_id":"60edd13110225f80f9f3709b","session_id":"6196c6ffa86484a0affe55f9","condition":"contingent","relevant_dimensions":["antennae","legs"],"bee_group":{"antennae":"B","wings":"X","pattern":"X","legs":"M"},"bonus":0.6200000000000009},{"rt":2503,"stimulus":"bees-with-color/bee-A1DM.svg","response":0,"trial_type":"image-button-response","trial_index":55,"time_elapsed":353245,"internal_node_id":"0.0-4.0-0.24","subject_id":"57fe6296035f6e0001d71d05","study_id":"60edd13110225f80f9f3709b","session_id":"6196c6ffa86484a0affe55f9","condition":"contingent","relevant_dimensions":["antennae","legs"],"bee_group":{"antennae":"B","wings":"X","pattern":"X","legs":"M"},"action":"harvest","summary":"good-harvest","bonus":0.6200000000000009},{"rt":927,"stimulus":"\n                    <p><b>Action: <em>harvest</em></b></p>\n                    <p>This is the bee that you just saw.</p>\n                    <img src=\"bees-with-color/bee-A1DM.svg\" width=\"200\">\n                    <p><span class=\"greenText\"><b>Successful harvest!</b></span><br>Your pay has increased by $0.02. Your bonus pay is now $0.54.</p>\n            ","response":0,"trial_type":"html-button-response","trial_index":56,"time_elapsed":354173,"internal_node_id":"0.0-4.0-1.24","subject_id":"57fe6296035f6e0001d71d05","study_id":"60edd13110225f80f9f3709b","session_id":"6196c6ffa86484a0affe55f9","condition":"contingent","relevant_dimensions":["antennae","legs"],"bee_group":{"antennae":"B","wings":"X","pattern":"X","legs":"M"},"bonus":0.6200000000000009},{"rt":1046,"stimulus":"bees-with-color/bee-A2SF.svg","response":1,"trial_type":"image-button-response","trial_index":57,"time_elapsed":355221,"internal_node_id":"0.0-4.0-0.25","subject_id":"57fe6296035f6e0001d71d05","study_id":"60edd13110225f80f9f3709b","session_id":"6196c6ffa86484a0affe55f9","condition":"contingent","relevant_dimensions":["antennae","legs"],"bee_group":{"antennae":"B","wings":"X","pattern":"X","legs":"M"},"action":"avoid","summary":"bad-avoid","bonus":0.6200000000000009},{"rt":630,"stimulus":"\n                    <p><b>Action: <em>avoid</em></b></p>\n                    <p>This is the bee that you just saw.</p>\n                    <img src=\"bees-with-color/bee-A2SF.svg\" width=\"200\">\n                    <p><br>Your bonus pay is unchanged, and remains at $0.54.</p>\n            ","response":0,"trial_type":"html-button-response","trial_index":58,"time_elapsed":355853,"internal_node_id":"0.0-4.0-1.25","subject_id":"57fe6296035f6e0001d71d05","study_id":"60edd13110225f80f9f3709b","session_id":"6196c6ffa86484a0affe55f9","condition":"contingent","relevant_dimensions":["antennae","legs"],"bee_group":{"antennae":"B","wings":"X","pattern":"X","legs":"M"},"bonus":0.6200000000000009},{"rt":3165,"stimulus":"bees-with-color/bee-A1SF.svg","response":1,"trial_type":"image-button-response","trial_index":59,"time_elapsed":359021,"internal_node_id":"0.0-4.0-0.26","subject_id":"57fe6296035f6e0001d71d05","study_id":"60edd13110225f80f9f3709b","session_id":"6196c6ffa86484a0affe55f9","condition":"contingent","relevant_dimensions":["antennae","legs"],"bee_group":{"antennae":"B","wings":"X","pattern":"X","legs":"M"},"action":"avoid","summary":"bad-avoid","bonus":0.6200000000000009},{"rt":583,"stimulus":"\n                    <p><b>Action: <em>avoid</em></b></p>\n                    <p>This is the bee that you just saw.</p>\n                    <img src=\"bees-with-color/bee-A1SF.svg\" width=\"200\">\n                    <p><br>Your bonus pay is unchanged, and remains at $0.54.</p>\n            ","response":0,"trial_type":"html-button-response","trial_index":60,"time_elapsed":359605,"internal_node_id":"0.0-4.0-1.26","subject_id":"57fe6296035f6e0001d71d05","study_id":"60edd13110225f80f9f3709b","session_id":"6196c6ffa86484a0affe55f9","condition":"contingent","relevant_dimensions":["antennae","legs"],"bee_group":{"antennae":"B","wings":"X","pattern":"X","legs":"M"},"bonus":0.6200000000000009},{"rt":2150,"stimulus":"bees-with-color/bee-A2SM.svg","response":0,"trial_type":"image-button-response","trial_index":61,"time_elapsed":361757,"internal_node_id":"0.0-4.0-0.27","subject_id":"57fe6296035f6e0001d71d05","study_id":"60edd13110225f80f9f3709b","session_id":"6196c6ffa86484a0affe55f9","condition":"contingent","relevant_dimensions":["antennae","legs"],"bee_group":{"antennae":"B","wings":"X","pattern":"X","legs":"M"},"action":"harvest","summary":"good-harvest","bonus":0.6200000000000009},{"rt":975,"stimulus":"\n                    <p><b>Action: <em>harvest</em></b></p>\n                    <p>This is the bee that you just saw.</p>\n                    <img src=\"bees-with-color/bee-A2SM.svg\" width=\"200\">\n                    <p><span class=\"greenText\"><b>Successful harvest!</b></span><br>Your pay has increased by $0.02. Your bonus pay is now $0.56.</p>\n            ","response":0,"trial_type":"html-button-response","trial_index":62,"time_elapsed":362733,"internal_node_id":"0.0-4.0-1.27","subject_id":"57fe6296035f6e0001d71d05","study_id":"60edd13110225f80f9f3709b","session_id":"6196c6ffa86484a0affe55f9","condition":"contingent","relevant_dimensions":["antennae","legs"],"bee_group":{"antennae":"B","wings":"X","pattern":"X","legs":"M"},"bonus":0.6200000000000009},{"rt":1294,"stimulus":"bees-with-color/bee-B1SF.svg","response":1,"trial_type":"image-button-response","trial_index":63,"time_elapsed":364029,"internal_node_id":"0.0-4.0-0.28","subject_id":"57fe6296035f6e0001d71d05","study_id":"60edd13110225f80f9f3709b","session_id":"6196c6ffa86484a0affe55f9","condition":"contingent","relevant_dimensions":["antennae","legs"],"bee_group":{"antennae":"B","wings":"X","pattern":"X","legs":"M"},"action":"avoid","summary":"bad-avoid","bonus":0.6200000000000009},{"rt":767,"stimulus":"\n                    <p><b>Action: <em>avoid</em></b></p>\n                    <p>This is the bee that you just saw.</p>\n                    <img src=\"bees-with-color/bee-B1SF.svg\" width=\"200\">\n                    <p><br>Your bonus pay is unchanged, and remains at $0.56.</p>\n            ","response":0,"trial_type":"html-button-response","trial_index":64,"time_elapsed":364797,"internal_node_id":"0.0-4.0-1.28","subject_id":"57fe6296035f6e0001d71d05","study_id":"60edd13110225f80f9f3709b","session_id":"6196c6ffa86484a0affe55f9","condition":"contingent","relevant_dimensions":["antennae","legs"],"bee_group":{"antennae":"B","wings":"X","pattern":"X","legs":"M"},"bonus":0.6200000000000009},{"rt":3030,"stimulus":"bees-with-color/bee-A2DM.svg","response":0,"trial_type":"image-button-response","trial_index":65,"time_elapsed":367829,"internal_node_id":"0.0-4.0-0.29","subject_id":"57fe6296035f6e0001d71d05","study_id":"60edd13110225f80f9f3709b","session_id":"6196c6ffa86484a0affe55f9","condition":"contingent","relevant_dimensions":["antennae","legs"],"bee_group":{"antennae":"B","wings":"X","pattern":"X","legs":"M"},"action":"harvest","summary":"good-harvest","bonus":0.6200000000000009},{"rt":2526,"stimulus":"\n                    <p><b>Action: <em>harvest</em></b></p>\n                    <p>This is the bee that you just saw.</p>\n                    <img src=\"bees-with-color/bee-A2DM.svg\" width=\"200\">\n                    <p><span class=\"greenText\"><b>Successful harvest!</b></span><br>Your pay has increased by $0.02. Your bonus pay is now $0.58.</p>\n            ","response":0,"trial_type":"html-button-response","trial_index":66,"time_elapsed":370357,"internal_node_id":"0.0-4.0-1.29","subject_id":"57fe6296035f6e0001d71d05","study_id":"60edd13110225f80f9f3709b","session_id":"6196c6ffa86484a0affe55f9","condition":"contingent","relevant_dimensions":["antennae","legs"],"bee_group":{"antennae":"B","wings":"X","pattern":"X","legs":"M"},"bonus":0.6200000000000009},{"rt":1191,"stimulus":"bees-with-color/bee-B1SM.svg","response":1,"trial_type":"image-button-response","trial_index":67,"time_elapsed":371549,"internal_node_id":"0.0-4.0-0.30","subject_id":"57fe6296035f6e0001d71d05","study_id":"60edd13110225f80f9f3709b","session_id":"6196c6ffa86484a0affe55f9","condition":"contingent","relevant_dimensions":["antennae","legs"],"bee_group":{"antennae":"B","wings":"X","pattern":"X","legs":"M"},"action":"avoid","summary":"good-avoid","bonus":0.6200000000000009},{"rt":671,"stimulus":"\n                    <p><b>Action: <em>avoid</em></b></p>\n                    <p>This is the bee that you just saw.</p>\n                    <img src=\"bees-with-color/bee-B1SM.svg\" width=\"200\">\n                    <p><br>Your bonus pay is unchanged, and remains at $0.58.</p>\n            ","response":0,"trial_type":"html-button-response","trial_index":68,"time_elapsed":372221,"internal_node_id":"0.0-4.0-1.30","subject_id":"57fe6296035f6e0001d71d05","study_id":"60edd13110225f80f9f3709b","session_id":"6196c6ffa86484a0affe55f9","condition":"contingent","relevant_dimensions":["antennae","legs"],"bee_group":{"antennae":"B","wings":"X","pattern":"X","legs":"M"},"bonus":0.6200000000000009},{"rt":1102,"stimulus":"bees-with-color/bee-B1DM.svg","response":1,"trial_type":"image-button-response","trial_index":69,"time_elapsed":373325,"internal_node_id":"0.0-4.0-0.31","subject_id":"57fe6296035f6e0001d71d05","study_id":"60edd13110225f80f9f3709b","session_id":"6196c6ffa86484a0affe55f9","condition":"contingent","relevant_dimensions":["antennae","legs"],"bee_group":{"antennae":"B","wings":"X","pattern":"X","legs":"M"},"action":"avoid","summary":"good-avoid","bonus":0.6200000000000009},{"rt":623,"stimulus":"\n                    <p><b>Action: <em>avoid</em></b></p>\n                    <p>This is the bee that you just saw.</p>\n                    <img src=\"bees-with-color/bee-B1DM.svg\" width=\"200\">\n                    <p><br>Your bonus pay is unchanged, and remains at $0.58.</p>\n            ","response":0,"trial_type":"html-button-response","trial_index":70,"time_elapsed":373949,"internal_node_id":"0.0-4.0-1.31","subject_id":"57fe6296035f6e0001d71d05","study_id":"60edd13110225f80f9f3709b","session_id":"6196c6ffa86484a0affe55f9","condition":"contingent","relevant_dimensions":["antennae","legs"],"bee_group":{"antennae":"B","wings":"X","pattern":"X","legs":"M"},"bonus":0.6200000000000009},{"rt":2087,"stimulus":"bees-with-color/bee-B1DM.svg","response":1,"trial_type":"image-button-response","trial_index":71,"time_elapsed":376037,"internal_node_id":"0.0-4.0-0.32","subject_id":"57fe6296035f6e0001d71d05","study_id":"60edd13110225f80f9f3709b","session_id":"6196c6ffa86484a0affe55f9","condition":"contingent","relevant_dimensions":["antennae","legs"],"bee_group":{"antennae":"B","wings":"X","pattern":"X","legs":"M"},"action":"avoid","summary":"good-avoid","bonus":0.6200000000000009},{"rt":670,"stimulus":"\n                    <p><b>Action: <em>avoid</em></b></p>\n                    <p>This is the bee that you just saw.</p>\n                    <img src=\"bees-with-color/bee-B1DM.svg\" width=\"200\">\n                    <p><br>Your bonus pay is unchanged, and remains at $0.58.</p>\n            ","response":0,"trial_type":"html-button-response","trial_index":72,"time_elapsed":376709,"internal_node_id":"0.0-4.0-1.32","subject_id":"57fe6296035f6e0001d71d05","study_id":"60edd13110225f80f9f3709b","session_id":"6196c6ffa86484a0affe55f9","condition":"contingent","relevant_dimensions":["antennae","legs"],"bee_group":{"antennae":"B","wings":"X","pattern":"X","legs":"M"},"bonus":0.6200000000000009},{"rt":1239,"stimulus":"bees-with-color/bee-B1SF.svg","response":1,"trial_type":"image-button-response","trial_index":73,"time_elapsed":377949,"internal_node_id":"0.0-4.0-0.33","subject_id":"57fe6296035f6e0001d71d05","study_id":"60edd13110225f80f9f3709b","session_id":"6196c6ffa86484a0affe55f9","condition":"contingent","relevant_dimensions":["antennae","legs"],"bee_group":{"antennae":"B","wings":"X","pattern":"X","legs":"M"},"action":"avoid","summary":"bad-avoid","bonus":0.6200000000000009},{"rt":710,"stimulus":"\n                    <p><b>Action: <em>avoid</em></b></p>\n                    <p>This is the bee that you just saw.</p>\n                    <img src=\"bees-with-color/bee-B1SF.svg\" width=\"200\">\n                    <p><br>Your bonus pay is unchanged, and remains at $0.58.</p>\n            ","response":0,"trial_type":"html-button-response","trial_index":74,"time_elapsed":378660,"internal_node_id":"0.0-4.0-1.33","subject_id":"57fe6296035f6e0001d71d05","study_id":"60edd13110225f80f9f3709b","session_id":"6196c6ffa86484a0affe55f9","condition":"contingent","relevant_dimensions":["antennae","legs"],"bee_group":{"antennae":"B","wings":"X","pattern":"X","legs":"M"},"bonus":0.6200000000000009},{"rt":2231,"stimulus":"bees-with-color/bee-B2DF.svg","response":1,"trial_type":"image-button-response","trial_index":75,"time_elapsed":380893,"internal_node_id":"0.0-4.0-0.34","subject_id":"57fe6296035f6e0001d71d05","study_id":"60edd13110225f80f9f3709b","session_id":"6196c6ffa86484a0affe55f9","condition":"contingent","relevant_dimensions":["antennae","legs"],"bee_group":{"antennae":"B","wings":"X","pattern":"X","legs":"M"},"action":"avoid","summary":"bad-avoid","bonus":0.6200000000000009},{"rt":543,"stimulus":"\n                    <p><b>Action: <em>avoid</em></b></p>\n                    <p>This is the bee that you just saw.</p>\n                    <img src=\"bees-with-color/bee-B2DF.svg\" width=\"200\">\n                    <p><br>Your bonus pay is unchanged, and remains at $0.58.</p>\n            ","response":0,"trial_type":"html-button-response","trial_index":76,"time_elapsed":381437,"internal_node_id":"0.0-4.0-1.34","subject_id":"57fe6296035f6e0001d71d05","study_id":"60edd13110225f80f9f3709b","session_id":"6196c6ffa86484a0affe55f9","condition":"contingent","relevant_dimensions":["antennae","legs"],"bee_group":{"antennae":"B","wings":"X","pattern":"X","legs":"M"},"bonus":0.6200000000000009},{"rt":3927,"stimulus":"bees-with-color/bee-B1DF.svg","response":1,"trial_type":"image-button-response","trial_index":77,"time_elapsed":385365,"internal_node_id":"0.0-4.0-0.35","subject_id":"57fe6296035f6e0001d71d05","study_id":"60edd13110225f80f9f3709b","session_id":"6196c6ffa86484a0affe55f9","condition":"contingent","relevant_dimensions":["antennae","legs"],"bee_group":{"antennae":"B","wings":"X","pattern":"X","legs":"M"},"action":"avoid","summary":"bad-avoid","bonus":0.6200000000000009},{"rt":447,"stimulus":"\n                    <p><b>Action: <em>avoid</em></b></p>\n                    <p>This is the bee that you just saw.</p>\n                    <img src=\"bees-with-color/bee-B1DF.svg\" width=\"200\">\n                    <p><br>Your bonus pay is unchanged, and remains at $0.58.</p>\n            ","response":0,"trial_type":"html-button-response","trial_index":78,"time_elapsed":385813,"internal_node_id":"0.0-4.0-1.35","subject_id":"57fe6296035f6e0001d71d05","study_id":"60edd13110225f80f9f3709b","session_id":"6196c6ffa86484a0affe55f9","condition":"contingent","relevant_dimensions":["antennae","legs"],"bee_group":{"antennae":"B","wings":"X","pattern":"X","legs":"M"},"bonus":0.6200000000000009},{"rt":1319,"stimulus":"bees-with-color/bee-A1DF.svg","response":0,"trial_type":"image-button-response","trial_index":79,"time_elapsed":387133,"internal_node_id":"0.0-4.0-0.36","subject_id":"57fe6296035f6e0001d71d05","study_id":"60edd13110225f80f9f3709b","session_id":"6196c6ffa86484a0affe55f9","condition":"contingent","relevant_dimensions":["antennae","legs"],"bee_group":{"antennae":"B","wings":"X","pattern":"X","legs":"M"},"action":"harvest","summary":"good-harvest","bonus":0.6200000000000009},{"rt":1110,"stimulus":"\n                    <p><b>Action: <em>harvest</em></b></p>\n                    <p>This is the bee that you just saw.</p>\n                    <img src=\"bees-with-color/bee-A1DF.svg\" width=\"200\">\n                    <p><span class=\"greenText\"><b>Successful harvest!</b></span><br>Your pay has increased by $0.02. Your bonus pay is now $0.60.</p>\n            ","response":0,"trial_type":"html-button-response","trial_index":80,"time_elapsed":388245,"internal_node_id":"0.0-4.0-1.36","subject_id":"57fe6296035f6e0001d71d05","study_id":"60edd13110225f80f9f3709b","session_id":"6196c6ffa86484a0affe55f9","condition":"contingent","relevant_dimensions":["antennae","legs"],"bee_group":{"antennae":"B","wings":"X","pattern":"X","legs":"M"},"bonus":0.6200000000000009},{"rt":2863,"stimulus":"bees-with-color/bee-A1DM.svg","response":0,"trial_type":"image-button-response","trial_index":81,"time_elapsed":391109,"internal_node_id":"0.0-4.0-0.37","subject_id":"57fe6296035f6e0001d71d05","study_id":"60edd13110225f80f9f3709b","session_id":"6196c6ffa86484a0affe55f9","condition":"contingent","relevant_dimensions":["antennae","legs"],"bee_group":{"antennae":"B","wings":"X","pattern":"X","legs":"M"},"action":"harvest","summary":"good-harvest","bonus":0.6200000000000009},{"rt":902,"stimulus":"\n                    <p><b>Action: <em>harvest</em></b></p>\n                    <p>This is the bee that you just saw.</p>\n                    <img src=\"bees-with-color/bee-A1DM.svg\" width=\"200\">\n                    <p><span class=\"greenText\"><b>Successful harvest!</b></span><br>Your pay has increased by $0.02. Your bonus pay is now $0.62.</p>\n            ","response":0,"trial_type":"html-button-response","trial_index":82,"time_elapsed":392013,"internal_node_id":"0.0-4.0-1.37","subject_id":"57fe6296035f6e0001d71d05","study_id":"60edd13110225f80f9f3709b","session_id":"6196c6ffa86484a0affe55f9","condition":"contingent","relevant_dimensions":["antennae","legs"],"bee_group":{"antennae":"B","wings":"X","pattern":"X","legs":"M"},"bonus":0.6200000000000009},{"rt":1471,"stimulus":"bees-with-color/bee-A1SF.svg","response":0,"trial_type":"image-button-response","trial_index":83,"time_elapsed":393485,"internal_node_id":"0.0-4.0-0.38","subject_id":"57fe6296035f6e0001d71d05","study_id":"60edd13110225f80f9f3709b","session_id":"6196c6ffa86484a0affe55f9","condition":"contingent","relevant_dimensions":["antennae","legs"],"bee_group":{"antennae":"B","wings":"X","pattern":"X","legs":"M"},"action":"harvest","summary":"good-harvest","bonus":0.6200000000000009},{"rt":855,"stimulus":"\n                    <p><b>Action: <em>harvest</em></b></p>\n                    <p>This is the bee that you just saw.</p>\n                    <img src=\"bees-with-color/bee-A1SF.svg\" width=\"200\">\n                    <p><span class=\"greenText\"><b>Successful harvest!</b></span><br>Your pay has increased by $0.02. Your bonus pay is now $0.64.</p>\n            ","response":0,"trial_type":"html-button-response","trial_index":84,"time_elapsed":394341,"internal_node_id":"0.0-4.0-1.38","subject_id":"57fe6296035f6e0001d71d05","study_id":"60edd13110225f80f9f3709b","session_id":"6196c6ffa86484a0affe55f9","condition":"contingent","relevant_dimensions":["antennae","legs"],"bee_group":{"antennae":"B","wings":"X","pattern":"X","legs":"M"},"bonus":0.6200000000000009},{"rt":1126,"stimulus":"bees-with-color/bee-B2DM.svg","response":1,"trial_type":"image-button-response","trial_index":85,"time_elapsed":395469,"internal_node_id":"0.0-4.0-0.39","subject_id":"57fe6296035f6e0001d71d05","study_id":"60edd13110225f80f9f3709b","session_id":"6196c6ffa86484a0affe55f9","condition":"contingent","relevant_dimensions":["antennae","legs"],"bee_group":{"antennae":"B","wings":"X","pattern":"X","legs":"M"},"action":"avoid","summary":"good-avoid","bonus":0.6200000000000009},{"rt":743,"stimulus":"\n                    <p><b>Action: <em>avoid</em></b></p>\n                    <p>This is the bee that you just saw.</p>\n                    <img src=\"bees-with-color/bee-B2DM.svg\" width=\"200\">\n                    <p><br>Your bonus pay is unchanged, and remains at $0.64.</p>\n            ","response":0,"trial_type":"html-button-response","trial_index":86,"time_elapsed":396213,"internal_node_id":"0.0-4.0-1.39","subject_id":"57fe6296035f6e0001d71d05","study_id":"60edd13110225f80f9f3709b","session_id":"6196c6ffa86484a0affe55f9","condition":"contingent","relevant_dimensions":["antennae","legs"],"bee_group":{"antennae":"B","wings":"X","pattern":"X","legs":"M"},"bonus":0.6200000000000009},{"rt":2022,"stimulus":"bees-with-color/bee-B1SM.svg","response":1,"trial_type":"image-button-response","trial_index":87,"time_elapsed":398237,"internal_node_id":"0.0-4.0-0.40","subject_id":"57fe6296035f6e0001d71d05","study_id":"60edd13110225f80f9f3709b","session_id":"6196c6ffa86484a0affe55f9","condition":"contingent","relevant_dimensions":["antennae","legs"],"bee_group":{"antennae":"B","wings":"X","pattern":"X","legs":"M"},"action":"avoid","summary":"good-avoid","bonus":0.6200000000000009},{"rt":741,"stimulus":"\n                    <p><b>Action: <em>avoid</em></b></p>\n                    <p>This is the bee that you just saw.</p>\n                    <img src=\"bees-with-color/bee-B1SM.svg\" width=\"200\">\n                    <p><br>Your bonus pay is unchanged, and remains at $0.64.</p>\n            ","response":0,"trial_type":"html-button-response","trial_index":88,"time_elapsed":398981,"internal_node_id":"0.0-4.0-1.40","subject_id":"57fe6296035f6e0001d71d05","study_id":"60edd13110225f80f9f3709b","session_id":"6196c6ffa86484a0affe55f9","condition":"contingent","relevant_dimensions":["antennae","legs"],"bee_group":{"antennae":"B","wings":"X","pattern":"X","legs":"M"},"bonus":0.6200000000000009},{"rt":935,"stimulus":"bees-with-color/bee-A2DF.svg","response":0,"trial_type":"image-button-response","trial_index":89,"time_elapsed":399917,"internal_node_id":"0.0-4.0-0.41","subject_id":"57fe6296035f6e0001d71d05","study_id":"60edd13110225f80f9f3709b","session_id":"6196c6ffa86484a0affe55f9","condition":"contingent","relevant_dimensions":["antennae","legs"],"bee_group":{"antennae":"B","wings":"X","pattern":"X","legs":"M"},"action":"harvest","summary":"good-harvest","bonus":0.6200000000000009},{"rt":943,"stimulus":"\n                    <p><b>Action: <em>harvest</em></b></p>\n                    <p>This is the bee that you just saw.</p>\n                    <img src=\"bees-with-color/bee-A2DF.svg\" width=\"200\">\n                    <p><span class=\"greenText\"><b>Successful harvest!</b></span><br>Your pay has increased by $0.02. Your bonus pay is now $0.66.</p>\n            ","response":0,"trial_type":"html-button-response","trial_index":90,"time_elapsed":400861,"internal_node_id":"0.0-4.0-1.41","subject_id":"57fe6296035f6e0001d71d05","study_id":"60edd13110225f80f9f3709b","session_id":"6196c6ffa86484a0affe55f9","condition":"contingent","relevant_dimensions":["antennae","legs"],"bee_group":{"antennae":"B","wings":"X","pattern":"X","legs":"M"},"bonus":0.6200000000000009},{"rt":894,"stimulus":"bees-with-color/bee-B2SF.svg","response":1,"trial_type":"image-button-response","trial_index":91,"time_elapsed":401757,"internal_node_id":"0.0-4.0-0.42","subject_id":"57fe6296035f6e0001d71d05","study_id":"60edd13110225f80f9f3709b","session_id":"6196c6ffa86484a0affe55f9","condition":"contingent","relevant_dimensions":["antennae","legs"],"bee_group":{"antennae":"B","wings":"X","pattern":"X","legs":"M"},"action":"avoid","summary":"bad-avoid","bonus":0.6200000000000009},{"rt":767,"stimulus":"\n                    <p><b>Action: <em>avoid</em></b></p>\n                    <p>This is the bee that you just saw.</p>\n                    <img src=\"bees-with-color/bee-B2SF.svg\" width=\"200\">\n                    <p><br>Your bonus pay is unchanged, and remains at $0.66.</p>\n            ","response":0,"trial_type":"html-button-response","trial_index":92,"time_elapsed":402525,"internal_node_id":"0.0-4.0-1.42","subject_id":"57fe6296035f6e0001d71d05","study_id":"60edd13110225f80f9f3709b","session_id":"6196c6ffa86484a0affe55f9","condition":"contingent","relevant_dimensions":["antennae","legs"],"bee_group":{"antennae":"B","wings":"X","pattern":"X","legs":"M"},"bonus":0.6200000000000009},{"rt":847,"stimulus":"bees-with-color/bee-A1SM.svg","response":0,"trial_type":"image-button-response","trial_index":93,"time_elapsed":403373,"internal_node_id":"0.0-4.0-0.43","subject_id":"57fe6296035f6e0001d71d05","study_id":"60edd13110225f80f9f3709b","session_id":"6196c6ffa86484a0affe55f9","condition":"contingent","relevant_dimensions":["antennae","legs"],"bee_group":{"antennae":"B","wings":"X","pattern":"X","legs":"M"},"action":"harvest","summary":"good-harvest","bonus":0.6200000000000009},{"rt":981,"stimulus":"\n                    <p><b>Action: <em>harvest</em></b></p>\n                    <p>This is the bee that you just saw.</p>\n                    <img src=\"bees-with-color/bee-A1SM.svg\" width=\"200\">\n                    <p><span class=\"greenText\"><b>Successful harvest!</b></span><br>Your pay has increased by $0.02. Your bonus pay is now $0.68.</p>\n            ","response":0,"trial_type":"html-button-response","trial_index":94,"time_elapsed":404357,"internal_node_id":"0.0-4.0-1.43","subject_id":"57fe6296035f6e0001d71d05","study_id":"60edd13110225f80f9f3709b","session_id":"6196c6ffa86484a0affe55f9","condition":"contingent","relevant_dimensions":["antennae","legs"],"bee_group":{"antennae":"B","wings":"X","pattern":"X","legs":"M"},"bonus":0.6200000000000009},{"rt":903,"stimulus":"bees-with-color/bee-A2SM.svg","response":0,"trial_type":"image-button-response","trial_index":95,"time_elapsed":405261,"internal_node_id":"0.0-4.0-0.44","subject_id":"57fe6296035f6e0001d71d05","study_id":"60edd13110225f80f9f3709b","session_id":"6196c6ffa86484a0affe55f9","condition":"contingent","relevant_dimensions":["antennae","legs"],"bee_group":{"antennae":"B","wings":"X","pattern":"X","legs":"M"},"action":"harvest","summary":"good-harvest","bonus":0.6200000000000009},{"rt":975,"stimulus":"\n                    <p><b>Action: <em>harvest</em></b></p>\n                    <p>This is the bee that you just saw.</p>\n                    <img src=\"bees-with-color/bee-A2SM.svg\" width=\"200\">\n                    <p><span class=\"greenText\"><b>Successful harvest!</b></span><br>Your pay has increased by $0.02. Your bonus pay is now $0.70.</p>\n            ","response":0,"trial_type":"html-button-response","trial_index":96,"time_elapsed":406237,"internal_node_id":"0.0-4.0-1.44","subject_id":"57fe6296035f6e0001d71d05","study_id":"60edd13110225f80f9f3709b","session_id":"6196c6ffa86484a0affe55f9","condition":"contingent","relevant_dimensions":["antennae","legs"],"bee_group":{"antennae":"B","wings":"X","pattern":"X","legs":"M"},"bonus":0.6200000000000009},{"rt":1414,"stimulus":"bees-with-color/bee-A2DM.svg","response":0,"trial_type":"image-button-response","trial_index":97,"time_elapsed":407653,"internal_node_id":"0.0-4.0-0.45","subject_id":"57fe6296035f6e0001d71d05","study_id":"60edd13110225f80f9f3709b","session_id":"6196c6ffa86484a0affe55f9","condition":"contingent","relevant_dimensions":["antennae","legs"],"bee_group":{"antennae":"B","wings":"X","pattern":"X","legs":"M"},"action":"harvest","summary":"good-harvest","bonus":0.6200000000000009},{"rt":966,"stimulus":"\n                    <p><b>Action: <em>harvest</em></b></p>\n                    <p>This is the bee that you just saw.</p>\n                    <img src=\"bees-with-color/bee-A2DM.svg\" width=\"200\">\n                    <p><span class=\"greenText\"><b>Successful harvest!</b></span><br>Your pay has increased by $0.02. Your bonus pay is now $0.72.</p>\n            ","response":0,"trial_type":"html-button-response","trial_index":98,"time_elapsed":408621,"internal_node_id":"0.0-4.0-1.45","subject_id":"57fe6296035f6e0001d71d05","study_id":"60edd13110225f80f9f3709b","session_id":"6196c6ffa86484a0affe55f9","condition":"contingent","relevant_dimensions":["antennae","legs"],"bee_group":{"antennae":"B","wings":"X","pattern":"X","legs":"M"},"bonus":0.6200000000000009},{"rt":2878,"stimulus":"bees-with-color/bee-A2SF.svg","response":0,"trial_type":"image-button-response","trial_index":99,"time_elapsed":411501,"internal_node_id":"0.0-4.0-0.46","subject_id":"57fe6296035f6e0001d71d05","study_id":"60edd13110225f80f9f3709b","session_id":"6196c6ffa86484a0affe55f9","condition":"contingent","relevant_dimensions":["antennae","legs"],"bee_group":{"antennae":"B","wings":"X","pattern":"X","legs":"M"},"action":"harvest","summary":"good-harvest","bonus":0.6200000000000009},{"rt":823,"stimulus":"\n                    <p><b>Action: <em>harvest</em></b></p>\n                    <p>This is the bee that you just saw.</p>\n                    <img src=\"bees-with-color/bee-A2SF.svg\" width=\"200\">\n                    <p><span class=\"greenText\"><b>Successful harvest!</b></span><br>Your pay has increased by $0.02. Your bonus pay is now $0.74.</p>\n            ","response":0,"trial_type":"html-button-response","trial_index":100,"time_elapsed":412325,"internal_node_id":"0.0-4.0-1.46","subject_id":"57fe6296035f6e0001d71d05","study_id":"60edd13110225f80f9f3709b","session_id":"6196c6ffa86484a0affe55f9","condition":"contingent","relevant_dimensions":["antennae","legs"],"bee_group":{"antennae":"B","wings":"X","pattern":"X","legs":"M"},"bonus":0.6200000000000009},{"rt":935,"stimulus":"bees-with-color/bee-B2SM.svg","response":1,"trial_type":"image-button-response","trial_index":101,"time_elapsed":413261,"internal_node_id":"0.0-4.0-0.47","subject_id":"57fe6296035f6e0001d71d05","study_id":"60edd13110225f80f9f3709b","session_id":"6196c6ffa86484a0affe55f9","condition":"contingent","relevant_dimensions":["antennae","legs"],"bee_group":{"antennae":"B","wings":"X","pattern":"X","legs":"M"},"action":"avoid","summary":"good-avoid","bonus":0.6200000000000009},{"rt":1007,"stimulus":"\n                    <p><b>Action: <em>avoid</em></b></p>\n                    <p>This is the bee that you just saw.</p>\n                    <img src=\"bees-with-color/bee-B2SM.svg\" width=\"200\">\n                    <p><br>Your bonus pay is unchanged, and remains at $0.74.</p>\n            ","response":0,"trial_type":"html-button-response","trial_index":102,"time_elapsed":414269,"internal_node_id":"0.0-4.0-1.47","subject_id":"57fe6296035f6e0001d71d05","study_id":"60edd13110225f80f9f3709b","session_id":"6196c6ffa86484a0affe55f9","condition":"contingent","relevant_dimensions":["antennae","legs"],"bee_group":{"antennae":"B","wings":"X","pattern":"X","legs":"M"},"bonus":0.6200000000000009},{"rt":1479,"stimulus":"bees-with-color/bee-A2DM.svg","response":0,"trial_type":"image-button-response","trial_index":103,"time_elapsed":415749,"internal_node_id":"0.0-4.0-0.48","subject_id":"57fe6296035f6e0001d71d05","study_id":"60edd13110225f80f9f3709b","session_id":"6196c6ffa86484a0affe55f9","condition":"contingent","relevant_dimensions":["antennae","legs"],"bee_group":{"antennae":"B","wings":"X","pattern":"X","legs":"M"},"action":"harvest","summary":"good-harvest","bonus":0.6200000000000009},{"rt":846,"stimulus":"\n                    <p><b>Action: <em>harvest</em></b></p>\n                    <p>This is the bee that you just saw.</p>\n                    <img src=\"bees-with-color/bee-A2DM.svg\" width=\"200\">\n                    <p><span class=\"greenText\"><b>Successful harvest!</b></span><br>Your pay has increased by $0.02. Your bonus pay is now $0.76.</p>\n            ","response":0,"trial_type":"html-button-response","trial_index":104,"time_elapsed":416597,"internal_node_id":"0.0-4.0-1.48","subject_id":"57fe6296035f6e0001d71d05","study_id":"60edd13110225f80f9f3709b","session_id":"6196c6ffa86484a0affe55f9","condition":"contingent","relevant_dimensions":["antennae","legs"],"bee_group":{"antennae":"B","wings":"X","pattern":"X","legs":"M"},"bonus":0.6200000000000009},{"rt":1647,"stimulus":"bees-with-color/bee-B1SF.svg","response":1,"trial_type":"image-button-response","trial_index":105,"time_elapsed":418245,"internal_node_id":"0.0-4.0-0.49","subject_id":"57fe6296035f6e0001d71d05","study_id":"60edd13110225f80f9f3709b","session_id":"6196c6ffa86484a0affe55f9","condition":"contingent","relevant_dimensions":["antennae","legs"],"bee_group":{"antennae":"B","wings":"X","pattern":"X","legs":"M"},"action":"avoid","summary":"bad-avoid","bonus":0.6200000000000009},{"rt":3007,"stimulus":"\n                    <p><b>Action: <em>avoid</em></b></p>\n                    <p>This is the bee that you just saw.</p>\n                    <img src=\"bees-with-color/bee-B1SF.svg\" width=\"200\">\n                    <p><br>Your bonus pay is unchanged, and remains at $0.76.</p>\n            ","response":0,"trial_type":"html-button-response","trial_index":106,"time_elapsed":421253,"internal_node_id":"0.0-4.0-1.49","subject_id":"57fe6296035f6e0001d71d05","study_id":"60edd13110225f80f9f3709b","session_id":"6196c6ffa86484a0affe55f9","condition":"contingent","relevant_dimensions":["antennae","legs"],"bee_group":{"antennae":"B","wings":"X","pattern":"X","legs":"M"},"bonus":0.6200000000000009},{"rt":1150,"stimulus":"bees-with-color/bee-B1SM.svg","response":1,"trial_type":"image-button-response","trial_index":107,"time_elapsed":422405,"internal_node_id":"0.0-4.0-0.50","subject_id":"57fe6296035f6e0001d71d05","study_id":"60edd13110225f80f9f3709b","session_id":"6196c6ffa86484a0affe55f9","condition":"contingent","relevant_dimensions":["antennae","legs"],"bee_group":{"antennae":"B","wings":"X","pattern":"X","legs":"M"},"action":"avoid","summary":"good-avoid","bonus":0.6200000000000009},{"rt":600,"stimulus":"\n                    <p><b>Action: <em>avoid</em></b></p>\n                    <p>This is the bee that you just saw.</p>\n                    <img src=\"bees-with-color/bee-B1SM.svg\" width=\"200\">\n                    <p><br>Your bonus pay is unchanged, and remains at $0.76.</p>\n            ","response":0,"trial_type":"html-button-response","trial_index":108,"time_elapsed":423006,"internal_node_id":"0.0-4.0-1.50","subject_id":"57fe6296035f6e0001d71d05","study_id":"60edd13110225f80f9f3709b","session_id":"6196c6ffa86484a0affe55f9","condition":"contingent","relevant_dimensions":["antennae","legs"],"bee_group":{"antennae":"B","wings":"X","pattern":"X","legs":"M"},"bonus":0.6200000000000009},{"rt":1054,"stimulus":"bees-with-color/bee-A2DF.svg","response":0,"trial_type":"image-button-response","trial_index":109,"time_elapsed":424061,"internal_node_id":"0.0-4.0-0.51","subject_id":"57fe6296035f6e0001d71d05","study_id":"60edd13110225f80f9f3709b","session_id":"6196c6ffa86484a0affe55f9","condition":"contingent","relevant_dimensions":["antennae","legs"],"bee_group":{"antennae":"B","wings":"X","pattern":"X","legs":"M"},"action":"harvest","summary":"good-harvest","bonus":0.6200000000000009},{"rt":895,"stimulus":"\n                    <p><b>Action: <em>harvest</em></b></p>\n                    <p>This is the bee that you just saw.</p>\n                    <img src=\"bees-with-color/bee-A2DF.svg\" width=\"200\">\n                    <p><span class=\"greenText\"><b>Successful harvest!</b></span><br>Your pay has increased by $0.02. Your bonus pay is now $0.78.</p>\n            ","response":0,"trial_type":"html-button-response","trial_index":110,"time_elapsed":424957,"internal_node_id":"0.0-4.0-1.51","subject_id":"57fe6296035f6e0001d71d05","study_id":"60edd13110225f80f9f3709b","session_id":"6196c6ffa86484a0affe55f9","condition":"contingent","relevant_dimensions":["antennae","legs"],"bee_group":{"antennae":"B","wings":"X","pattern":"X","legs":"M"},"bonus":0.6200000000000009},{"rt":1063,"stimulus":"bees-with-color/bee-A2SF.svg","response":0,"trial_type":"image-button-response","trial_index":111,"time_elapsed":426021,"internal_node_id":"0.0-4.0-0.52","subject_id":"57fe6296035f6e0001d71d05","study_id":"60edd13110225f80f9f3709b","session_id":"6196c6ffa86484a0affe55f9","condition":"contingent","relevant_dimensions":["antennae","legs"],"bee_group":{"antennae":"B","wings":"X","pattern":"X","legs":"M"},"action":"harvest","summary":"good-harvest","bonus":0.6200000000000009},{"rt":879,"stimulus":"\n                    <p><b>Action: <em>harvest</em></b></p>\n                    <p>This is the bee that you just saw.</p>\n                    <img src=\"bees-with-color/bee-A2SF.svg\" width=\"200\">\n                    <p><span class=\"greenText\"><b>Successful harvest!</b></span><br>Your pay has increased by $0.02. Your bonus pay is now $0.80.</p>\n            ","response":0,"trial_type":"html-button-response","trial_index":112,"time_elapsed":426901,"internal_node_id":"0.0-4.0-1.52","subject_id":"57fe6296035f6e0001d71d05","study_id":"60edd13110225f80f9f3709b","session_id":"6196c6ffa86484a0affe55f9","condition":"contingent","relevant_dimensions":["antennae","legs"],"bee_group":{"antennae":"B","wings":"X","pattern":"X","legs":"M"},"bonus":0.6200000000000009},{"rt":1214,"stimulus":"bees-with-color/bee-B1DF.svg","response":1,"trial_type":"image-button-response","trial_index":113,"time_elapsed":428117,"internal_node_id":"0.0-4.0-0.53","subject_id":"57fe6296035f6e0001d71d05","study_id":"60edd13110225f80f9f3709b","session_id":"6196c6ffa86484a0affe55f9","condition":"contingent","relevant_dimensions":["antennae","legs"],"bee_group":{"antennae":"B","wings":"X","pattern":"X","legs":"M"},"action":"avoid","summary":"bad-avoid","bonus":0.6200000000000009},{"rt":864,"stimulus":"\n                    <p><b>Action: <em>avoid</em></b></p>\n                    <p>This is the bee that you just saw.</p>\n                    <img src=\"bees-with-color/bee-B1DF.svg\" width=\"200\">\n                    <p><br>Your bonus pay is unchanged, and remains at $0.80.</p>\n            ","response":0,"trial_type":"html-button-response","trial_index":114,"time_elapsed":428982,"internal_node_id":"0.0-4.0-1.53","subject_id":"57fe6296035f6e0001d71d05","study_id":"60edd13110225f80f9f3709b","session_id":"6196c6ffa86484a0affe55f9","condition":"contingent","relevant_dimensions":["antennae","legs"],"bee_group":{"antennae":"B","wings":"X","pattern":"X","legs":"M"},"bonus":0.6200000000000009},{"rt":879,"stimulus":"bees-with-color/bee-B2DM.svg","response":1,"trial_type":"image-button-response","trial_index":115,"time_elapsed":429861,"internal_node_id":"0.0-4.0-0.54","subject_id":"57fe6296035f6e0001d71d05","study_id":"60edd13110225f80f9f3709b","session_id":"6196c6ffa86484a0affe55f9","condition":"contingent","relevant_dimensions":["antennae","legs"],"bee_group":{"antennae":"B","wings":"X","pattern":"X","legs":"M"},"action":"avoid","summary":"good-avoid","bonus":0.6200000000000009},{"rt":751,"stimulus":"\n                    <p><b>Action: <em>avoid</em></b></p>\n                    <p>This is the bee that you just saw.</p>\n                    <img src=\"bees-with-color/bee-B2DM.svg\" width=\"200\">\n                    <p><br>Your bonus pay is unchanged, and remains at $0.80.</p>\n            ","response":0,"trial_type":"html-button-response","trial_index":116,"time_elapsed":430612,"internal_node_id":"0.0-4.0-1.54","subject_id":"57fe6296035f6e0001d71d05","study_id":"60edd13110225f80f9f3709b","session_id":"6196c6ffa86484a0affe55f9","condition":"contingent","relevant_dimensions":["antennae","legs"],"bee_group":{"antennae":"B","wings":"X","pattern":"X","legs":"M"},"bonus":0.6200000000000009},{"rt":808,"stimulus":"bees-with-color/bee-A1SM.svg","response":0,"trial_type":"image-button-response","trial_index":117,"time_elapsed":431421,"internal_node_id":"0.0-4.0-0.55","subject_id":"57fe6296035f6e0001d71d05","study_id":"60edd13110225f80f9f3709b","session_id":"6196c6ffa86484a0affe55f9","condition":"contingent","relevant_dimensions":["antennae","legs"],"bee_group":{"antennae":"B","wings":"X","pattern":"X","legs":"M"},"action":"harvest","summary":"good-harvest","bonus":0.6200000000000009},{"rt":871,"stimulus":"\n                    <p><b>Action: <em>harvest</em></b></p>\n                    <p>This is the bee that you just saw.</p>\n                    <img src=\"bees-with-color/bee-A1SM.svg\" width=\"200\">\n                    <p><span class=\"greenText\"><b>Successful harvest!</b></span><br>Your pay has increased by $0.02. Your bonus pay is now $0.82.</p>\n            ","response":0,"trial_type":"html-button-response","trial_index":118,"time_elapsed":432293,"internal_node_id":"0.0-4.0-1.55","subject_id":"57fe6296035f6e0001d71d05","study_id":"60edd13110225f80f9f3709b","session_id":"6196c6ffa86484a0affe55f9","condition":"contingent","relevant_dimensions":["antennae","legs"],"bee_group":{"antennae":"B","wings":"X","pattern":"X","legs":"M"},"bonus":0.6200000000000009},{"rt":1086,"stimulus":"bees-with-color/bee-A2SM.svg","response":0,"trial_type":"image-button-response","trial_index":119,"time_elapsed":433381,"internal_node_id":"0.0-4.0-0.56","subject_id":"57fe6296035f6e0001d71d05","study_id":"60edd13110225f80f9f3709b","session_id":"6196c6ffa86484a0affe55f9","condition":"contingent","relevant_dimensions":["antennae","legs"],"bee_group":{"antennae":"B","wings":"X","pattern":"X","legs":"M"},"action":"harvest","summary":"good-harvest","bonus":0.6200000000000009},{"rt":831,"stimulus":"\n                    <p><b>Action: <em>harvest</em></b></p>\n                    <p>This is the bee that you just saw.</p>\n                    <img src=\"bees-with-color/bee-A2SM.svg\" width=\"200\">\n                    <p><span class=\"greenText\"><b>Successful harvest!</b></span><br>Your pay has increased by $0.02. Your bonus pay is now $0.84.</p>\n            ","response":0,"trial_type":"html-button-response","trial_index":120,"time_elapsed":434213,"internal_node_id":"0.0-4.0-1.56","subject_id":"57fe6296035f6e0001d71d05","study_id":"60edd13110225f80f9f3709b","session_id":"6196c6ffa86484a0affe55f9","condition":"contingent","relevant_dimensions":["antennae","legs"],"bee_group":{"antennae":"B","wings":"X","pattern":"X","legs":"M"},"bonus":0.6200000000000009},{"rt":1031,"stimulus":"bees-with-color/bee-B2DF.svg","response":1,"trial_type":"image-button-response","trial_index":121,"time_elapsed":435245,"internal_node_id":"0.0-4.0-0.57","subject_id":"57fe6296035f6e0001d71d05","study_id":"60edd13110225f80f9f3709b","session_id":"6196c6ffa86484a0affe55f9","condition":"contingent","relevant_dimensions":["antennae","legs"],"bee_group":{"antennae":"B","wings":"X","pattern":"X","legs":"M"},"action":"avoid","summary":"bad-avoid","bonus":0.6200000000000009},{"rt":799,"stimulus":"\n                    <p><b>Action: <em>avoid</em></b></p>\n                    <p>This is the bee that you just saw.</p>\n                    <img src=\"bees-with-color/bee-B2DF.svg\" width=\"200\">\n                    <p><br>Your bonus pay is unchanged, and remains at $0.84.</p>\n            ","response":0,"trial_type":"html-button-response","trial_index":122,"time_elapsed":436045,"internal_node_id":"0.0-4.0-1.57","subject_id":"57fe6296035f6e0001d71d05","study_id":"60edd13110225f80f9f3709b","session_id":"6196c6ffa86484a0affe55f9","condition":"contingent","relevant_dimensions":["antennae","legs"],"bee_group":{"antennae":"B","wings":"X","pattern":"X","legs":"M"},"bonus":0.6200000000000009},{"rt":847,"stimulus":"bees-with-color/bee-A1SF.svg","response":0,"trial_type":"image-button-response","trial_index":123,"time_elapsed":436893,"internal_node_id":"0.0-4.0-0.58","subject_id":"57fe6296035f6e0001d71d05","study_id":"60edd13110225f80f9f3709b","session_id":"6196c6ffa86484a0affe55f9","condition":"contingent","relevant_dimensions":["antennae","legs"],"bee_group":{"antennae":"B","wings":"X","pattern":"X","legs":"M"},"action":"harvest","summary":"good-harvest","bonus":0.6200000000000009},{"rt":808,"stimulus":"\n                    <p><b>Action: <em>harvest</em></b></p>\n                    <p>This is the bee that you just saw.</p>\n                    <img src=\"bees-with-color/bee-A1SF.svg\" width=\"200\">\n                    <p><span class=\"greenText\"><b>Successful harvest!</b></span><br>Your pay has increased by $0.02. Your bonus pay is now $0.86.</p>\n            ","response":0,"trial_type":"html-button-response","trial_index":124,"time_elapsed":437701,"internal_node_id":"0.0-4.0-1.58","subject_id":"57fe6296035f6e0001d71d05","study_id":"60edd13110225f80f9f3709b","session_id":"6196c6ffa86484a0affe55f9","condition":"contingent","relevant_dimensions":["antennae","legs"],"bee_group":{"antennae":"B","wings":"X","pattern":"X","legs":"M"},"bonus":0.6200000000000009},{"rt":860,"stimulus":"bees-with-color/bee-A1DF.svg","response":0,"trial_type":"image-button-response","trial_index":125,"time_elapsed":438565,"internal_node_id":"0.0-4.0-0.59","subject_id":"57fe6296035f6e0001d71d05","study_id":"60edd13110225f80f9f3709b","session_id":"6196c6ffa86484a0affe55f9","condition":"contingent","relevant_dimensions":["antennae","legs"],"bee_group":{"antennae":"B","wings":"X","pattern":"X","legs":"M"},"action":"harvest","summary":"good-harvest","bonus":0.6200000000000009},{"rt":798,"stimulus":"\n                    <p><b>Action: <em>harvest</em></b></p>\n                    <p>This is the bee that you just saw.</p>\n                    <img src=\"bees-with-color/bee-A1DF.svg\" width=\"200\">\n                    <p><span class=\"greenText\"><b>Successful harvest!</b></span><br>Your pay has increased by $0.02. Your bonus pay is now $0.88.</p>\n            ","response":0,"trial_type":"html-button-response","trial_index":126,"time_elapsed":439365,"internal_node_id":"0.0-4.0-1.59","subject_id":"57fe6296035f6e0001d71d05","study_id":"60edd13110225f80f9f3709b","session_id":"6196c6ffa86484a0affe55f9","condition":"contingent","relevant_dimensions":["antennae","legs"],"bee_group":{"antennae":"B","wings":"X","pattern":"X","legs":"M"},"bonus":0.6200000000000009},{"rt":807,"stimulus":"bees-with-color/bee-B2SF.svg","response":1,"trial_type":"image-button-response","trial_index":127,"time_elapsed":440173,"internal_node_id":"0.0-4.0-0.60","subject_id":"57fe6296035f6e0001d71d05","study_id":"60edd13110225f80f9f3709b","session_id":"6196c6ffa86484a0affe55f9","condition":"contingent","relevant_dimensions":["antennae","legs"],"bee_group":{"antennae":"B","wings":"X","pattern":"X","legs":"M"},"action":"avoid","summary":"bad-avoid","bonus":0.6200000000000009},{"rt":783,"stimulus":"\n                    <p><b>Action: <em>avoid</em></b></p>\n                    <p>This is the bee that you just saw.</p>\n                    <img src=\"bees-with-color/bee-B2SF.svg\" width=\"200\">\n                    <p><br>Your bonus pay is unchanged, and remains at $0.88.</p>\n            ","response":0,"trial_type":"html-button-response","trial_index":128,"time_elapsed":440957,"internal_node_id":"0.0-4.0-1.60","subject_id":"57fe6296035f6e0001d71d05","study_id":"60edd13110225f80f9f3709b","session_id":"6196c6ffa86484a0affe55f9","condition":"contingent","relevant_dimensions":["antennae","legs"],"bee_group":{"antennae":"B","wings":"X","pattern":"X","legs":"M"},"bonus":0.6200000000000009},{"rt":774,"stimulus":"bees-with-color/bee-A1DM.svg","response":0,"trial_type":"image-button-response","trial_index":129,"time_elapsed":441733,"internal_node_id":"0.0-4.0-0.61","subject_id":"57fe6296035f6e0001d71d05","study_id":"60edd13110225f80f9f3709b","session_id":"6196c6ffa86484a0affe55f9","condition":"contingent","relevant_dimensions":["antennae","legs"],"bee_group":{"antennae":"B","wings":"X","pattern":"X","legs":"M"},"action":"harvest","summary":"good-harvest","bonus":0.6200000000000009},{"rt":831,"stimulus":"\n                    <p><b>Action: <em>harvest</em></b></p>\n                    <p>This is the bee that you just saw.</p>\n                    <img src=\"bees-with-color/bee-A1DM.svg\" width=\"200\">\n                    <p><span class=\"greenText\"><b>Successful harvest!</b></span><br>Your pay has increased by $0.02. Your bonus pay is now $0.90.</p>\n            ","response":0,"trial_type":"html-button-response","trial_index":130,"time_elapsed":442566,"internal_node_id":"0.0-4.0-1.61","subject_id":"57fe6296035f6e0001d71d05","study_id":"60edd13110225f80f9f3709b","session_id":"6196c6ffa86484a0affe55f9","condition":"contingent","relevant_dimensions":["antennae","legs"],"bee_group":{"antennae":"B","wings":"X","pattern":"X","legs":"M"},"bonus":0.6200000000000009},{"rt":815,"stimulus":"bees-with-color/bee-B2SM.svg","response":1,"trial_type":"image-button-response","trial_index":131,"time_elapsed":443381,"internal_node_id":"0.0-4.0-0.62","subject_id":"57fe6296035f6e0001d71d05","study_id":"60edd13110225f80f9f3709b","session_id":"6196c6ffa86484a0affe55f9","condition":"contingent","relevant_dimensions":["antennae","legs"],"bee_group":{"antennae":"B","wings":"X","pattern":"X","legs":"M"},"action":"avoid","summary":"good-avoid","bonus":0.6200000000000009},{"rt":734,"stimulus":"\n                    <p><b>Action: <em>avoid</em></b></p>\n                    <p>This is the bee that you just saw.</p>\n                    <img src=\"bees-with-color/bee-B2SM.svg\" width=\"200\">\n                    <p><br>Your bonus pay is unchanged, and remains at $0.90.</p>\n            ","response":0,"trial_type":"html-button-response","trial_index":132,"time_elapsed":444117,"internal_node_id":"0.0-4.0-1.62","subject_id":"57fe6296035f6e0001d71d05","study_id":"60edd13110225f80f9f3709b","session_id":"6196c6ffa86484a0affe55f9","condition":"contingent","relevant_dimensions":["antennae","legs"],"bee_group":{"antennae":"B","wings":"X","pattern":"X","legs":"M"},"bonus":0.6200000000000009},{"rt":1159,"stimulus":"bees-with-color/bee-B1DM.svg","response":1,"trial_type":"image-button-response","trial_index":133,"time_elapsed":445276,"internal_node_id":"0.0-4.0-0.63","subject_id":"57fe6296035f6e0001d71d05","study_id":"60edd13110225f80f9f3709b","session_id":"6196c6ffa86484a0affe55f9","condition":"contingent","relevant_dimensions":["antennae","legs"],"bee_group":{"antennae":"B","wings":"X","pattern":"X","legs":"M"},"action":"avoid","summary":"good-avoid","bonus":0.6200000000000009},{"rt":751,"stimulus":"\n                    <p><b>Action: <em>avoid</em></b></p>\n                    <p>This is the bee that you just saw.</p>\n                    <img src=\"bees-with-color/bee-B1DM.svg\" width=\"200\">\n                    <p><br>Your bonus pay is unchanged, and remains at $0.90.</p>\n            ","response":0,"trial_type":"html-button-response","trial_index":134,"time_elapsed":446029,"internal_node_id":"0.0-4.0-1.63","subject_id":"57fe6296035f6e0001d71d05","study_id":"60edd13110225f80f9f3709b","session_id":"6196c6ffa86484a0affe55f9","condition":"contingent","relevant_dimensions":["antennae","legs"],"bee_group":{"antennae":"B","wings":"X","pattern":"X","legs":"M"},"bonus":0.6200000000000009},{"rt":5953,"stimulus":"You have completed the first part of this experiment.<br><br>You will now begin a shorter second part, in which you will receive no feedback.<br>The same rules regarding bonus pay apply.<br><br>Press any key to begin.","response":" ","trial_type":"html-keyboard-response","trial_index":135,"time_elapsed":451983,"internal_node_id":"0.0-5.0","subject_id":"57fe6296035f6e0001d71d05","study_id":"60edd13110225f80f9f3709b","session_id":"6196c6ffa86484a0affe55f9","condition":"contingent","relevant_dimensions":["antennae","legs"],"bee_group":{"antennae":"B","wings":"X","pattern":"X","legs":"M"},"bonus":0.6200000000000009},{"rt":9751,"stimulus":"bees-with-color/bee-B1DF.svg","response":0,"trial_type":"image-button-response","trial_index":136,"time_elapsed":461741,"internal_node_id":"0.0-6.0-0.0","subject_id":"57fe6296035f6e0001d71d05","study_id":"60edd13110225f80f9f3709b","session_id":"6196c6ffa86484a0affe55f9","condition":"contingent","relevant_dimensions":["antennae","legs"],"bee_group":{"antennae":"B","wings":"X","pattern":"X","legs":"M"},"bonus":0.6200000000000009},{"rt":5551,"stimulus":"bees-with-color/bee-B1SF.svg","response":1,"trial_type":"image-button-response","trial_index":137,"time_elapsed":467293,"internal_node_id":"0.0-6.0-0.1","subject_id":"57fe6296035f6e0001d71d05","study_id":"60edd13110225f80f9f3709b","session_id":"6196c6ffa86484a0affe55f9","condition":"contingent","relevant_dimensions":["antennae","legs"],"bee_group":{"antennae":"B","wings":"X","pattern":"X","legs":"M"},"bonus":0.6200000000000009},{"rt":1983,"stimulus":"bees-with-color/bee-A1SM.svg","response":0,"trial_type":"image-button-response","trial_index":138,"time_elapsed":469277,"internal_node_id":"0.0-6.0-0.2","subject_id":"57fe6296035f6e0001d71d05","study_id":"60edd13110225f80f9f3709b","session_id":"6196c6ffa86484a0affe55f9","condition":"contingent","relevant_dimensions":["antennae","legs"],"bee_group":{"antennae":"B","wings":"X","pattern":"X","legs":"M"},"bonus":0.6200000000000009},{"rt":1943,"stimulus":"bees-with-color/bee-B1SM.svg","response":1,"trial_type":"image-button-response","trial_index":139,"time_elapsed":471221,"internal_node_id":"0.0-6.0-0.3","subject_id":"57fe6296035f6e0001d71d05","study_id":"60edd13110225f80f9f3709b","session_id":"6196c6ffa86484a0affe55f9","condition":"contingent","relevant_dimensions":["antennae","legs"],"bee_group":{"antennae":"B","wings":"X","pattern":"X","legs":"M"},"bonus":0.6200000000000009},{"rt":1847,"stimulus":"bees-with-color/bee-B2SM.svg","response":0,"trial_type":"image-button-response","trial_index":140,"time_elapsed":473069,"internal_node_id":"0.0-6.0-0.4","subject_id":"57fe6296035f6e0001d71d05","study_id":"60edd13110225f80f9f3709b","session_id":"6196c6ffa86484a0affe55f9","condition":"contingent","relevant_dimensions":["antennae","legs"],"bee_group":{"antennae":"B","wings":"X","pattern":"X","legs":"M"},"bonus":0.6200000000000009},{"rt":1206,"stimulus":"bees-with-color/bee-A1SF.svg","response":1,"trial_type":"image-button-response","trial_index":141,"time_elapsed":474276,"internal_node_id":"0.0-6.0-0.5","subject_id":"57fe6296035f6e0001d71d05","study_id":"60edd13110225f80f9f3709b","session_id":"6196c6ffa86484a0affe55f9","condition":"contingent","relevant_dimensions":["antennae","legs"],"bee_group":{"antennae":"B","wings":"X","pattern":"X","legs":"M"},"bonus":0.6200000000000009},{"rt":1047,"stimulus":"bees-with-color/bee-A2SF.svg","response":0,"trial_type":"image-button-response","trial_index":142,"time_elapsed":475325,"internal_node_id":"0.0-6.0-0.6","subject_id":"57fe6296035f6e0001d71d05","study_id":"60edd13110225f80f9f3709b","session_id":"6196c6ffa86484a0affe55f9","condition":"contingent","relevant_dimensions":["antennae","legs"],"bee_group":{"antennae":"B","wings":"X","pattern":"X","legs":"M"},"bonus":0.6200000000000009},{"rt":934,"stimulus":"bees-with-color/bee-A1DM.svg","response":1,"trial_type":"image-button-response","trial_index":143,"time_elapsed":476261,"internal_node_id":"0.0-6.0-0.7","subject_id":"57fe6296035f6e0001d71d05","study_id":"60edd13110225f80f9f3709b","session_id":"6196c6ffa86484a0affe55f9","condition":"contingent","relevant_dimensions":["antennae","legs"],"bee_group":{"antennae":"B","wings":"X","pattern":"X","legs":"M"},"bonus":0.6200000000000009},{"rt":767,"stimulus":"bees-with-color/bee-B2DM.svg","response":0,"trial_type":"image-button-response","trial_index":144,"time_elapsed":477028,"internal_node_id":"0.0-6.0-0.8","subject_id":"57fe6296035f6e0001d71d05","study_id":"60edd13110225f80f9f3709b","session_id":"6196c6ffa86484a0affe55f9","condition":"contingent","relevant_dimensions":["antennae","legs"],"bee_group":{"antennae":"B","wings":"X","pattern":"X","legs":"M"},"bonus":0.6200000000000009},{"rt":655,"stimulus":"bees-with-color/bee-B2DF.svg","response":1,"trial_type":"image-button-response","trial_index":145,"time_elapsed":477685,"internal_node_id":"0.0-6.0-0.9","subject_id":"57fe6296035f6e0001d71d05","study_id":"60edd13110225f80f9f3709b","session_id":"6196c6ffa86484a0affe55f9","condition":"contingent","relevant_dimensions":["antennae","legs"],"bee_group":{"antennae":"B","wings":"X","pattern":"X","legs":"M"},"bonus":0.6200000000000009},{"rt":558,"stimulus":"bees-with-color/bee-A2SM.svg","response":0,"trial_type":"image-button-response","trial_index":146,"time_elapsed":478245,"internal_node_id":"0.0-6.0-0.10","subject_id":"57fe6296035f6e0001d71d05","study_id":"60edd13110225f80f9f3709b","session_id":"6196c6ffa86484a0affe55f9","condition":"contingent","relevant_dimensions":["antennae","legs"],"bee_group":{"antennae":"B","wings":"X","pattern":"X","legs":"M"},"bonus":0.6200000000000009},{"rt":470,"stimulus":"bees-with-color/bee-A2DF.svg","response":1,"trial_type":"image-button-response","trial_index":147,"time_elapsed":478717,"internal_node_id":"0.0-6.0-0.11","subject_id":"57fe6296035f6e0001d71d05","study_id":"60edd13110225f80f9f3709b","session_id":"6196c6ffa86484a0affe55f9","condition":"contingent","relevant_dimensions":["antennae","legs"],"bee_group":{"antennae":"B","wings":"X","pattern":"X","legs":"M"},"bonus":0.6200000000000009},{"rt":430,"stimulus":"bees-with-color/bee-B1DM.svg","response":0,"trial_type":"image-button-response","trial_index":148,"time_elapsed":479149,"internal_node_id":"0.0-6.0-0.12","subject_id":"57fe6296035f6e0001d71d05","study_id":"60edd13110225f80f9f3709b","session_id":"6196c6ffa86484a0affe55f9","condition":"contingent","relevant_dimensions":["antennae","legs"],"bee_group":{"antennae":"B","wings":"X","pattern":"X","legs":"M"},"bonus":0.6200000000000009},{"rt":423,"stimulus":"bees-with-color/bee-A2DM.svg","response":1,"trial_type":"image-button-response","trial_index":149,"time_elapsed":479573,"internal_node_id":"0.0-6.0-0.13","subject_id":"57fe6296035f6e0001d71d05","study_id":"60edd13110225f80f9f3709b","session_id":"6196c6ffa86484a0affe55f9","condition":"contingent","relevant_dimensions":["antennae","legs"],"bee_group":{"antennae":"B","wings":"X","pattern":"X","legs":"M"},"bonus":0.6200000000000009},{"rt":437,"stimulus":"bees-with-color/bee-B2SF.svg","response":0,"trial_type":"image-button-response","trial_index":150,"time_elapsed":480012,"internal_node_id":"0.0-6.0-0.14","subject_id":"57fe6296035f6e0001d71d05","study_id":"60edd13110225f80f9f3709b","session_id":"6196c6ffa86484a0affe55f9","condition":"contingent","relevant_dimensions":["antennae","legs"],"bee_group":{"antennae":"B","wings":"X","pattern":"X","legs":"M"},"bonus":0.6200000000000009},{"rt":407,"stimulus":"bees-with-color/bee-A1DF.svg","response":1,"trial_type":"image-button-response","trial_index":151,"time_elapsed":480420,"internal_node_id":"0.0-6.0-0.15","subject_id":"57fe6296035f6e0001d71d05","study_id":"60edd13110225f80f9f3709b","session_id":"6196c6ffa86484a0affe55f9","condition":"contingent","relevant_dimensions":["antennae","legs"],"bee_group":{"antennae":"B","wings":"X","pattern":"X","legs":"M"},"bonus":0.6200000000000009},{"rt":391,"stimulus":"bees-with-color/bee-A1DM.svg","response":1,"trial_type":"image-button-response","trial_index":152,"time_elapsed":480813,"internal_node_id":"0.0-6.0-0.16","subject_id":"57fe6296035f6e0001d71d05","study_id":"60edd13110225f80f9f3709b","session_id":"6196c6ffa86484a0affe55f9","condition":"contingent","relevant_dimensions":["antennae","legs"],"bee_group":{"antennae":"B","wings":"X","pattern":"X","legs":"M"},"bonus":0.6200000000000009},{"rt":455,"stimulus":"bees-with-color/bee-A2SM.svg","response":0,"trial_type":"image-button-response","trial_index":153,"time_elapsed":481269,"internal_node_id":"0.0-6.0-0.17","subject_id":"57fe6296035f6e0001d71d05","study_id":"60edd13110225f80f9f3709b","session_id":"6196c6ffa86484a0affe55f9","condition":"contingent","relevant_dimensions":["antennae","legs"],"bee_group":{"antennae":"B","wings":"X","pattern":"X","legs":"M"},"bonus":0.6200000000000009},{"rt":430,"stimulus":"bees-with-color/bee-B1SM.svg","response":1,"trial_type":"image-button-response","trial_index":154,"time_elapsed":481701,"internal_node_id":"0.0-6.0-0.18","subject_id":"57fe6296035f6e0001d71d05","study_id":"60edd13110225f80f9f3709b","session_id":"6196c6ffa86484a0affe55f9","condition":"contingent","relevant_dimensions":["antennae","legs"],"bee_group":{"antennae":"B","wings":"X","pattern":"X","legs":"M"},"bonus":0.6200000000000009},{"rt":358,"stimulus":"bees-with-color/bee-A2DF.svg","response":1,"trial_type":"image-button-response","trial_index":155,"time_elapsed":482061,"internal_node_id":"0.0-6.0-0.19","subject_id":"57fe6296035f6e0001d71d05","study_id":"60edd13110225f80f9f3709b","session_id":"6196c6ffa86484a0affe55f9","condition":"contingent","relevant_dimensions":["antennae","legs"],"bee_group":{"antennae":"B","wings":"X","pattern":"X","legs":"M"},"bonus":0.6200000000000009},{"rt":399,"stimulus":"bees-with-color/bee-B2DF.svg","response":0,"trial_type":"image-button-response","trial_index":156,"time_elapsed":482461,"internal_node_id":"0.0-6.0-0.20","subject_id":"57fe6296035f6e0001d71d05","study_id":"60edd13110225f80f9f3709b","session_id":"6196c6ffa86484a0affe55f9","condition":"contingent","relevant_dimensions":["antennae","legs"],"bee_group":{"antennae":"B","wings":"X","pattern":"X","legs":"M"},"bonus":0.6200000000000009},{"rt":391,"stimulus":"bees-with-color/bee-B1DM.svg","response":0,"trial_type":"image-button-response","trial_index":157,"time_elapsed":482853,"internal_node_id":"0.0-6.0-0.21","subject_id":"57fe6296035f6e0001d71d05","study_id":"60edd13110225f80f9f3709b","session_id":"6196c6ffa86484a0affe55f9","condition":"contingent","relevant_dimensions":["antennae","legs"],"bee_group":{"antennae":"B","wings":"X","pattern":"X","legs":"M"},"bonus":0.6200000000000009},{"rt":406,"stimulus":"bees-with-color/bee-A2SF.svg","response":1,"trial_type":"image-button-response","trial_index":158,"time_elapsed":483261,"internal_node_id":"0.0-6.0-0.22","subject_id":"57fe6296035f6e0001d71d05","study_id":"60edd13110225f80f9f3709b","session_id":"6196c6ffa86484a0affe55f9","condition":"contingent","relevant_dimensions":["antennae","legs"],"bee_group":{"antennae":"B","wings":"X","pattern":"X","legs":"M"},"bonus":0.6200000000000009},{"rt":382,"stimulus":"bees-with-color/bee-A2DM.svg","response":1,"trial_type":"image-button-response","trial_index":159,"time_elapsed":483644,"internal_node_id":"0.0-6.0-0.23","subject_id":"57fe6296035f6e0001d71d05","study_id":"60edd13110225f80f9f3709b","session_id":"6196c6ffa86484a0affe55f9","condition":"contingent","relevant_dimensions":["antennae","legs"],"bee_group":{"antennae":"B","wings":"X","pattern":"X","legs":"M"},"bonus":0.6200000000000009},{"rt":383,"stimulus":"bees-with-color/bee-A1SF.svg","response":0,"trial_type":"image-button-response","trial_index":160,"time_elapsed":484028,"internal_node_id":"0.0-6.0-0.24","subject_id":"57fe6296035f6e0001d71d05","study_id":"60edd13110225f80f9f3709b","session_id":"6196c6ffa86484a0affe55f9","condition":"contingent","relevant_dimensions":["antennae","legs"],"bee_group":{"antennae":"B","wings":"X","pattern":"X","legs":"M"},"bonus":0.6200000000000009},{"rt":295,"stimulus":"bees-with-color/bee-B2SM.svg","response":0,"trial_type":"image-button-response","trial_index":161,"time_elapsed":484325,"internal_node_id":"0.0-6.0-0.25","subject_id":"57fe6296035f6e0001d71d05","study_id":"60edd13110225f80f9f3709b","session_id":"6196c6ffa86484a0affe55f9","condition":"contingent","relevant_dimensions":["antennae","legs"],"bee_group":{"antennae":"B","wings":"X","pattern":"X","legs":"M"},"bonus":0.6200000000000009},{"rt":440,"stimulus":"bees-with-color/bee-B1SF.svg","response":1,"trial_type":"image-button-response","trial_index":162,"time_elapsed":484766,"internal_node_id":"0.0-6.0-0.26","subject_id":"57fe6296035f6e0001d71d05","study_id":"60edd13110225f80f9f3709b","session_id":"6196c6ffa86484a0affe55f9","condition":"contingent","relevant_dimensions":["antennae","legs"],"bee_group":{"antennae":"B","wings":"X","pattern":"X","legs":"M"},"bonus":0.6200000000000009},{"rt":388,"stimulus":"bees-with-color/bee-B2DM.svg","response":1,"trial_type":"image-button-response","trial_index":163,"time_elapsed":485157,"internal_node_id":"0.0-6.0-0.27","subject_id":"57fe6296035f6e0001d71d05","study_id":"60edd13110225f80f9f3709b","session_id":"6196c6ffa86484a0affe55f9","condition":"contingent","relevant_dimensions":["antennae","legs"],"bee_group":{"antennae":"B","wings":"X","pattern":"X","legs":"M"},"bonus":0.6200000000000009},{"rt":391,"stimulus":"bees-with-color/bee-B2SF.svg","response":0,"trial_type":"image-button-response","trial_index":164,"time_elapsed":485549,"internal_node_id":"0.0-6.0-0.28","subject_id":"57fe6296035f6e0001d71d05","study_id":"60edd13110225f80f9f3709b","session_id":"6196c6ffa86484a0affe55f9","condition":"contingent","relevant_dimensions":["antennae","legs"],"bee_group":{"antennae":"B","wings":"X","pattern":"X","legs":"M"},"bonus":0.6200000000000009},{"rt":359,"stimulus":"bees-with-color/bee-A1SM.svg","response":0,"trial_type":"image-button-response","trial_index":165,"time_elapsed":485909,"internal_node_id":"0.0-6.0-0.29","subject_id":"57fe6296035f6e0001d71d05","study_id":"60edd13110225f80f9f3709b","session_id":"6196c6ffa86484a0affe55f9","condition":"contingent","relevant_dimensions":["antennae","legs"],"bee_group":{"antennae":"B","wings":"X","pattern":"X","legs":"M"},"bonus":0.6200000000000009},{"rt":974,"stimulus":"bees-with-color/bee-B1DF.svg","response":1,"trial_type":"image-button-response","trial_index":166,"time_elapsed":486885,"internal_node_id":"0.0-6.0-0.30","subject_id":"57fe6296035f6e0001d71d05","study_id":"60edd13110225f80f9f3709b","session_id":"6196c6ffa86484a0affe55f9","condition":"contingent","relevant_dimensions":["antennae","legs"],"bee_group":{"antennae":"B","wings":"X","pattern":"X","legs":"M"},"bonus":0.6200000000000009},{"rt":830,"stimulus":"bees-with-color/bee-A1DF.svg","response":0,"trial_type":"image-button-response","trial_index":167,"time_elapsed":487717,"internal_node_id":"0.0-6.0-0.31","subject_id":"57fe6296035f6e0001d71d05","study_id":"60edd13110225f80f9f3709b","session_id":"6196c6ffa86484a0affe55f9","condition":"contingent","relevant_dimensions":["antennae","legs"],"bee_group":{"antennae":"B","wings":"X","pattern":"X","legs":"M"},"bonus":0.6200000000000009},{"rt":8975,"stimulus":"You started with $2.50 of base pay.<br><br>\n            You made $0.62 in bonus pay,\n            for a total of <b>$3.12</b>.","response":0,"trial_type":"html-button-response","trial_index":168,"time_elapsed":496692,"internal_node_id":"0.0-7.0-0.0","subject_id":"57fe6296035f6e0001d71d05","study_id":"60edd13110225f80f9f3709b","session_id":"6196c6ffa86484a0affe55f9","condition":"contingent","relevant_dimensions":["antennae","legs"],"bee_group":{"antennae":"B","wings":"X","pattern":"X","legs":"M"},"bonus":0.6200000000000009},{"rt":7669,"response":{"percent-dangerous-bees":"20"},"trial_type":"survey-text","trial_index":169,"time_elapse