[{"success":true,"trial_type":"fullscreen","trial_index":0,"time_elapsed":11585,"internal_node_id":"0.0-0.0","subject_id":"613246c4e0e8fd2e66ef9ea3","study_id":"6197b3f67c2b5cd3b6d9596a","session_id":"619be31b923644746611012a","condition":"contingent","relevant_dimensions":["antennae","wings"],"bee_group":{"antennae":"B","wings":"1","pattern":"X","legs":"X"},"bonus":0.9000000000000008},{"success":true,"timeout":false,"failed_images":[],"failed_audio":[],"failed_video":[],"trial_type":"preload","trial_index":1,"time_elapsed":14081,"internal_node_id":"0.0-1.0","subject_id":"613246c4e0e8fd2e66ef9ea3","study_id":"6197b3f67c2b5cd3b6d9596a","session_id":"619be31b923644746611012a","condition":"contingent","relevant_dimensions":["antennae","wings"],"bee_group":{"antennae":"B","wings":"1","pattern":"X","legs":"X"},"bonus":0.9000000000000008},{"rt":3689.1999999284744,"stimulus":"Welcome! Press any key to begin.","response":" ","trial_type":"html-keyboard-response","trial_index":2,"time_elapsed":17771,"internal_node_id":"0.0-2.0","subject_id":"613246c4e0e8fd2e66ef9ea3","study_id":"6197b3f67c2b5cd3b6d9596a","session_id":"619be31b923644746611012a","condition":"contingent","relevant_dimensions":["antennae","wings"],"bee_group":{"antennae":"B","wings":"1","pattern":"X","legs":"X"},"bonus":0.9000000000000008},{"view_history":[{"page_index":0,"viewing_time":5011},{"page_index":1,"viewing_time":11208.299999952316},{"page_index":2,"viewing_time":14178.600000023842},{"page_index":3,"viewing_time":60161.10000002384},{"page_index":4,"viewing_time":9530},{"page_index":5,"viewing_time":6674.299999952316},{"page_index":6,"viewing_time":8867.300000071526},{"page_index":7,"viewing_time":8604.5},{"page_index":8,"viewing_time":7134.599999904633},{"page_index":9,"viewing_time":2597.3000000715256},{"page_index":10,"viewing_time":4054.6999999284744},{"page_index":11,"viewing_time":9313.800000071526},{"page_index":12,"viewing_time":11162},{"page_index":13,"viewing_time":3270.1999999284744},{"page_index":14,"viewing_time":3106.100000023842}],"rt":164874.19999992847,"trial_type":"instructions","trial_index":3,"time_elapsed":182646,"internal_node_id":"0.0-3.0-0.0","subject_id":"613246c4e0e8fd2e66ef9ea3","study_id":"6197b3f67c2b5cd3b6d9596a","session_id":"619be31b923644746611012a","condition":"contingent","relevant_dimensions":["antennae","wings"],"bee_group":{"antennae":"B","wings":"1","pattern":"X","legs":"X"},"bonus":0.9000000000000008},{"rt":18222.5,"response":{"Q0":["Two or six legs","Stripes or spots on body","Single or double wings","Antennae or no antennae"]},"question_order":[0],"trial_type":"survey-multi-select","trial_index":4,"time_elapsed":200876,"internal_node_id":"0.0-3.0-1.0","subject_id":"613246c4e0e8fd2e66ef9ea3","study_id":"6197b3f67c2b5cd3b6d9596a","session_id":"619be31b923644746611012a","condition":"contingent","relevant_dimensions":["antennae","wings"],"bee_group":{"antennae":"B","wings":"1","pattern":"X","legs":"X"},"correct":true,"bonus":0.9000000000000008},{"rt":48277.10000002384,"response":{"Q1":"No.","Q2":"Based on the four features of the bee.","Q3":"You learn if it was friendly or dangerous and alter your bonus."},"question_order":[0,1,2],"trial_type":"survey-multi-choice","trial_index":5,"time_elapsed":249159,"internal_node_id":"0.0-3.0-2.0","subject_id":"613246c4e0e8fd2e66ef9ea3","study_id":"6197b3f67c2b5cd3b6d9596a","session_id":"619be31b923644746611012a","condition":"contingent","relevant_dimensions":["antennae","wings"],"bee_group":{"antennae":"B","wings":"1","pattern":"X","legs":"X"},"correct":false,"bonus":0.9000000000000008},{"rt":3627.2000000476837,"stimulus":"<p>You did not answer all comprehension questions correctly.<br>Press <b>continue</b> to review the instructions again.</p>","response":0,"trial_type":"html-button-response","trial_index":6,"time_elapsed":252793,"internal_node_id":"0.0-3.0-3.0","subject_id":"613246c4e0e8fd2e66ef9ea3","study_id":"6197b3f67c2b5cd3b6d9596a","session_id":"619be31b923644746611012a","condition":"contingent","relevant_dimensions":["antennae","wings"],"bee_group":{"antennae":"B","wings":"1","pattern":"X","legs":"X"},"bonus":0.9000000000000008},{"view_history":[{"page_index":0,"viewing_time":2201.2000000476837},{"page_index":1,"viewing_time":593.8999999761581},{"page_index":2,"viewing_time":604.2000000476837},{"page_index":3,"viewing_time":497.1999999284744},{"page_index":4,"viewing_time":644.2000000476837},{"page_index":5,"viewing_time":454.7999999523163},{"page_index":6,"viewing_time":843.8000000715256},{"page_index":7,"viewing_time":910.1000000238419},{"page_index":8,"viewing_time":1266.2999999523163},{"page_index":9,"viewing_time":1260.8999999761581},{"page_index":10,"viewing_time":938},{"page_index":11,"viewing_time":932.2000000476837},{"page_index":12,"viewing_time":5387.100000023842},{"page_index":13,"viewing_time":1110.0999999046326},{"page_index":14,"viewing_time":950.2000000476837}],"rt":18594.5,"trial_type":"instructions","trial_index":7,"time_elapsed":271388,"internal_node_id":"0.0-3.0-4.0-0.0","subject_id":"613246c4e0e8fd2e66ef9ea3","study_id":"6197b3f67c2b5cd3b6d9596a","session_id":"619be31b923644746611012a","condition":"contingent","relevant_dimensions":["antennae","wings"],"bee_group":{"antennae":"B","wings":"1","pattern":"X","legs":"X"},"bonus":0.9000000000000008},{"rt":10023.600000023842,"response":{"Q0":["Two or six legs","Stripes or spots on body","Single or double wings","Antennae or no antennae"]},"question_order":[0],"trial_type":"survey-multi-select","trial_index":8,"time_elapsed":281416,"internal_node_id":"0.0-3.0-4.0-1.0","subject_id":"613246c4e0e8fd2e66ef9ea3","study_id":"6197b3f67c2b5cd3b6d9596a","session_id":"619be31b923644746611012a","condition":"contingent","relevant_dimensions":["antennae","wings"],"bee_group":{"antennae":"B","wings":"1","pattern":"X","legs":"X"},"correct":true,"bonus":0.9000000000000008},{"rt":8034.600000023842,"response":{"Q1":"No.","Q2":"Based on the four features of the bee.","Q3":"You do not learn if it was friendly or dangerous, and do not alter your bonus."},"question_order":[0,1,2],"trial_type":"survey-multi-choice","trial_index":9,"time_elapsed":289457,"internal_node_id":"0.0-3.0-4.0-2.0","subject_id":"613246c4e0e8fd2e66ef9ea3","study_id":"6197b3f67c2b5cd3b6d9596a","session_id":"619be31b923644746611012a","condition":"contingent","relevant_dimensions":["antennae","wings"],"bee_group":{"antennae":"B","wings":"1","pattern":"X","legs":"X"},"correct":true,"bonus":0.9000000000000008},{"rt":6021.5,"stimulus":"<p>Congrats, you got everything right<br>When you're ready, click the button below to continue to the experiment.</p>","response":0,"trial_type":"html-button-response","trial_index":10,"time_elapsed":295487,"internal_node_id":"0.0-3.0-4.0-3.0","subject_id":"613246c4e0e8fd2e66ef9ea3","study_id":"6197b3f67c2b5cd3b6d9596a","session_id":"619be31b923644746611012a","condition":"contingent","relevant_dimensions":["antennae","wings"],"bee_group":{"antennae":"B","wings":"1","pattern":"X","legs":"X"},"bonus":0.9000000000000008},{"rt":23070.900000095367,"stimulus":"bees-with-color/bee-B1DM.svg","response":0,"trial_type":"image-button-response","trial_index":11,"time_elapsed":318561,"internal_node_id":"0.0-4.0-0.0","subject_id":"613246c4e0e8fd2e66ef9ea3","study_id":"6197b3f67c2b5cd3b6d9596a","session_id":"619be31b923644746611012a","condition":"contingent","relevant_dimensions":["antennae","wings"],"bee_group":{"antennae":"B","wings":"1","pattern":"X","legs":"X"},"action":"harvest","summary":"bad-harvest","bonus":0.9000000000000008},{"rt":14408.5,"stimulus":"\n                    <p><b>Action: <em>harvest</em></b></p>\n                    <p>This is the bee that you just saw.</p>\n                    <img src=\"bees-with-color/bee-B1DM.svg\" width=\"200\">\n                    <p><span class=\"redText\">Bad choice, the bee was angry.</span><br><b>You have been stung!</b><br>Your pay has been decreased by $0.10. Your bonus pay is now $0.44.</p>\n            ","response":0,"trial_type":"html-button-response","trial_index":12,"time_elapsed":332972,"internal_node_id":"0.0-4.0-1.0","subject_id":"613246c4e0e8fd2e66ef9ea3","study_id":"6197b3f67c2b5cd3b6d9596a","session_id":"619be31b923644746611012a","condition":"contingent","relevant_dimensions":["antennae","wings"],"bee_group":{"antennae":"B","wings":"1","pattern":"X","legs":"X"},"bonus":0.9000000000000008},{"rt":15811.5,"stimulus":"bees-with-color/bee-B2DF.svg","response":0,"trial_type":"image-button-response","trial_index":13,"time_elapsed":348786,"internal_node_id":"0.0-4.0-0.1","subject_id":"613246c4e0e8fd2e66ef9ea3","study_id":"6197b3f67c2b5cd3b6d9596a","session_id":"619be31b923644746611012a","condition":"contingent","relevant_dimensions":["antennae","wings"],"bee_group":{"antennae":"B","wings":"1","pattern":"X","legs":"X"},"action":"harvest","summary":"good-harvest","bonus":0.9000000000000008},{"rt":7638.399999976158,"stimulus":"\n                    <p><b>Action: <em>harvest</em></b></p>\n                    <p>This is the bee that you just saw.</p>\n                    <img src=\"bees-with-color/bee-B2DF.svg\" width=\"200\">\n                    <p><span class=\"greenText\"><b>Successful harvest!</b></span><br>Your pay has increased by $0.02. Your bonus pay is now $0.46.</p>\n            ","response":0,"trial_type":"html-button-response","trial_index":14,"time_elapsed":356426,"internal_node_id":"0.0-4.0-1.1","subject_id":"613246c4e0e8fd2e66ef9ea3","study_id":"6197b3f67c2b5cd3b6d9596a","session_id":"619be31b923644746611012a","condition":"contingent","relevant_dimensions":["antennae","wings"],"bee_group":{"antennae":"B","wings":"1","pattern":"X","legs":"X"},"bonus":0.9000000000000008},{"rt":14474.699999928474,"stimulus":"bees-with-color/bee-B1SF.svg","response":0,"trial_type":"image-button-response","trial_index":15,"time_elapsed":370903,"internal_node_id":"0.0-4.0-0.2","subject_id":"613246c4e0e8fd2e66ef9ea3","study_id":"6197b3f67c2b5cd3b6d9596a","session_id":"619be31b923644746611012a","condition":"contingent","relevant_dimensions":["antennae","wings"],"bee_group":{"antennae":"B","wings":"1","pattern":"X","legs":"X"},"action":"harvest","summary":"bad-harvest","bonus":0.9000000000000008},{"rt":2500.2999999523163,"stimulus":"\n                    <p><b>Action: <em>harvest</em></b></p>\n                    <p>This is the bee that you just saw.</p>\n                    <img src=\"bees-with-color/bee-B1SF.svg\" width=\"200\">\n                    <p><span class=\"redText\">Bad choice, the bee was angry.</span><br><b>You have been stung!</b><br>Your pay has been decreased by $0.10. Your bonus pay is now $0.36.</p>\n            ","response":0,"trial_type":"html-button-response","trial_index":16,"time_elapsed":373405,"internal_node_id":"0.0-4.0-1.2","subject_id":"613246c4e0e8fd2e66ef9ea3","study_id":"6197b3f67c2b5cd3b6d9596a","session_id":"619be31b923644746611012a","condition":"contingent","relevant_dimensions":["antennae","wings"],"bee_group":{"antennae":"B","wings":"1","pattern":"X","legs":"X"},"bonus":0.9000000000000008},{"rt":8567.600000023842,"stimulus":"bees-with-color/bee-A2DF.svg","response":0,"trial_type":"image-button-response","trial_index":17,"time_elapsed":381974,"internal_node_id":"0.0-4.0-0.3","subject_id":"613246c4e0e8fd2e66ef9ea3","study_id":"6197b3f67c2b5cd3b6d9596a","session_id":"619be31b923644746611012a","condition":"contingent","relevant_dimensions":["antennae","wings"],"bee_group":{"antennae":"B","wings":"1","pattern":"X","legs":"X"},"action":"harvest","summary":"good-harvest","bonus":0.9000000000000008},{"rt":6772.199999928474,"stimulus":"\n                    <p><b>Action: <em>harvest</em></b></p>\n                    <p>This is the bee that you just saw.</p>\n                    <img src=\"bees-with-color/bee-A2DF.svg\" width=\"200\">\n                    <p><span class=\"greenText\"><b>Successful harvest!</b></span><br>Your pay has increased by $0.02. Your bonus pay is now $0.38.</p>\n            ","response":0,"trial_type":"html-button-response","trial_index":18,"time_elapsed":388748,"internal_node_id":"0.0-4.0-1.3","subject_id":"613246c4e0e8fd2e66ef9ea3","study_id":"6197b3f67c2b5cd3b6d9596a","session_id":"619be31b923644746611012a","condition":"contingent","relevant_dimensions":["antennae","wings"],"bee_group":{"antennae":"B","wings":"1","pattern":"X","legs":"X"},"bonus":0.9000000000000008},{"rt":19082,"stimulus":"bees-with-color/bee-A2SM.svg","response":1,"trial_type":"image-button-response","trial_index":19,"time_elapsed":407832,"internal_node_id":"0.0-4.0-0.4","subject_id":"613246c4e0e8fd2e66ef9ea3","study_id":"6197b3f67c2b5cd3b6d9596a","session_id":"619be31b923644746611012a","condition":"contingent","relevant_dimensions":["antennae","wings"],"bee_group":{"antennae":"B","wings":"1","pattern":"X","legs":"X"},"action":"avoid","summary":"bad-avoid","bonus":0.9000000000000008},{"rt":4072.5,"stimulus":"\n                    <p><b>Action: <em>avoid</em></b></p>\n                    <p>This is the bee that you just saw.</p>\n                    <img src=\"bees-with-color/bee-A2SM.svg\" width=\"200\">\n                    <p><br>Your bonus pay is unchanged, and remains at $0.38.</p>\n            ","response":0,"trial_type":"html-button-response","trial_index":20,"time_elapsed":411906,"internal_node_id":"0.0-4.0-1.4","subject_id":"613246c4e0e8fd2e66ef9ea3","study_id":"6197b3f67c2b5cd3b6d9596a","session_id":"619be31b923644746611012a","condition":"contingent","relevant_dimensions":["antennae","wings"],"bee_group":{"antennae":"B","wings":"1","pattern":"X","legs":"X"},"bonus":0.9000000000000008},{"rt":15035.800000071526,"stimulus":"bees-with-color/bee-A2SF.svg","response":1,"trial_type":"image-button-response","trial_index":21,"time_elapsed":426944,"internal_node_id":"0.0-4.0-0.5","subject_id":"613246c4e0e8fd2e66ef9ea3","study_id":"6197b3f67c2b5cd3b6d9596a","session_id":"619be31b923644746611012a","condition":"contingent","relevant_dimensions":["antennae","wings"],"bee_group":{"antennae":"B","wings":"1","pattern":"X","legs":"X"},"action":"avoid","summary":"bad-avoid","bonus":0.9000000000000008},{"rt":1792.6999999284744,"stimulus":"\n                    <p><b>Action: <em>avoid</em></b></p>\n                    <p>This is the bee that you just saw.</p>\n                    <img src=\"bees-with-color/bee-A2SF.svg\" width=\"200\">\n                    <p><br>Your bonus pay is unchanged, and remains at $0.38.</p>\n            ","response":0,"trial_type":"html-button-response","trial_index":22,"time_elapsed":428738,"internal_node_id":"0.0-4.0-1.5","subject_id":"613246c4e0e8fd2e66ef9ea3","study_id":"6197b3f67c2b5cd3b6d9596a","session_id":"619be31b923644746611012a","condition":"contingent","relevant_dimensions":["antennae","wings"],"bee_group":{"antennae":"B","wings":"1","pattern":"X","legs":"X"},"bonus":0.9000000000000008},{"rt":3237.9000000953674,"stimulus":"bees-with-color/bee-A1SM.svg","response":0,"trial_type":"image-button-response","trial_index":23,"time_elapsed":431978,"internal_node_id":"0.0-4.0-0.6","subject_id":"613246c4e0e8fd2e66ef9ea3","study_id":"6197b3f67c2b5cd3b6d9596a","session_id":"619be31b923644746611012a","condition":"contingent","relevant_dimensions":["antennae","wings"],"bee_group":{"antennae":"B","wings":"1","pattern":"X","legs":"X"},"action":"harvest","summary":"good-harvest","bonus":0.9000000000000008},{"rt":4447.099999904633,"stimulus":"\n                    <p><b>Action: <em>harvest</em></b></p>\n                    <p>This is the bee that you just saw.</p>\n                    <img src=\"bees-with-color/bee-A1SM.svg\" width=\"200\">\n                    <p><span class=\"greenText\"><b>Successful harvest!</b></span><br>Your pay has increased by $0.02. Your bonus pay is now $0.40.</p>\n            ","response":0,"trial_type":"html-button-response","trial_index":24,"time_elapsed":436427,"internal_node_id":"0.0-4.0-1.6","subject_id":"613246c4e0e8fd2e66ef9ea3","study_id":"6197b3f67c2b5cd3b6d9596a","session_id":"619be31b923644746611012a","condition":"contingent","relevant_dimensions":["antennae","wings"],"bee_group":{"antennae":"B","wings":"1","pattern":"X","legs":"X"},"bonus":0.9000000000000008},{"rt":5263.299999952316,"stimulus":"bees-with-color/bee-B2DM.svg","response":0,"trial_type":"image-button-response","trial_index":25,"time_elapsed":441692,"internal_node_id":"0.0-4.0-0.7","subject_id":"613246c4e0e8fd2e66ef9ea3","study_id":"6197b3f67c2b5cd3b6d9596a","session_id":"619be31b923644746611012a","condition":"contingent","relevant_dimensions":["antennae","wings"],"bee_group":{"antennae":"B","wings":"1","pattern":"X","legs":"X"},"action":"harvest","summary":"good-harvest","bonus":0.9000000000000008},{"rt":5020.399999976158,"stimulus":"\n                    <p><b>Action: <em>harvest</em></b></p>\n                    <p>This is the bee that you just saw.</p>\n                    <img src=\"bees-with-color/bee-B2DM.svg\" width=\"200\">\n                    <p><span class=\"greenText\"><b>Successful harvest!</b></span><br>Your pay has increased by $0.02. Your bonus pay is now $0.42.</p>\n            ","response":0,"trial_type":"html-button-response","trial_index":26,"time_elapsed":446714,"internal_node_id":"0.0-4.0-1.7","subject_id":"613246c4e0e8fd2e66ef9ea3","study_id":"6197b3f67c2b5cd3b6d9596a","session_id":"619be31b923644746611012a","condition":"contingent","relevant_dimensions":["antennae","wings"],"bee_group":{"antennae":"B","wings":"1","pattern":"X","legs":"X"},"bonus":0.9000000000000008},{"rt":10347.700000047684,"stimulus":"bees-with-color/bee-A2DM.svg","response":1,"trial_type":"image-button-response","trial_index":27,"time_elapsed":457064,"internal_node_id":"0.0-4.0-0.8","subject_id":"613246c4e0e8fd2e66ef9ea3","study_id":"6197b3f67c2b5cd3b6d9596a","session_id":"619be31b923644746611012a","condition":"contingent","relevant_dimensions":["antennae","wings"],"bee_group":{"antennae":"B","wings":"1","pattern":"X","legs":"X"},"action":"avoid","summary":"bad-avoid","bonus":0.9000000000000008},{"rt":2585.600000023842,"stimulus":"\n                    <p><b>Action: <em>avoid</em></b></p>\n                    <p>This is the bee that you just saw.</p>\n                    <img src=\"bees-with-color/bee-A2DM.svg\" width=\"200\">\n                    <p><br>Your bonus pay is unchanged, and remains at $0.42.</p>\n            ","response":0,"trial_type":"html-button-response","trial_index":28,"time_elapsed":459651,"internal_node_id":"0.0-4.0-1.8","subject_id":"613246c4e0e8fd2e66ef9ea3","study_id":"6197b3f67c2b5cd3b6d9596a","session_id":"619be31b923644746611012a","condition":"contingent","relevant_dimensions":["antennae","wings"],"bee_group":{"antennae":"B","wings":"1","pattern":"X","legs":"X"},"bonus":0.9000000000000008},{"rt":4968.699999928474,"stimulus":"bees-with-color/bee-A1SF.svg","response":0,"trial_type":"image-button-response","trial_index":29,"time_elapsed":464622,"internal_node_id":"0.0-4.0-0.9","subject_id":"613246c4e0e8fd2e66ef9ea3","study_id":"6197b3f67c2b5cd3b6d9596a","session_id":"619be31b923644746611012a","condition":"contingent","relevant_dimensions":["antennae","wings"],"bee_group":{"antennae":"B","wings":"1","pattern":"X","legs":"X"},"action":"harvest","summary":"good-harvest","bonus":0.9000000000000008},{"rt":1342.2999999523163,"stimulus":"\n                    <p><b>Action: <em>harvest</em></b></p>\n                    <p>This is the bee that you just saw.</p>\n                    <img src=\"bees-with-color/bee-A1SF.svg\" width=\"200\">\n                    <p><span class=\"greenText\"><b>Successful harvest!</b></span><br>Your pay has increased by $0.02. Your bonus pay is now $0.44.</p>\n            ","response":0,"trial_type":"html-button-response","trial_index":30,"time_elapsed":465965,"internal_node_id":"0.0-4.0-1.9","subject_id":"613246c4e0e8fd2e66ef9ea3","study_id":"6197b3f67c2b5cd3b6d9596a","session_id":"619be31b923644746611012a","condition":"contingent","relevant_dimensions":["antennae","wings"],"bee_group":{"antennae":"B","wings":"1","pattern":"X","legs":"X"},"bonus":0.9000000000000008},{"rt":15202.600000023842,"stimulus":"bees-with-color/bee-A1DM.svg","response":0,"trial_type":"image-button-response","trial_index":31,"time_elapsed":481169,"internal_node_id":"0.0-4.0-0.10","subject_id":"613246c4e0e8fd2e66ef9ea3","study_id":"6197b3f67c2b5cd3b6d9596a","session_id":"619be31b923644746611012a","condition":"contingent","relevant_dimensions":["antennae","wings"],"bee_group":{"antennae":"B","wings":"1","pattern":"X","legs":"X"},"action":"harvest","summary":"good-harvest","bonus":0.9000000000000008},{"rt":1365.4000000953674,"stimulus":"\n                    <p><b>Action: <em>harvest</em></b></p>\n                    <p>This is the bee that you just saw.</p>\n                    <img src=\"bees-with-color/bee-A1DM.svg\" width=\"200\">\n                    <p><span class=\"greenText\"><b>Successful harvest!</b></span><br>Your pay has increased by $0.02. Your bonus pay is now $0.46.</p>\n            ","response":0,"trial_type":"html-button-response","trial_index":32,"time_elapsed":482536,"internal_node_id":"0.0-4.0-1.10","subject_id":"613246c4e0e8fd2e66ef9ea3","study_id":"6197b3f67c2b5cd3b6d9596a","session_id":"619be31b923644746611012a","condition":"contingent","relevant_dimensions":["antennae","wings"],"bee_group":{"antennae":"B","wings":"1","pattern":"X","legs":"X"},"bonus":0.9000000000000008},{"rt":3058.1999999284744,"stimulus":"bees-with-color/bee-B1SM.svg","response":0,"trial_type":"image-button-response","trial_index":33,"time_elapsed":485596,"internal_node_id":"0.0-4.0-0.11","subject_id":"613246c4e0e8fd2e66ef9ea3","study_id":"6197b3f67c2b5cd3b6d9596a","session_id":"619be31b923644746611012a","condition":"contingent","relevant_dimensions":["antennae","wings"],"bee_group":{"antennae":"B","wings":"1","pattern":"X","legs":"X"},"action":"harvest","summary":"bad-harvest","bonus":0.9000000000000008},{"rt":3253.7000000476837,"stimulus":"\n                    <p><b>Action: <em>harvest</em></b></p>\n                    <p>This is the bee that you just saw.</p>\n                    <img src=\"bees-with-color/bee-B1SM.svg\" width=\"200\">\n                    <p><span class=\"redText\">Bad choice, the bee was angry.</span><br><b>You have been stung!</b><br>Your pay has been decreased by $0.10. Your bonus pay is now $0.36.</p>\n            ","response":0,"trial_type":"html-button-response","trial_index":34,"time_elapsed":488852,"internal_node_id":"0.0-4.0-1.11","subject_id":"613246c4e0e8fd2e66ef9ea3","study_id":"6197b3f67c2b5cd3b6d9596a","session_id":"619be31b923644746611012a","condition":"contingent","relevant_dimensions":["antennae","wings"],"bee_group":{"antennae":"B","wings":"1","pattern":"X","legs":"X"},"bonus":0.9000000000000008},{"rt":4172.399999976158,"stimulus":"bees-with-color/bee-B2SF.svg","response":0,"trial_type":"image-button-response","trial_index":35,"time_elapsed":493026,"internal_node_id":"0.0-4.0-0.12","subject_id":"613246c4e0e8fd2e66ef9ea3","study_id":"6197b3f67c2b5cd3b6d9596a","session_id":"619be31b923644746611012a","condition":"contingent","relevant_dimensions":["antennae","wings"],"bee_group":{"antennae":"B","wings":"1","pattern":"X","legs":"X"},"action":"harvest","summary":"good-harvest","bonus":0.9000000000000008},{"rt":1442.7000000476837,"stimulus":"\n                    <p><b>Action: <em>harvest</em></b></p>\n                    <p>This is the bee that you just saw.</p>\n                    <img src=\"bees-with-color/bee-B2SF.svg\" width=\"200\">\n                    <p><span class=\"greenText\"><b>Successful harvest!</b></span><br>Your pay has increased by $0.02. Your bonus pay is now $0.38.</p>\n            ","response":0,"trial_type":"html-button-response","trial_index":36,"time_elapsed":494470,"internal_node_id":"0.0-4.0-1.12","subject_id":"613246c4e0e8fd2e66ef9ea3","study_id":"6197b3f67c2b5cd3b6d9596a","session_id":"619be31b923644746611012a","condition":"contingent","relevant_dimensions":["antennae","wings"],"bee_group":{"antennae":"B","wings":"1","pattern":"X","legs":"X"},"bonus":0.9000000000000008},{"rt":4306.5,"stimulus":"bees-with-color/bee-B1DF.svg","response":0,"trial_type":"image-button-response","trial_index":37,"time_elapsed":498778,"internal_node_id":"0.0-4.0-0.13","subject_id":"613246c4e0e8fd2e66ef9ea3","study_id":"6197b3f67c2b5cd3b6d9596a","session_id":"619be31b923644746611012a","condition":"contingent","relevant_dimensions":["antennae","wings"],"bee_group":{"antennae":"B","wings":"1","pattern":"X","legs":"X"},"action":"harvest","summary":"bad-harvest","bonus":0.9000000000000008},{"rt":2432.5,"stimulus":"\n                    <p><b>Action: <em>harvest</em></b></p>\n                    <p>This is the bee that you just saw.</p>\n                    <img src=\"bees-with-color/bee-B1DF.svg\" width=\"200\">\n                    <p><span class=\"redText\">Bad choice, the bee was angry.</span><br><b>You have been stung!</b><br>Your pay has been decreased by $0.10. Your bonus pay is now $0.28.</p>\n            ","response":0,"trial_type":"html-button-response","trial_index":38,"time_elapsed":501212,"internal_node_id":"0.0-4.0-1.13","subject_id":"613246c4e0e8fd2e66ef9ea3","study_id":"6197b3f67c2b5cd3b6d9596a","session_id":"619be31b923644746611012a","condition":"contingent","relevant_dimensions":["antennae","wings"],"bee_group":{"antennae":"B","wings":"1","pattern":"X","legs":"X"},"bonus":0.9000000000000008},{"rt":1694.3999999761581,"stimulus":"bees-with-color/bee-A1DF.svg","response":0,"trial_type":"image-button-response","trial_index":39,"time_elapsed":502909,"internal_node_id":"0.0-4.0-0.14","subject_id":"613246c4e0e8fd2e66ef9ea3","study_id":"6197b3f67c2b5cd3b6d9596a","session_id":"619be31b923644746611012a","condition":"contingent","relevant_dimensions":["antennae","wings"],"bee_group":{"antennae":"B","wings":"1","pattern":"X","legs":"X"},"action":"harvest","summary":"good-harvest","bonus":0.9000000000000008},{"rt":1596.7000000476837,"stimulus":"\n                    <p><b>Action: <em>harvest</em></b></p>\n                    <p>This is the bee that you just saw.</p>\n                    <img src=\"bees-with-color/bee-A1DF.svg\" width=\"200\">\n                    <p><span class=\"greenText\"><b>Successful harvest!</b></span><br>Your pay has increased by $0.02. Your bonus pay is now $0.30.</p>\n            ","response":0,"trial_type":"html-button-response","trial_index":40,"time_elapsed":504508,"internal_node_id":"0.0-4.0-1.14","subject_id":"613246c4e0e8fd2e66ef9ea3","study_id":"6197b3f67c2b5cd3b6d9596a","session_id":"619be31b923644746611012a","condition":"contingent","relevant_dimensions":["antennae","wings"],"bee_group":{"antennae":"B","wings":"1","pattern":"X","legs":"X"},"bonus":0.9000000000000008},{"rt":1096.5,"stimulus":"bees-with-color/bee-B2SM.svg","response":1,"trial_type":"image-button-response","trial_index":41,"time_elapsed":505606,"internal_node_id":"0.0-4.0-0.15","subject_id":"613246c4e0e8fd2e66ef9ea3","study_id":"6197b3f67c2b5cd3b6d9596a","session_id":"619be31b923644746611012a","condition":"contingent","relevant_dimensions":["antennae","wings"],"bee_group":{"antennae":"B","wings":"1","pattern":"X","legs":"X"},"action":"avoid","summary":"bad-avoid","bonus":0.9000000000000008},{"rt":778.2000000476837,"stimulus":"\n                    <p><b>Action: <em>avoid</em></b></p>\n                    <p>This is the bee that you just saw.</p>\n                    <img src=\"bees-with-color/bee-B2SM.svg\" width=\"200\">\n                    <p><br>Your bonus pay is unchanged, and remains at $0.30.</p>\n            ","response":0,"trial_type":"html-button-response","trial_index":42,"time_elapsed":506385,"internal_node_id":"0.0-4.0-1.15","subject_id":"613246c4e0e8fd2e66ef9ea3","study_id":"6197b3f67c2b5cd3b6d9596a","session_id":"619be31b923644746611012a","condition":"contingent","relevant_dimensions":["antennae","wings"],"bee_group":{"antennae":"B","wings":"1","pattern":"X","legs":"X"},"bonus":0.9000000000000008},{"rt":2825.8000000715256,"stimulus":"bees-with-color/bee-A1DM.svg","response":0,"trial_type":"image-button-response","trial_index":43,"time_elapsed":509213,"internal_node_id":"0.0-4.0-0.16","subject_id":"613246c4e0e8fd2e66ef9ea3","study_id":"6197b3f67c2b5cd3b6d9596a","session_id":"619be31b923644746611012a","condition":"contingent","relevant_dimensions":["antennae","wings"],"bee_group":{"antennae":"B","wings":"1","pattern":"X","legs":"X"},"action":"harvest","summary":"good-harvest","bonus":0.9000000000000008},{"rt":893.8000000715256,"stimulus":"\n                    <p><b>Action: <em>harvest</em></b></p>\n                    <p>This is the bee that you just saw.</p>\n                    <img src=\"bees-with-color/bee-A1DM.svg\" width=\"200\">\n                    <p><span class=\"greenText\"><b>Successful harvest!</b></span><br>Your pay has increased by $0.02. Your bonus pay is now $0.32.</p>\n            ","response":0,"trial_type":"html-button-response","trial_index":44,"time_elapsed":510108,"internal_node_id":"0.0-4.0-1.16","subject_id":"613246c4e0e8fd2e66ef9ea3","study_id":"6197b3f67c2b5cd3b6d9596a","session_id":"619be31b923644746611012a","condition":"contingent","relevant_dimensions":["antennae","wings"],"bee_group":{"antennae":"B","wings":"1","pattern":"X","legs":"X"},"bonus":0.9000000000000008},{"rt":5666.400000095367,"stimulus":"bees-with-color/bee-A2SF.svg","response":1,"trial_type":"image-button-response","trial_index":45,"time_elapsed":515776,"internal_node_id":"0.0-4.0-0.17","subject_id":"613246c4e0e8fd2e66ef9ea3","study_id":"6197b3f67c2b5cd3b6d9596a","session_id":"619be31b923644746611012a","condition":"contingent","relevant_dimensions":["antennae","wings"],"bee_group":{"antennae":"B","wings":"1","pattern":"X","legs":"X"},"action":"avoid","summary":"bad-avoid","bonus":0.9000000000000008},{"rt":949.7000000476837,"stimulus":"\n                    <p><b>Action: <em>avoid</em></b></p>\n                    <p>This is the bee that you just saw.</p>\n                    <img src=\"bees-with-color/bee-A2SF.svg\" width=\"200\">\n                    <p><br>Your bonus pay is unchanged, and remains at $0.32.</p>\n            ","response":0,"trial_type":"html-button-response","trial_index":46,"time_elapsed":516727,"internal_node_id":"0.0-4.0-1.17","subject_id":"613246c4e0e8fd2e66ef9ea3","study_id":"6197b3f67c2b5cd3b6d9596a","session_id":"619be31b923644746611012a","condition":"contingent","relevant_dimensions":["antennae","wings"],"bee_group":{"antennae":"B","wings":"1","pattern":"X","legs":"X"},"bonus":0.9000000000000008},{"rt":1905.2000000476837,"stimulus":"bees-with-color/bee-B2DM.svg","response":1,"trial_type":"image-button-response","trial_index":47,"time_elapsed":518634,"internal_node_id":"0.0-4.0-0.18","subject_id":"613246c4e0e8fd2e66ef9ea3","study_id":"6197b3f67c2b5cd3b6d9596a","session_id":"619be31b923644746611012a","condition":"contingent","relevant_dimensions":["antennae","wings"],"bee_group":{"antennae":"B","wings":"1","pattern":"X","legs":"X"},"action":"avoid","summary":"bad-avoid","bonus":0.9000000000000008},{"rt":768.7000000476837,"stimulus":"\n                    <p><b>Action: <em>avoid</em></b></p>\n                    <p>This is the bee that you just saw.</p>\n                    <img src=\"bees-with-color/bee-B2DM.svg\" width=\"200\">\n                    <p><br>Your bonus pay is unchanged, and remains at $0.32.</p>\n            ","response":0,"trial_type":"html-button-response","trial_index":48,"time_elapsed":519404,"internal_node_id":"0.0-4.0-1.18","subject_id":"613246c4e0e8fd2e66ef9ea3","study_id":"6197b3f67c2b5cd3b6d9596a","session_id":"619be31b923644746611012a","condition":"contingent","relevant_dimensions":["antennae","wings"],"bee_group":{"antennae":"B","wings":"1","pattern":"X","legs":"X"},"bonus":0.9000000000000008},{"rt":2372,"stimulus":"bees-with-color/bee-B2SM.svg","response":1,"trial_type":"image-button-response","trial_index":49,"time_elapsed":521777,"internal_node_id":"0.0-4.0-0.19","subject_id":"613246c4e0e8fd2e66ef9ea3","study_id":"6197b3f67c2b5cd3b6d9596a","session_id":"619be31b923644746611012a","condition":"contingent","relevant_dimensions":["antennae","wings"],"bee_group":{"antennae":"B","wings":"1","pattern":"X","legs":"X"},"action":"avoid","summary":"bad-avoid","bonus":0.9000000000000008},{"rt":746.5999999046326,"stimulus":"\n                    <p><b>Action: <em>avoid</em></b></p>\n                    <p>This is the bee that you just saw.</p>\n                    <img src=\"bees-with-color/bee-B2SM.svg\" width=\"200\">\n                    <p><br>Your bonus pay is unchanged, and remains at $0.32.</p>\n            ","response":0,"trial_type":"html-button-response","trial_index":50,"time_elapsed":522525,"internal_node_id":"0.0-4.0-1.19","subject_id":"613246c4e0e8fd2e66ef9ea3","study_id":"6197b3f67c2b5cd3b6d9596a","session_id":"619be31b923644746611012a","condition":"contingent","relevant_dimensions":["antennae","wings"],"bee_group":{"antennae":"B","wings":"1","pattern":"X","legs":"X"},"bonus":0.9000000000000008},{"rt":3339,"stimulus":"bees-with-color/bee-B1SM.svg","response":1,"trial_type":"image-button-response","trial_index":51,"time_elapsed":525865,"internal_node_id":"0.0-4.0-0.20","subject_id":"613246c4e0e8fd2e66ef9ea3","study_id":"6197b3f67c2b5cd3b6d9596a","session_id":"619be31b923644746611012a","condition":"contingent","relevant_dimensions":["antennae","wings"],"bee_group":{"antennae":"B","wings":"1","pattern":"X","legs":"X"},"action":"avoid","summary":"good-avoid","bonus":0.9000000000000008},{"rt":2710,"stimulus":"\n                    <p><b>Action: <em>avoid</em></b></p>\n                    <p>This is the bee that you just saw.</p>\n                    <img src=\"bees-with-color/bee-B1SM.svg\" width=\"200\">\n                    <p><br>Your bonus pay is unchanged, and remains at $0.32.</p>\n            ","response":0,"trial_type":"html-button-response","trial_index":52,"time_elapsed":528577,"internal_node_id":"0.0-4.0-1.20","subject_id":"613246c4e0e8fd2e66ef9ea3","study_id":"6197b3f67c2b5cd3b6d9596a","session_id":"619be31b923644746611012a","condition":"contingent","relevant_dimensions":["antennae","wings"],"bee_group":{"antennae":"B","wings":"1","pattern":"X","legs":"X"},"bonus":0.9000000000000008},{"rt":3762.5,"stimulus":"bees-with-color/bee-A2DF.svg","response":1,"trial_type":"image-button-response","trial_index":53,"time_elapsed":532341,"internal_node_id":"0.0-4.0-0.21","subject_id":"613246c4e0e8fd2e66ef9ea3","study_id":"6197b3f67c2b5cd3b6d9596a","session_id":"619be31b923644746611012a","condition":"contingent","relevant_dimensions":["antennae","wings"],"bee_group":{"antennae":"B","wings":"1","pattern":"X","legs":"X"},"action":"avoid","summary":"bad-avoid","bonus":0.9000000000000008},{"rt":417.3000000715256,"stimulus":"\n                    <p><b>Action: <em>avoid</em></b></p>\n                    <p>This is the bee that you just saw.</p>\n                    <img src=\"bees-with-color/bee-A2DF.svg\" width=\"200\">\n                    <p><br>Your bonus pay is unchanged, and remains at $0.32.</p>\n            ","response":0,"trial_type":"html-button-response","trial_index":54,"time_elapsed":532760,"internal_node_id":"0.0-4.0-1.21","subject_id":"613246c4e0e8fd2e66ef9ea3","study_id":"6197b3f67c2b5cd3b6d9596a","session_id":"619be31b923644746611012a","condition":"contingent","relevant_dimensions":["antennae","wings"],"bee_group":{"antennae":"B","wings":"1","pattern":"X","legs":"X"},"bonus":0.9000000000000008},{"rt":1979.5,"stimulus":"bees-with-color/bee-A1SM.svg","response":0,"trial_type":"image-button-response","trial_index":55,"time_elapsed":534741,"internal_node_id":"0.0-4.0-0.22","subject_id":"613246c4e0e8fd2e66ef9ea3","study_id":"6197b3f67c2b5cd3b6d9596a","session_id":"619be31b923644746611012a","condition":"contingent","relevant_dimensions":["antennae","wings"],"bee_group":{"antennae":"B","wings":"1","pattern":"X","legs":"X"},"action":"harvest","summary":"good-harvest","bonus":0.9000000000000008},{"rt":990.5,"stimulus":"\n                    <p><b>Action: <em>harvest</em></b></p>\n                    <p>This is the bee that you just saw.</p>\n                    <img src=\"bees-with-color/bee-A1SM.svg\" width=\"200\">\n                    <p><span class=\"greenText\"><b>Successful harvest!</b></span><br>Your pay has increased by $0.02. Your bonus pay is now $0.34.</p>\n            ","response":0,"trial_type":"html-button-response","trial_index":56,"time_elapsed":535733,"internal_node_id":"0.0-4.0-1.22","subject_id":"613246c4e0e8fd2e66ef9ea3","study_id":"6197b3f67c2b5cd3b6d9596a","session_id":"619be31b923644746611012a","condition":"contingent","relevant_dimensions":["antennae","wings"],"bee_group":{"antennae":"B","wings":"1","pattern":"X","legs":"X"},"bonus":0.9000000000000008},{"rt":2976.8000000715256,"stimulus":"bees-with-color/bee-B1DF.svg","response":0,"trial_type":"image-button-response","trial_index":57,"time_elapsed":538711,"internal_node_id":"0.0-4.0-0.23","subject_id":"613246c4e0e8fd2e66ef9ea3","study_id":"6197b3f67c2b5cd3b6d9596a","session_id":"619be31b923644746611012a","condition":"contingent","relevant_dimensions":["antennae","wings"],"bee_group":{"antennae":"B","wings":"1","pattern":"X","legs":"X"},"action":"harvest","summary":"bad-harvest","bonus":0.9000000000000008},{"rt":938.2999999523163,"stimulus":"\n                    <p><b>Action: <em>harvest</em></b></p>\n                    <p>This is the bee that you just saw.</p>\n                    <img src=\"bees-with-color/bee-B1DF.svg\" width=\"200\">\n                    <p><span class=\"redText\">Bad choice, the bee was angry.</span><br><b>You have been stung!</b><br>Your pay has been decreased by $0.10. Your bonus pay is now $0.24.</p>\n            ","response":0,"trial_type":"html-button-response","trial_index":58,"time_elapsed":539651,"internal_node_id":"0.0-4.0-1.23","subject_id":"613246c4e0e8fd2e66ef9ea3","study_id":"6197b3f67c2b5cd3b6d9596a","session_id":"619be31b923644746611012a","condition":"contingent","relevant_dimensions":["antennae","wings"],"bee_group":{"antennae":"B","wings":"1","pattern":"X","legs":"X"},"bonus":0.9000000000000008},{"rt":1030.3000000715256,"stimulus":"bees-with-color/bee-B1DM.svg","response":1,"trial_type":"image-button-response","trial_index":59,"time_elapsed":540683,"internal_node_id":"0.0-4.0-0.24","subject_id":"613246c4e0e8fd2e66ef9ea3","study_id":"6197b3f67c2b5cd3b6d9596a","session_id":"619be31b923644746611012a","condition":"contingent","relevant_dimensions":["antennae","wings"],"bee_group":{"antennae":"B","wings":"1","pattern":"X","legs":"X"},"action":"avoid","summary":"good-avoid","bonus":0.9000000000000008},{"rt":1116.4000000953674,"stimulus":"\n                    <p><b>Action: <em>avoid</em></b></p>\n                    <p>This is the bee that you just saw.</p>\n                    <img src=\"bees-with-color/bee-B1DM.svg\" width=\"200\">\n                    <p><br>Your bonus pay is unchanged, and remains at $0.24.</p>\n            ","response":0,"trial_type":"html-button-response","trial_index":60,"time_elapsed":541801,"internal_node_id":"0.0-4.0-1.24","subject_id":"613246c4e0e8fd2e66ef9ea3","study_id":"6197b3f67c2b5cd3b6d9596a","session_id":"619be31b923644746611012a","condition":"contingent","relevant_dimensions":["antennae","wings"],"bee_group":{"antennae":"B","wings":"1","pattern":"X","legs":"X"},"bonus":0.9000000000000008},{"rt":1095.7999999523163,"stimulus":"bees-with-color/bee-A1DF.svg","response":0,"trial_type":"image-button-response","trial_index":61,"time_elapsed":542898,"internal_node_id":"0.0-4.0-0.25","subject_id":"613246c4e0e8fd2e66ef9ea3","study_id":"6197b3f67c2b5cd3b6d9596a","session_id":"619be31b923644746611012a","condition":"contingent","relevant_dimensions":["antennae","wings"],"bee_group":{"antennae":"B","wings":"1","pattern":"X","legs":"X"},"action":"harvest","summary":"good-harvest","bonus":0.9000000000000008},{"rt":671.2999999523163,"stimulus":"\n                    <p><b>Action: <em>harvest</em></b></p>\n                    <p>This is the bee that you just saw.</p>\n                    <img src=\"bees-with-color/bee-A1DF.svg\" width=\"200\">\n                    <p><span class=\"greenText\"><b>Successful harvest!</b></span><br>Your pay has increased by $0.02. Your bonus pay is now $0.26.</p>\n            ","response":0,"trial_type":"html-button-response","trial_index":62,"time_elapsed":543571,"internal_node_id":"0.0-4.0-1.25","subject_id":"613246c4e0e8fd2e66ef9ea3","study_id":"6197b3f67c2b5cd3b6d9596a","session_id":"619be31b923644746611012a","condition":"contingent","relevant_dimensions":["antennae","wings"],"bee_group":{"antennae":"B","wings":"1","pattern":"X","legs":"X"},"bonus":0.9000000000000008},{"rt":1368.6999999284744,"stimulus":"bees-with-color/bee-A2SM.svg","response":1,"trial_type":"image-button-response","trial_index":63,"time_elapsed":544941,"internal_node_id":"0.0-4.0-0.26","subject_id":"613246c4e0e8fd2e66ef9ea3","study_id":"6197b3f67c2b5cd3b6d9596a","session_id":"619be31b923644746611012a","condition":"contingent","relevant_dimensions":["antennae","wings"],"bee_group":{"antennae":"B","wings":"1","pattern":"X","legs":"X"},"action":"avoid","summary":"bad-avoid","bonus":0.9000000000000008},{"rt":495.5,"stimulus":"\n                    <p><b>Action: <em>avoid</em></b></p>\n                    <p>This is the bee that you just saw.</p>\n                    <img src=\"bees-with-color/bee-A2SM.svg\" width=\"200\">\n                    <p><br>Your bonus pay is unchanged, and remains at $0.26.</p>\n            ","response":0,"trial_type":"html-button-response","trial_index":64,"time_elapsed":545439,"internal_node_id":"0.0-4.0-1.26","subject_id":"613246c4e0e8fd2e66ef9ea3","study_id":"6197b3f67c2b5cd3b6d9596a","session_id":"619be31b923644746611012a","condition":"contingent","relevant_dimensions":["antennae","wings"],"bee_group":{"antennae":"B","wings":"1","pattern":"X","legs":"X"},"bonus":0.9000000000000008},{"rt":1999.9000000953674,"stimulus":"bees-with-color/bee-B2SF.svg","response":1,"trial_type":"image-button-response","trial_index":65,"time_elapsed":547441,"internal_node_id":"0.0-4.0-0.27","subject_id":"613246c4e0e8fd2e66ef9ea3","study_id":"6197b3f67c2b5cd3b6d9596a","session_id":"619be31b923644746611012a","condition":"contingent","relevant_dimensions":["antennae","wings"],"bee_group":{"antennae":"B","wings":"1","pattern":"X","legs":"X"},"action":"avoid","summary":"bad-avoid","bonus":0.9000000000000008},{"rt":434.10000002384186,"stimulus":"\n                    <p><b>Action: <em>avoid</em></b></p>\n                    <p>This is the bee that you just saw.</p>\n                    <img src=\"bees-with-color/bee-B2SF.svg\" width=\"200\">\n                    <p><br>Your bonus pay is unchanged, and remains at $0.26.</p>\n            ","response":0,"trial_type":"html-button-response","trial_index":66,"time_elapsed":547877,"internal_node_id":"0.0-4.0-1.27","subject_id":"613246c4e0e8fd2e66ef9ea3","study_id":"6197b3f67c2b5cd3b6d9596a","session_id":"619be31b923644746611012a","condition":"contingent","relevant_dimensions":["antennae","wings"],"bee_group":{"antennae":"B","wings":"1","pattern":"X","legs":"X"},"bonus":0.9000000000000008},{"rt":744.2000000476837,"stimulus":"bees-with-color/bee-B2DF.svg","response":1,"trial_type":"image-button-response","trial_index":67,"time_elapsed":548622,"internal_node_id":"0.0-4.0-0.28","subject_id":"613246c4e0e8fd2e66ef9ea3","study_id":"6197b3f67c2b5cd3b6d9596a","session_id":"619be31b923644746611012a","condition":"contingent","relevant_dimensions":["antennae","wings"],"bee_group":{"antennae":"B","wings":"1","pattern":"X","legs":"X"},"action":"avoid","summary":"bad-avoid","bonus":0.9000000000000008},{"rt":453.5,"stimulus":"\n                    <p><b>Action: <em>avoid</em></b></p>\n                    <p>This is the bee that you just saw.</p>\n                    <img src=\"bees-with-color/bee-B2DF.svg\" width=\"200\">\n                    <p><br>Your bonus pay is unchanged, and remains at $0.26.</p>\n            ","response":0,"trial_type":"html-button-response","trial_index":68,"time_elapsed":549077,"internal_node_id":"0.0-4.0-1.28","subject_id":"613246c4e0e8fd2e66ef9ea3","study_id":"6197b3f67c2b5cd3b6d9596a","session_id":"619be31b923644746611012a","condition":"contingent","relevant_dimensions":["antennae","wings"],"bee_group":{"antennae":"B","wings":"1","pattern":"X","legs":"X"},"bonus":0.9000000000000008},{"rt":2841.2000000476837,"stimulus":"bees-with-color/bee-A2DM.svg","response":0,"trial_type":"image-button-response","trial_index":69,"time_elapsed":551920,"internal_node_id":"0.0-4.0-0.29","subject_id":"613246c4e0e8fd2e66ef9ea3","study_id":"6197b3f67c2b5cd3b6d9596a","session_id":"619be31b923644746611012a","condition":"contingent","relevant_dimensions":["antennae","wings"],"bee_group":{"antennae":"B","wings":"1","pattern":"X","legs":"X"},"action":"harvest","summary":"good-harvest","bonus":0.9000000000000008},{"rt":834.8000000715256,"stimulus":"\n                    <p><b>Action: <em>harvest</em></b></p>\n                    <p>This is the bee that you just saw.</p>\n                    <img src=\"bees-with-color/bee-A2DM.svg\" width=\"200\">\n                    <p><span class=\"greenText\"><b>Successful harvest!</b></span><br>Your pay has increased by $0.02. Your bonus pay is now $0.28.</p>\n            ","response":0,"trial_type":"html-button-response","trial_index":70,"time_elapsed":552756,"internal_node_id":"0.0-4.0-1.29","subject_id":"613246c4e0e8fd2e66ef9ea3","study_id":"6197b3f67c2b5cd3b6d9596a","session_id":"619be31b923644746611012a","condition":"contingent","relevant_dimensions":["antennae","wings"],"bee_group":{"antennae":"B","wings":"1","pattern":"X","legs":"X"},"bonus":0.9000000000000008},{"rt":3010.5,"stimulus":"bees-with-color/bee-A1SF.svg","response":0,"trial_type":"image-button-response","trial_index":71,"time_elapsed":555768,"internal_node_id":"0.0-4.0-0.30","subject_id":"613246c4e0e8fd2e66ef9ea3","study_id":"6197b3f67c2b5cd3b6d9596a","session_id":"619be31b923644746611012a","condition":"contingent","relevant_dimensions":["antennae","wings"],"bee_group":{"antennae":"B","wings":"1","pattern":"X","legs":"X"},"action":"harvest","summary":"good-harvest","bonus":0.9000000000000008},{"rt":715.6999999284744,"stimulus":"\n                    <p><b>Action: <em>harvest</em></b></p>\n                    <p>This is the bee that you just saw.</p>\n                    <img src=\"bees-with-color/bee-A1SF.svg\" width=\"200\">\n                    <p><span class=\"greenText\"><b>Successful harvest!</b></span><br>Your pay has increased by $0.02. Your bonus pay is now $0.30.</p>\n            ","response":0,"trial_type":"html-button-response","trial_index":72,"time_elapsed":556485,"internal_node_id":"0.0-4.0-1.30","subject_id":"613246c4e0e8fd2e66ef9ea3","study_id":"6197b3f67c2b5cd3b6d9596a","session_id":"619be31b923644746611012a","condition":"contingent","relevant_dimensions":["antennae","wings"],"bee_group":{"antennae":"B","wings":"1","pattern":"X","legs":"X"},"bonus":0.9000000000000008},{"rt":4360.899999976158,"stimulus":"bees-with-color/bee-B1SF.svg","response":1,"trial_type":"image-button-response","trial_index":73,"time_elapsed":560847,"internal_node_id":"0.0-4.0-0.31","subject_id":"613246c4e0e8fd2e66ef9ea3","study_id":"6197b3f67c2b5cd3b6d9596a","session_id":"619be31b923644746611012a","condition":"contingent","relevant_dimensions":["antennae","wings"],"bee_group":{"antennae":"B","wings":"1","pattern":"X","legs":"X"},"action":"avoid","summary":"good-avoid","bonus":0.9000000000000008},{"rt":750.7000000476837,"stimulus":"\n                    <p><b>Action: <em>avoid</em></b></p>\n                    <p>This is the bee that you just saw.</p>\n                    <img src=\"bees-with-color/bee-B1SF.svg\" width=\"200\">\n                    <p><br>Your bonus pay is unchanged, and remains at $0.30.</p>\n            ","response":0,"trial_type":"html-button-response","trial_index":74,"time_elapsed":561599,"internal_node_id":"0.0-4.0-1.31","subject_id":"613246c4e0e8fd2e66ef9ea3","study_id":"6197b3f67c2b5cd3b6d9596a","session_id":"619be31b923644746611012a","condition":"contingent","relevant_dimensions":["antennae","wings"],"bee_group":{"antennae":"B","wings":"1","pattern":"X","legs":"X"},"bonus":0.9000000000000008},{"rt":1507.2999999523163,"stimulus":"bees-with-color/bee-A1DF.svg","response":1,"trial_type":"image-button-response","trial_index":75,"time_elapsed":563108,"internal_node_id":"0.0-4.0-0.32","subject_id":"613246c4e0e8fd2e66ef9ea3","study_id":"6197b3f67c2b5cd3b6d9596a","session_id":"619be31b923644746611012a","condition":"contingent","relevant_dimensions":["antennae","wings"],"bee_group":{"antennae":"B","wings":"1","pattern":"X","legs":"X"},"action":"avoid","summary":"bad-avoid","bonus":0.9000000000000008},{"rt":578.3999999761581,"stimulus":"\n                    <p><b>Action: <em>avoid</em></b></p>\n                    <p>This is the bee that you just saw.</p>\n                    <img src=\"bees-with-color/bee-A1DF.svg\" width=\"200\">\n                    <p><br>Your bonus pay is unchanged, and remains at $0.30.</p>\n            ","response":0,"trial_type":"html-button-response","trial_index":76,"time_elapsed":563688,"internal_node_id":"0.0-4.0-1.32","subject_id":"613246c4e0e8fd2e66ef9ea3","study_id":"6197b3f67c2b5cd3b6d9596a","session_id":"619be31b923644746611012a","condition":"contingent","relevant_dimensions":["antennae","wings"],"bee_group":{"antennae":"B","wings":"1","pattern":"X","legs":"X"},"bonus":0.9000000000000008},{"rt":1705.8000000715256,"stimulus":"bees-with-color/bee-B2DM.svg","response":1,"trial_type":"image-button-response","trial_index":77,"time_elapsed":565395,"internal_node_id":"0.0-4.0-0.33","subject_id":"613246c4e0e8fd2e66ef9ea3","study_id":"6197b3f67c2b5cd3b6d9596a","session_id":"619be31b923644746611012a","condition":"contingent","relevant_dimensions":["antennae","wings"],"bee_group":{"antennae":"B","wings":"1","pattern":"X","legs":"X"},"action":"avoid","summary":"bad-avoid","bonus":0.9000000000000008},{"rt":471.7999999523163,"stimulus":"\n                    <p><b>Action: <em>avoid</em></b></p>\n                    <p>This is the bee that you just saw.</p>\n                    <img src=\"bees-with-color/bee-B2DM.svg\" width=\"200\">\n                    <p><br>Your bonus pay is unchanged, and remains at $0.30.</p>\n            ","response":0,"trial_type":"html-button-response","trial_index":78,"time_elapsed":565868,"internal_node_id":"0.0-4.0-1.33","subject_id":"613246c4e0e8fd2e66ef9ea3","study_id":"6197b3f67c2b5cd3b6d9596a","session_id":"619be31b923644746611012a","condition":"contingent","relevant_dimensions":["antennae","wings"],"bee_group":{"antennae":"B","wings":"1","pattern":"X","legs":"X"},"bonus":0.9000000000000008},{"rt":1592.6999999284744,"stimulus":"bees-with-color/bee-A1SM.svg","response":0,"trial_type":"image-button-response","trial_index":79,"time_elapsed":567462,"internal_node_id":"0.0-4.0-0.34","subject_id":"613246c4e0e8fd2e66ef9ea3","study_id":"6197b3f67c2b5cd3b6d9596a","session_id":"619be31b923644746611012a","condition":"contingent","relevant_dimensions":["antennae","wings"],"bee_group":{"antennae":"B","wings":"1","pattern":"X","legs":"X"},"action":"harvest","summary":"good-harvest","bonus":0.9000000000000008},{"rt":853.6999999284744,"stimulus":"\n                    <p><b>Action: <em>harvest</em></b></p>\n                    <p>This is the bee that you just saw.</p>\n                    <img src=\"bees-with-color/bee-A1SM.svg\" width=\"200\">\n                    <p><span class=\"greenText\"><b>Successful harvest!</b></span><br>Your pay has increased by $0.02. Your bonus pay is now $0.32.</p>\n            ","response":0,"trial_type":"html-button-response","trial_index":80,"time_elapsed":568318,"internal_node_id":"0.0-4.0-1.34","subject_id":"613246c4e0e8fd2e66ef9ea3","study_id":"6197b3f67c2b5cd3b6d9596a","session_id":"619be31b923644746611012a","condition":"contingent","relevant_dimensions":["antennae","wings"],"bee_group":{"antennae":"B","wings":"1","pattern":"X","legs":"X"},"bonus":0.9000000000000008},{"rt":7783.100000023842,"stimulus":"bees-with-color/bee-B1DF.svg","response":1,"trial_type":"image-button-response","trial_index":81,"time_elapsed":576102,"internal_node_id":"0.0-4.0-0.35","subject_id":"613246c4e0e8fd2e66ef9ea3","study_id":"6197b3f67c2b5cd3b6d9596a","session_id":"619be31b923644746611012a","condition":"contingent","relevant_dimensions":["antennae","wings"],"bee_group":{"antennae":"B","wings":"1","pattern":"X","legs":"X"},"action":"avoid","summary":"good-avoid","bonus":0.9000000000000008},{"rt":759.2000000476837,"stimulus":"\n                    <p><b>Action: <em>avoid</em></b></p>\n                    <p>This is the bee that you just saw.</p>\n                    <img src=\"bees-with-color/bee-B1DF.svg\" width=\"200\">\n                    <p><br>Your bonus pay is unchanged, and remains at $0.32.</p>\n            ","response":0,"trial_type":"html-button-response","trial_index":82,"time_elapsed":576863,"internal_node_id":"0.0-4.0-1.35","subject_id":"613246c4e0e8fd2e66ef9ea3","study_id":"6197b3f67c2b5cd3b6d9596a","session_id":"619be31b923644746611012a","condition":"contingent","relevant_dimensions":["antennae","wings"],"bee_group":{"antennae":"B","wings":"1","pattern":"X","legs":"X"},"bonus":0.9000000000000008},{"rt":1721.2999999523163,"stimulus":"bees-with-color/bee-B2SM.svg","response":1,"trial_type":"image-button-response","trial_index":83,"time_elapsed":578586,"internal_node_id":"0.0-4.0-0.36","subject_id":"613246c4e0e8fd2e66ef9ea3","study_id":"6197b3f67c2b5cd3b6d9596a","session_id":"619be31b923644746611012a","condition":"contingent","relevant_dimensions":["antennae","wings"],"bee_group":{"antennae":"B","wings":"1","pattern":"X","legs":"X"},"action":"avoid","summary":"bad-avoid","bonus":0.9000000000000008},{"rt":339.39999997615814,"stimulus":"\n                    <p><b>Action: <em>avoid</em></b></p>\n                    <p>This is the bee that you just saw.</p>\n                    <img src=\"bees-with-color/bee-B2SM.svg\" width=\"200\">\n                    <p><br>Your bonus pay is unchanged, and remains at $0.32.</p>\n            ","response":0,"trial_type":"html-button-response","trial_index":84,"time_elapsed":578927,"internal_node_id":"0.0-4.0-1.36","subject_id":"613246c4e0e8fd2e66ef9ea3","study_id":"6197b3f67c2b5cd3b6d9596a","session_id":"619be31b923644746611012a","condition":"contingent","relevant_dimensions":["antennae","wings"],"bee_group":{"antennae":"B","wings":"1","pattern":"X","legs":"X"},"bonus":0.9000000000000008},{"rt":765.7000000476837,"stimulus":"bees-with-color/bee-A2DF.svg","response":0,"trial_type":"image-button-response","trial_index":85,"time_elapsed":579694,"internal_node_id":"0.0-4.0-0.37","subject_id":"613246c4e0e8fd2e66ef9ea3","study_id":"6197b3f67c2b5cd3b6d9596a","session_id":"619be31b923644746611012a","condition":"contingent","relevant_dimensions":["antennae","wings"],"bee_group":{"antennae":"B","wings":"1","pattern":"X","legs":"X"},"action":"harvest","summary":"good-harvest","bonus":0.9000000000000008},{"rt":968.3999999761581,"stimulus":"\n                    <p><b>Action: <em>harvest</em></b></p>\n                    <p>This is the bee that you just saw.</p>\n                    <img src=\"bees-with-color/bee-A2DF.svg\" width=\"200\">\n                    <p><span class=\"greenText\"><b>Successful harvest!</b></span><br>Your pay has increased by $0.02. Your bonus pay is now $0.34.</p>\n            ","response":0,"trial_type":"html-button-response","trial_index":86,"time_elapsed":580664,"internal_node_id":"0.0-4.0-1.37","subject_id":"613246c4e0e8fd2e66ef9ea3","study_id":"6197b3f67c2b5cd3b6d9596a","session_id":"619be31b923644746611012a","condition":"contingent","relevant_dimensions":["antennae","wings"],"bee_group":{"antennae":"B","wings":"1","pattern":"X","legs":"X"},"bonus":0.9000000000000008},{"rt":4195.700000047684,"stimulus":"bees-with-color/bee-A1DM.svg","response":0,"trial_type":"image-button-response","trial_index":87,"time_elapsed":584861,"internal_node_id":"0.0-4.0-0.38","subject_id":"613246c4e0e8fd2e66ef9ea3","study_id":"6197b3f67c2b5cd3b6d9596a","session_id":"619be31b923644746611012a","condition":"contingent","relevant_dimensions":["antennae","wings"],"bee_group":{"antennae":"B","wings":"1","pattern":"X","legs":"X"},"action":"harvest","summary":"good-harvest","bonus":0.9000000000000008},{"rt":1642.7999999523163,"stimulus":"\n                    <p><b>Action: <em>harvest</em></b></p>\n                    <p>This is the bee that you just saw.</p>\n                    <img src=\"bees-with-color/bee-A1DM.svg\" width=\"200\">\n                    <p><span class=\"greenText\"><b>Successful harvest!</b></span><br>Your pay has increased by $0.02. Your bonus pay is now $0.36.</p>\n            ","response":0,"trial_type":"html-button-response","trial_index":88,"time_elapsed":586505,"internal_node_id":"0.0-4.0-1.38","subject_id":"613246c4e0e8fd2e66ef9ea3","study_id":"6197b3f67c2b5cd3b6d9596a","session_id":"619be31b923644746611012a","condition":"contingent","relevant_dimensions":["antennae","wings"],"bee_group":{"antennae":"B","wings":"1","pattern":"X","legs":"X"},"bonus":0.9000000000000008},{"rt":2776.0999999046326,"stimulus":"bees-with-color/bee-B1SM.svg","response":1,"trial_type":"image-button-response","trial_index":89,"time_elapsed":589283,"internal_node_id":"0.0-4.0-0.39","subject_id":"613246c4e0e8fd2e66ef9ea3","study_id":"6197b3f67c2b5cd3b6d9596a","session_id":"619be31b923644746611012a","condition":"contingent","relevant_dimensions":["antennae","wings"],"bee_group":{"antennae":"B","wings":"1","pattern":"X","legs":"X"},"action":"avoid","summary":"good-avoid","bonus":0.9000000000000008},{"rt":436.2999999523163,"stimulus":"\n                    <p><b>Action: <em>avoid</em></b></p>\n                    <p>This is the bee that you just saw.</p>\n                    <img src=\"bees-with-color/bee-B1SM.svg\" width=\"200\">\n                    <p><br>Your bonus pay is unchanged, and remains at $0.36.</p>\n            ","response":0,"trial_type":"html-button-response","trial_index":90,"time_elapsed":589721,"internal_node_id":"0.0-4.0-1.39","subject_id":"613246c4e0e8fd2e66ef9ea3","study_id":"6197b3f67c2b5cd3b6d9596a","session_id":"619be31b923644746611012a","condition":"contingent","relevant_dimensions":["antennae","wings"],"bee_group":{"antennae":"B","wings":"1","pattern":"X","legs":"X"},"bonus":0.9000000000000008},{"rt":1175.1999999284744,"stimulus":"bees-with-color/bee-A2SM.svg","response":0,"trial_type":"image-button-response","trial_index":91,"time_elapsed":590898,"internal_node_id":"0.0-4.0-0.40","subject_id":"613246c4e0e8fd2e66ef9ea3","study_id":"6197b3f67c2b5cd3b6d9596a","session_id":"619be31b923644746611012a","condition":"contingent","relevant_dimensions":["antennae","wings"],"bee_group":{"antennae":"B","wings":"1","pattern":"X","legs":"X"},"action":"harvest","summary":"good-harvest","bonus":0.9000000000000008},{"rt":687.8999999761581,"stimulus":"\n                    <p><b>Action: <em>harvest</em></b></p>\n                    <p>This is the bee that you just saw.</p>\n                    <img src=\"bees-with-color/bee-A2SM.svg\" width=\"200\">\n                    <p><span class=\"greenText\"><b>Successful harvest!</b></span><br>Your pay has increased by $0.02. Your bonus pay is now $0.38.</p>\n            ","response":0,"trial_type":"html-button-response","trial_index":92,"time_elapsed":591588,"internal_node_id":"0.0-4.0-1.40","subject_id":"613246c4e0e8fd2e66ef9ea3","study_id":"6197b3f67c2b5cd3b6d9596a","session_id":"619be31b923644746611012a","condition":"contingent","relevant_dimensions":["antennae","wings"],"bee_group":{"antennae":"B","wings":"1","pattern":"X","legs":"X"},"bonus":0.9000000000000008},{"rt":1379.7999999523163,"stimulus":"bees-with-color/bee-B2SF.svg","response":1,"trial_type":"image-button-response","trial_index":93,"time_elapsed":592968,"internal_node_id":"0.0-4.0-0.41","subject_id":"613246c4e0e8fd2e66ef9ea3","study_id":"6197b3f67c2b5cd3b6d9596a","session_id":"619be31b923644746611012a","condition":"contingent","relevant_dimensions":["antennae","wings"],"bee_group":{"antennae":"B","wings":"1","pattern":"X","legs":"X"},"action":"avoid","summary":"bad-avoid","bonus":0.9000000000000008},{"rt":889.7999999523163,"stimulus":"\n                    <p><b>Action: <em>avoid</em></b></p>\n                    <p>This is the bee that you just saw.</p>\n                    <img src=\"bees-with-color/bee-B2SF.svg\" width=\"200\">\n                    <p><br>Your bonus pay is unchanged, and remains at $0.38.</p>\n            ","response":0,"trial_type":"html-button-response","trial_index":94,"time_elapsed":593860,"internal_node_id":"0.0-4.0-1.41","subject_id":"613246c4e0e8fd2e66ef9ea3","study_id":"6197b3f67c2b5cd3b6d9596a","session_id":"619be31b923644746611012a","condition":"contingent","relevant_dimensions":["antennae","wings"],"bee_group":{"antennae":"B","wings":"1","pattern":"X","legs":"X"},"bonus":0.9000000000000008},{"rt":1008.6999999284744,"stimulus":"bees-with-color/bee-B1SF.svg","response":1,"trial_type":"image-button-response","trial_index":95,"time_elapsed":594869,"internal_node_id":"0.0-4.0-0.42","subject_id":"613246c4e0e8fd2e66ef9ea3","study_id":"6197b3f67c2b5cd3b6d9596a","session_id":"619be31b923644746611012a","condition":"contingent","relevant_dimensions":["antennae","wings"],"bee_group":{"antennae":"B","wings":"1","pattern":"X","legs":"X"},"action":"avoid","summary":"good-avoid","bonus":0.9000000000000008},{"rt":469.6999999284744,"stimulus":"\n                    <p><b>Action: <em>avoid</em></b></p>\n                    <p>This is the bee that you just saw.</p>\n                    <img src=\"bees-with-color/bee-B1SF.svg\" width=\"200\">\n                    <p><br>Your bonus pay is unchanged, and remains at $0.38.</p>\n            ","response":0,"trial_type":"html-button-response","trial_index":96,"time_elapsed":595340,"internal_node_id":"0.0-4.0-1.42","subject_id":"613246c4e0e8fd2e66ef9ea3","study_id":"6197b3f67c2b5cd3b6d9596a","session_id":"619be31b923644746611012a","condition":"contingent","relevant_dimensions":["antennae","wings"],"bee_group":{"antennae":"B","wings":"1","pattern":"X","legs":"X"},"bonus":0.9000000000000008},{"rt":1276.2000000476837,"stimulus":"bees-with-color/bee-A2SF.svg","response":0,"trial_type":"image-button-response","trial_index":97,"time_elapsed":596618,"internal_node_id":"0.0-4.0-0.43","subject_id":"613246c4e0e8fd2e66ef9ea3","study_id":"6197b3f67c2b5cd3b6d9596a","session_id":"619be31b923644746611012a","condition":"contingent","relevant_dimensions":["antennae","wings"],"bee_group":{"antennae":"B","wings":"1","pattern":"X","legs":"X"},"action":"harvest","summary":"good-harvest","bonus":0.9000000000000008},{"rt":518.8999999761581,"stimulus":"\n                    <p><b>Action: <em>harvest</em></b></p>\n                    <p>This is the bee that you just saw.</p>\n                    <img src=\"bees-with-color/bee-A2SF.svg\" width=\"200\">\n                    <p><span class=\"greenText\"><b>Successful harvest!</b></span><br>Your pay has increased by $0.02. Your bonus pay is now $0.40.</p>\n            ","response":0,"trial_type":"html-button-response","trial_index":98,"time_elapsed":597138,"internal_node_id":"0.0-4.0-1.43","subject_id":"613246c4e0e8fd2e66ef9ea3","study_id":"6197b3f67c2b5cd3b6d9596a","session_id":"619be31b923644746611012a","condition":"contingent","relevant_dimensions":["antennae","wings"],"bee_group":{"antennae":"B","wings":"1","pattern":"X","legs":"X"},"bonus":0.9000000000000008},{"rt":2158.600000023842,"stimulus":"bees-with-color/bee-B2DF.svg","response":1,"trial_type":"image-button-response","trial_index":99,"time_elapsed":599298,"internal_node_id":"0.0-4.0-0.44","subject_id":"613246c4e0e8fd2e66ef9ea3","study_id":"6197b3f67c2b5cd3b6d9596a","session_id":"619be31b923644746611012a","condition":"contingent","relevant_dimensions":["antennae","wings"],"bee_group":{"antennae":"B","wings":"1","pattern":"X","legs":"X"},"action":"avoid","summary":"bad-avoid","bonus":0.9000000000000008},{"rt":667.5,"stimulus":"\n                    <p><b>Action: <em>avoid</em></b></p>\n                    <p>This is the bee that you just saw.</p>\n                    <img src=\"bees-with-color/bee-B2DF.svg\" width=\"200\">\n                    <p><br>Your bonus pay is unchanged, and remains at $0.40.</p>\n            ","response":0,"trial_type":"html-button-response","trial_index":100,"time_elapsed":599967,"internal_node_id":"0.0-4.0-1.44","subject_id":"613246c4e0e8fd2e66ef9ea3","study_id":"6197b3f67c2b5cd3b6d9596a","session_id":"619be31b923644746611012a","condition":"contingent","relevant_dimensions":["antennae","wings"],"bee_group":{"antennae":"B","wings":"1","pattern":"X","legs":"X"},"bonus":0.9000000000000008},{"rt":2148.100000023842,"stimulus":"bees-with-color/bee-B1DM.svg","response":1,"trial_type":"image-button-response","trial_index":101,"time_elapsed":602116,"internal_node_id":"0.0-4.0-0.45","subject_id":"613246c4e0e8fd2e66ef9ea3","study_id":"6197b3f67c2b5cd3b6d9596a","session_id":"619be31b923644746611012a","condition":"contingent","relevant_dimensions":["antennae","wings"],"bee_group":{"antennae":"B","wings":"1","pattern":"X","legs":"X"},"action":"avoid","summary":"good-avoid","bonus":0.9000000000000008},{"rt":799.3000000715256,"stimulus":"\n                    <p><b>Action: <em>avoid</em></b></p>\n                    <p>This is the bee that you just saw.</p>\n                    <img src=\"bees-with-color/bee-B1DM.svg\" width=\"200\">\n                    <p><br>Your bonus pay is unchanged, and remains at $0.40.</p>\n            ","response":0,"trial_type":"html-button-response","trial_index":102,"time_elapsed":602917,"internal_node_id":"0.0-4.0-1.45","subject_id":"613246c4e0e8fd2e66ef9ea3","study_id":"6197b3f67c2b5cd3b6d9596a","session_id":"619be31b923644746611012a","condition":"contingent","relevant_dimensions":["antennae","wings"],"bee_group":{"antennae":"B","wings":"1","pattern":"X","legs":"X"},"bonus":0.9000000000000008},{"rt":608.0999999046326,"stimulus":"bees-with-color/bee-A1SF.svg","response":0,"trial_type":"image-button-response","trial_index":103,"time_elapsed":603527,"internal_node_id":"0.0-4.0-0.46","subject_id":"613246c4e0e8fd2e66ef9ea3","study_id":"6197b3f67c2b5cd3b6d9596a","session_id":"619be31b923644746611012a","condition":"contingent","relevant_dimensions":["antennae","wings"],"bee_group":{"antennae":"B","wings":"1","pattern":"X","legs":"X"},"action":"harvest","summary":"good-harvest","bonus":0.9000000000000008},{"rt":500,"stimulus":"\n                    <p><b>Action: <em>harvest</em></b></p>\n                    <p>This is the bee that you just saw.</p>\n                    <img src=\"bees-with-color/bee-A1SF.svg\" width=\"200\">\n                    <p><span class=\"greenText\"><b>Successful harvest!</b></span><br>Your pay has increased by $0.02. Your bonus pay is now $0.42.</p>\n            ","response":0,"trial_type":"html-button-response","trial_index":104,"time_elapsed":604028,"internal_node_id":"0.0-4.0-1.46","subject_id":"613246c4e0e8fd2e66ef9ea3","study_id":"6197b3f67c2b5cd3b6d9596a","session_id":"619be31b923644746611012a","condition":"contingent","relevant_dimensions":["antennae","wings"],"bee_group":{"antennae":"B","wings":"1","pattern":"X","legs":"X"},"bonus":0.9000000000000008},{"rt":787.7999999523163,"stimulus":"bees-with-color/bee-A2DM.svg","response":0,"trial_type":"image-button-response","trial_index":105,"time_elapsed":604818,"internal_node_id":"0.0-4.0-0.47","subject_id":"613246c4e0e8fd2e66ef9ea3","study_id":"6197b3f67c2b5cd3b6d9596a","session_id":"619be31b923644746611012a","condition":"contingent","relevant_dimensions":["antennae","wings"],"bee_group":{"antennae":"B","wings":"1","pattern":"X","legs":"X"},"action":"harvest","summary":"good-harvest","bonus":0.9000000000000008},{"rt":458.7000000476837,"stimulus":"\n                    <p><b>Action: <em>harvest</em></b></p>\n                    <p>This is the bee that you just saw.</p>\n                    <img src=\"bees-with-color/bee-A2DM.svg\" width=\"200\">\n                    <p><span class=\"greenText\"><b>Successful harvest!</b></span><br>Your pay has increased by $0.02. Your bonus pay is now $0.44.</p>\n            ","response":0,"trial_type":"html-button-response","trial_index":106,"time_elapsed":605278,"internal_node_id":"0.0-4.0-1.47","subject_id":"613246c4e0e8fd2e66ef9ea3","study_id":"6197b3f67c2b5cd3b6d9596a","session_id":"619be31b923644746611012a","condition":"contingent","relevant_dimensions":["antennae","wings"],"bee_group":{"antennae":"B","wings":"1","pattern":"X","legs":"X"},"bonus":0.9000000000000008},{"rt":690.3999999761581,"stimulus":"bees-with-color/bee-B1SF.svg","response":1,"trial_type":"image-button-response","trial_index":107,"time_elapsed":605970,"internal_node_id":"0.0-4.0-0.48","subject_id":"613246c4e0e8fd2e66ef9ea3","study_id":"6197b3f67c2b5cd3b6d9596a","session_id":"619be31b923644746611012a","condition":"contingent","relevant_dimensions":["antennae","wings"],"bee_group":{"antennae":"B","wings":"1","pattern":"X","legs":"X"},"action":"avoid","summary":"good-avoid","bonus":0.9000000000000008},{"rt":710.7000000476837,"stimulus":"\n                    <p><b>Action: <em>avoid</em></b></p>\n                    <p>This is the bee that you just saw.</p>\n                    <img src=\"bees-with-color/bee-B1SF.svg\" width=\"200\">\n                    <p><br>Your bonus pay is unchanged, and remains at $0.44.</p>\n            ","response":0,"trial_type":"html-button-response","trial_index":108,"time_elapsed":606682,"internal_node_id":"0.0-4.0-1.48","subject_id":"613246c4e0e8fd2e66ef9ea3","study_id":"6197b3f67c2b5cd3b6d9596a","session_id":"619be31b923644746611012a","condition":"contingent","relevant_dimensions":["antennae","wings"],"bee_group":{"antennae":"B","wings":"1","pattern":"X","legs":"X"},"bonus":0.9000000000000008},{"rt":656.7000000476837,"stimulus":"bees-with-color/bee-B2DF.svg","response":1,"trial_type":"image-button-response","trial_index":109,"time_elapsed":607340,"internal_node_id":"0.0-4.0-0.49","subject_id":"613246c4e0e8fd2e66ef9ea3","study_id":"6197b3f67c2b5cd3b6d9596a","session_id":"619be31b923644746611012a","condition":"contingent","relevant_dimensions":["antennae","wings"],"bee_group":{"antennae":"B","wings":"1","pattern":"X","legs":"X"},"action":"avoid","summary":"bad-avoid","bonus":0.9000000000000008},{"rt":411.2999999523163,"stimulus":"\n                    <p><b>Action: <em>avoid</em></b></p>\n                    <p>This is the bee that you just saw.</p>\n                    <img src=\"bees-with-color/bee-B2DF.svg\" width=\"200\">\n                    <p><br>Your bonus pay is unchanged, and remains at $0.44.</p>\n            ","response":0,"trial_type":"html-button-response","trial_index":110,"time_elapsed":607753,"internal_node_id":"0.0-4.0-1.49","subject_id":"613246c4e0e8fd2e66ef9ea3","study_id":"6197b3f67c2b5cd3b6d9596a","session_id":"619be31b923644746611012a","condition":"contingent","relevant_dimensions":["antennae","wings"],"bee_group":{"antennae":"B","wings":"1","pattern":"X","legs":"X"},"bonus":0.9000000000000008},{"rt":690.0999999046326,"stimulus":"bees-with-color/bee-B1DF.svg","response":1,"trial_type":"image-button-response","trial_index":111,"time_elapsed":608444,"internal_node_id":"0.0-4.0-0.50","subject_id":"613246c4e0e8fd2e66ef9ea3","study_id":"6197b3f67c2b5cd3b6d9596a","session_id":"619be31b923644746611012a","condition":"contingent","relevant_dimensions":["antennae","wings"],"bee_group":{"antennae":"B","wings":"1","pattern":"X","legs":"X"},"action":"avoid","summary":"good-avoid","bonus":0.9000000000000008},{"rt":308.3000000715256,"stimulus":"\n                    <p><b>Action: <em>avoid</em></b></p>\n                    <p>This is the bee that you just saw.</p>\n                    <img src=\"bees-with-color/bee-B1DF.svg\" width=\"200\">\n                    <p><br>Your bonus pay is unchanged, and remains at $0.44.</p>\n            ","response":0,"trial_type":"html-button-response","trial_index":112,"time_elapsed":608754,"internal_node_id":"0.0-4.0-1.50","subject_id":"613246c4e0e8fd2e66ef9ea3","study_id":"6197b3f67c2b5cd3b6d9596a","session_id":"619be31b923644746611012a","condition":"contingent","relevant_dimensions":["antennae","wings"],"bee_group":{"antennae":"B","wings":"1","pattern":"X","legs":"X"},"bonus":0.9000000000000008},{"rt":714.3000000715256,"stimulus":"bees-with-color/bee-A1DM.svg","response":0,"trial_type":"image-button-response","trial_index":113,"time_elapsed":609470,"internal_node_id":"0.0-4.0-0.51","subject_id":"613246c4e0e8fd2e66ef9ea3","study_id":"6197b3f67c2b5cd3b6d9596a","session_id":"619be31b923644746611012a","condition":"contingent","relevant_dimensions":["antennae","wings"],"bee_group":{"antennae":"B","wings":"1","pattern":"X","legs":"X"},"action":"harvest","summary":"good-harvest","bonus":0.9000000000000008},{"rt":509.2999999523163,"stimulus":"\n                    <p><b>Action: <em>harvest</em></b></p>\n                    <p>This is the bee that you just saw.</p>\n                    <img src=\"bees-with-color/bee-A1DM.svg\" width=\"200\">\n                    <p><span class=\"greenText\"><b>Successful harvest!</b></span><br>Your pay has increased by $0.02. Your bonus pay is now $0.46.</p>\n            ","response":0,"trial_type":"html-button-response","trial_index":114,"time_elapsed":609981,"internal_node_id":"0.0-4.0-1.51","subject_id":"613246c4e0e8fd2e66ef9ea3","study_id":"6197b3f67c2b5cd3b6d9596a","session_id":"619be31b923644746611012a","condition":"contingent","relevant_dimensions":["antennae","wings"],"bee_group":{"antennae":"B","wings":"1","pattern":"X","legs":"X"},"bonus":0.9000000000000008},{"rt":740.5,"stimulus":"bees-with-color/bee-A2SF.svg","response":0,"trial_type":"image-button-response","trial_index":115,"time_elapsed":610723,"internal_node_id":"0.0-4.0-0.52","subject_id":"613246c4e0e8fd2e66ef9ea3","study_id":"6197b3f67c2b5cd3b6d9596a","session_id":"619be31b923644746611012a","condition":"contingent","relevant_dimensions":["antennae","wings"],"bee_group":{"antennae":"B","wings":"1","pattern":"X","legs":"X"},"action":"harvest","summary":"good-harvest","bonus":0.9000000000000008},{"rt":641.3999999761581,"stimulus":"\n                    <p><b>Action: <em>harvest</em></b></p>\n                    <p>This is the bee that you just saw.</p>\n                    <img src=\"bees-with-color/bee-A2SF.svg\" width=\"200\">\n                    <p><span class=\"greenText\"><b>Successful harvest!</b></span><br>Your pay has increased by $0.02. Your bonus pay is now $0.48.</p>\n            ","response":0,"trial_type":"html-button-response","trial_index":116,"time_elapsed":611366,"internal_node_id":"0.0-4.0-1.52","subject_id":"613246c4e0e8fd2e66ef9ea3","study_id":"6197b3f67c2b5cd3b6d9596a","session_id":"619be31b923644746611012a","condition":"contingent","relevant_dimensions":["antennae","wings"],"bee_group":{"antennae":"B","wings":"1","pattern":"X","legs":"X"},"bonus":0.9000000000000008},{"rt":1280.9000000953674,"stimulus":"bees-with-color/bee-B2SF.svg","response":1,"trial_type":"image-button-response","trial_index":117,"time_elapsed":612648,"internal_node_id":"0.0-4.0-0.53","subject_id":"613246c4e0e8fd2e66ef9ea3","study_id":"6197b3f67c2b5cd3b6d9596a","session_id":"619be31b923644746611012a","condition":"contingent","relevant_dimensions":["antennae","wings"],"bee_group":{"antennae":"B","wings":"1","pattern":"X","legs":"X"},"action":"avoid","summary":"bad-avoid","bonus":0.9000000000000008},{"rt":420.60000002384186,"stimulus":"\n                    <p><b>Action: <em>avoid</em></b></p>\n                    <p>This is the bee that you just saw.</p>\n                    <img src=\"bees-with-color/bee-B2SF.svg\" width=\"200\">\n                    <p><br>Your bonus pay is unchanged, and remains at $0.48.</p>\n            ","response":0,"trial_type":"html-button-response","trial_index":118,"time_elapsed":613070,"internal_node_id":"0.0-4.0-1.53","subject_id":"613246c4e0e8fd2e66ef9ea3","study_id":"6197b3f67c2b5cd3b6d9596a","session_id":"619be31b923644746611012a","condition":"contingent","relevant_dimensions":["antennae","wings"],"bee_group":{"antennae":"B","wings":"1","pattern":"X","legs":"X"},"bonus":0.9000000000000008},{"rt":2337.100000023842,"stimulus":"bees-with-color/bee-B2DM.svg","response":1,"trial_type":"image-button-response","trial_index":119,"time_elapsed":615408,"internal_node_id":"0.0-4.0-0.54","subject_id":"613246c4e0e8fd2e66ef9ea3","study_id":"6197b3f67c2b5cd3b6d9596a","session_id":"619be31b923644746611012a","condition":"contingent","relevant_dimensions":["antennae","wings"],"bee_group":{"antennae":"B","wings":"1","pattern":"X","legs":"X"},"action":"avoid","summary":"bad-avoid","bonus":0.9000000000000008},{"rt":689.5999999046326,"stimulus":"\n                    <p><b>Action: <em>avoid</em></b></p>\n                    <p>This is the bee that you just saw.</p>\n                    <img src=\"bees-with-color/bee-B2DM.svg\" width=\"200\">\n                    <p><br>Your bonus pay is unchanged, and remains at $0.48.</p>\n            ","response":0,"trial_type":"html-button-response","trial_index":120,"time_elapsed":616099,"internal_node_id":"0.0-4.0-1.54","subject_id":"613246c4e0e8fd2e66ef9ea3","study_id":"6197b3f67c2b5cd3b6d9596a","session_id":"619be31b923644746611012a","condition":"contingent","relevant_dimensions":["antennae","wings"],"bee_group":{"antennae":"B","wings":"1","pattern":"X","legs":"X"},"bonus":0.9000000000000008},{"rt":2038.3000000715256,"stimulus":"bees-with-color/bee-A2SM.svg","response":0,"trial_type":"image-button-response","trial_index":121,"time_elapsed":618138,"internal_node_id":"0.0-4.0-0.55","subject_id":"613246c4e0e8fd2e66ef9ea3","study_id":"6197b3f67c2b5cd3b6d9596a","session_id":"619be31b923644746611012a","condition":"contingent","relevant_dimensions":["antennae","wings"],"bee_group":{"antennae":"B","wings":"1","pattern":"X","legs":"X"},"action":"harvest","summary":"good-harvest","bonus":0.9000000000000008},{"rt":668.2999999523163,"stimulus":"\n                    <p><b>Action: <em>harvest</em></b></p>\n                    <p>This is the bee that you just saw.</p>\n                    <img src=\"bees-with-color/bee-A2SM.svg\" width=\"200\">\n                    <p><span class=\"greenText\"><b>Successful harvest!</b></span><br>Your pay has increased by $0.02. Your bonus pay is now $0.50.</p>\n            ","response":0,"trial_type":"html-button-response","trial_index":122,"time_elapsed":618808,"internal_node_id":"0.0-4.0-1.55","subject_id":"613246c4e0e8fd2e66ef9ea3","study_id":"6197b3f67c2b5cd3b6d9596a","session_id":"619be31b923644746611012a","condition":"contingent","relevant_dimensions":["antennae","wings"],"bee_group":{"antennae":"B","wings":"1","pattern":"X","legs":"X"},"bonus":0.9000000000000008},{"rt":668.8999999761581,"stimulus":"bees-with-color/bee-B1DM.svg","response":1,"trial_type":"image-button-response","trial_index":123,"time_elapsed":619478,"internal_node_id":"0.0-4.0-0.56","subject_id":"613246c4e0e8fd2e66ef9ea3","study_id":"6197b3f67c2b5cd3b6d9596a","session_id":"619be31b923644746611012a","condition":"contingent","relevant_dimensions":["antennae","wings"],"bee_group":{"antennae":"B","wings":"1","pattern":"X","legs":"X"},"action":"avoid","summary":"good-avoid","bonus":0.9000000000000008},{"rt":478.39999997615814,"stimulus":"\n                    <p><b>Action: <em>avoid</em></b></p>\n                    <p>This is the bee that you just saw.</p>\n                    <img src=\"bees-with-color/bee-B1DM.svg\" width=\"200\">\n                    <p><br>Your bonus pay is unchanged, and remains at $0.50.</p>\n            ","response":0,"trial_type":"html-button-response","trial_index":124,"time_elapsed":619958,"internal_node_id":"0.0-4.0-1.56","subject_id":"613246c4e0e8fd2e66ef9ea3","study_id":"6197b3f67c2b5cd3b6d9596a","session_id":"619be31b923644746611012a","condition":"contingent","relevant_dimensions":["antennae","wings"],"bee_group":{"antennae":"B","wings":"1","pattern":"X","legs":"X"},"bonus":0.9000000000000008},{"rt":1107.8000000715256,"stimulus":"bees-with-color/bee-B1SM.svg","response":1,"trial_type":"image-button-response","trial_index":125,"time_elapsed":621067,"internal_node_id":"0.0-4.0-0.57","subject_id":"613246c4e0e8fd2e66ef9ea3","study_id":"6197b3f67c2b5cd3b6d9596a","session_id":"619be31b923644746611012a","condition":"contingent","relevant_dimensions":["antennae","wings"],"bee_group":{"antennae":"B","wings":"1","pattern":"X","legs":"X"},"action":"avoid","summary":"good-avoid","bonus":0.9000000000000008},{"rt":580.6999999284744,"stimulus":"\n                    <p><b>Action: <em>avoid</em></b></p>\n                    <p>This is the bee that you just saw.</p>\n                    <img src=\"bees-with-color/bee-B1SM.svg\" width=\"200\">\n                    <p><br>Your bonus pay is unchanged, and remains at $0.50.</p>\n            ","response":0,"trial_type":"html-button-response","trial_index":126,"time_elapsed":621649,"internal_node_id":"0.0-4.0-1.57","subject_id":"613246c4e0e8fd2e66ef9ea3","study_id":"6197b3f67c2b5cd3b6d9596a","session_id":"619be31b923644746611012a","condition":"contingent","relevant_dimensions":["antennae","wings"],"bee_group":{"antennae":"B","wings":"1","pattern":"X","legs":"X"},"bonus":0.9000000000000008},{"rt":2178.7999999523163,"stimulus":"bees-with-color/bee-A1SM.svg","response":0,"trial_type":"image-button-response","trial_index":127,"time_elapsed":623829,"internal_node_id":"0.0-4.0-0.58","subject_id":"613246c4e0e8fd2e66ef9ea3","study_id":"6197b3f67c2b5cd3b6d9596a","session_id":"619be31b923644746611012a","condition":"contingent","relevant_dimensions":["antennae","wings"],"bee_group":{"antennae":"B","wings":"1","pattern":"X","legs":"X"},"action":"harvest","summary":"good-harvest","bonus":0.9000000000000008},{"rt":625.3000000715256,"stimulus":"\n                    <p><b>Action: <em>harvest</em></b></p>\n                    <p>This is the bee that you just saw.</p>\n                    <img src=\"bees-with-color/bee-A1SM.svg\" width=\"200\">\n                    <p><span class=\"greenText\"><b>Successful harvest!</b></span><br>Your pay has increased by $0.02. Your bonus pay is now $0.52.</p>\n            ","response":0,"trial_type":"html-button-response","trial_index":128,"time_elapsed":624456,"internal_node_id":"0.0-4.0-1.58","subject_id":"613246c4e0e8fd2e66ef9ea3","study_id":"6197b3f67c2b5cd3b6d9596a","session_id":"619be31b923644746611012a","condition":"contingent","relevant_dimensions":["antennae","wings"],"bee_group":{"antennae":"B","wings":"1","pattern":"X","legs":"X"},"bonus":0.9000000000000008},{"rt":652.8000000715256,"stimulus":"bees-with-color/bee-B2SM.svg","response":1,"trial_type":"image-button-response","trial_index":129,"time_elapsed":625110,"internal_node_id":"0.0-4.0-0.59","subject_id":"613246c4e0e8fd2e66ef9ea3","study_id":"6197b3f67c2b5cd3b6d9596a","session_id":"619be31b923644746611012a","condition":"contingent","relevant_dimensions":["antennae","wings"],"bee_group":{"antennae":"B","wings":"1","pattern":"X","legs":"X"},"action":"avoid","summary":"bad-avoid","bonus":0.9000000000000008},{"rt":443.6999999284744,"stimulus":"\n                    <p><b>Action: <em>avoid</em></b></p>\n                    <p>This is the bee that you just saw.</p>\n                    <img src=\"bees-with-color/bee-B2SM.svg\" width=\"200\">\n                    <p><br>Your bonus pay is unchanged, and remains at $0.52.</p>\n            ","response":0,"trial_type":"html-button-response","trial_index":130,"time_elapsed":625556,"internal_node_id":"0.0-4.0-1.59","subject_id":"613246c4e0e8fd2e66ef9ea3","study_id":"6197b3f67c2b5cd3b6d9596a","session_id":"619be31b923644746611012a","condition":"contingent","relevant_dimensions":["antennae","wings"],"bee_group":{"antennae":"B","wings":"1","pattern":"X","legs":"X"},"bonus":0.9000000000000008},{"rt":772.7999999523163,"stimulus":"bees-with-color/bee-A1SF.svg","response":0,"trial_type":"image-button-response","trial_index":131,"time_elapsed":626330,"internal_node_id":"0.0-4.0-0.60","subject_id":"613246c4e0e8fd2e66ef9ea3","study_id":"6197b3f67c2b5cd3b6d9596a","session_id":"619be31b923644746611012a","condition":"contingent","relevant_dimensions":["antennae","wings"],"bee_group":{"antennae":"B","wings":"1","pattern":"X","legs":"X"},"action":"harvest","summary":"good-harvest","bonus":0.9000000000000008},{"rt":463.10000002384186,"stimulus":"\n                    <p><b>Action: <em>harvest</em></b></p>\n                    <p>This is the bee that you just saw.</p>\n                    <img src=\"bees-with-color/bee-A1SF.svg\" width=\"200\">\n                    <p><span class=\"greenText\"><b>Successful harvest!</b></span><br>Your pay has increased by $0.02. Your bonus pay is now $0.54.</p>\n            ","response":0,"trial_type":"html-button-response","trial_index":132,"time_elapsed":626794,"internal_node_id":"0.0-4.0-1.60","subject_id":"613246c4e0e8fd2e66ef9ea3","study_id":"6197b3f67c2b5cd3b6d9596a","session_id":"619be31b923644746611012a","condition":"contingent","relevant_dimensions":["antennae","wings"],"bee_group":{"antennae":"B","wings":"1","pattern":"X","legs":"X"},"bonus":0.9000000000000008},{"rt":838.7999999523163,"stimulus":"bees-with-color/bee-A2DM.svg","response":0,"trial_type":"image-button-response","trial_index":133,"time_elapsed":627635,"internal_node_id":"0.0-4.0-0.61","subject_id":"613246c4e0e8fd2e66ef9ea3","study_id":"6197b3f67c2b5cd3b6d9596a","session_id":"619be31b923644746611012a","condition":"contingent","relevant_dimensions":["antennae","wings"],"bee_group":{"antennae":"B","wings":"1","pattern":"X","legs":"X"},"action":"harvest","summary":"good-harvest","bonus":0.9000000000000008},{"rt":1248.8999999761581,"stimulus":"\n                    <p><b>Action: <em>harvest</em></b></p>\n                    <p>This is the bee that you just saw.</p>\n                    <img src=\"bees-with-color/bee-A2DM.svg\" width=\"200\">\n                    <p><span class=\"greenText\"><b>Successful harvest!</b></span><br>Your pay has increased by $0.02. Your bonus pay is now $0.56.</p>\n            ","response":0,"trial_type":"html-button-response","trial_index":134,"time_elapsed":628885,"internal_node_id":"0.0-4.0-1.61","subject_id":"613246c4e0e8fd2e66ef9ea3","study_id":"6197b3f67c2b5cd3b6d9596a","session_id":"619be31b923644746611012a","condition":"contingent","relevant_dimensions":["antennae","wings"],"bee_group":{"antennae":"B","wings":"1","pattern":"X","legs":"X"},"bonus":0.9000000000000008},{"rt":2134.5,"stimulus":"bees-with-color/bee-A2DF.svg","response":0,"trial_type":"image-button-response","trial_index":135,"time_elapsed":631021,"internal_node_id":"0.0-4.0-0.62","subject_id":"613246c4e0e8fd2e66ef9ea3","study_id":"6197b3f67c2b5cd3b6d9596a","session_id":"619be31b923644746611012a","condition":"contingent","relevant_dimensions":["antennae","wings"],"bee_group":{"antennae":"B","wings":"1","pattern":"X","legs":"X"},"action":"harvest","summary":"good-harvest","bonus":0.9000000000000008},{"rt":708.1000000238419,"stimulus":"\n                    <p><b>Action: <em>harvest</em></b></p>\n                    <p>This is the bee that you just saw.</p>\n                    <img src=\"bees-with-color/bee-A2DF.svg\" width=\"200\">\n                    <p><span class=\"greenText\"><b>Successful harvest!</b></span><br>Your pay has increased by $0.02. Your bonus pay is now $0.58.</p>\n            ","response":0,"trial_type":"html-button-response","trial_index":136,"time_elapsed":631731,"internal_node_id":"0.0-4.0-1.62","subject_id":"613246c4e0e8fd2e66ef9ea3","study_id":"6197b3f67c2b5cd3b6d9596a","session_id":"619be31b923644746611012a","condition":"contingent","relevant_dimensions":["antennae","wings"],"bee_group":{"antennae":"B","wings":"1","pattern":"X","legs":"X"},"bonus":0.9000000000000008},{"rt":3623.7000000476837,"stimulus":"bees-with-color/bee-A1DF.svg","response":0,"trial_type":"image-button-response","trial_index":137,"time_elapsed":635356,"internal_node_id":"0.0-4.0-0.63","subject_id":"613246c4e0e8fd2e66ef9ea3","study_id":"6197b3f67c2b5cd3b6d9596a","session_id":"619be31b923644746611012a","condition":"contingent","relevant_dimensions":["antennae","wings"],"bee_group":{"antennae":"B","wings":"1","pattern":"X","legs":"X"},"action":"harvest","summary":"good-harvest","bonus":0.9000000000000008},{"rt":1215.6000000238419,"stimulus":"\n                    <p><b>Action: <em>harvest</em></b></p>\n                    <p>This is the bee that you just saw.</p>\n                    <img src=\"bees-with-color/bee-A1DF.svg\" width=\"200\">\n                    <p><span class=\"greenText\"><b>Successful harvest!</b></span><br>Your pay has increased by $0.02. Your bonus pay is now $0.60.</p>\n            ","response":0,"trial_type":"html-button-response","trial_index":138,"time_elapsed":636578,"internal_node_id":"0.0-4.0-1.63","subject_id":"613246c4e0e8fd2e66ef9ea3","study_id":"6197b3f67c2b5cd3b6d9596a","session_id":"619be31b923644746611012a","condition":"contingent","relevant_dimensions":["antennae","wings"],"bee_group":{"antennae":"B","wings":"1","pattern":"X","legs":"X"},"bonus":0.9000000000000008},{"rt":8629.399999976158,"stimulus":"You have completed the first part of this experiment.<br><br>You will now begin a shorter second part, in which you will receive no feedback.<br>The same rules regarding bonus pay apply.<br><br>Press any key to begin.","response":"l","trial_type":"html-keyboard-response","trial_index":139,"time_elapsed":645210,"internal_node_id":"0.0-5.0","subject_id":"613246c4e0e8fd2e66ef9ea3","study_id":"6197b3f67c2b5cd3b6d9596a","session_id":"619be31b923644746611012a","condition":"contingent","relevant_dimensions":["antennae","wings"],"bee_group":{"antennae":"B","wings":"1","pattern":"X","legs":"X"},"bonus":0.9000000000000008},{"rt":6896.800000071526,"stimulus":"bees-with-color/bee-B1SM.svg","response":1,"trial_type":"image-button-response","trial_index":140,"time_elapsed":652115,"internal_node_id":"0.0-6.0-0.0","subject_id":"613246c4e0e8fd2e66ef9ea3","study_id":"6197b3f67c2b5cd3b6d9596a","session_id":"619be31b923644746611012a","condition":"contingent","relevant_dimensions":["antennae","wings"],"bee_group":{"antennae":"B","wings":"1","pattern":"X","legs":"X"},"bonus":0.9000000000000008},{"rt":1231.8999999761581,"stimulus":"bees-with-color/bee-B1DM.svg","response":1,"trial_type":"image-button-response","trial_index":141,"time_elapsed":653350,"internal_node_id":"0.0-6.0-0.1","subject_id":"613246c4e0e8fd2e66ef9ea3","study_id":"6197b3f67c2b5cd3b6d9596a","session_id":"619be31b923644746611012a","condition":"contingent","relevant_dimensions":["antennae","wings"],"bee_group":{"antennae":"B","wings":"1","pattern":"X","legs":"X"},"bonus":0.9000000000000008},{"rt":3212.100000023842,"stimulus":"bees-with-color/bee-A2DF.svg","response":0,"trial_type":"image-button-response","trial_index":142,"time_elapsed":656564,"internal_node_id":"0.0-6.0-0.2","subject_id":"613246c4e0e8fd2e66ef9ea3","study_id":"6197b3f67c2b5cd3b6d9596a","session_id":"619be31b923644746611012a","condition":"contingent","relevant_dimensions":["antennae","wings"],"bee_group":{"antennae":"B","wings":"1","pattern":"X","legs":"X"},"bonus":0.9000000000000008},{"rt":1293.1000000238419,"stimulus":"bees-with-color/bee-B2DF.svg","response":1,"trial_type":"image-button-response","trial_index":143,"time_elapsed":657859,"internal_node_id":"0.0-6.0-0.3","subject_id":"613246c4e0e8fd2e66ef9ea3","study_id":"6197b3f67c2b5cd3b6d9596a","session_id":"619be31b923644746611012a","condition":"contingent","relevant_dimensions":["antennae","wings"],"bee_group":{"antennae":"B","wings":"1","pattern":"X","legs":"X"},"bonus":0.9000000000000008},{"rt":691.9000000953674,"stimulus":"bees-with-color/bee-A1DF.svg","response":0,"trial_type":"image-button-response","trial_index":144,"time_elapsed":658553,"internal_node_id":"0.0-6.0-0.4","subject_id":"613246c4e0e8fd2e66ef9ea3","study_id":"6197b3f67c2b5cd3b6d9596a","session_id":"619be31b923644746611012a","condition":"contingent","relevant_dimensions":["antennae","wings"],"bee_group":{"antennae":"B","wings":"1","pattern":"X","legs":"X"},"bonus":0.9000000000000008},{"rt":2347.2000000476837,"stimulus":"bees-with-color/bee-A2SF.svg","response":0,"trial_type":"image-button-response","trial_index":145,"time_elapsed":660902,"internal_node_id":"0.0-6.0-0.5","subject_id":"613246c4e0e8fd2e66ef9ea3","study_id":"6197b3f67c2b5cd3b6d9596a","session_id":"619be31b923644746611012a","condition":"contingent","relevant_dimensions":["antennae","wings"],"bee_group":{"antennae":"B","wings":"1","pattern":"X","legs":"X"},"bonus":0.9000000000000008},{"rt":891.8999999761581,"stimulus":"bees-with-color/bee-A1SF.svg","response":0,"trial_type":"image-button-response","trial_index":146,"time_elapsed":661796,"internal_node_id":"0.0-6.0-0.6","subject_id":"613246c4e0e8fd2e66ef9ea3","study_id":"6197b3f67c2b5cd3b6d9596a","session_id":"619be31b923644746611012a","condition":"contingent","relevant_dimensions":["antennae","wings"],"bee_group":{"antennae":"B","wings":"1","pattern":"X","legs":"X"},"bonus":0.9000000000000008},{"rt":1872.2000000476837,"stimulus":"bees-with-color/bee-A2DM.svg","response":0,"trial_type":"image-button-response","trial_index":147,"time_elapsed":663670,"internal_node_id":"0.0-6.0-0.7","subject_id":"613246c4e0e8fd2e66ef9ea3","study_id":"6197b3f67c2b5cd3b6d9596a","session_id":"619be31b923644746611012a","condition":"contingent","relevant_dimensions":["antennae","wings"],"bee_group":{"antennae":"B","wings":"1","pattern":"X","legs":"X"},"bonus":0.9000000000000008},{"rt":1986,"stimulus":"bees-with-color/bee-B2SM.svg","response":1,"trial_type":"image-button-response","trial_index":148,"time_elapsed":665658,"internal_node_id":"0.0-6.0-0.8","subject_id":"613246c4e0e8fd2e66ef9ea3","study_id":"6197b3f67c2b5cd3b6d9596a","session_id":"619be31b923644746611012a","condition":"contingent","relevant_dimensions":["antennae","wings"],"bee_group":{"antennae":"B","wings":"1","pattern":"X","legs":"X"},"bonus":0.9000000000000008},{"rt":852,"stimulus":"bees-with-color/bee-A2SM.svg","response":0,"trial_type":"image-button-response","trial_index":149,"time_elapsed":666512,"internal_node_id":"0.0-6.0-0.9","subject_id":"613246c4e0e8fd2e66ef9ea3","study_id":"6197b3f67c2b5cd3b6d9596a","session_id":"619be31b923644746611012a","condition":"contingent","relevant_dimensions":["antennae","wings"],"bee_group":{"antennae":"B","wings":"1","pattern":"X","legs":"X"},"bonus":0.9000000000000008},{"rt":1742.3000000715256,"stimulus":"bees-with-color/bee-B1DF.svg","response":1,"trial_type":"image-button-response","trial_index":150,"time_elapsed":668256,"internal_node_id":"0.0-6.0-0.10","subject_id":"613246c4e0e8fd2e66ef9ea3","study_id":"6197b3f67c2b5cd3b6d9596a","session_id":"619be31b923644746611012a","condition":"contingent","relevant_dimensions":["antennae","wings"],"bee_group":{"antennae":"B","wings":"1","pattern":"X","legs":"X"},"bonus":0.9000000000000008},{"rt":3047.1999999284744,"stimulus":"bees-with-color/bee-A1DM.svg","response":0,"trial_type":"image-button-response","trial_index":151,"time_elapsed":671305,"internal_node_id":"0.0-6.0-0.11","subject_id":"613246c4e0e8fd2e66ef9ea3","study_id":"6197b3f67c2b5cd3b6d9596a","session_id":"619be31b923644746611012a","condition":"contingent","relevant_dimensions":["antennae","wings"],"bee_group":{"antennae":"B","wings":"1","pattern":"X","legs":"X"},"bonus":0.9000000000000008},{"rt":1561.8999999761581,"stimulus":"bees-with-color/bee-B1SF.svg","response":1,"trial_type":"image-button-response","trial_index":152,"time_elapsed":672870,"internal_node_id":"0.0-6.0-0.12","subject_id":"613246c4e0e8fd2e66ef9ea3","study_id":"6197b3f67c2b5cd3b6d9596a","session_id":"619be31b923644746611012a","condition":"contingent","relevant_dimensions":["antennae","wings"],"bee_group":{"antennae":"B","wings":"1","pattern":"X","legs":"X"},"bonus":0.9000000000000008},{"rt":2574.100000023842,"stimulus":"bees-with-color/bee-B2SF.svg","response":1,"trial_type":"image-button-response","trial_index":153,"time_elapsed":675446,"internal_node_id":"0.0-6.0-0.13","subject_id":"613246c4e0e8fd2e66ef9ea3","study_id":"6197b3f67c2b5cd3b6d9596a","session_id":"619be31b923644746611012a","condition":"contingent","relevant_dimensions":["antennae","wings"],"bee_group":{"antennae":"B","wings":"1","pattern":"X","legs":"X"},"bonus":0.9000000000000008},{"rt":1697.7000000476837,"stimulus":"bees-with-color/bee-B2DM.svg","response":1,"trial_type":"image-button-response","trial_index":154,"time_elapsed":677146,"internal_node_id":"0.0-6.0-0.14","subject_id":"613246c4e0e8fd2e66ef9ea3","study_id":"6197b3f67c2b5cd3b6d9596a","session_id":"619be31b923644746611012a","condition":"contingent","relevant_dimensions":["antennae","wings"],"bee_group":{"antennae":"B","wings":"1","pattern":"X","legs":"X"},"bonus":0.9000000000000008},{"rt":2068.100000023842,"stimulus":"bees-with-color/bee-A1SM.svg","response":0,"trial_type":"image-button-response","trial_index":155,"time_elapsed":679216,"internal_node_id":"0.0-6.0-0.15","subject_id":"613246c4e0e8fd2e66ef9ea3","study_id":"6197b3f67c2b5cd3b6d9596a","session_id":"619be31b923644746611012a","condition":"contingent","relevant_dimensions":["antennae","wings"],"bee_group":{"antennae":"B","wings":"1","pattern":"X","legs":"X"},"bonus":0.9000000000000008},{"rt":2532.5999999046326,"stimulus":"bees-with-color/bee-A1SM.svg","response":0,"trial_type":"image-button-response","trial_index":156,"time_elapsed":681750,"internal_node_id":"0.0-6.0-0.16","subject_id":"613246c4e0e8fd2e66ef9ea3","study_id":"6197b3f67c2b5cd3b6d9596a","session_id":"619be31b923644746611012a","condition":"contingent","relevant_dimensions":["antennae","wings"],"bee_group":{"antennae":"B","wings":"1","pattern":"X","legs":"X"},"bonus":0.9000000000000008},{"rt":2699.2000000476837,"stimulus":"bees-with-color/bee-A2DF.svg","response":0,"trial_type":"image-button-response","trial_index":157,"time_elapsed":684451,"internal_node_id":"0.0-6.0-0.17","subject_id":"613246c4e0e8fd2e66ef9ea3","study_id":"6197b3f67c2b5cd3b6d9596a","session_id":"619be31b923644746611012a","condition":"contingent","relevant_dimensions":["antennae","wings"],"bee_group":{"antennae":"B","wings":"1","pattern":"X","legs":"X"},"bonus":0.9000000000000008},{"rt":831.3999999761581,"stimulus":"bees-with-color/bee-A1DF.svg","response":0,"trial_type":"image-button-response","trial_index":158,"time_elapsed":685284,"internal_node_id":"0.0-6.0-0.18","subject_id":"613246c4e0e8fd2e66ef9ea3","study_id":"6197b3f67c2b5cd3b6d9596a","session_id":"619be31b923644746611012a","condition":"contingent","relevant_dimensions":["antennae","wings"],"bee_group":{"antennae":"B","wings":"1","pattern":"X","legs":"X"},"bonus":0.9000000000000008},{"rt":843.1000000238419,"stimulus":"bees-with-color/bee-B1SM.svg","response":1,"trial_type":"image-button-response","trial_index":159,"time_elapsed":686129,"internal_node_id":"0.0-6.0-0.19","subject_id":"613246c4e0e8fd2e66ef9ea3","study_id":"6197b3f67c2b5cd3b6d9596a","session_id":"619be31b923644746611012a","condition":"contingent","relevant_dimensions":["antennae","wings"],"bee_group":{"antennae":"B","wings":"1","pattern":"X","legs":"X"},"bonus":0.9000000000000008},{"rt":665.6000000238419,"stimulus":"bees-with-color/bee-B2DM.svg","response":1,"trial_type":"image-button-response","trial_index":160,"time_elapsed":686797,"internal_node_id":"0.0-6.0-0.20","subject_id":"613246c4e0e8fd2e66ef9ea3","study_id":"6197b3f67c2b5cd3b6d9596a","session_id":"619be31b923644746611012a","condition":"contingent","relevant_dimensions":["antennae","wings"],"bee_group":{"antennae":"B","wings":"1","pattern":"X","legs":"X"},"bonus":0.9000000000000008},{"rt":1105.3999999761581,"stimulus":"bees-with-color/bee-A1SF.svg","response":0,"trial_type":"image-button-response","trial_index":161,"time_elapsed":687904,"internal_node_id":"0.0-6.0-0.21","subject_id":"613246c4e0e8fd2e66ef9ea3","study_id":"6197b3f67c2b5cd3b6d9596a","session