[{"success":true,"trial_type":"fullscreen","trial_index":0,"time_elapsed":29724,"internal_node_id":"0.0-0.0","subject_id":"61059aa5965b49c3a415f5de","study_id":"6197b3f67c2b5cd3b6d9596a","session_id":"619beeec61642d18a1f89184","condition":"full-information","relevant_dimensions":["pattern","legs"],"bee_group":{"antennae":"X","wings":"X","pattern":"D","legs":"F"},"bonus":1.8000000000000012},{"success":true,"timeout":false,"failed_images":[],"failed_audio":[],"failed_video":[],"trial_type":"preload","trial_index":1,"time_elapsed":31933,"internal_node_id":"0.0-1.0","subject_id":"61059aa5965b49c3a415f5de","study_id":"6197b3f67c2b5cd3b6d9596a","session_id":"619beeec61642d18a1f89184","condition":"full-information","relevant_dimensions":["pattern","legs"],"bee_group":{"antennae":"X","wings":"X","pattern":"D","legs":"F"},"bonus":1.8000000000000012},{"rt":2823.7000000476837,"stimulus":"Welcome! Press any key to begin.","response":" ","trial_type":"html-keyboard-response","trial_index":2,"time_elapsed":34759,"internal_node_id":"0.0-2.0","subject_id":"61059aa5965b49c3a415f5de","study_id":"6197b3f67c2b5cd3b6d9596a","session_id":"619beeec61642d18a1f89184","condition":"full-information","relevant_dimensions":["pattern","legs"],"bee_group":{"antennae":"X","wings":"X","pattern":"D","legs":"F"},"bonus":1.8000000000000012},{"view_history":[{"page_index":0,"viewing_time":4345.5},{"page_index":1,"viewing_time":11485.100000023842},{"page_index":2,"viewing_time":13912.899999976158},{"page_index":3,"viewing_time":15059.600000023842},{"page_index":4,"viewing_time":8289.700000047684},{"page_index":5,"viewing_time":11859.799999952316},{"page_index":6,"viewing_time":11398.399999976158},{"page_index":7,"viewing_time":9392.300000071526},{"page_index":8,"viewing_time":14572.799999952316},{"page_index":9,"viewing_time":9610.399999976158},{"page_index":10,"viewing_time":10802.100000023842},{"page_index":11,"viewing_time":7360.899999976158},{"page_index":12,"viewing_time":20639},{"page_index":13,"viewing_time":2175.5},{"page_index":14,"viewing_time":3251}],"rt":154155.5,"trial_type":"instructions","trial_index":3,"time_elapsed":188909,"internal_node_id":"0.0-3.0-0.0","subject_id":"61059aa5965b49c3a415f5de","study_id":"6197b3f67c2b5cd3b6d9596a","session_id":"619beeec61642d18a1f89184","condition":"full-information","relevant_dimensions":["pattern","legs"],"bee_group":{"antennae":"X","wings":"X","pattern":"D","legs":"F"},"bonus":1.8000000000000012},{"rt":24732.100000023842,"response":{"Q0":["Two or six legs","Stripes or spots on body","Single or double wings","Antennae or no antennae"]},"question_order":[0],"trial_type":"survey-multi-select","trial_index":4,"time_elapsed":213649,"internal_node_id":"0.0-3.0-1.0","subject_id":"61059aa5965b49c3a415f5de","study_id":"6197b3f67c2b5cd3b6d9596a","session_id":"619beeec61642d18a1f89184","condition":"full-information","relevant_dimensions":["pattern","legs"],"bee_group":{"antennae":"X","wings":"X","pattern":"D","legs":"F"},"correct":true,"bonus":1.8000000000000012},{"rt":50416,"response":{"Q1":"No.","Q2":"Based on the four features of the bee.","Q3":"You learn if it was friendly or dangerous, but do not alter your bonus."},"question_order":[0,1,2],"trial_type":"survey-multi-choice","trial_index":5,"time_elapsed":264069,"internal_node_id":"0.0-3.0-2.0","subject_id":"61059aa5965b49c3a415f5de","study_id":"6197b3f67c2b5cd3b6d9596a","session_id":"619beeec61642d18a1f89184","condition":"full-information","relevant_dimensions":["pattern","legs"],"bee_group":{"antennae":"X","wings":"X","pattern":"D","legs":"F"},"correct":true,"bonus":1.8000000000000012},{"rt":9847.100000023842,"stimulus":"<p>Congrats, you got everything right<br>When you're ready, click the button below to continue to the experiment.</p>","response":0,"trial_type":"html-button-response","trial_index":6,"time_elapsed":273919,"internal_node_id":"0.0-3.0-3.0","subject_id":"61059aa5965b49c3a415f5de","study_id":"6197b3f67c2b5cd3b6d9596a","session_id":"619beeec61642d18a1f89184","condition":"full-information","relevant_dimensions":["pattern","legs"],"bee_group":{"antennae":"X","wings":"X","pattern":"D","legs":"F"},"bonus":1.8000000000000012},{"rt":20965.5,"stimulus":"bees-with-color/bee-A2DF.svg","response":1,"trial_type":"image-button-response","trial_index":7,"time_elapsed":294890,"internal_node_id":"0.0-4.0-0.0","subject_id":"61059aa5965b49c3a415f5de","study_id":"6197b3f67c2b5cd3b6d9596a","session_id":"619beeec61642d18a1f89184","condition":"full-information","relevant_dimensions":["pattern","legs"],"bee_group":{"antennae":"X","wings":"X","pattern":"D","legs":"F"},"action":"avoid","summary":"good-avoid","bonus":1.8000000000000012},{"rt":15406.899999976158,"stimulus":"\n                    <p><b>Action: <em>avoid</em></b></p>\n                    <p>This is the bee that you just saw.</p>\n                    <img src=\"bees-with-color/bee-A2DF.svg\" width=\"200\">\n                    <p><span class=\"greenText\">Good choice!</span>  This bee would have stung you.<br>Your bonus pay is unchanged, and remains at $0.54.</p>\n            ","response":0,"trial_type":"html-button-response","trial_index":8,"time_elapsed":310303,"internal_node_id":"0.0-4.0-1.0","subject_id":"61059aa5965b49c3a415f5de","study_id":"6197b3f67c2b5cd3b6d9596a","session_id":"619beeec61642d18a1f89184","condition":"full-information","relevant_dimensions":["pattern","legs"],"bee_group":{"antennae":"X","wings":"X","pattern":"D","legs":"F"},"bonus":1.8000000000000012},{"rt":25309.700000047684,"stimulus":"bees-with-color/bee-A2SM.svg","response":1,"trial_type":"image-button-response","trial_index":9,"time_elapsed":335617,"internal_node_id":"0.0-4.0-0.1","subject_id":"61059aa5965b49c3a415f5de","study_id":"6197b3f67c2b5cd3b6d9596a","session_id":"619beeec61642d18a1f89184","condition":"full-information","relevant_dimensions":["pattern","legs"],"bee_group":{"antennae":"X","wings":"X","pattern":"D","legs":"F"},"action":"avoid","summary":"bad-avoid","bonus":1.8000000000000012},{"rt":14567.800000071526,"stimulus":"\n                    <p><b>Action: <em>avoid</em></b></p>\n                    <p>This is the bee that you just saw.</p>\n                    <img src=\"bees-with-color/bee-A2SM.svg\" width=\"200\">\n                    <p><span class=\"redText\">Bad choice,</span> the bee was friendly.<br>Your bonus pay is unchanged, and remains at $0.54.</p>\n            ","response":0,"trial_type":"html-button-response","trial_index":10,"time_elapsed":350187,"internal_node_id":"0.0-4.0-1.1","subject_id":"61059aa5965b49c3a415f5de","study_id":"6197b3f67c2b5cd3b6d9596a","session_id":"619beeec61642d18a1f89184","condition":"full-information","relevant_dimensions":["pattern","legs"],"bee_group":{"antennae":"X","wings":"X","pattern":"D","legs":"F"},"bonus":1.8000000000000012},{"rt":31940.199999928474,"stimulus":"bees-with-color/bee-B2DM.svg","response":1,"trial_type":"image-button-response","trial_index":11,"time_elapsed":382131,"internal_node_id":"0.0-4.0-0.2","subject_id":"61059aa5965b49c3a415f5de","study_id":"6197b3f67c2b5cd3b6d9596a","session_id":"619beeec61642d18a1f89184","condition":"full-information","relevant_dimensions":["pattern","legs"],"bee_group":{"antennae":"X","wings":"X","pattern":"D","legs":"F"},"action":"avoid","summary":"bad-avoid","bonus":1.8000000000000012},{"rt":21264.600000023842,"stimulus":"\n                    <p><b>Action: <em>avoid</em></b></p>\n                    <p>This is the bee that you just saw.</p>\n                    <img src=\"bees-with-color/bee-B2DM.svg\" width=\"200\">\n                    <p><span class=\"redText\">Bad choice,</span> the bee was friendly.<br>Your bonus pay is unchanged, and remains at $0.54.</p>\n            ","response":0,"trial_type":"html-button-response","trial_index":12,"time_elapsed":403397,"internal_node_id":"0.0-4.0-1.2","subject_id":"61059aa5965b49c3a415f5de","study_id":"6197b3f67c2b5cd3b6d9596a","session_id":"619beeec61642d18a1f89184","condition":"full-information","relevant_dimensions":["pattern","legs"],"bee_group":{"antennae":"X","wings":"X","pattern":"D","legs":"F"},"bonus":1.8000000000000012},{"rt":19601.600000023842,"stimulus":"bees-with-color/bee-B2SF.svg","response":0,"trial_type":"image-button-response","trial_index":13,"time_elapsed":423001,"internal_node_id":"0.0-4.0-0.3","subject_id":"61059aa5965b49c3a415f5de","study_id":"6197b3f67c2b5cd3b6d9596a","session_id":"619beeec61642d18a1f89184","condition":"full-information","relevant_dimensions":["pattern","legs"],"bee_group":{"antennae":"X","wings":"X","pattern":"D","legs":"F"},"action":"harvest","summary":"good-harvest","bonus":1.8000000000000012},{"rt":71445.69999992847,"stimulus":"\n                    <p><b>Action: <em>harvest</em></b></p>\n                    <p>This is the bee that you just saw.</p>\n                    <img src=\"bees-with-color/bee-B2SF.svg\" width=\"200\">\n                    <p><span class=\"greenText\"><b>Successful harvest!</b></span><br>Your pay has increased by $0.02. Your bonus pay is now $0.56.</p>\n            ","response":0,"trial_type":"html-button-response","trial_index":14,"time_elapsed":494447,"internal_node_id":"0.0-4.0-1.3","subject_id":"61059aa5965b49c3a415f5de","study_id":"6197b3f67c2b5cd3b6d9596a","session_id":"619beeec61642d18a1f89184","condition":"full-information","relevant_dimensions":["pattern","legs"],"bee_group":{"antennae":"X","wings":"X","pattern":"D","legs":"F"},"bonus":1.8000000000000012},{"rt":18298,"stimulus":"bees-with-color/bee-A1DF.svg","response":1,"trial_type":"image-button-response","trial_index":15,"time_elapsed":512748,"internal_node_id":"0.0-4.0-0.4","subject_id":"61059aa5965b49c3a415f5de","study_id":"6197b3f67c2b5cd3b6d9596a","session_id":"619beeec61642d18a1f89184","condition":"full-information","relevant_dimensions":["pattern","legs"],"bee_group":{"antennae":"X","wings":"X","pattern":"D","legs":"F"},"action":"avoid","summary":"good-avoid","bonus":1.8000000000000012},{"rt":36455.89999997616,"stimulus":"\n                    <p><b>Action: <em>avoid</em></b></p>\n                    <p>This is the bee that you just saw.</p>\n                    <img src=\"bees-with-color/bee-A1DF.svg\" width=\"200\">\n                    <p><span class=\"greenText\">Good choice!</span>  This bee would have stung you.<br>Your bonus pay is unchanged, and remains at $0.56.</p>\n            ","response":0,"trial_type":"html-button-response","trial_index":16,"time_elapsed":549205,"internal_node_id":"0.0-4.0-1.4","subject_id":"61059aa5965b49c3a415f5de","study_id":"6197b3f67c2b5cd3b6d9596a","session_id":"619beeec61642d18a1f89184","condition":"full-information","relevant_dimensions":["pattern","legs"],"bee_group":{"antennae":"X","wings":"X","pattern":"D","legs":"F"},"bonus":1.8000000000000012},{"rt":1397.8999999761581,"stimulus":"bees-with-color/bee-B1DM.svg","response":1,"trial_type":"image-button-response","trial_index":17,"time_elapsed":550605,"internal_node_id":"0.0-4.0-0.5","subject_id":"61059aa5965b49c3a415f5de","study_id":"6197b3f67c2b5cd3b6d9596a","session_id":"619beeec61642d18a1f89184","condition":"full-information","relevant_dimensions":["pattern","legs"],"bee_group":{"antennae":"X","wings":"X","pattern":"D","legs":"F"},"action":"avoid","summary":"bad-avoid","bonus":1.8000000000000012},{"rt":61921.299999952316,"stimulus":"\n                    <p><b>Action: <em>avoid</em></b></p>\n                    <p>This is the bee that you just saw.</p>\n                    <img src=\"bees-with-color/bee-B1DM.svg\" width=\"200\">\n                    <p><span class=\"redText\">Bad choice,</span> the bee was friendly.<br>Your bonus pay is unchanged, and remains at $0.56.</p>\n            ","response":0,"trial_type":"html-button-response","trial_index":18,"time_elapsed":612526,"internal_node_id":"0.0-4.0-1.5","subject_id":"61059aa5965b49c3a415f5de","study_id":"6197b3f67c2b5cd3b6d9596a","session_id":"619beeec61642d18a1f89184","condition":"full-information","relevant_dimensions":["pattern","legs"],"bee_group":{"antennae":"X","wings":"X","pattern":"D","legs":"F"},"bonus":1.8000000000000012},{"rt":4419.300000071526,"stimulus":"bees-with-color/bee-B1SF.svg","response":1,"trial_type":"image-button-response","trial_index":19,"time_elapsed":616950,"internal_node_id":"0.0-4.0-0.6","subject_id":"61059aa5965b49c3a415f5de","study_id":"6197b3f67c2b5cd3b6d9596a","session_id":"619beeec61642d18a1f89184","condition":"full-information","relevant_dimensions":["pattern","legs"],"bee_group":{"antennae":"X","wings":"X","pattern":"D","legs":"F"},"action":"avoid","summary":"bad-avoid","bonus":1.8000000000000012},{"rt":1400.2000000476837,"stimulus":"\n                    <p><b>Action: <em>avoid</em></b></p>\n                    <p>This is the bee that you just saw.</p>\n                    <img src=\"bees-with-color/bee-B1SF.svg\" width=\"200\">\n                    <p><span class=\"redText\">Bad choice,</span> the bee was friendly.<br>Your bonus pay is unchanged, and remains at $0.56.</p>\n            ","response":0,"trial_type":"html-button-response","trial_index":20,"time_elapsed":618352,"internal_node_id":"0.0-4.0-1.6","subject_id":"61059aa5965b49c3a415f5de","study_id":"6197b3f67c2b5cd3b6d9596a","session_id":"619beeec61642d18a1f89184","condition":"full-information","relevant_dimensions":["pattern","legs"],"bee_group":{"antennae":"X","wings":"X","pattern":"D","legs":"F"},"bonus":1.8000000000000012},{"rt":3087.899999976158,"stimulus":"bees-with-color/bee-B2SM.svg","response":1,"trial_type":"image-button-response","trial_index":21,"time_elapsed":621444,"internal_node_id":"0.0-4.0-0.7","subject_id":"61059aa5965b49c3a415f5de","study_id":"6197b3f67c2b5cd3b6d9596a","session_id":"619beeec61642d18a1f89184","condition":"full-information","relevant_dimensions":["pattern","legs"],"bee_group":{"antennae":"X","wings":"X","pattern":"D","legs":"F"},"action":"avoid","summary":"bad-avoid","bonus":1.8000000000000012},{"rt":31936.399999976158,"stimulus":"\n                    <p><b>Action: <em>avoid</em></b></p>\n                    <p>This is the bee that you just saw.</p>\n                    <img src=\"bees-with-color/bee-B2SM.svg\" width=\"200\">\n                    <p><span class=\"redText\">Bad choice,</span> the bee was friendly.<br>Your bonus pay is unchanged, and remains at $0.56.</p>\n            ","response":0,"trial_type":"html-button-response","trial_index":22,"time_elapsed":653383,"internal_node_id":"0.0-4.0-1.7","subject_id":"61059aa5965b49c3a415f5de","study_id":"6197b3f67c2b5cd3b6d9596a","session_id":"619beeec61642d18a1f89184","condition":"full-information","relevant_dimensions":["pattern","legs"],"bee_group":{"antennae":"X","wings":"X","pattern":"D","legs":"F"},"bonus":1.8000000000000012},{"rt":3397.5,"stimulus":"bees-with-color/bee-A2SF.svg","response":1,"trial_type":"image-button-response","trial_index":23,"time_elapsed":656785,"internal_node_id":"0.0-4.0-0.8","subject_id":"61059aa5965b49c3a415f5de","study_id":"6197b3f67c2b5cd3b6d9596a","session_id":"619beeec61642d18a1f89184","condition":"full-information","relevant_dimensions":["pattern","legs"],"bee_group":{"antennae":"X","wings":"X","pattern":"D","legs":"F"},"action":"avoid","summary":"bad-avoid","bonus":1.8000000000000012},{"rt":42878,"stimulus":"\n                    <p><b>Action: <em>avoid</em></b></p>\n                    <p>This is the bee that you just saw.</p>\n                    <img src=\"bees-with-color/bee-A2SF.svg\" width=\"200\">\n                    <p><span class=\"redText\">Bad choice,</span> the bee was friendly.<br>Your bonus pay is unchanged, and remains at $0.56.</p>\n            ","response":0,"trial_type":"html-button-response","trial_index":24,"time_elapsed":699665,"internal_node_id":"0.0-4.0-1.8","subject_id":"61059aa5965b49c3a415f5de","study_id":"6197b3f67c2b5cd3b6d9596a","session_id":"619beeec61642d18a1f89184","condition":"full-information","relevant_dimensions":["pattern","legs"],"bee_group":{"antennae":"X","wings":"X","pattern":"D","legs":"F"},"bonus":1.8000000000000012},{"rt":3883.5,"stimulus":"bees-with-color/bee-B1DF.svg","response":1,"trial_type":"image-button-response","trial_index":25,"time_elapsed":703552,"internal_node_id":"0.0-4.0-0.9","subject_id":"61059aa5965b49c3a415f5de","study_id":"6197b3f67c2b5cd3b6d9596a","session_id":"619beeec61642d18a1f89184","condition":"full-information","relevant_dimensions":["pattern","legs"],"bee_group":{"antennae":"X","wings":"X","pattern":"D","legs":"F"},"action":"avoid","summary":"good-avoid","bonus":1.8000000000000012},{"rt":1126.5,"stimulus":"\n                    <p><b>Action: <em>avoid</em></b></p>\n                    <p>This is the bee that you just saw.</p>\n                    <img src=\"bees-with-color/bee-B1DF.svg\" width=\"200\">\n                    <p><span class=\"greenText\">Good choice!</span>  This bee would have stung you.<br>Your bonus pay is unchanged, and remains at $0.56.</p>\n            ","response":0,"trial_type":"html-button-response","trial_index":26,"time_elapsed":704683,"internal_node_id":"0.0-4.0-1.9","subject_id":"61059aa5965b49c3a415f5de","study_id":"6197b3f67c2b5cd3b6d9596a","session_id":"619beeec61642d18a1f89184","condition":"full-information","relevant_dimensions":["pattern","legs"],"bee_group":{"antennae":"X","wings":"X","pattern":"D","legs":"F"},"bonus":1.8000000000000012},{"rt":5176,"stimulus":"bees-with-color/bee-B2DF.svg","response":1,"trial_type":"image-button-response","trial_index":27,"time_elapsed":709863,"internal_node_id":"0.0-4.0-0.10","subject_id":"61059aa5965b49c3a415f5de","study_id":"6197b3f67c2b5cd3b6d9596a","session_id":"619beeec61642d18a1f89184","condition":"full-information","relevant_dimensions":["pattern","legs"],"bee_group":{"antennae":"X","wings":"X","pattern":"D","legs":"F"},"action":"avoid","summary":"good-avoid","bonus":1.8000000000000012},{"rt":1094.1999999284744,"stimulus":"\n                    <p><b>Action: <em>avoid</em></b></p>\n                    <p>This is the bee that you just saw.</p>\n                    <img src=\"bees-with-color/bee-B2DF.svg\" width=\"200\">\n                    <p><span class=\"greenText\">Good choice!</span>  This bee would have stung you.<br>Your bonus pay is unchanged, and remains at $0.56.</p>\n            ","response":0,"trial_type":"html-button-response","trial_index":28,"time_elapsed":710959,"internal_node_id":"0.0-4.0-1.10","subject_id":"61059aa5965b49c3a415f5de","study_id":"6197b3f67c2b5cd3b6d9596a","session_id":"619beeec61642d18a1f89184","condition":"full-information","relevant_dimensions":["pattern","legs"],"bee_group":{"antennae":"X","wings":"X","pattern":"D","legs":"F"},"bonus":1.8000000000000012},{"rt":7573.899999976158,"stimulus":"bees-with-color/bee-A1SF.svg","response":1,"trial_type":"image-button-response","trial_index":29,"time_elapsed":718535,"internal_node_id":"0.0-4.0-0.11","subject_id":"61059aa5965b49c3a415f5de","study_id":"6197b3f67c2b5cd3b6d9596a","session_id":"619beeec61642d18a1f89184","condition":"full-information","relevant_dimensions":["pattern","legs"],"bee_group":{"antennae":"X","wings":"X","pattern":"D","legs":"F"},"action":"avoid","summary":"bad-avoid","bonus":1.8000000000000012},{"rt":24984.600000023842,"stimulus":"\n                    <p><b>Action: <em>avoid</em></b></p>\n                    <p>This is the bee that you just saw.</p>\n                    <img src=\"bees-with-color/bee-A1SF.svg\" width=\"200\">\n                    <p><span class=\"redText\">Bad choice,</span> the bee was friendly.<br>Your bonus pay is unchanged, and remains at $0.56.</p>\n            ","response":0,"trial_type":"html-button-response","trial_index":30,"time_elapsed":743521,"internal_node_id":"0.0-4.0-1.11","subject_id":"61059aa5965b49c3a415f5de","study_id":"6197b3f67c2b5cd3b6d9596a","session_id":"619beeec61642d18a1f89184","condition":"full-information","relevant_dimensions":["pattern","legs"],"bee_group":{"antennae":"X","wings":"X","pattern":"D","legs":"F"},"bonus":1.8000000000000012},{"rt":7588.300000071526,"stimulus":"bees-with-color/bee-A2DM.svg","response":1,"trial_type":"image-button-response","trial_index":31,"time_elapsed":751113,"internal_node_id":"0.0-4.0-0.12","subject_id":"61059aa5965b49c3a415f5de","study_id":"6197b3f67c2b5cd3b6d9596a","session_id":"619beeec61642d18a1f89184","condition":"full-information","relevant_dimensions":["pattern","legs"],"bee_group":{"antennae":"X","wings":"X","pattern":"D","legs":"F"},"action":"avoid","summary":"bad-avoid","bonus":1.8000000000000012},{"rt":7694.899999976158,"stimulus":"\n                    <p><b>Action: <em>avoid</em></b></p>\n                    <p>This is the bee that you just saw.</p>\n                    <img src=\"bees-with-color/bee-A2DM.svg\" width=\"200\">\n                    <p><span class=\"redText\">Bad choice,</span> the bee was friendly.<br>Your bonus pay is unchanged, and remains at $0.56.</p>\n            ","response":0,"trial_type":"html-button-response","trial_index":32,"time_elapsed":758810,"internal_node_id":"0.0-4.0-1.12","subject_id":"61059aa5965b49c3a415f5de","study_id":"6197b3f67c2b5cd3b6d9596a","session_id":"619beeec61642d18a1f89184","condition":"full-information","relevant_dimensions":["pattern","legs"],"bee_group":{"antennae":"X","wings":"X","pattern":"D","legs":"F"},"bonus":1.8000000000000012},{"rt":3789.600000023842,"stimulus":"bees-with-color/bee-B1SM.svg","response":0,"trial_type":"image-button-response","trial_index":33,"time_elapsed":762604,"internal_node_id":"0.0-4.0-0.13","subject_id":"61059aa5965b49c3a415f5de","study_id":"6197b3f67c2b5cd3b6d9596a","session_id":"619beeec61642d18a1f89184","condition":"full-information","relevant_dimensions":["pattern","legs"],"bee_group":{"antennae":"X","wings":"X","pattern":"D","legs":"F"},"action":"harvest","summary":"good-harvest","bonus":1.8000000000000012},{"rt":1203,"stimulus":"\n                    <p><b>Action: <em>harvest</em></b></p>\n                    <p>This is the bee that you just saw.</p>\n                    <img src=\"bees-with-color/bee-B1SM.svg\" width=\"200\">\n                    <p><span class=\"greenText\"><b>Successful harvest!</b></span><br>Your pay has increased by $0.02. Your bonus pay is now $0.58.</p>\n            ","response":0,"trial_type":"html-button-response","trial_index":34,"time_elapsed":763809,"internal_node_id":"0.0-4.0-1.13","subject_id":"61059aa5965b49c3a415f5de","study_id":"6197b3f67c2b5cd3b6d9596a","session_id":"619beeec61642d18a1f89184","condition":"full-information","relevant_dimensions":["pattern","legs"],"bee_group":{"antennae":"X","wings":"X","pattern":"D","legs":"F"},"bonus":1.8000000000000012},{"rt":7008.200000047684,"stimulus":"bees-with-color/bee-A1SM.svg","response":0,"trial_type":"image-button-response","trial_index":35,"time_elapsed":770820,"internal_node_id":"0.0-4.0-0.14","subject_id":"61059aa5965b49c3a415f5de","study_id":"6197b3f67c2b5cd3b6d9596a","session_id":"619beeec61642d18a1f89184","condition":"full-information","relevant_dimensions":["pattern","legs"],"bee_group":{"antennae":"X","wings":"X","pattern":"D","legs":"F"},"action":"harvest","summary":"good-harvest","bonus":1.8000000000000012},{"rt":1996.2000000476837,"stimulus":"\n                    <p><b>Action: <em>harvest</em></b></p>\n                    <p>This is the bee that you just saw.</p>\n                    <img src=\"bees-with-color/bee-A1SM.svg\" width=\"200\">\n                    <p><span class=\"greenText\"><b>Successful harvest!</b></span><br>Your pay has increased by $0.02. Your bonus pay is now $0.60.</p>\n            ","response":0,"trial_type":"html-button-response","trial_index":36,"time_elapsed":772818,"internal_node_id":"0.0-4.0-1.14","subject_id":"61059aa5965b49c3a415f5de","study_id":"6197b3f67c2b5cd3b6d9596a","session_id":"619beeec61642d18a1f89184","condition":"full-information","relevant_dimensions":["pattern","legs"],"bee_group":{"antennae":"X","wings":"X","pattern":"D","legs":"F"},"bonus":1.8000000000000012},{"rt":3623.399999976158,"stimulus":"bees-with-color/bee-A1DM.svg","response":0,"trial_type":"image-button-response","trial_index":37,"time_elapsed":776444,"internal_node_id":"0.0-4.0-0.15","subject_id":"61059aa5965b49c3a415f5de","study_id":"6197b3f67c2b5cd3b6d9596a","session_id":"619beeec61642d18a1f89184","condition":"full-information","relevant_dimensions":["pattern","legs"],"bee_group":{"antennae":"X","wings":"X","pattern":"D","legs":"F"},"action":"harvest","summary":"good-harvest","bonus":1.8000000000000012},{"rt":1204.3000000715256,"stimulus":"\n                    <p><b>Action: <em>harvest</em></b></p>\n                    <p>This is the bee that you just saw.</p>\n                    <img src=\"bees-with-color/bee-A1DM.svg\" width=\"200\">\n                    <p><span class=\"greenText\"><b>Successful harvest!</b></span><br>Your pay has increased by $0.02. Your bonus pay is now $0.62.</p>\n            ","response":0,"trial_type":"html-button-response","trial_index":38,"time_elapsed":777651,"internal_node_id":"0.0-4.0-1.15","subject_id":"61059aa5965b49c3a415f5de","study_id":"6197b3f67c2b5cd3b6d9596a","session_id":"619beeec61642d18a1f89184","condition":"full-information","relevant_dimensions":["pattern","legs"],"bee_group":{"antennae":"X","wings":"X","pattern":"D","legs":"F"},"bonus":1.8000000000000012},{"rt":5715.200000047684,"stimulus":"bees-with-color/bee-A1SM.svg","response":0,"trial_type":"image-button-response","trial_index":39,"time_elapsed":783370,"internal_node_id":"0.0-4.0-0.16","subject_id":"61059aa5965b49c3a415f5de","study_id":"6197b3f67c2b5cd3b6d9596a","session_id":"619beeec61642d18a1f89184","condition":"full-information","relevant_dimensions":["pattern","legs"],"bee_group":{"antennae":"X","wings":"X","pattern":"D","legs":"F"},"action":"harvest","summary":"good-harvest","bonus":1.8000000000000012},{"rt":1126.5,"stimulus":"\n                    <p><b>Action: <em>harvest</em></b></p>\n                    <p>This is the bee that you just saw.</p>\n                    <img src=\"bees-with-color/bee-A1SM.svg\" width=\"200\">\n                    <p><span class=\"greenText\"><b>Successful harvest!</b></span><br>Your pay has increased by $0.02. Your bonus pay is now $0.64.</p>\n            ","response":0,"trial_type":"html-button-response","trial_index":40,"time_elapsed":784500,"internal_node_id":"0.0-4.0-1.16","subject_id":"61059aa5965b49c3a415f5de","study_id":"6197b3f67c2b5cd3b6d9596a","session_id":"619beeec61642d18a1f89184","condition":"full-information","relevant_dimensions":["pattern","legs"],"bee_group":{"antennae":"X","wings":"X","pattern":"D","legs":"F"},"bonus":1.8000000000000012},{"rt":17766.899999976158,"stimulus":"bees-with-color/bee-B1SM.svg","response":0,"trial_type":"image-button-response","trial_index":41,"time_elapsed":802345,"internal_node_id":"0.0-4.0-0.17","subject_id":"61059aa5965b49c3a415f5de","study_id":"6197b3f67c2b5cd3b6d9596a","session_id":"619beeec61642d18a1f89184","condition":"full-information","relevant_dimensions":["pattern","legs"],"bee_group":{"antennae":"X","wings":"X","pattern":"D","legs":"F"},"action":"harvest","summary":"good-harvest","bonus":1.8000000000000012},{"rt":921.3000000715256,"stimulus":"\n                    <p><b>Action: <em>harvest</em></b></p>\n                    <p>This is the bee that you just saw.</p>\n                    <img src=\"bees-with-color/bee-B1SM.svg\" width=\"200\">\n                    <p><span class=\"greenText\"><b>Successful harvest!</b></span><br>Your pay has increased by $0.02. Your bonus pay is now $0.66.</p>\n            ","response":0,"trial_type":"html-button-response","trial_index":42,"time_elapsed":803268,"internal_node_id":"0.0-4.0-1.17","subject_id":"61059aa5965b49c3a415f5de","study_id":"6197b3f67c2b5cd3b6d9596a","session_id":"619beeec61642d18a1f89184","condition":"full-information","relevant_dimensions":["pattern","legs"],"bee_group":{"antennae":"X","wings":"X","pattern":"D","legs":"F"},"bonus":1.8000000000000012},{"rt":11455.900000095367,"stimulus":"bees-with-color/bee-B1DM.svg","response":0,"trial_type":"image-button-response","trial_index":43,"time_elapsed":814728,"internal_node_id":"0.0-4.0-0.18","subject_id":"61059aa5965b49c3a415f5de","study_id":"6197b3f67c2b5cd3b6d9596a","session_id":"619beeec61642d18a1f89184","condition":"full-information","relevant_dimensions":["pattern","legs"],"bee_group":{"antennae":"X","wings":"X","pattern":"D","legs":"F"},"action":"harvest","summary":"good-harvest","bonus":1.8000000000000012},{"rt":3144.3000000715256,"stimulus":"\n                    <p><b>Action: <em>harvest</em></b></p>\n                    <p>This is the bee that you just saw.</p>\n                    <img src=\"bees-with-color/bee-B1DM.svg\" width=\"200\">\n                    <p><span class=\"greenText\"><b>Successful harvest!</b></span><br>Your pay has increased by $0.02. Your bonus pay is now $0.68.</p>\n            ","response":0,"trial_type":"html-button-response","trial_index":44,"time_elapsed":817874,"internal_node_id":"0.0-4.0-1.18","subject_id":"61059aa5965b49c3a415f5de","study_id":"6197b3f67c2b5cd3b6d9596a","session_id":"619beeec61642d18a1f89184","condition":"full-information","relevant_dimensions":["pattern","legs"],"bee_group":{"antennae":"X","wings":"X","pattern":"D","legs":"F"},"bonus":1.8000000000000012},{"rt":1541.1000000238419,"stimulus":"bees-with-color/bee-A1DM.svg","response":0,"trial_type":"image-button-response","trial_index":45,"time_elapsed":819419,"internal_node_id":"0.0-4.0-0.19","subject_id":"61059aa5965b49c3a415f5de","study_id":"6197b3f67c2b5cd3b6d9596a","session_id":"619beeec61642d18a1f89184","condition":"full-information","relevant_dimensions":["pattern","legs"],"bee_group":{"antennae":"X","wings":"X","pattern":"D","legs":"F"},"action":"harvest","summary":"good-harvest","bonus":1.8000000000000012},{"rt":1205.3999999761581,"stimulus":"\n                    <p><b>Action: <em>harvest</em></b></p>\n                    <p>This is the bee that you just saw.</p>\n                    <img src=\"bees-with-color/bee-A1DM.svg\" width=\"200\">\n                    <p><span class=\"greenText\"><b>Successful harvest!</b></span><br>Your pay has increased by $0.02. Your bonus pay is now $0.70.</p>\n            ","response":0,"trial_type":"html-button-response","trial_index":46,"time_elapsed":820626,"internal_node_id":"0.0-4.0-1.19","subject_id":"61059aa5965b49c3a415f5de","study_id":"6197b3f67c2b5cd3b6d9596a","session_id":"619beeec61642d18a1f89184","condition":"full-information","relevant_dimensions":["pattern","legs"],"bee_group":{"antennae":"X","wings":"X","pattern":"D","legs":"F"},"bonus":1.8000000000000012},{"rt":9251.5,"stimulus":"bees-with-color/bee-A2SF.svg","response":0,"trial_type":"image-button-response","trial_index":47,"time_elapsed":829880,"internal_node_id":"0.0-4.0-0.20","subject_id":"61059aa5965b49c3a415f5de","study_id":"6197b3f67c2b5cd3b6d9596a","session_id":"619beeec61642d18a1f89184","condition":"full-information","relevant_dimensions":["pattern","legs"],"bee_group":{"antennae":"X","wings":"X","pattern":"D","legs":"F"},"action":"harvest","summary":"good-harvest","bonus":1.8000000000000012},{"rt":1015.6999999284744,"stimulus":"\n                    <p><b>Action: <em>harvest</em></b></p>\n                    <p>This is the bee that you just saw.</p>\n                    <img src=\"bees-with-color/bee-A2SF.svg\" width=\"200\">\n                    <p><span class=\"greenText\"><b>Successful harvest!</b></span><br>Your pay has increased by $0.02. Your bonus pay is now $0.72.</p>\n            ","response":0,"trial_type":"html-button-response","trial_index":48,"time_elapsed":830898,"internal_node_id":"0.0-4.0-1.20","subject_id":"61059aa5965b49c3a415f5de","study_id":"6197b3f67c2b5cd3b6d9596a","session_id":"619beeec61642d18a1f89184","condition":"full-information","relevant_dimensions":["pattern","legs"],"bee_group":{"antennae":"X","wings":"X","pattern":"D","legs":"F"},"bonus":1.8000000000000012},{"rt":1515.3999999761581,"stimulus":"bees-with-color/bee-B2DF.svg","response":1,"trial_type":"image-button-response","trial_index":49,"time_elapsed":832417,"internal_node_id":"0.0-4.0-0.21","subject_id":"61059aa5965b49c3a415f5de","study_id":"6197b3f67c2b5cd3b6d9596a","session_id":"619beeec61642d18a1f89184","condition":"full-information","relevant_dimensions":["pattern","legs"],"bee_group":{"antennae":"X","wings":"X","pattern":"D","legs":"F"},"action":"avoid","summary":"good-avoid","bonus":1.8000000000000012},{"rt":2535.5,"stimulus":"\n                    <p><b>Action: <em>avoid</em></b></p>\n                    <p>This is the bee that you just saw.</p>\n                    <img src=\"bees-with-color/bee-B2DF.svg\" width=\"200\">\n                    <p><span class=\"greenText\">Good choice!</span>  This bee would have stung you.<br>Your bonus pay is unchanged, and remains at $0.72.</p>\n            ","response":0,"trial_type":"html-button-response","trial_index":50,"time_elapsed":834955,"internal_node_id":"0.0-4.0-1.21","subject_id":"61059aa5965b49c3a415f5de","study_id":"6197b3f67c2b5cd3b6d9596a","session_id":"619beeec61642d18a1f89184","condition":"full-information","relevant_dimensions":["pattern","legs"],"bee_group":{"antennae":"X","wings":"X","pattern":"D","legs":"F"},"bonus":1.8000000000000012},{"rt":1176.2999999523163,"stimulus":"bees-with-color/bee-A2DF.svg","response":1,"trial_type":"image-button-response","trial_index":51,"time_elapsed":836133,"internal_node_id":"0.0-4.0-0.22","subject_id":"61059aa5965b49c3a415f5de","study_id":"6197b3f67c2b5cd3b6d9596a","session_id":"619beeec61642d18a1f89184","condition":"full-information","relevant_dimensions":["pattern","legs"],"bee_group":{"antennae":"X","wings":"X","pattern":"D","legs":"F"},"action":"avoid","summary":"good-avoid","bonus":1.8000000000000012},{"rt":1110.0999999046326,"stimulus":"\n                    <p><b>Action: <em>avoid</em></b></p>\n                    <p>This is the bee that you just saw.</p>\n                    <img src=\"bees-with-color/bee-A2DF.svg\" width=\"200\">\n                    <p><span class=\"greenText\">Good choice!</span>  This bee would have stung you.<br>Your bonus pay is unchanged, and remains at $0.72.</p>\n            ","response":0,"trial_type":"html-button-response","trial_index":52,"time_elapsed":837247,"internal_node_id":"0.0-4.0-1.22","subject_id":"61059aa5965b49c3a415f5de","study_id":"6197b3f67c2b5cd3b6d9596a","session_id":"619beeec61642d18a1f89184","condition":"full-information","relevant_dimensions":["pattern","legs"],"bee_group":{"antennae":"X","wings":"X","pattern":"D","legs":"F"},"bonus":1.8000000000000012},{"rt":1220.5,"stimulus":"bees-with-color/bee-A2SM.svg","response":0,"trial_type":"image-button-response","trial_index":53,"time_elapsed":838470,"internal_node_id":"0.0-4.0-0.23","subject_id":"61059aa5965b49c3a415f5de","study_id":"6197b3f67c2b5cd3b6d9596a","session_id":"619beeec61642d18a1f89184","condition":"full-information","relevant_dimensions":["pattern","legs"],"bee_group":{"antennae":"X","wings":"X","pattern":"D","legs":"F"},"action":"harvest","summary":"good-harvest","bonus":1.8000000000000012},{"rt":1102.3999999761581,"stimulus":"\n                    <p><b>Action: <em>harvest</em></b></p>\n                    <p>This is the bee that you just saw.</p>\n                    <img src=\"bees-with-color/bee-A2SM.svg\" width=\"200\">\n                    <p><span class=\"greenText\"><b>Successful harvest!</b></span><br>Your pay has increased by $0.02. Your bonus pay is now $0.74.</p>\n            ","response":0,"trial_type":"html-button-response","trial_index":54,"time_elapsed":839574,"internal_node_id":"0.0-4.0-1.23","subject_id":"61059aa5965b49c3a415f5de","study_id":"6197b3f67c2b5cd3b6d9596a","session_id":"619beeec61642d18a1f89184","condition":"full-information","relevant_dimensions":["pattern","legs"],"bee_group":{"antennae":"X","wings":"X","pattern":"D","legs":"F"},"bonus":1.8000000000000012},{"rt":1636.8000000715256,"stimulus":"bees-with-color/bee-B1DF.svg","response":1,"trial_type":"image-button-response","trial_index":55,"time_elapsed":841213,"internal_node_id":"0.0-4.0-0.24","subject_id":"61059aa5965b49c3a415f5de","study_id":"6197b3f67c2b5cd3b6d9596a","session_id":"619beeec61642d18a1f89184","condition":"full-information","relevant_dimensions":["pattern","legs"],"bee_group":{"antennae":"X","wings":"X","pattern":"D","legs":"F"},"action":"avoid","summary":"good-avoid","bonus":1.8000000000000012},{"rt":1015.7999999523163,"stimulus":"\n                    <p><b>Action: <em>avoid</em></b></p>\n                    <p>This is the bee that you just saw.</p>\n                    <img src=\"bees-with-color/bee-B1DF.svg\" width=\"200\">\n                    <p><span class=\"greenText\">Good choice!</span>  This bee would have stung you.<br>Your bonus pay is unchanged, and remains at $0.74.</p>\n            ","response":0,"trial_type":"html-button-response","trial_index":56,"time_elapsed":842231,"internal_node_id":"0.0-4.0-1.24","subject_id":"61059aa5965b49c3a415f5de","study_id":"6197b3f67c2b5cd3b6d9596a","session_id":"619beeec61642d18a1f89184","condition":"full-information","relevant_dimensions":["pattern","legs"],"bee_group":{"antennae":"X","wings":"X","pattern":"D","legs":"F"},"bonus":1.8000000000000012},{"rt":11010,"stimulus":"bees-with-color/bee-A1SF.svg","response":0,"trial_type":"image-button-response","trial_index":57,"time_elapsed":853242,"internal_node_id":"0.0-4.0-0.25","subject_id":"61059aa5965b49c3a415f5de","study_id":"6197b3f67c2b5cd3b6d9596a","session_id":"619beeec61642d18a1f89184","condition":"full-information","relevant_dimensions":["pattern","legs"],"bee_group":{"antennae":"X","wings":"X","pattern":"D","legs":"F"},"action":"harvest","summary":"good-harvest","bonus":1.8000000000000012},{"rt":931.5999999046326,"stimulus":"\n                    <p><b>Action: <em>harvest</em></b></p>\n                    <p>This is the bee that you just saw.</p>\n                    <img src=\"bees-with-color/bee-A1SF.svg\" width=\"200\">\n                    <p><span class=\"greenText\"><b>Successful harvest!</b></span><br>Your pay has increased by $0.02. Your bonus pay is now $0.76.</p>\n            ","response":0,"trial_type":"html-button-response","trial_index":58,"time_elapsed":854175,"internal_node_id":"0.0-4.0-1.25","subject_id":"61059aa5965b49c3a415f5de","study_id":"6197b3f67c2b5cd3b6d9596a","session_id":"619beeec61642d18a1f89184","condition":"full-information","relevant_dimensions":["pattern","legs"],"bee_group":{"antennae":"X","wings":"X","pattern":"D","legs":"F"},"bonus":1.8000000000000012},{"rt":6816.5,"stimulus":"bees-with-color/bee-B1SF.svg","response":1,"trial_type":"image-button-response","trial_index":59,"time_elapsed":860994,"internal_node_id":"0.0-4.0-0.26","subject_id":"61059aa5965b49c3a415f5de","study_id":"6197b3f67c2b5cd3b6d9596a","session_id":"619beeec61642d18a1f89184","condition":"full-information","relevant_dimensions":["pattern","legs"],"bee_group":{"antennae":"X","wings":"X","pattern":"D","legs":"F"},"action":"avoid","summary":"bad-avoid","bonus":1.8000000000000012},{"rt":1066.0999999046326,"stimulus":"\n                    <p><b>Action: <em>avoid</em></b></p>\n                    <p>This is the bee that you just saw.</p>\n                    <img src=\"bees-with-color/bee-B1SF.svg\" width=\"200\">\n                    <p><span class=\"redText\">Bad choice,</span> the bee was friendly.<br>Your bonus pay is unchanged, and remains at $0.76.</p>\n            ","response":0,"trial_type":"html-button-response","trial_index":60,"time_elapsed":862063,"internal_node_id":"0.0-4.0-1.26","subject_id":"61059aa5965b49c3a415f5de","study_id":"6197b3f67c2b5cd3b6d9596a","session_id":"619beeec61642d18a1f89184","condition":"full-information","relevant_dimensions":["pattern","legs"],"bee_group":{"antennae":"X","wings":"X","pattern":"D","legs":"F"},"bonus":1.8000000000000012},{"rt":1502.8000000715256,"stimulus":"bees-with-color/bee-B2DM.svg","response":0,"trial_type":"image-button-response","trial_index":61,"time_elapsed":863571,"internal_node_id":"0.0-4.0-0.27","subject_id":"61059aa5965b49c3a415f5de","study_id":"6197b3f67c2b5cd3b6d9596a","session_id":"619beeec61642d18a1f89184","condition":"full-information","relevant_dimensions":["pattern","legs"],"bee_group":{"antennae":"X","wings":"X","pattern":"D","legs":"F"},"action":"harvest","summary":"good-harvest","bonus":1.8000000000000012},{"rt":886.7999999523163,"stimulus":"\n                    <p><b>Action: <em>harvest</em></b></p>\n                    <p>This is the bee that you just saw.</p>\n                    <img src=\"bees-with-color/bee-B2DM.svg\" width=\"200\">\n                    <p><span class=\"greenText\"><b>Successful harvest!</b></span><br>Your pay has increased by $0.02. Your bonus pay is now $0.78.</p>\n            ","response":0,"trial_type":"html-button-response","trial_index":62,"time_elapsed":864460,"internal_node_id":"0.0-4.0-1.27","subject_id":"61059aa5965b49c3a415f5de","study_id":"6197b3f67c2b5cd3b6d9596a","session_id":"619beeec61642d18a1f89184","condition":"full-information","relevant_dimensions":["pattern","legs"],"bee_group":{"antennae":"X","wings":"X","pattern":"D","legs":"F"},"bonus":1.8000000000000012},{"rt":1993.8000000715256,"stimulus":"bees-with-color/bee-B2SF.svg","response":0,"trial_type":"image-button-response","trial_index":63,"time_elapsed":866458,"internal_node_id":"0.0-4.0-0.28","subject_id":"61059aa5965b49c3a415f5de","study_id":"6197b3f67c2b5cd3b6d9596a","session_id":"619beeec61642d18a1f89184","condition":"full-information","relevant_dimensions":["pattern","legs"],"bee_group":{"antennae":"X","wings":"X","pattern":"D","legs":"F"},"action":"harvest","summary":"good-harvest","bonus":1.8000000000000012},{"rt":872.4000000953674,"stimulus":"\n                    <p><b>Action: <em>harvest</em></b></p>\n                    <p>This is the bee that you just saw.</p>\n                    <img src=\"bees-with-color/bee-B2SF.svg\" width=\"200\">\n                    <p><span class=\"greenText\"><b>Successful harvest!</b></span><br>Your pay has increased by $0.02. Your bonus pay is now $0.80.</p>\n            ","response":0,"trial_type":"html-button-response","trial_index":64,"time_elapsed":867333,"internal_node_id":"0.0-4.0-1.28","subject_id":"61059aa5965b49c3a415f5de","study_id":"6197b3f67c2b5cd3b6d9596a","session_id":"619beeec61642d18a1f89184","condition":"full-information","relevant_dimensions":["pattern","legs"],"bee_group":{"antennae":"X","wings":"X","pattern":"D","legs":"F"},"bonus":1.8000000000000012},{"rt":7594.799999952316,"stimulus":"bees-with-color/bee-A2DM.svg","response":0,"trial_type":"image-button-response","trial_index":65,"time_elapsed":874929,"internal_node_id":"0.0-4.0-0.29","subject_id":"61059aa5965b49c3a415f5de","study_id":"6197b3f67c2b5cd3b6d9596a","session_id":"619beeec61642d18a1f89184","condition":"full-information","relevant_dimensions":["pattern","legs"],"bee_group":{"antennae":"X","wings":"X","pattern":"D","legs":"F"},"action":"harvest","summary":"good-harvest","bonus":1.8000000000000012},{"rt":993.1000000238419,"stimulus":"\n                    <p><b>Action: <em>harvest</em></b></p>\n                    <p>This is the bee that you just saw.</p>\n                    <img src=\"bees-with-color/bee-A2DM.svg\" width=\"200\">\n                    <p><span class=\"greenText\"><b>Successful harvest!</b></span><br>Your pay has increased by $0.02. Your bonus pay is now $0.82.</p>\n            ","response":0,"trial_type":"html-button-response","trial_index":66,"time_elapsed":875925,"internal_node_id":"0.0-4.0-1.29","subject_id":"61059aa5965b49c3a415f5de","study_id":"6197b3f67c2b5cd3b6d9596a","session_id":"619beeec61642d18a1f89184","condition":"full-information","relevant_dimensions":["pattern","legs"],"bee_group":{"antennae":"X","wings":"X","pattern":"D","legs":"F"},"bonus":1.8000000000000012},{"rt":1356.3999999761581,"stimulus":"bees-with-color/bee-A1DF.svg","response":1,"trial_type":"image-button-response","trial_index":67,"time_elapsed":877285,"internal_node_id":"0.0-4.0-0.30","subject_id":"61059aa5965b49c3a415f5de","study_id":"6197b3f67c2b5cd3b6d9596a","session_id":"619beeec61642d18a1f89184","condition":"full-information","relevant_dimensions":["pattern","legs"],"bee_group":{"antennae":"X","wings":"X","pattern":"D","legs":"F"},"action":"avoid","summary":"good-avoid","bonus":1.8000000000000012},{"rt":1393.8999999761581,"stimulus":"\n                    <p><b>Action: <em>avoid</em></b></p>\n                    <p>This is the bee that you just saw.</p>\n                    <img src=\"bees-with-color/bee-A1DF.svg\" width=\"200\">\n                    <p><span class=\"greenText\">Good choice!</span>  This bee would have stung you.<br>Your bonus pay is unchanged, and remains at $0.82.</p>\n            ","response":0,"trial_type":"html-button-response","trial_index":68,"time_elapsed":878681,"internal_node_id":"0.0-4.0-1.30","subject_id":"61059aa5965b49c3a415f5de","study_id":"6197b3f67c2b5cd3b6d9596a","session_id":"619beeec61642d18a1f89184","condition":"full-information","relevant_dimensions":["pattern","legs"],"bee_group":{"antennae":"X","wings":"X","pattern":"D","legs":"F"},"bonus":1.8000000000000012},{"rt":1197.7999999523163,"stimulus":"bees-with-color/bee-B2SM.svg","response":0,"trial_type":"image-button-response","trial_index":69,"time_elapsed":879883,"internal_node_id":"0.0-4.0-0.31","subject_id":"61059aa5965b49c3a415f5de","study_id":"6197b3f67c2b5cd3b6d9596a","session_id":"619beeec61642d18a1f89184","condition":"full-information","relevant_dimensions":["pattern","legs"],"bee_group":{"antennae":"X","wings":"X","pattern":"D","legs":"F"},"action":"harvest","summary":"good-harvest","bonus":1.8000000000000012},{"rt":1116.3999999761581,"stimulus":"\n                    <p><b>Action: <em>harvest</em></b></p>\n                    <p>This is the bee that you just saw.</p>\n                    <img src=\"bees-with-color/bee-B2SM.svg\" width=\"200\">\n                    <p><span class=\"greenText\"><b>Successful harvest!</b></span><br>Your pay has increased by $0.02. Your bonus pay is now $0.84.</p>\n            ","response":0,"trial_type":"html-button-response","trial_index":70,"time_elapsed":881003,"internal_node_id":"0.0-4.0-1.31","subject_id":"61059aa5965b49c3a415f5de","study_id":"6197b3f67c2b5cd3b6d9596a","session_id":"619beeec61642d18a1f89184","condition":"full-information","relevant_dimensions":["pattern","legs"],"bee_group":{"antennae":"X","wings":"X","pattern":"D","legs":"F"},"bonus":1.8000000000000012},{"rt":1519.2999999523163,"stimulus":"bees-with-color/bee-B1DM.svg","response":0,"trial_type":"image-button-response","trial_index":71,"time_elapsed":882524,"internal_node_id":"0.0-4.0-0.32","subject_id":"61059aa5965b49c3a415f5de","study_id":"6197b3f67c2b5cd3b6d9596a","session_id":"619beeec61642d18a1f89184","condition":"full-information","relevant_dimensions":["pattern","legs"],"bee_group":{"antennae":"X","wings":"X","pattern":"D","legs":"F"},"action":"harvest","summary":"good-harvest","bonus":1.8000000000000012},{"rt":803,"stimulus":"\n                    <p><b>Action: <em>harvest</em></b></p>\n                    <p>This is the bee that you just saw.</p>\n                    <img src=\"bees-with-color/bee-B1DM.svg\" width=\"200\">\n                    <p><span class=\"greenText\"><b>Successful harvest!</b></span><br>Your pay has increased by $0.02. Your bonus pay is now $0.86.</p>\n            ","response":0,"trial_type":"html-button-response","trial_index":72,"time_elapsed":883331,"internal_node_id":"0.0-4.0-1.32","subject_id":"61059aa5965b49c3a415f5de","study_id":"6197b3f67c2b5cd3b6d9596a","session_id":"619beeec61642d18a1f89184","condition":"full-information","relevant_dimensions":["pattern","legs"],"bee_group":{"antennae":"X","wings":"X","pattern":"D","legs":"F"},"bonus":1.8000000000000012},{"rt":1423.5,"stimulus":"bees-with-color/bee-B1SF.svg","response":0,"trial_type":"image-button-response","trial_index":73,"time_elapsed":884756,"internal_node_id":"0.0-4.0-0.33","subject_id":"61059aa5965b49c3a415f5de","study_id":"6197b3f67c2b5cd3b6d9596a","session_id":"619beeec61642d18a1f89184","condition":"full-information","relevant_dimensions":["pattern","legs"],"bee_group":{"antennae":"X","wings":"X","pattern":"D","legs":"F"},"action":"harvest","summary":"good-harvest","bonus":1.8000000000000012},{"rt":783.8000000715256,"stimulus":"\n                    <p><b>Action: <em>harvest</em></b></p>\n                    <p>This is the bee that you just saw.</p>\n                    <img src=\"bees-with-color/bee-B1SF.svg\" width=\"200\">\n                    <p><span class=\"greenText\"><b>Successful harvest!</b></span><br>Your pay has increased by $0.02. Your bonus pay is now $0.88.</p>\n            ","response":0,"trial_type":"html-button-response","trial_index":74,"time_elapsed":885543,"internal_node_id":"0.0-4.0-1.33","subject_id":"61059aa5965b49c3a415f5de","study_id":"6197b3f67c2b5cd3b6d9596a","session_id":"619beeec61642d18a1f89184","condition":"full-information","relevant_dimensions":["pattern","legs"],"bee_group":{"antennae":"X","wings":"X","pattern":"D","legs":"F"},"bonus":1.8000000000000012},{"rt":1293.8000000715256,"stimulus":"bees-with-color/bee-A1DF.svg","response":1,"trial_type":"image-button-response","trial_index":75,"time_elapsed":886839,"internal_node_id":"0.0-4.0-0.34","subject_id":"61059aa5965b49c3a415f5de","study_id":"6197b3f67c2b5cd3b6d9596a","session_id":"619beeec61642d18a1f89184","condition":"full-information","relevant_dimensions":["pattern","legs"],"bee_group":{"antennae":"X","wings":"X","pattern":"D","legs":"F"},"action":"avoid","summary":"good-avoid","bonus":1.8000000000000012},{"rt":960.2000000476837,"stimulus":"\n                    <p><b>Action: <em>avoid</em></b></p>\n                    <p>This is the bee that you just saw.</p>\n                    <img src=\"bees-with-color/bee-A1DF.svg\" width=\"200\">\n                    <p><span class=\"greenText\">Good choice!</span>  This bee would have stung you.<br>Your bonus pay is unchanged, and remains at $0.88.</p>\n            ","response":0,"trial_type":"html-button-response","trial_index":76,"time_elapsed":887802,"internal_node_id":"0.0-4.0-1.34","subject_id":"61059aa5965b49c3a415f5de","study_id":"6197b3f67c2b5cd3b6d9596a","session_id":"619beeec61642d18a1f89184","condition":"full-information","relevant_dimensions":["pattern","legs"],"bee_group":{"antennae":"X","wings":"X","pattern":"D","legs":"F"},"bonus":1.8000000000000012},{"rt":1485.6000000238419,"stimulus":"bees-with-color/bee-A1SM.svg","response":0,"trial_type":"image-button-response","trial_index":77,"time_elapsed":889291,"internal_node_id":"0.0-4.0-0.35","subject_id":"61059aa5965b49c3a415f5de","study_id":"6197b3f67c2b5cd3b6d9596a","session_id":"619beeec61642d18a1f89184","condition":"full-information","relevant_dimensions":["pattern","legs"],"bee_group":{"antennae":"X","wings":"X","pattern":"D","legs":"F"},"action":"harvest","summary":"good-harvest","bonus":1.8000000000000012},{"rt":713.6999999284744,"stimulus":"\n                    <p><b>Action: <em>harvest</em></b></p>\n                    <p>This is the bee that you just saw.</p>\n                    <img src=\"bees-with-color/bee-A1SM.svg\" width=\"200\">\n                    <p><span class=\"greenText\"><b>Successful harvest!</b></span><br>Your pay has increased by $0.02. Your bonus pay is now $0.90.</p>\n            ","response":0,"trial_type":"html-button-response","trial_index":78,"time_elapsed":890007,"internal_node_id":"0.0-4.0-1.35","subject_id":"61059aa5965b49c3a415f5de","study_id":"6197b3f67c2b5cd3b6d9596a","session_id":"619beeec61642d18a1f89184","condition":"full-information","relevant_dimensions":["pattern","legs"],"bee_group":{"antennae":"X","wings":"X","pattern":"D","legs":"F"},"bonus":1.8000000000000012},{"rt":4303.599999904633,"stimulus":"bees-with-color/bee-A2SF.svg","response":0,"trial_type":"image-button-response","trial_index":79,"time_elapsed":894313,"internal_node_id":"0.0-4.0-0.36","subject_id":"61059aa5965b49c3a415f5de","study_id":"6197b3f67c2b5cd3b6d9596a","session_id":"619beeec61642d18a1f89184","condition":"full-information","relevant_dimensions":["pattern","legs"],"bee_group":{"antennae":"X","wings":"X","pattern":"D","legs":"F"},"action":"harvest","summary":"good-harvest","bonus":1.8000000000000012},{"rt":813.6999999284744,"stimulus":"\n                    <p><b>Action: <em>harvest</em></b></p>\n                    <p>This is the bee that you just saw.</p>\n                    <img src=\"bees-with-color/bee-A2SF.svg\" width=\"200\">\n                    <p><span class=\"greenText\"><b>Successful harvest!</b></span><br>Your pay has increased by $0.02. Your bonus pay is now $0.92.</p>\n            ","response":0,"trial_type":"html-button-response","trial_index":80,"time_elapsed":895129,"internal_node_id":"0.0-4.0-1.36","subject_id":"61059aa5965b49c3a415f5de","study_id":"6197b3f67c2b5cd3b6d9596a","session_id":"619beeec61642d18a1f89184","condition":"full-information","relevant_dimensions":["pattern","legs"],"bee_group":{"antennae":"X","wings":"X","pattern":"D","legs":"F"},"bonus":1.8000000000000012},{"rt":1075,"stimulus":"bees-with-color/bee-A2SM.svg","response":0,"trial_type":"image-button-response","trial_index":81,"time_elapsed":896207,"internal_node_id":"0.0-4.0-0.37","subject_id":"61059aa5965b49c3a415f5de","study_id":"6197b3f67c2b5cd3b6d9596a","session_id":"619beeec61642d18a1f89184","condition":"full-information","relevant_dimensions":["pattern","legs"],"bee_group":{"antennae":"X","wings":"X","pattern":"D","legs":"F"},"action":"harvest","summary":"good-harvest","bonus":1.8000000000000012},{"rt":866.4000000953674,"stimulus":"\n                    <p><b>Action: <em>harvest</em></b></p>\n                    <p>This is the bee that you just saw.</p>\n                    <img src=\"bees-with-color/bee-A2SM.svg\" width=\"200\">\n                    <p><span class=\"greenText\"><b>Successful harvest!</b></span><br>Your pay has increased by $0.02. Your bonus pay is now $0.94.</p>\n            ","response":0,"trial_type":"html-button-response","trial_index":82,"time_elapsed":897076,"internal_node_id":"0.0-4.0-1.37","subject_id":"61059aa5965b49c3a415f5de","study_id":"6197b3f67c2b5cd3b6d9596a","session_id":"619beeec61642d18a1f89184","condition":"full-information","relevant_dimensions":["pattern","legs"],"bee_group":{"antennae":"X","wings":"X","pattern":"D","legs":"F"},"bonus":1.8000000000000012},{"rt":1271.8000000715256,"stimulus":"bees-with-color/bee-A2DM.svg","response":0,"trial_type":"image-button-response","trial_index":83,"time_elapsed":898350,"internal_node_id":"0.0-4.0-0.38","subject_id":"61059aa5965b49c3a415f5de","study_id":"6197b3f67c2b5cd3b6d9596a","session_id":"619beeec61642d18a1f89184","condition":"full-information","relevant_dimensions":["pattern","legs"],"bee_group":{"antennae":"X","wings":"X","pattern":"D","legs":"F"},"action":"harvest","summary":"good-harvest","bonus":1.8000000000000012},{"rt":909.7999999523163,"stimulus":"\n                    <p><b>Action: <em>harvest</em></b></p>\n                    <p>This is the bee that you just saw.</p>\n                    <img src=\"bees-with-color/bee-A2DM.svg\" width=\"200\">\n                    <p><span class=\"greenText\"><b>Successful harvest!</b></span><br>Your pay has increased by $0.02. Your bonus pay is now $0.96.</p>\n            ","response":0,"trial_type":"html-button-response","trial_index":84,"time_elapsed":899262,"internal_node_id":"0.0-4.0-1.38","subject_id":"61059aa5965b49c3a415f5de","study_id":"6197b3f67c2b5cd3b6d9596a","session_id":"619beeec61642d18a1f89184","condition":"full-information","relevant_dimensions":["pattern","legs"],"bee_group":{"antennae":"X","wings":"X","pattern":"D","legs":"F"},"bonus":1.8000000000000012},{"rt":1214.5,"stimulus":"bees-with-color/bee-B1DF.svg","response":1,"trial_type":"image-button-response","trial_index":85,"time_elapsed":900478,"internal_node_id":"0.0-4.0-0.39","subject_id":"61059aa5965b49c3a415f5de","study_id":"6197b3f67c2b5cd3b6d9596a","session_id":"619beeec61642d18a1f89184","condition":"full-information","relevant_dimensions":["pattern","legs"],"bee_group":{"antennae":"X","wings":"X","pattern":"D","legs":"F"},"action":"avoid","summary":"good-avoid","bonus":1.8000000000000012},{"rt":1027.3000000715256,"stimulus":"\n                    <p><b>Action: <em>avoid</em></b></p>\n                    <p>This is the bee that you just saw.</p>\n                    <img src=\"bees-with-color/bee-B1DF.svg\" width=\"200\">\n                    <p><span class=\"greenText\">Good choice!</span>  This bee would have stung you.<br>Your bonus pay is unchanged, and remains at $0.96.</p>\n            ","response":0,"trial_type":"html-button-response","trial_index":86,"time_elapsed":901507,"internal_node_id":"0.0-4.0-1.39","subject_id":"61059aa5965b49c3a415f5de","study_id":"6197b3f67c2b5cd3b6d9596a","session_id":"619beeec61642d18a1f89184","condition":"full-information","relevant_dimensions":["pattern","legs"],"bee_group":{"antennae":"X","wings":"X","pattern":"D","legs":"F"},"bonus":1.8000000000000012},{"rt":1293.2000000476837,"stimulus":"bees-with-color/bee-B2SF.svg","response":0,"trial_type":"image-button-response","trial_index":87,"time_elapsed":902803,"internal_node_id":"0.0-4.0-0.40","subject_id":"61059aa5965b49c3a415f5de","study_id":"6197b3f67c2b5cd3b6d9596a","session_id":"619beeec61642d18a1f89184","condition":"full-information","relevant_dimensions":["pattern","legs"],"bee_group":{"antennae":"X","wings":"X","pattern":"D","legs":"F"},"action":"harvest","summary":"good-harvest","bonus":1.8000000000000012},{"rt":1142,"stimulus":"\n                    <p><b>Action: <em>harvest</em></b></p>\n                    <p>This is the bee that you just saw.</p>\n                    <img src=\"bees-with-color/bee-B2SF.svg\" width=\"200\">\n                    <p><span class=\"greenText\"><b>Successful harvest!</b></span><br>Your pay has increased by $0.02. Your bonus pay is now $0.98.</p>\n            ","response":0,"trial_type":"html-button-response","trial_index":88,"time_elapsed":903947,"internal_node_id":"0.0-4.0-1.40","subject_id":"61059aa5965b49c3a415f5de","study_id":"6197b3f67c2b5cd3b6d9596a","session_id":"619beeec61642d18a1f89184","condition":"full-information","relevant_dimensions":["pattern","legs"],"bee_group":{"antennae":"X","wings":"X","pattern":"D","legs":"F"},"bonus":1.8000000000000012},{"rt":1567.3000000715256,"stimulus":"bees-with-color/bee-B2DM.svg","response":0,"trial_type":"image-button-response","trial_index":89,"time_elapsed":905516,"internal_node_id":"0.0-4.0-0.41","subject_id":"61059aa5965b49c3a415f5de","study_id":"6197b3f67c2b5cd3b6d9596a","session_id":"619beeec61642d18a1f89184","condition":"full-information","relevant_dimensions":["pattern","legs"],"bee_group":{"antennae":"X","wings":"X","pattern":"D","legs":"F"},"action":"harvest","summary":"good-harvest","bonus":1.8000000000000012},{"rt":727,"stimulus":"\n                    <p><b>Action: <em>harvest</em></b></p>\n                    <p>This is the bee that you just saw.</p>\n                    <img src=\"bees-with-color/bee-B2DM.svg\" width=\"200\">\n                    <p><span class=\"greenText\"><b>Successful harvest!</b></span><br>Your pay has increased by $0.02. Your bonus pay is now $1.00.</p>\n            ","response":0,"trial_type":"html-button-response","trial_index":90,"time_elapsed":906247,"internal_node_id":"0.0-4.0-1.41","subject_id":"61059aa5965b49c3a415f5de","study_id":"6197b3f67c2b5cd3b6d9596a","session_id":"619beeec61642d18a1f89184","condition":"full-information","relevant_dimensions":["pattern","legs"],"bee_group":{"antennae":"X","wings":"X","pattern":"D","legs":"F"},"bonus":1.8000000000000012},{"rt":1566.5,"stimulus":"bees-with-color/bee-A1SF.svg","response":0,"trial_type":"image-button-response","trial_index":91,"time_elapsed":907815,"internal_node_id":"0.0-4.0-0.42","subject_id":"61059aa5965b49c3a415f5de","study_id":"6197b3f67c2b5cd3b6d9596a","session_id":"619beeec61642d18a1f89184","condition":"full-information","relevant_dimensions":["pattern","legs"],"bee_group":{"antennae":"X","wings":"X","pattern":"D","legs":"F"},"action":"harvest","summary":"good-harvest","bonus":1.8000000000000012},{"rt":867,"stimulus":"\n                    <p><b>Action: <em>harvest</em></b></p>\n                    <p>This is the bee that you just saw.</p>\n                    <img src=\"bees-with-color/bee-A1SF.svg\" width=\"200\">\n                    <p><span class=\"greenText\"><b>Successful harvest!</b></span><br>Your pay has increased by $0.02. Your bonus pay is now $1.02.</p>\n            ","response":0,"trial_type":"html-button-response","trial_index":92,"time_elapsed":908684,"internal_node_id":"0.0-4.0-1.42","subject_id":"61059aa5965b49c3a415f5de","study_id":"6197b3f67c2b5cd3b6d9596a","session_id":"619beeec61642d18a1f89184","condition":"full-information","relevant_dimensions":["pattern","legs"],"bee_group":{"antennae":"X","wings":"X","pattern":"D","legs":"F"},"bonus":1.8000000000000012},{"rt":1236.1000000238419,"stimulus":"bees-with-color/bee-A1DM.svg","response":0,"trial_type":"image-button-response","trial_index":93,"time_elapsed":909924,"internal_node_id":"0.0-4.0-0.43","subject_id":"61059aa5965b49c3a415f5de","study_id":"6197b3f67c2b5cd3b6d9596a","session_id":"619beeec61642d18a1f89184","condition":"full-information","relevant_dimensions":["pattern","legs"],"bee_group":{"antennae":"X","wings":"X","pattern":"D","legs":"F"},"action":"harvest","summary":"good-harvest","bonus":1.8000000000000012},{"rt":977.1999999284744,"stimulus":"\n                    <p><b>Action: <em>harvest</em></b></p>\n                    <p>This is the bee that you just saw.</p>\n                    <img src=\"bees-with-color/bee-A1DM.svg\" width=\"200\">\n                    <p><span class=\"greenText\"><b>Successful harvest!</b></span><br>Your pay has increased by $0.02. Your bonus pay is now $1.04.</p>\n            ","response":0,"trial_type":"html-button-response","trial_index":94,"time_elapsed":910903,"internal_node_id":"0.0-4.0-1.43","subject_id":"61059aa5965b49c3a415f5de","study_id":"6197b3f67c2b5cd3b6d9596a","session_id":"619beeec61642d18a1f89184","condition":"full-information","relevant_dimensions":["pattern","legs"],"bee_group":{"antennae":"X","wings":"X","pattern":"D","legs":"F"},"bonus":1.8000000000000012},{"rt":1389.8000000715256,"stimulus":"bees-with-color/bee-B2DF.svg","response":1,"trial_type":"image-button-response","trial_index":95,"time_elapsed":912295,"internal_node_id":"0.0-4.0-0.44","subject_id":"61059aa5965b49c3a415f5de","study_id":"6197b3f67c2b5cd3b6d9596a","session_id":"619beeec61642d18a1f89184","condition":"full-information","relevant_dimensions":["pattern","legs"],"bee_group":{"antennae":"X","wings":"X","pattern":"D","legs":"F"},"action":"avoid","summary":"good-avoid","bonus":1.8000000000000012},{"rt":880.7999999523163,"stimulus":"\n                    <p><b>Action: <em>avoid</em></b></p>\n                    <p>This is the bee that you just saw.</p>\n                    <img src=\"bees-with-color/bee-B2DF.svg\" width=\"200\">\n                    <p><span class=\"greenText\">Good choice!</span>  This bee would have stung you.<br>Your bonus pay is unchanged, and remains at $1.04.</p>\n            ","response":0,"trial_type":"html-button-response","trial_index":96,"time_elapsed":913179,"internal_node_id":"0.0-4.0-1.44","subject_id":"61059aa5965b49c3a415f5de","study_id":"6197b3f67c2b5cd3b6d9596a","session_id":"619beeec61642d18a1f89184","condition":"full-information","relevant_dimensions":["pattern","legs"],"bee_group":{"antennae":"X","wings":"X","pattern":"D","legs":"F"},"bonus":1.8000000000000012},{"rt":1066.1000000238419,"stimulus":"bees-with-color/bee-B1SM.svg","response":0,"trial_type":"image-button-response","trial_index":97,"time_elapsed":914247,"internal_node_id":"0.0-4.0-0.45","subject_id":"61059aa5965b49c3a415f5de","study_id":"6197b3f67c2b5cd3b6d9596a","session_id":"619beeec61642d18a1f89184","condition":"full-information","relevant_dimensions":["pattern","legs"],"bee_group":{"antennae":"X","wings":"X","pattern":"D","legs":"F"},"action":"harvest","summary":"good-harvest","bonus":1.8000000000000012},{"rt":925.7000000476837,"stimulus":"\n                    <p><b>Action: <em>harvest</em></b></p>\n                    <p>This is the bee that you just saw.</p>\n                    <img src=\"bees-with-color/bee-B1SM.svg\" width=\"200\">\n                    <p><span class=\"greenText\"><b>Successful harvest!</b></span><br>Your pay has increased by $0.02. Your bonus pay is now $1.06.</p>\n            ","response":0,"trial_type":"html-button-response","trial_index":98,"time_elapsed":915175,"internal_node_id":"0.0-4.0-1.45","subject_id":"61059aa5965b49c3a415f5de","study_id":"6197b3f67c2b5cd3b6d9596a","session_id":"619beeec61642d18a1f89184","condition":"full-information","relevant_dimensions":["pattern","legs"],"bee_group":{"antennae":"X","wings":"X","pattern":"D","legs":"F"},"bonus":1.8000000000000012},{"rt":1278.6999999284744,"stimulus":"bees-with-color/bee-B2SM.svg","response":0,"trial_type":"image-button-response","trial_index":99,"time_elapsed":916455,"internal_node_id":"0.0-4.0-0.46","subject_id":"61059aa5965b49c3a415f5de","study_id":"6197b3f67c2b5cd3b6d9596a","session_id":"619beeec61642d18a1f89184","condition":"full-information","relevant_dimensions":["pattern","legs"],"bee_group":{"antennae":"X","wings":"X","pattern":"D","legs":"F"},"action":"harvest","summary":"good-harvest","bonus":1.8000000000000012},{"rt":843.2000000476837,"stimulus":"\n                    <p><b>Action: <em>harvest</em></b></p>\n                    <p>This is the bee that you just saw.</p>\n                    <img src=\"bees-with-color/bee-B2SM.svg\" width=\"200\">\n                    <p><span class=\"greenText\"><b>Successful harvest!</b></span><br>Your pay has increased by $0.02. Your bonus pay is now $1.08.</p>\n            ","response":0,"trial_type":"html-button-response","trial_index":100,"time_elapsed":917301,"internal_node_id":"0.0-4.0-1.46","subject_id":"61059aa5965b49c3a415f5de","study_id":"6197b3f67c2b5cd3b6d9596a","session_id":"619beeec61642d18a1f89184","condition":"full-information","relevant_dimensions":["pattern","legs"],"bee_group":{"antennae":"X","wings":"X","pattern":"D","legs":"F"},"bonus":1.8000000000000012},{"rt":1184.1000000238419,"stimulus":"bees-with-color/bee-A2DF.svg","response":1,"trial_type":"image-button-response","trial_index":101,"time_elapsed":918487,"internal_node_id":"0.0-4.0-0.47","subject_id":"61059aa5965b49c3a415f5de","study_id":"6197b3f67c2b5cd3b6d9596a","session_id":"619beeec61642d18a1f89184","condition":"full-information","relevant_dimensions":["pattern","legs"],"bee_group":{"antennae":"X","wings":"X","pattern":"D","legs":"F"},"action":"avoid","summary":"good-avoid","bonus":1.8000000000000012},{"rt":974.2000000476837,"stimulus":"\n                    <p><b>Action: <em>avoid</em></b></p>\n                    <p>This is the bee that you just saw.</p>\n                    <img src=\"bees-with-color/bee-A2DF.svg\" width=\"200\">\n                    <p><span class=\"greenText\">Good choice!</span>  This bee would have stung you.<br>Your bonus pay is unchanged, and remains at $1.08.</p>\n            ","response":0,"trial_type":"html-button-response","trial_index":102,"time_elapsed":919463,"internal_node_id":"0.0-4.0-1.47","subject_id":"61059aa5965b49c3a415f5de","study_id":"6197b3f67c2b5cd3b6d9596a","session_id":"619beeec61642d18a1f89184","condition":"full-information","relevant_dimensions":["pattern","legs"],"bee_group":{"antennae":"X","wings":"X","pattern":"D","legs":"F"},"bonus":1.8000000000000012},{"rt":1042.3999999761581,"stimulus":"bees-with-color/bee-A1SF.svg","response":0,"trial_type":"image-button-response","trial_index":103,"time_elapsed":920507,"internal_node_id":"0.0-4.0-0.48","subject_id":"61059aa5965b49c3a415f5de","study_id":"6197b3f67c2b5cd3b6d9596a","session_id":"619beeec61642d18a1f89184","condition":"full-information","relevant_dimensions":["pattern","legs"],"bee_group":{"antennae":"X","wings":"X","pattern":"D","legs":"F"},"action":"harvest","summary":"good-harvest","bonus":1.8000000000000012},{"rt":747.2000000476837,"stimulus":"\n                    <p><b>Action: <em>harvest</em></b></p>\n                    <p>This is the bee that you just saw.</p>\n                    <img src=\"bees-with-color/bee-A1SF.svg\" width=\"200\">\n                    <p><span class=\"greenText\"><b>Successful harvest!</b></span><br>Your pay has increased by $0.02. Your bonus pay is now $1.10.</p>\n            ","response":0,"trial_type":"html-button-response","trial_index":104,"time_elapsed":921257,"internal_node_id":"0.0-4.0-1.48","subject_id":"61059aa5965b49c3a415f5de","study_id":"6197b3f67c2b5cd3b6d9596a","session_id":"619beeec61642d18a1f89184","condition":"full-information","relevant_dimensions":["pattern","legs"],"bee_group":{"antennae":"X","wings":"X","pattern":"D","legs":"F"},"bonus":1.8000000000000012},{"rt":1172.8999999761581,"stimulus":"bees-with-color/bee-B1SM.svg","response":0,"trial_type":"image-button-response","trial_index":105,"time_elapsed":922431,"internal_node_id":"0.0-4.0-0.49","subject_id":"61059aa5965b49c3a415f5de","study_id":"6197b3f67c2b5cd3b6d9596a","session_id":"619beeec61642d18a1f89184","condition":"full-information","relevant_dimensions":["pattern","legs"],"bee_group":{"antennae":"X","wings":"X","pattern":"D","legs":"F"},"action":"harvest","summary":"good-harvest","bonus":1.8000000000000012},{"rt":851.8999999761581,"stimulus":"\n                    <p><b>Action: <em>harvest</em></b></p>\n                    <p>This is the bee that you just saw.</p>\n                    <img src=\"bees-with-color/bee-B1SM.svg\" width=\"200\">\n                    <p><span class=\"greenText\"><b>Successful harvest!</b></span><br>Your pay has increased by $0.02. Your bonus pay is now $1.12.</p>\n            ","response":0,"trial_type":"html-button-response","trial_index":106,"time_elapsed":923286,"internal_node_id":"0.0-4.0-1.49","subject_id":"61059aa5965b49c3a415f5de","study_id":"6197b3f67c2b5cd3b6d9596a","session_id":"619beeec61642d18a1f89184","condition":"full-information","relevant_dimensions":["pattern","legs"],"bee_group":{"antennae":"X","wings":"X","pattern":"D","legs":"F"},"bonus":1.8000000000000012},{"rt":1436.3999999761581,"stimulus":"bees-with-color/bee-B2SF.svg","response":0,"trial_type":"image-button-response","trial_index":107,"time_elapsed":924724,"internal_node_id":"0.0-4.0-0.50","subject_id":"61059aa5965b49c3a415f5de","study_id":"6197b3f67c2b5cd3b6d9596a","session_id":"619beeec61642d18a1f89184","condition":"full-information","relevant_dimensions":["pattern","legs"],"bee_group":{"antennae":"X","wings":"X","pattern":"D","legs":"F"},"action":"harvest","summary":"good-harvest","bonus":1.8000000000000012},{"rt":759.5,"stimulus":"\n                    <p><b>Action: <em>harvest</em></b></p>\n                    <p>This is the bee that you just saw.</p>\n                    <img src=\"bees-with-color/bee-B2SF.svg\" width=\"200\">\n                    <p><span class=\"greenText\"><b>Successful harvest!</b></span><br>Your pay has increased by $0.02. Your bonus pay is now $1.14.</p>\n            ","response":0,"trial_type":"html-button-response","trial_index":108,"time_elapsed":925485,"internal_node_id":"0.0-4.0-1.50","subject_id":"61059aa5965b49c3a415f5de","study_id":"6197b3f67c2b5cd3b6d9596a","session_id":"619beeec61642d18a1f89184","condition":"full-information","relevant_dimensions":["pattern","legs"],"bee_group":{"antennae":"X","wings":"X","pattern":"D","legs":"F"},"bonus":1.8000000000000012},{"rt":1317.6000000238419,"stimulus":"bees-with-color/bee-B2DF.svg","response":1,"trial_type":"image-button-response","trial_index":109,"time_elapsed":926805,"internal_node_id":"0.0-4.0-0.51","subject_id":"61059aa5965b49c3a415f5de","study_id":"6197b3f67c2b5cd3b6d9596a","session_id":"619beeec61642d18a1f89184","condition":"full-information","relevant_dimensions":["pattern","legs"],"bee_group":{"antennae":"X","wings":"X","pattern":"D","legs":"F"},"action":"avoid","summary":"good-avoid","bonus":1.8000000000000012},{"rt":1298,"stimulus":"\n                    <p><b>Action: <em>avoid</em></b></p>\n                    <p>This is the bee that you just saw.</p>\n                    <img src=\"bees-with-color/bee-B2DF.svg\" width=\"200\">\n                    <p><span class=\"greenText\">Good choice!</span>  This bee would have stung you.<br>Your bonus pay is unchanged, and remains at $1.14.</p>\n            ","response":0,"trial_type":"html-button-response","trial_index":110,"time_elapsed":928106,"internal_node_id":"0.0-4.0-1.51","subject_id":"61059aa5965b49c3a415f5de","study_id":"6197b3f67c2b5cd3b6d9596a","session_id":"619beeec61642d18a1f89184","condition":"full-information","relevant_dimensions":["pattern","legs"],"bee_group":{"antennae":"X","wings":"X","pattern":"D","legs":"F"},"bonus":1.8000000000000012},{"rt":1127.2000000476837,"stimulus":"bees-with-color/bee-B2DM.svg","response":0,"trial_type":"image-button-response","trial_index":111,"time_elapsed":929235,"internal_node_id":"0.0-4.0-0.52","subject_id":"61059aa5965b49c3a415f5de","study_id":"6197b3f67c2b5cd3b6d9596a","session_id":"619beeec61642d18a1f89184","condition":"full-information","relevant_dimensions":["pattern","legs"],"bee_group":{"antennae":"X","wings":"X","pattern":"D","legs":"F"},"action":"harvest","summary":"good-harvest","bonus":1.8000000000000012},{"rt":767.5,"stimulus":"\n                    <p><b>Action: <em>harvest</em></b></p>\n                    <p>This is the bee that you just saw.</p>\n                    <img src=\"bees-with-color/bee-B2DM.svg\" width=\"200\">\n                    <p><span class=\"greenText\"><b>Successful harvest!</b></span><br>Your pay has increased by $0.02. Your bonus pay is now $1.16.</p>\n            ","response":0,"trial_type":"html-button-response","trial_index":112,"time_elapsed":930004,"internal_node_id":"0.0-4.0-1.52","subject_id":"61059aa5965b49c3a415f5de","study_id":"6197b3f67c2b5cd3b6d9596a","session_id":"619beeec61642d18a1f89184","condition":"full-information","relevant_dimensions":["pattern","legs"],"bee_group":{"antennae":"X","wings":"X","pattern":"D","legs":"F"},"bonus":1.8000000000000012},{"rt":913.6000000238419,"stimulus":"bees-with-color/bee-A2SM.svg","response":0,"trial_type":"image-button-response","trial_index":113,"time_elapsed":930921,"internal_node_id":"0.0-4.0-0.53","subject_id":"61059aa5965b49c3a415f5de","study_id":"6197b3f67c2b5cd3b6d9596a","session_id":"619beeec61642d18a1f89184","condition":"full-information","relevant_dimensions":["pattern","legs"],"bee_group":{"antennae":"X","wings":"X","pattern":"D","legs":"F"},"action":"harvest","summary":"good-harvest","bonus":1.8000000000000012},{"rt":828.8999999761581,"stimulus":"\n                    <p><b>Action: <em>harvest</em></b></p>\n                    <p>This is the bee that you just saw.</p>\n                    <img src=\"bees-with-color/bee-A2SM.svg\" width=\"200\">\n                    <p><span class=\"greenText\"><b>Successful harvest!</b></span><br>Your pay has increased by $0.02. Your bonus pay is now $1.18.</p>\n            ","response":0,"trial_type":"html-button-response","trial_index":114,"time_elapsed":931752,"internal_node_id":"0.0-4.0-1.53","subject_id":"61059aa5965b49c3a415f5de","study_id":"6197b3f67c2b5cd3b6d9596a","session_id":"619beeec61642d18a1f89184","condition":"full-information","relevant_dimensions":["pattern","legs"],"bee_group":{"antennae":"X","wings":"X","pattern":"D","legs":"F"},"bonus":1.8000000000000012},{"rt":1468.6000000238419,"stimulus":"bees-with-color/bee-A1DM.svg","response":0,"trial_type":"image-button-response","trial_index":115,"time_elapsed":933222,"internal_node_id":"0.0-4.0-0.54","subject_id":"61059aa5965b49c3a415f5de","study_id":"6197b3f67c2b5cd3b6d9596a","session_id":"619beeec61642d18a1f89184","condition":"full-information","relevant_dimensions":["pattern","legs"],"bee_group":{"antennae":"X","wings":"X","pattern":"D","legs":"F"},"action":"harvest","summary":"good-harvest","bonus":1.8000000000000012},{"rt":709.5,"stimulus":"\n                    <p><b>Action: <em>harvest</em></b></p>\n                    <p>This is the bee that you just saw.</p>\n                    <img src=\"bees-with-color/bee-A1DM.svg\" width=\"200\">\n                    <p><span class=\"greenText\"><b>Successful harvest!</b></span><br>Your pay has increased by $0.02. Your bonus pay is now $1.20.</p>\n            ","response":0,"trial_type":"html-button-response","trial_index":116,"time_elapsed":933934,"internal_node_id":"0.0-4.0-1.54","subject_id":"61059aa5965b49c3a415f5de","study_id":"6197b3f67c2b5cd3b6d9596a","session_id":"619beeec61642d18a1f89184","condition":"full-information","relevant_dimensions":["pattern","legs"],"bee_group":{"antennae":"X","wings":"X","pattern":"D","legs":"F"},"bonus":1.8000000000000012},{"rt":1141.7000000476837,"stimulus":"bees-with-color/bee-A1DF.svg","response":1,"trial_type":"image-button-response","trial_index":117,"time_elapsed":935078,"internal_node_id":"0.0-4.0-0.55","subject_id":"61059aa5965b49c3a415f5de","study_id":"6197b3f67c2b5cd3b6d9596a","session_id":"619beeec61642d18a1f89184","condition":"full-information","relevant_dimensions":["pattern","legs"],"bee_group":{"antennae":"X","wings":"X","pattern":"D","legs":"F"},"action":"avoid","summary":"good-avoid","bonus":1.8000000000000012},{"rt":879.1000000238419,"stimulus":"\n                    <p><b>Action: <em>avoid</em></b></p>\n                    <p>This is the bee that you just saw.</p>\n                    <img src=\"bees-with-color/bee-A1DF.svg\" width=\"200\">\n                    <p><span class=\"greenText\">Good choice!</span>  This bee would have stung you.<br>Your bonus pay is unchanged, and remains at $1.20.</p>\n            ","response":0,"trial_type":"html-button-response","trial_index":118,"time_elapsed":935959,"internal_node_id":"0.0-4.0-1.55","subject_id":"61059aa5965b49c3a415f5de","study_id":"6197b3f67c2b5cd3b6d9596a","session_id":"619beeec61642d18a1f89184","condition":"full-information","relevant_dimensions":["pattern","legs"],"bee_group":{"antennae":"X","wings":"X","pattern":"D","legs":"F"},"bonus":1.8000000000000012},{"rt":1007.3999999761581,"stimulus":"bees-with-color/bee-A2DF.svg","response":1,"trial_type":"image-button-response","trial_index":119,"time_elapsed":936969,"internal_node_id":"0.0-4.0-0.56","subject_id":"61059aa5965b49c3a415f5de","study_id":"6197b3f67c2b5cd3b6d9596a","session_id":"619beeec61642d18a1f89184","condition":"full-information","relevant_dimensions":["pattern","legs"],"bee_group":{"antennae":"X","wings":"X","pattern":"D","legs":"F"},"action":"avoid","summary":"good-avoid","bonus":1.8000000000000012},{"rt":781.1000000238419,"stimulus":"\n                    <p><b>Action: <em>avoid</em></b></p>\n                    <p>This is the bee that you just saw.</p>\n                    <img src=\"bees-with-color/bee-A2DF.svg\" width=\"200\">\n                    <p><span class=\"greenText\">Good choice!</span>  This bee would have stung you.<br>Your bonus pay is unchanged, and remains at $1.20.</p>\n            ","response":0,"trial_type":"html-button-response","trial_index":120,"time_elapsed":937752,"internal_node_id":"0.0-4.0-1.56","subject_id":"61059aa5965b49c3a415f5de","study_id":"6197b3f67c2b5cd3b6d9596a","session_id":"619beeec61642d18a1f89184","condition":"full-information","relevant_dimensions":["pattern","legs"],"bee_group":{"antennae":"X","wings":"X","pattern":"D","legs":"F"},"bonus":1.8000000000000012},{"rt":1328.3999999761581,"stimulus":"bees-with-color/bee-A1SM.svg","response":0,"trial_type":"image-button-response","trial_index":121,"time_elapsed":939082,"internal_node_id":"0.0-4.0-0.57","subject_id":"61059aa5965b49c3a415f5de","study_id":"6197b3f67c2b5cd3b6d9596a","session_id":"619beeec61642d18a1f89184","condition":"full-information","relevant_dimensions":["pattern","legs"],"bee_group":{"antennae":"X","wings":"X","pattern":"D","legs":"F"},"action":"harvest","summary":"good-harvest","bonus":1.8000000000000012},{"rt":702.4000000953674,"stimulus":"\n                    <p><b>Action: <em>harvest</em></b></p>\n                    <p>This is the bee that you just saw.</p>\n                    <img src=\"bees-with-color/bee-A1SM.svg\" width=\"200\">\n                    <p><span class=\"greenText\"><b>Successful harvest!</b></span><br>Your pay has increased by $0.02. Your bonus pay is now $1.22.</p>\n            ","response":0,"trial_type":"html-button-response","trial_index":122,"time_elapsed":939787,"internal_node_id":"0.0-4.0-1.57","subject_id":"61059aa5965b49c3a415f5de","study_id":"6197b3f67c2b5cd3b6d9596a","session_id":"619beeec61642d18a1f89184","condition":"full-information","relevant_dimensions":["pattern","legs"],"bee_group":{"antennae":"X","wings":"X","pattern":"D","legs":"F"},"bonus":1.8000000000000012},{"rt":1706.8000000715256,"stimulus":"bees-with-color/bee-B1SF.svg","response":0,"trial_type":"image-button-response","trial_index":123,"time_elapsed":941495,"internal_node_id":"0.0-4.0-0.58","subject_id":"61059aa5965b49c3a415f5de","study_id":"6197b3f67c2b5cd3b6d9596a","session_id":"619beeec61642d18a1f89184","condition":"full-information","relevant_dimensions":["pattern","legs"],"bee_group":{"antennae":"X","wings":"X","pattern":"D","legs":"F"},"action":"harvest","summary":"good-harvest","bonus":1.8000000000000012},{"rt":891.1999999284744,"stimulus":"\n                    <p><b>Action: <em>harvest</em></b></p>\n                    <p>This is the bee that you just saw.</p>\n                    <img src=\"bees-with-color/bee-B1SF.svg\" width=\"200\">\n                    <p><span class=\"greenText\"><b>Successful harvest!</b></span><br>Your pay has increased by $0.02. Your bonus pay is now $1.24.</p>\n            ","response":0,"trial_type":"html-button-response","trial_index":124,"time_elapsed":942388,"internal_node_id":"0.0-4.0-1.58","subject_id":"61059aa5965b49c3a415f5de","study_id":"6197b3f67c2b5cd3b6d9596a","session_id":"619beeec61642d18a1f89184","condition":"full-information","relevant_dimensions":["pattern","legs"],"bee_group":{"antennae":"X","wings":"X","pattern":"D","legs":"F"},"bonus":1.8000000000000012},{"rt":1453.7000000476837,"stimulus":"bees-with-color/bee-B1DM.svg","response":0,"trial_type":"image-button-response","trial_index":125,"time_elapsed":943846,"internal_node_id":"0.0-4.0-0.59","subject_id":"61059aa5965b49c3a415f5de","study_id":"6197b3f67c2b5cd3b6d9596a","session_id":"619beeec61642d18a1f89184","condition":"full-information","relevant_dimensions":["pattern","legs"],"bee_group":{"antennae":"X","wings":"X","pattern":"D","legs":"F"},"action":"harvest","summary":"good-harvest","bonus":1.8000000000000012},{"rt":1041.7000000476837,"stimulus":"\n                    <p><b>Action: <em>harvest</em></b></p>\n                    <p>This is the bee that you just saw.</p>\n                    <img src=\"bees-with-color/bee-B1DM.svg\" width=\"200\">\n                    <p><span class=\"greenText\"><b>Successful harvest!</b></span><br>Your pay has increased by $0.02. Your bonus pay is now $1.26.</p>\n            ","response":0,"trial_type":"html-button-response","trial_index":126,"time_elapsed":944890,"internal_node_id":"0.0-4.0-1.59","subject_id":"61059aa5965b49c3a415f5de","study_id":"6197b3f67c2b5cd3b6d9596a","session_id":"619beeec61642d18a1f89184","condition":"full-information","relevant_dimensions":["pattern","legs"],"bee_group":{"antennae":"X","wings":"X","pattern":"D","legs":"F"},"bonus":1.8000000000000012},{"rt":1103.8999999761581,"stimulus":"bees-with-color/bee-A2SF.svg","response":0,"trial_type":"image-button-response","trial_index":127,"time_elapsed":945996,"internal_node_id":"0.0-4.0-0.60","subject_id":"61059aa5965b49c3a415f5de","study_id":"6197b3f67c2b5cd3b6d9596a","session_id":"619beeec61642d18a1f89184","condition":"full-information","relevant_dimensions":["pattern","legs"],"bee_group":{"antennae":"X","wings":"X","pattern":"D","legs":"F"},"action":"harvest","summary":"good-harvest","bonus":1.8000000000000012},{"rt":727.2000000476837,"stimulus":"\n                    <p><b>Action: <em>harvest</em></b></p>\n                    <p>This is the bee that you just saw.</p>\n                    <img src=\"bees-with-color/bee-A2SF.svg\" width=\"200\">\n                    <p><span class=\"greenText\"><b>Successful harvest!</b></span><br>Your pay has increased by $0.02. Your bonus pay is now $1.28.</p>\n            ","response":0,"trial_type":"html-button-response","trial_index":128,"time_elapsed":946726,"internal_node_id":"0.0-4.0-1.60","subject_id":"61059aa5965b49c3a415f5de","study_id":"6197b3f67c2b5cd3b6d9596a","session_id":"619beeec61642d18a1f89184","condition":"full-information","relevant_dimensions":["pattern","legs"],"bee_group":{"antennae":"X","wings":"X","pattern":"D","legs":"F"},"bonus":1.8000000000000012},{"rt":1072.5,"stimulus":"bees-with-color/bee-B1DF.svg","response":1,"trial_type":"image-button-response","trial_index":129,"time_elapsed":947800,"internal_node_id":"0.0-4.0-0.61","subject_id":"61059aa5965b49c3a415f5de","study_id":"6197b3f67c2b5cd3b6d9596a","session_id":"619beeec61642d18a1f89184","condition":"full-information","relevant_dimensions":["pattern","legs"],"bee_group":{"antennae":"X","wings":"X","pattern":"D","legs":"F"},"action":"avoid","summary":"good-avoid","bonus":1.8000000000000012},{"rt":991,"stimulus":"\n                    <p><b>Action: <em>avoid</em></b></p>\n                    <p>This is the bee that you just saw.</p>\n                    <img src=\"bees-with-color/bee-B1DF.svg\" width=\"200\">\n                    <p><span class=\"greenText\">Good choice!</span>  This bee would have stung you.<br>Your bonus pay is unchanged, and remains at $1.28.</p>\n            ","response":0,"trial_type":"html-button-response","trial_index":130,"time_elapsed":948795,"internal_node_id":"0.0-4.0-1.61","subject_id":"61059aa5965b49c3a415f5de","study_id":"6197b3f67c2b5cd3b6d9596a","session_id":"619beeec61642d18a1f89184","condition":"full-information","relevant_dimensions":["pattern","legs"],"bee_group":{"antennae":"X","wings":"X","pattern":"D","legs":"F"},"bonus":1.8000000000000012},{"rt":1001.2999999523163,"stimulus":"bees-with-color/bee-B2SM.svg","response":0,"trial_type":"image-button-response","trial_index":131,"time_elapsed":949798,"internal_node_id":"0.0-4.0-0.62","subject_id":"61059aa5965b49c3a415f5de","study_id":"6197b3f67c2b5cd3b6d9596a","session_id":"619beeec61642d18a1f89184","condition":"full-information","relevant_dimensions":["pattern","legs"],"bee_group":{"antennae":"X","wings":"X","pattern":"D","legs":"F"},"action":"harvest","summary":"good-harvest","bonus":1.8000000000000012},{"rt":783.3999999761581,"stimulus":"\n                    <p><b>Action: <em>harvest</em></b></p>\n                    <p>This is the bee that you just saw.</p>\n                    <img src=\"bees-with-color/bee-B2SM.svg\" width=\"200\">\n                    <p><span class=\"greenText\"><b>Successful harvest!</b></span><br>Your pay has increased by $0.02. Your bonus pay is now $1.30.</p>\n            ","response":0,"trial_type":"html-button-response","trial_index":132,"time_elapsed":950585,"internal_node_id":"0.0-4.0-1.62","subject_id":"61059aa5965b49c3a415f5de","study_id":"6197b3f67c2b5cd3b6d9596a","session_id":"619beeec61642d18a1f89184","condition":"full-information","relevant_dimensions":["pattern","legs"],"bee_group":{"antennae":"X","wings":"X","pattern":"D","legs":"F"},"bonus":1.8000000000000012},{"rt":1083.2000000476837,"stimulus":"bees-with-color/bee-A2DM.svg","response":0,"trial_type":"image-button-response","trial_index":133,"time_elapsed":951671,"internal_node_id":"0.0-4.0-0.63","subject_id":"61059aa5965b49c3a415f5de","study_id":"6197b3f67c2b5cd3b6d9596a","session_id":"619beeec61642d18a1f89184","condition":"full-information","relevant_dimensions":["pattern","legs"],"bee_group":{"antennae":"X","wings":"X","pattern":"D","legs":"F"},"action":"harvest","summary":"good-harvest","bonus":1.8000000000000012},{"rt":959,"stimulus":"\n                    <p><b>Action: <em>harvest</em></b></p>\n                    <p>This is the bee that you just saw.</p>\n                    <img src=\"bees-with-color/bee-A2DM.svg\" width=\"200\">\n                    <p><span class=\"greenText\"><b>Successful harvest!</b></span><br>Your pay has increased by $0.02. Your bonus pay is now $1.32.</p>\n            ","response":0,"trial_type":"html-button-response","trial_index":134,"time_elapsed":952634,"internal_node_id":"0.0-4.0-1.63","subject_id":"61059aa5965b49c3a415f5de","study_id":"6197b3f67c2b5cd3b6d9596a","session_id":"619beeec61642d18a1f89184","condition":"full-information","relevant_dimensions":["pattern","legs"],"bee_group":{"antennae":"X","wings":"X","pattern":"D","legs":"F"},"bonus":1.8000000000000012},{"rt":6883.399999976158,"stimulus":"You have completed the first part of this experiment.<br><br>You will now begin a shorter second part, in which you will receive no feedback.<br>The same rules regarding bonus pay apply.<br><br>Press any key to begin.","response":" ","trial_type":"html-keyboard-response","trial_index":135,"time_elapsed":959520,"internal_node_id":"0.0-5.0","subject_id":"61059aa5965b49c3a415f5de","study_id":"6197b3f67c2b5cd3b6d9596a","session_id":"619beeec61642d18a1f89184","condition":"full-information","relevant_dimensions":["pattern","legs"],"bee_group":{"antennae":"X","wings":"X","pattern":"D","legs":"F"},"bonus":1.8000000000000012},{"rt":2948.100000023842,"stimulus":"bees-with-color/bee-B2DM.svg","response":0,"trial_type":"image-button-response","trial_index":136,"time_elapsed":962482,"internal_node_id":"0.0-6.0-0.0","subject_id":"61059aa5965b49c3a415f5de","study_id":"6197b3f67c2b5cd3b6d9596a","session_id":"619beeec61642d18a1f89184","condition":"full-information","relevant_dimensions":["pattern","legs"],"bee_group":{"antennae":"X","wings":"X","pattern":"D","legs":"F"},"bonus":1.8000000000000012},{"rt":1991.8000000715256,"stimulus":"bees-with-color/bee-A2DM.svg","response":0,"trial_type":"image-button-response","trial_index":137,"time_elapsed":964481,"internal_node_id":"0.0-6.0-0.1","subject_id":"61059aa5965b49c3a415f5de","study_id":"6197b3f67c2b5cd3b6d9596a","session_id":"619beeec61642d18a1f89184","condition":"full-information","relevant_dimensions":["pattern","legs"],"bee_group":{"antennae":"X","wings":"X","pattern":"D","legs":"F"},"bonus":1.8000000000000012},{"rt":1304.1999999284744,"stimulus":"bees-with-color/bee-A2SM.svg","response":0,"trial_type":"image-button-response","trial_index":138,"time_elapsed":965790,"internal_node_id":"0.0-6.0-0.2","subject_id":"61059aa5965b49c3a415f5de","study_id":"6197b3f67c2b5cd3b6d9596a","session_id":"619beeec61642d18a1f89184","condition":"full-information","relevant_dimensions":["pattern","legs"],"bee_group":{"antennae":"X","wings":"X","pattern":"D","legs":"F"},"bonus":1.8000000000000012},{"rt":1679.6999999284744,"stimulus":"bees-with-color/bee-A2SF.svg","response":0,"trial_type":"image-button-response","trial_index":139,"time_elapsed":967475,"internal_node_id":"0.0-6.0-0.3","subject_id":"61059aa5965b49c3a415f5de","study_id":"6197b3f67c2b5cd3b6d9596a","session_id":"619beeec61642d18a1f89184","condition":"full-information","relevant_dimensions":["pattern","legs"],"bee_group":{"antennae":"X","wings":"X","pattern":"D","legs":"F"},"bonus":1.8000000000000012},{"rt":1182.1000000238419,"stimulus":"bees-with-color/bee-B2SF.svg","response":0,"trial_type":"image-button-response","trial_index":140,"time_elapsed":968662,"internal_node_id":"0.0-6.0-0.4","subject_id":"61059aa5965b49c3a415f5de","study_id":"6197b3f67c2b5cd3b6d9596a","session_id":"619beeec61642d18a1f89184","condition":"full-information","relevant_dimensions":["pattern","legs"],"bee_group":{"antennae":"X","wings":"X","pattern":"D","legs":"F"},"bonus":1.8000000000000012},{"rt":1029.4000000953674,"stimulus":"bees-with-color/bee-B2DF.svg","response":1,"trial_type":"image-button-response","trial_index":141,"time_elapsed":969696,"internal_node_id":"0.0-6.0-0.5","subject_id":"61059aa5965b49c3a415f5de","study_id":"6197b3f67c2b5cd3b6d9596a","session_id":"619beeec61642d18a1f89184","condition":"full-information","relevant_dimensions":["pattern","legs"],"bee_group":{"antennae":"X","wings":"X","pattern":"D","legs":"F"},"bonus":1.8000000000000012},{"rt":1671.2000000476837,"stimulus":"bees-with-color/bee-A2DF.svg","response":1,"trial_type":"image-button-response","trial_index":142,"time_elapsed":971372,"internal_node_id":"0.0-6.0-0.6","subject_id":"61059aa5965b49c3a415f5de","study_id":"6197b3f67c2b5cd3b6d9596a","session_id":"619beeec61642d18a1f89184","condition":"full-information","relevant_dimensions":["pattern","legs"],"bee_group":{"antennae":"X","wings":"X","pattern":"D","legs":"F"},"bonus":1.8000000000000012},{"rt":1378,"stimulus":"bees-with-color/bee-A1DM.svg","response":0,"trial_type":"image-button-response","trial_index":143,"time_elapsed":972756,"internal_node_id":"0.0-6.0-0.7","subject_id":"61059aa5965b49c3a415f5de","study_id":"6197b3f67c2b5cd3b6d9596a","session_id":"619beeec61642d18a1f89184","condition":"full-information","relevant_dimensions":["pattern","legs"],"bee_group":{"antennae":"X","wings":"X","pattern":"D","legs":"F"},"bonus":1.8000000000000012},{"rt":1331.3999999761581,"stimulus":"bees-with-color/bee-B1SF.svg","response":0,"trial_type":"image-button-response","trial_index":144,"time_elapsed":974092,"internal_node_id":"0.0-6.0-0.8","subject_id":"61059aa5965b49c3a415f5de","study_id":"6197b3f67c2b5cd3b6d9596a","session_id":"619beeec61642d18a1f89184","condition":"full-information","relevant_dimensions":["pattern","legs"],"bee_group":{"antennae":"X","wings":"X","pattern":"D","legs":"F"},"bonus":1.8000000000000012},{"rt":1661.7000000476837,"stimulus":"bees-with-color/bee-B1DM.svg","response":0,"trial_type":"image-button-response","trial_index":145,"time_elapsed":975759,"internal_node_id":"0.0-6.0-0.9","subject_id":"61059aa5965b49c3a415f5de","study_id":"6197b3f67c2b5cd3b6d9596a","session_id":"619beeec61642d18a1f89184","condition":"full-information","relevant_dimensions":["pattern","legs"],"bee_group":{"antennae":"X","wings":"X","pattern":"D","legs":"F"},"bonus":1.8000000000000012},{"rt":927,"stimulus":"bees-with-color/bee-B2SM.svg","response":0,"trial_type":"image-button-response","trial_index":146,"time_elapsed":976692,"internal_node_id":"0.0-6.0-0.10","subject_id":"61059aa5965b49c3a415f5de","study_id":"6197b3f67c2b5cd3b6d9596a","session_id":"619beeec61642d18a1f89184","condition":"full-information","relevant_dimensions":["pattern","legs"],"bee_group":{"antennae":"X","wings":"X","pattern":"D","legs":"F"},"bonus":1.8000000000000012},{"rt":871.1000000238419,"stimulus":"bees-with-color/bee-A1SF.svg","response":0,"trial_type":"image-button-response","trial_index":147,"time_elapsed":977567,"internal_node_id":"0.0-6.0-0.11","subject_id":"61059aa5965b49c3a415f5de","study_id":"6197b3f67c2b5cd3b6d9596a","session_id":"619beeec61642d18a1f89184","condition":"full-information","relevant_dimensions":["pattern","legs"],"bee_group":{"antennae":"X","wings":"X","pattern":"D","legs":"F"},"bonus":1.8000000000000012},{"rt":984.7000000476837,"stimulus":"bees-with-color/bee-B1DF.svg","response":1,"trial_type":"image-button-response","trial_index":148,"time_elapsed":978556,"internal_node_id":"0.0-6.0-0.12","subject_id":"61059aa5965b49c3a415f5de","study_id":"6197b3f67c2b5cd3b6d9596a","session_id":"619beeec61642d18a1f89184","condition":"full-information","relevant_dimensions":["pattern","legs"],"bee_group":{"antennae":"X","wings":"X","pattern":"D","legs":"F"},"bonus":1.8000000000000012},{"rt":851.2999999523163,"stimulus":"bees-with-color/bee-A1SM.svg","response":0,"trial_type":"image-button-response","trial_index":149,"time_elapsed":979412,"internal_node_id":"0.0-6.0-0.13","subject_id":"61059aa5965b49c3a415f5de","study_id":"6197b3f67c2b5cd3b6d9596a","session_id":"619beeec61642d18a1f89184","condition":"full-information","relevant_dimensions":["pattern","legs"],"bee_group":{"antennae":"X","wings":"X","pattern":"D","legs":"F"},"bonus":1.8000000000000012},{"rt":1117.5,"stimulus":"bees-with-color/bee-A1DF.svg","response":1,"trial_type":"image-button-response","trial_index":150,"time_elapsed":980534,"internal_node_id":"0.0-6.0-0.14","subject_id":"61059aa5965b49c3a415f5de","study_id":"6197b3f67c2b5cd3b6d9596a","session_id":"619beeec61642d18a1f89184","condition":"full-information","relevant_dimensions":["pattern","legs"],"bee_group":{"antennae":"X","wings":"X","pattern":"D","legs":"F"},"bonus":1.8000000000000012},{"rt":905.2999999523163,"stimulus":"bees-with-color/bee-B1SM.svg","response":0,"trial_type":"image-button-response","trial_index":151,"time_elapsed":981444,"internal_node_id":"0.0-6.0-0.15","subject_id":"61059aa5965b49c3a415f5de","study_id":"6197b3f67c2b5cd3b6d9596a","session_id":"619beeec61642d18a1f89184","condition":"full-information","relevant_dimensions":["pattern","legs"],"bee_group":{"antennae":"X","wings":"X","pattern":"D","legs":"F"},"bonus":1.8000000000000012},{"rt":1074.0999999046326,"stimulus":"bees-with-color/bee-A2DF.svg","response":1,"trial_type":"image-button-response","trial_index":152,"time_elapsed":982522,"internal_node_id":"0.0-6.0-0.16","subject_id":"61059aa5965b49c3a415f5de","study_id":"6197b3f67c2b5cd3b6d9596a","session_id":"619beeec61642d18a1f89184","condition":"full-information","relevant_dimensions":["pattern","legs"],"bee_group":{"antennae":"X","wings":"X","pattern":"D","legs":"F"},"bonus":1.8000000000000012},{"rt":1338.1000000238419,"stimulus":"bees-with-color/bee-A1DM.svg","response":0,"trial_type":"image-button-response","trial_index":153,"time_elapsed":983862,"internal_node_id":"0.0-6.0-0.17","subject_id":"61059aa5965b49c3a415f5de","study_id":"6197b3f67c2b5cd3b6d9596a","session_id":"619beeec61642d18a1f89184","condition":"full-information","relevant_dimensions":["pattern","legs"],"bee_group":{"antennae":"X","wings":"X","pattern":"D","legs":"F"},"bonus":1.8000000000000012},{"rt":1185.8000000715256,"stimulus":"bees-with-color/bee-B2SM.svg","response":0,"trial_type":"image-button-response","trial_index":154,"time_elapsed":985051,"internal_node_id":"0.0-6.0-0.18","subject_id":"61059aa5965b49c3a415f5de","study_id":"6197b3f67c2b5cd3b6d9596a","session_id":"619beeec61642d18a1f89184","condition":"full-information","relevant_dimensions":["pattern","legs"],"bee_group":{"antennae":"X","wings":"X","pattern":"D","legs":"F"},"bonus":1.8000000000000012},{"rt":924.7000000476837,"stimulus":"bees-with-color/bee-B1DF.svg","response":1,"trial_type":"image-button-response","trial_index":155,"time_elapsed":985979,"internal_node_id":"0.0-6.0-0.19","subject_id":"61059aa5965b49c3a415f5de","study_id":"6197b3f67c2b5cd3b6d9596a","session_id":"619beeec61642d18a1f89184","condition":"full-information","relevant_dimensions":["pattern","legs"],"bee_group":{"antennae":"X","wings":"X","pattern":"D","legs":"F"},"bonus":1.8000000000000012},{"rt":1065.2999999523163,"stimulus":"bees-with-color/bee-B1DM.svg","response":0,"trial_type":"image-button-response","trial_index":156,"time_elapsed":987048,"internal_node_id":"0.0-6.0-0.20","subject_id":"61059aa5965b49c3a415f5de","study_id":"6197b3f67c2b5cd3b6d9596a","session_id":"619beeec61642d18a1f89184","condition":"full-information","relevant_dimensions":["pattern","legs"],"bee_group":{"antennae":"X","wings":"X","pattern":"D","legs":"F"},"bonus":1.8000000000000012},{"rt":1225.8999999761581,"stimulus":"bees-with-color/bee-B1SM.svg","response":0,"trial_type":"image-button-response","trial_index":157,"time_elapsed":988277,"internal_node_id":"0.0-6.0-0.21","subject_id":"61059aa5965b49c3a415f5de","study_id":"6197b3f67c2b5cd3b6d9596a","session_id":"619beeec61642d18a1f89184","condition":"full-information","relevant_dimensions":["pattern","legs"],"bee_group":{"antennae":"X","wings":"X","pattern":"D","legs":"F"},"bonus":1.8000000000000012},{"rt":1048.6000000238419,"stimulus":"bees-with-color/bee-A2DM.svg","response":0,"trial_type":"