[{"success":true,"trial_type":"fullscreen","trial_index":0,"time_elapsed":13651,"internal_node_id":"0.0-0.0","subject_id":"5d6ee372f52ee2001b314d3a","study_id":"60edd13110225f80f9f3709b","session_id":"6196c70451ae9cdde8a939b4","condition":"contingent","relevant_dimensions":["pattern","legs"],"bee_group":{"antennae":"X","wings":"X","pattern":"S","legs":"M"},"bonus":1.0600000000000005},{"success":true,"timeout":false,"failed_images":[],"failed_audio":[],"failed_video":[],"trial_type":"preload","trial_index":1,"time_elapsed":15112,"internal_node_id":"0.0-1.0","subject_id":"5d6ee372f52ee2001b314d3a","study_id":"60edd13110225f80f9f3709b","session_id":"6196c70451ae9cdde8a939b4","condition":"contingent","relevant_dimensions":["pattern","legs"],"bee_group":{"antennae":"X","wings":"X","pattern":"S","legs":"M"},"bonus":1.0600000000000005},{"rt":1774,"stimulus":"Welcome! Press any key to begin.","response":"enter","trial_type":"html-keyboard-response","trial_index":2,"time_elapsed":16887,"internal_node_id":"0.0-2.0","subject_id":"5d6ee372f52ee2001b314d3a","study_id":"60edd13110225f80f9f3709b","session_id":"6196c70451ae9cdde8a939b4","condition":"contingent","relevant_dimensions":["pattern","legs"],"bee_group":{"antennae":"X","wings":"X","pattern":"S","legs":"M"},"bonus":1.0600000000000005},{"view_history":[{"page_index":0,"viewing_time":3776},{"page_index":1,"viewing_time":10283},{"page_index":2,"viewing_time":13350},{"page_index":3,"viewing_time":10950},{"page_index":4,"viewing_time":5084},{"page_index":5,"viewing_time":5599},{"page_index":6,"viewing_time":12350},{"page_index":7,"viewing_time":6699},{"page_index":8,"viewing_time":2050},{"page_index":9,"viewing_time":1619},{"page_index":10,"viewing_time":1731},{"page_index":11,"viewing_time":5734},{"page_index":12,"viewing_time":12817},{"page_index":13,"viewing_time":1299},{"page_index":14,"viewing_time":1349}],"rt":94690,"trial_type":"instructions","trial_index":3,"time_elapsed":111578,"internal_node_id":"0.0-3.0-0.0","subject_id":"5d6ee372f52ee2001b314d3a","study_id":"60edd13110225f80f9f3709b","session_id":"6196c70451ae9cdde8a939b4","condition":"contingent","relevant_dimensions":["pattern","legs"],"bee_group":{"antennae":"X","wings":"X","pattern":"S","legs":"M"},"bonus":1.0600000000000005},{"rt":10435,"response":{"Q0":["Two or six legs","Stripes or spots on body","Single or double wings","Antennae or no antennae"]},"question_order":[0],"trial_type":"survey-multi-select","trial_index":4,"time_elapsed":122017,"internal_node_id":"0.0-3.0-1.0","subject_id":"5d6ee372f52ee2001b314d3a","study_id":"60edd13110225f80f9f3709b","session_id":"6196c70451ae9cdde8a939b4","condition":"contingent","relevant_dimensions":["pattern","legs"],"bee_group":{"antennae":"X","wings":"X","pattern":"S","legs":"M"},"correct":true,"bonus":1.0600000000000005},{"rt":14313,"response":{"Q1":"No.","Q2":"Based on the four features of the bee.","Q3":"You do not learn if it was friendly or dangerous, and do not alter your bonus."},"question_order":[0,1,2],"trial_type":"survey-multi-choice","trial_index":5,"time_elapsed":136333,"internal_node_id":"0.0-3.0-2.0","subject_id":"5d6ee372f52ee2001b314d3a","study_id":"60edd13110225f80f9f3709b","session_id":"6196c70451ae9cdde8a939b4","condition":"contingent","relevant_dimensions":["pattern","legs"],"bee_group":{"antennae":"X","wings":"X","pattern":"S","legs":"M"},"correct":true,"bonus":1.0600000000000005},{"rt":2278,"stimulus":"<p>Congrats, you got everything right<br>When you're ready, click the button below to continue to the experiment.</p>","response":0,"trial_type":"html-button-response","trial_index":6,"time_elapsed":138613,"internal_node_id":"0.0-3.0-3.0","subject_id":"5d6ee372f52ee2001b314d3a","study_id":"60edd13110225f80f9f3709b","session_id":"6196c70451ae9cdde8a939b4","condition":"contingent","relevant_dimensions":["pattern","legs"],"bee_group":{"antennae":"X","wings":"X","pattern":"S","legs":"M"},"bonus":1.0600000000000005},{"rt":3363,"stimulus":"bees-with-color/bee-B1DF.svg","response":0,"trial_type":"image-button-response","trial_index":7,"time_elapsed":141979,"internal_node_id":"0.0-4.0-0.0","subject_id":"5d6ee372f52ee2001b314d3a","study_id":"60edd13110225f80f9f3709b","session_id":"6196c70451ae9cdde8a939b4","condition":"contingent","relevant_dimensions":["pattern","legs"],"bee_group":{"antennae":"X","wings":"X","pattern":"S","legs":"M"},"action":"harvest","summary":"good-harvest","bonus":1.0600000000000005},{"rt":33247,"stimulus":"\n                    <p><b>Action: <em>harvest</em></b></p>\n                    <p>This is the bee that you just saw.</p>\n                    <img src=\"bees-with-color/bee-B1DF.svg\" width=\"200\">\n                    <p><span class=\"greenText\"><b>Successful harvest!</b></span><br>Your pay has increased by $0.02. Your bonus pay is now $0.56.</p>\n            ","response":0,"trial_type":"html-button-response","trial_index":8,"time_elapsed":175229,"internal_node_id":"0.0-4.0-1.0","subject_id":"5d6ee372f52ee2001b314d3a","study_id":"60edd13110225f80f9f3709b","session_id":"6196c70451ae9cdde8a939b4","condition":"contingent","relevant_dimensions":["pattern","legs"],"bee_group":{"antennae":"X","wings":"X","pattern":"S","legs":"M"},"bonus":1.0600000000000005},{"rt":3848,"stimulus":"bees-with-color/bee-A1DF.svg","response":0,"trial_type":"image-button-response","trial_index":9,"time_elapsed":179079,"internal_node_id":"0.0-4.0-0.1","subject_id":"5d6ee372f52ee2001b314d3a","study_id":"60edd13110225f80f9f3709b","session_id":"6196c70451ae9cdde8a939b4","condition":"contingent","relevant_dimensions":["pattern","legs"],"bee_group":{"antennae":"X","wings":"X","pattern":"S","legs":"M"},"action":"harvest","summary":"good-harvest","bonus":1.0600000000000005},{"rt":18730,"stimulus":"\n                    <p><b>Action: <em>harvest</em></b></p>\n                    <p>This is the bee that you just saw.</p>\n                    <img src=\"bees-with-color/bee-A1DF.svg\" width=\"200\">\n                    <p><span class=\"greenText\"><b>Successful harvest!</b></span><br>Your pay has increased by $0.02. Your bonus pay is now $0.58.</p>\n            ","response":0,"trial_type":"html-button-response","trial_index":10,"time_elapsed":197812,"internal_node_id":"0.0-4.0-1.1","subject_id":"5d6ee372f52ee2001b314d3a","study_id":"60edd13110225f80f9f3709b","session_id":"6196c70451ae9cdde8a939b4","condition":"contingent","relevant_dimensions":["pattern","legs"],"bee_group":{"antennae":"X","wings":"X","pattern":"S","legs":"M"},"bonus":1.0600000000000005},{"rt":2450,"stimulus":"bees-with-color/bee-B2DF.svg","response":0,"trial_type":"image-button-response","trial_index":11,"time_elapsed":200263,"internal_node_id":"0.0-4.0-0.2","subject_id":"5d6ee372f52ee2001b314d3a","study_id":"60edd13110225f80f9f3709b","session_id":"6196c70451ae9cdde8a939b4","condition":"contingent","relevant_dimensions":["pattern","legs"],"bee_group":{"antennae":"X","wings":"X","pattern":"S","legs":"M"},"action":"harvest","summary":"good-harvest","bonus":1.0600000000000005},{"rt":9514,"stimulus":"\n                    <p><b>Action: <em>harvest</em></b></p>\n                    <p>This is the bee that you just saw.</p>\n                    <img src=\"bees-with-color/bee-B2DF.svg\" width=\"200\">\n                    <p><span class=\"greenText\"><b>Successful harvest!</b></span><br>Your pay has increased by $0.02. Your bonus pay is now $0.60.</p>\n            ","response":0,"trial_type":"html-button-response","trial_index":12,"time_elapsed":209779,"internal_node_id":"0.0-4.0-1.2","subject_id":"5d6ee372f52ee2001b314d3a","study_id":"60edd13110225f80f9f3709b","session_id":"6196c70451ae9cdde8a939b4","condition":"contingent","relevant_dimensions":["pattern","legs"],"bee_group":{"antennae":"X","wings":"X","pattern":"S","legs":"M"},"bonus":1.0600000000000005},{"rt":2633,"stimulus":"bees-with-color/bee-B1SM.svg","response":0,"trial_type":"image-button-response","trial_index":13,"time_elapsed":212413,"internal_node_id":"0.0-4.0-0.3","subject_id":"5d6ee372f52ee2001b314d3a","study_id":"60edd13110225f80f9f3709b","session_id":"6196c70451ae9cdde8a939b4","condition":"contingent","relevant_dimensions":["pattern","legs"],"bee_group":{"antennae":"X","wings":"X","pattern":"S","legs":"M"},"action":"harvest","summary":"bad-harvest","bonus":1.0600000000000005},{"rt":18464,"stimulus":"\n                    <p><b>Action: <em>harvest</em></b></p>\n                    <p>This is the bee that you just saw.</p>\n                    <img src=\"bees-with-color/bee-B1SM.svg\" width=\"200\">\n                    <p><span class=\"redText\">Bad choice, the bee was angry.</span><br><b>You have been stung!</b><br>Your pay has been decreased by $0.10. Your bonus pay is now $0.50.</p>\n            ","response":0,"trial_type":"html-button-response","trial_index":14,"time_elapsed":230880,"internal_node_id":"0.0-4.0-1.3","subject_id":"5d6ee372f52ee2001b314d3a","study_id":"60edd13110225f80f9f3709b","session_id":"6196c70451ae9cdde8a939b4","condition":"contingent","relevant_dimensions":["pattern","legs"],"bee_group":{"antennae":"X","wings":"X","pattern":"S","legs":"M"},"bonus":1.0600000000000005},{"rt":2449,"stimulus":"bees-with-color/bee-B2SF.svg","response":0,"trial_type":"image-button-response","trial_index":15,"time_elapsed":233329,"internal_node_id":"0.0-4.0-0.4","subject_id":"5d6ee372f52ee2001b314d3a","study_id":"60edd13110225f80f9f3709b","session_id":"6196c70451ae9cdde8a939b4","condition":"contingent","relevant_dimensions":["pattern","legs"],"bee_group":{"antennae":"X","wings":"X","pattern":"S","legs":"M"},"action":"harvest","summary":"good-harvest","bonus":1.0600000000000005},{"rt":11081,"stimulus":"\n                    <p><b>Action: <em>harvest</em></b></p>\n                    <p>This is the bee that you just saw.</p>\n                    <img src=\"bees-with-color/bee-B2SF.svg\" width=\"200\">\n                    <p><span class=\"greenText\"><b>Successful harvest!</b></span><br>Your pay has increased by $0.02. Your bonus pay is now $0.52.</p>\n            ","response":0,"trial_type":"html-button-response","trial_index":16,"time_elapsed":244413,"internal_node_id":"0.0-4.0-1.4","subject_id":"5d6ee372f52ee2001b314d3a","study_id":"60edd13110225f80f9f3709b","session_id":"6196c70451ae9cdde8a939b4","condition":"contingent","relevant_dimensions":["pattern","legs"],"bee_group":{"antennae":"X","wings":"X","pattern":"S","legs":"M"},"bonus":1.0600000000000005},{"rt":3331,"stimulus":"bees-with-color/bee-B1DM.svg","response":1,"trial_type":"image-button-response","trial_index":17,"time_elapsed":247746,"internal_node_id":"0.0-4.0-0.5","subject_id":"5d6ee372f52ee2001b314d3a","study_id":"60edd13110225f80f9f3709b","session_id":"6196c70451ae9cdde8a939b4","condition":"contingent","relevant_dimensions":["pattern","legs"],"bee_group":{"antennae":"X","wings":"X","pattern":"S","legs":"M"},"action":"avoid","summary":"bad-avoid","bonus":1.0600000000000005},{"rt":1964,"stimulus":"\n                    <p><b>Action: <em>avoid</em></b></p>\n                    <p>This is the bee that you just saw.</p>\n                    <img src=\"bees-with-color/bee-B1DM.svg\" width=\"200\">\n                    <p><br>Your bonus pay is unchanged, and remains at $0.52.</p>\n            ","response":0,"trial_type":"html-button-response","trial_index":18,"time_elapsed":249712,"internal_node_id":"0.0-4.0-1.5","subject_id":"5d6ee372f52ee2001b314d3a","study_id":"60edd13110225f80f9f3709b","session_id":"6196c70451ae9cdde8a939b4","condition":"contingent","relevant_dimensions":["pattern","legs"],"bee_group":{"antennae":"X","wings":"X","pattern":"S","legs":"M"},"bonus":1.0600000000000005},{"rt":3333,"stimulus":"bees-with-color/bee-B2SM.svg","response":1,"trial_type":"image-button-response","trial_index":19,"time_elapsed":253046,"internal_node_id":"0.0-4.0-0.6","subject_id":"5d6ee372f52ee2001b314d3a","study_id":"60edd13110225f80f9f3709b","session_id":"6196c70451ae9cdde8a939b4","condition":"contingent","relevant_dimensions":["pattern","legs"],"bee_group":{"antennae":"X","wings":"X","pattern":"S","legs":"M"},"action":"avoid","summary":"good-avoid","bonus":1.0600000000000005},{"rt":1914,"stimulus":"\n                    <p><b>Action: <em>avoid</em></b></p>\n                    <p>This is the bee that you just saw.</p>\n                    <img src=\"bees-with-color/bee-B2SM.svg\" width=\"200\">\n                    <p><br>Your bonus pay is unchanged, and remains at $0.52.</p>\n            ","response":0,"trial_type":"html-button-response","trial_index":20,"time_elapsed":254962,"internal_node_id":"0.0-4.0-1.6","subject_id":"5d6ee372f52ee2001b314d3a","study_id":"60edd13110225f80f9f3709b","session_id":"6196c70451ae9cdde8a939b4","condition":"contingent","relevant_dimensions":["pattern","legs"],"bee_group":{"antennae":"X","wings":"X","pattern":"S","legs":"M"},"bonus":1.0600000000000005},{"rt":2183,"stimulus":"bees-with-color/bee-A2DF.svg","response":0,"trial_type":"image-button-response","trial_index":21,"time_elapsed":257147,"internal_node_id":"0.0-4.0-0.7","subject_id":"5d6ee372f52ee2001b314d3a","study_id":"60edd13110225f80f9f3709b","session_id":"6196c70451ae9cdde8a939b4","condition":"contingent","relevant_dimensions":["pattern","legs"],"bee_group":{"antennae":"X","wings":"X","pattern":"S","legs":"M"},"action":"harvest","summary":"good-harvest","bonus":1.0600000000000005},{"rt":1847,"stimulus":"\n                    <p><b>Action: <em>harvest</em></b></p>\n                    <p>This is the bee that you just saw.</p>\n                    <img src=\"bees-with-color/bee-A2DF.svg\" width=\"200\">\n                    <p><span class=\"greenText\"><b>Successful harvest!</b></span><br>Your pay has increased by $0.02. Your bonus pay is now $0.54.</p>\n            ","response":0,"trial_type":"html-button-response","trial_index":22,"time_elapsed":258996,"internal_node_id":"0.0-4.0-1.7","subject_id":"5d6ee372f52ee2001b314d3a","study_id":"60edd13110225f80f9f3709b","session_id":"6196c70451ae9cdde8a939b4","condition":"contingent","relevant_dimensions":["pattern","legs"],"bee_group":{"antennae":"X","wings":"X","pattern":"S","legs":"M"},"bonus":1.0600000000000005},{"rt":3964,"stimulus":"bees-with-color/bee-A1SF.svg","response":0,"trial_type":"image-button-response","trial_index":23,"time_elapsed":262961,"internal_node_id":"0.0-4.0-0.8","subject_id":"5d6ee372f52ee2001b314d3a","study_id":"60edd13110225f80f9f3709b","session_id":"6196c70451ae9cdde8a939b4","condition":"contingent","relevant_dimensions":["pattern","legs"],"bee_group":{"antennae":"X","wings":"X","pattern":"S","legs":"M"},"action":"harvest","summary":"good-harvest","bonus":1.0600000000000005},{"rt":2767,"stimulus":"\n                    <p><b>Action: <em>harvest</em></b></p>\n                    <p>This is the bee that you just saw.</p>\n                    <img src=\"bees-with-color/bee-A1SF.svg\" width=\"200\">\n                    <p><span class=\"greenText\"><b>Successful harvest!</b></span><br>Your pay has increased by $0.02. Your bonus pay is now $0.56.</p>\n            ","response":0,"trial_type":"html-button-response","trial_index":24,"time_elapsed":265730,"internal_node_id":"0.0-4.0-1.8","subject_id":"5d6ee372f52ee2001b314d3a","study_id":"60edd13110225f80f9f3709b","session_id":"6196c70451ae9cdde8a939b4","condition":"contingent","relevant_dimensions":["pattern","legs"],"bee_group":{"antennae":"X","wings":"X","pattern":"S","legs":"M"},"bonus":1.0600000000000005},{"rt":1596,"stimulus":"bees-with-color/bee-A1DM.svg","response":1,"trial_type":"image-button-response","trial_index":25,"time_elapsed":267328,"internal_node_id":"0.0-4.0-0.9","subject_id":"5d6ee372f52ee2001b314d3a","study_id":"60edd13110225f80f9f3709b","session_id":"6196c70451ae9cdde8a939b4","condition":"contingent","relevant_dimensions":["pattern","legs"],"bee_group":{"antennae":"X","wings":"X","pattern":"S","legs":"M"},"action":"avoid","summary":"bad-avoid","bonus":1.0600000000000005},{"rt":1616,"stimulus":"\n                    <p><b>Action: <em>avoid</em></b></p>\n                    <p>This is the bee that you just saw.</p>\n                    <img src=\"bees-with-color/bee-A1DM.svg\" width=\"200\">\n                    <p><br>Your bonus pay is unchanged, and remains at $0.56.</p>\n            ","response":0,"trial_type":"html-button-response","trial_index":26,"time_elapsed":268945,"internal_node_id":"0.0-4.0-1.9","subject_id":"5d6ee372f52ee2001b314d3a","study_id":"60edd13110225f80f9f3709b","session_id":"6196c70451ae9cdde8a939b4","condition":"contingent","relevant_dimensions":["pattern","legs"],"bee_group":{"antennae":"X","wings":"X","pattern":"S","legs":"M"},"bonus":1.0600000000000005},{"rt":1249,"stimulus":"bees-with-color/bee-B2DM.svg","response":1,"trial_type":"image-button-response","trial_index":27,"time_elapsed":270196,"internal_node_id":"0.0-4.0-0.10","subject_id":"5d6ee372f52ee2001b314d3a","study_id":"60edd13110225f80f9f3709b","session_id":"6196c70451ae9cdde8a939b4","condition":"contingent","relevant_dimensions":["pattern","legs"],"bee_group":{"antennae":"X","wings":"X","pattern":"S","legs":"M"},"action":"avoid","summary":"bad-avoid","bonus":1.0600000000000005},{"rt":781,"stimulus":"\n                    <p><b>Action: <em>avoid</em></b></p>\n                    <p>This is the bee that you just saw.</p>\n                    <img src=\"bees-with-color/bee-B2DM.svg\" width=\"200\">\n                    <p><br>Your bonus pay is unchanged, and remains at $0.56.</p>\n            ","response":0,"trial_type":"html-button-response","trial_index":28,"time_elapsed":270979,"internal_node_id":"0.0-4.0-1.10","subject_id":"5d6ee372f52ee2001b314d3a","study_id":"60edd13110225f80f9f3709b","session_id":"6196c70451ae9cdde8a939b4","condition":"contingent","relevant_dimensions":["pattern","legs"],"bee_group":{"antennae":"X","wings":"X","pattern":"S","legs":"M"},"bonus":1.0600000000000005},{"rt":1266,"stimulus":"bees-with-color/bee-A1SM.svg","response":1,"trial_type":"image-button-response","trial_index":29,"time_elapsed":272245,"internal_node_id":"0.0-4.0-0.11","subject_id":"5d6ee372f52ee2001b314d3a","study_id":"60edd13110225f80f9f3709b","session_id":"6196c70451ae9cdde8a939b4","condition":"contingent","relevant_dimensions":["pattern","legs"],"bee_group":{"antennae":"X","wings":"X","pattern":"S","legs":"M"},"action":"avoid","summary":"good-avoid","bonus":1.0600000000000005},{"rt":766,"stimulus":"\n                    <p><b>Action: <em>avoid</em></b></p>\n                    <p>This is the bee that you just saw.</p>\n                    <img src=\"bees-with-color/bee-A1SM.svg\" width=\"200\">\n                    <p><br>Your bonus pay is unchanged, and remains at $0.56.</p>\n            ","response":0,"trial_type":"html-button-response","trial_index":30,"time_elapsed":273012,"internal_node_id":"0.0-4.0-1.11","subject_id":"5d6ee372f52ee2001b314d3a","study_id":"60edd13110225f80f9f3709b","session_id":"6196c70451ae9cdde8a939b4","condition":"contingent","relevant_dimensions":["pattern","legs"],"bee_group":{"antennae":"X","wings":"X","pattern":"S","legs":"M"},"bonus":1.0600000000000005},{"rt":1315,"stimulus":"bees-with-color/bee-A2DM.svg","response":1,"trial_type":"image-button-response","trial_index":31,"time_elapsed":274329,"internal_node_id":"0.0-4.0-0.12","subject_id":"5d6ee372f52ee2001b314d3a","study_id":"60edd13110225f80f9f3709b","session_id":"6196c70451ae9cdde8a939b4","condition":"contingent","relevant_dimensions":["pattern","legs"],"bee_group":{"antennae":"X","wings":"X","pattern":"S","legs":"M"},"action":"avoid","summary":"bad-avoid","bonus":1.0600000000000005},{"rt":800,"stimulus":"\n                    <p><b>Action: <em>avoid</em></b></p>\n                    <p>This is the bee that you just saw.</p>\n                    <img src=\"bees-with-color/bee-A2DM.svg\" width=\"200\">\n                    <p><br>Your bonus pay is unchanged, and remains at $0.56.</p>\n            ","response":0,"trial_type":"html-button-response","trial_index":32,"time_elapsed":275130,"internal_node_id":"0.0-4.0-1.12","subject_id":"5d6ee372f52ee2001b314d3a","study_id":"60edd13110225f80f9f3709b","session_id":"6196c70451ae9cdde8a939b4","condition":"contingent","relevant_dimensions":["pattern","legs"],"bee_group":{"antennae":"X","wings":"X","pattern":"S","legs":"M"},"bonus":1.0600000000000005},{"rt":1130,"stimulus":"bees-with-color/bee-B1SF.svg","response":0,"trial_type":"image-button-response","trial_index":33,"time_elapsed":276262,"internal_node_id":"0.0-4.0-0.13","subject_id":"5d6ee372f52ee2001b314d3a","study_id":"60edd13110225f80f9f3709b","session_id":"6196c70451ae9cdde8a939b4","condition":"contingent","relevant_dimensions":["pattern","legs"],"bee_group":{"antennae":"X","wings":"X","pattern":"S","legs":"M"},"action":"harvest","summary":"good-harvest","bonus":1.0600000000000005},{"rt":965,"stimulus":"\n                    <p><b>Action: <em>harvest</em></b></p>\n                    <p>This is the bee that you just saw.</p>\n                    <img src=\"bees-with-color/bee-B1SF.svg\" width=\"200\">\n                    <p><span class=\"greenText\"><b>Successful harvest!</b></span><br>Your pay has increased by $0.02. Your bonus pay is now $0.58.</p>\n            ","response":0,"trial_type":"html-button-response","trial_index":34,"time_elapsed":277229,"internal_node_id":"0.0-4.0-1.13","subject_id":"5d6ee372f52ee2001b314d3a","study_id":"60edd13110225f80f9f3709b","session_id":"6196c70451ae9cdde8a939b4","condition":"contingent","relevant_dimensions":["pattern","legs"],"bee_group":{"antennae":"X","wings":"X","pattern":"S","legs":"M"},"bonus":1.0600000000000005},{"rt":1166,"stimulus":"bees-with-color/bee-A2SM.svg","response":1,"trial_type":"image-button-response","trial_index":35,"time_elapsed":278396,"internal_node_id":"0.0-4.0-0.14","subject_id":"5d6ee372f52ee2001b314d3a","study_id":"60edd13110225f80f9f3709b","session_id":"6196c70451ae9cdde8a939b4","condition":"contingent","relevant_dimensions":["pattern","legs"],"bee_group":{"antennae":"X","wings":"X","pattern":"S","legs":"M"},"action":"avoid","summary":"good-avoid","bonus":1.0600000000000005},{"rt":915,"stimulus":"\n                    <p><b>Action: <em>avoid</em></b></p>\n                    <p>This is the bee that you just saw.</p>\n                    <img src=\"bees-with-color/bee-A2SM.svg\" width=\"200\">\n                    <p><br>Your bonus pay is unchanged, and remains at $0.58.</p>\n            ","response":0,"trial_type":"html-button-response","trial_index":36,"time_elapsed":279312,"internal_node_id":"0.0-4.0-1.14","subject_id":"5d6ee372f52ee2001b314d3a","study_id":"60edd13110225f80f9f3709b","session_id":"6196c70451ae9cdde8a939b4","condition":"contingent","relevant_dimensions":["pattern","legs"],"bee_group":{"antennae":"X","wings":"X","pattern":"S","legs":"M"},"bonus":1.0600000000000005},{"rt":4348,"stimulus":"bees-with-color/bee-A2SF.svg","response":0,"trial_type":"image-button-response","trial_index":37,"time_elapsed":283662,"internal_node_id":"0.0-4.0-0.15","subject_id":"5d6ee372f52ee2001b314d3a","study_id":"60edd13110225f80f9f3709b","session_id":"6196c70451ae9cdde8a939b4","condition":"contingent","relevant_dimensions":["pattern","legs"],"bee_group":{"antennae":"X","wings":"X","pattern":"S","legs":"M"},"action":"harvest","summary":"good-harvest","bonus":1.0600000000000005},{"rt":915,"stimulus":"\n                    <p><b>Action: <em>harvest</em></b></p>\n                    <p>This is the bee that you just saw.</p>\n                    <img src=\"bees-with-color/bee-A2SF.svg\" width=\"200\">\n                    <p><span class=\"greenText\"><b>Successful harvest!</b></span><br>Your pay has increased by $0.02. Your bonus pay is now $0.60.</p>\n            ","response":0,"trial_type":"html-button-response","trial_index":38,"time_elapsed":284579,"internal_node_id":"0.0-4.0-1.15","subject_id":"5d6ee372f52ee2001b314d3a","study_id":"60edd13110225f80f9f3709b","session_id":"6196c70451ae9cdde8a939b4","condition":"contingent","relevant_dimensions":["pattern","legs"],"bee_group":{"antennae":"X","wings":"X","pattern":"S","legs":"M"},"bonus":1.0600000000000005},{"rt":1098,"stimulus":"bees-with-color/bee-B2SM.svg","response":1,"trial_type":"image-button-response","trial_index":39,"time_elapsed":285679,"internal_node_id":"0.0-4.0-0.16","subject_id":"5d6ee372f52ee2001b314d3a","study_id":"60edd13110225f80f9f3709b","session_id":"6196c70451ae9cdde8a939b4","condition":"contingent","relevant_dimensions":["pattern","legs"],"bee_group":{"antennae":"X","wings":"X","pattern":"S","legs":"M"},"action":"avoid","summary":"good-avoid","bonus":1.0600000000000005},{"rt":2133,"stimulus":"\n                    <p><b>Action: <em>avoid</em></b></p>\n                    <p>This is the bee that you just saw.</p>\n                    <img src=\"bees-with-color/bee-B2SM.svg\" width=\"200\">\n                    <p><br>Your bonus pay is unchanged, and remains at $0.60.</p>\n            ","response":0,"trial_type":"html-button-response","trial_index":40,"time_elapsed":287813,"internal_node_id":"0.0-4.0-1.16","subject_id":"5d6ee372f52ee2001b314d3a","study_id":"60edd13110225f80f9f3709b","session_id":"6196c70451ae9cdde8a939b4","condition":"contingent","relevant_dimensions":["pattern","legs"],"bee_group":{"antennae":"X","wings":"X","pattern":"S","legs":"M"},"bonus":1.0600000000000005},{"rt":2115,"stimulus":"bees-with-color/bee-A1SF.svg","response":0,"trial_type":"image-button-response","trial_index":41,"time_elapsed":289929,"internal_node_id":"0.0-4.0-0.17","subject_id":"5d6ee372f52ee2001b314d3a","study_id":"60edd13110225f80f9f3709b","session_id":"6196c70451ae9cdde8a939b4","condition":"contingent","relevant_dimensions":["pattern","legs"],"bee_group":{"antennae":"X","wings":"X","pattern":"S","legs":"M"},"action":"harvest","summary":"good-harvest","bonus":1.0600000000000005},{"rt":865,"stimulus":"\n                    <p><b>Action: <em>harvest</em></b></p>\n                    <p>This is the bee that you just saw.</p>\n                    <img src=\"bees-with-color/bee-A1SF.svg\" width=\"200\">\n                    <p><span class=\"greenText\"><b>Successful harvest!</b></span><br>Your pay has increased by $0.02. Your bonus pay is now $0.62.</p>\n            ","response":0,"trial_type":"html-button-response","trial_index":42,"time_elapsed":290795,"internal_node_id":"0.0-4.0-1.17","subject_id":"5d6ee372f52ee2001b314d3a","study_id":"60edd13110225f80f9f3709b","session_id":"6196c70451ae9cdde8a939b4","condition":"contingent","relevant_dimensions":["pattern","legs"],"bee_group":{"antennae":"X","wings":"X","pattern":"S","legs":"M"},"bonus":1.0600000000000005},{"rt":3683,"stimulus":"bees-with-color/bee-A1SM.svg","response":1,"trial_type":"image-button-response","trial_index":43,"time_elapsed":294480,"internal_node_id":"0.0-4.0-0.18","subject_id":"5d6ee372f52ee2001b314d3a","study_id":"60edd13110225f80f9f3709b","session_id":"6196c70451ae9cdde8a939b4","condition":"contingent","relevant_dimensions":["pattern","legs"],"bee_group":{"antennae":"X","wings":"X","pattern":"S","legs":"M"},"action":"avoid","summary":"good-avoid","bonus":1.0600000000000005},{"rt":1365,"stimulus":"\n                    <p><b>Action: <em>avoid</em></b></p>\n                    <p>This is the bee that you just saw.</p>\n                    <img src=\"bees-with-color/bee-A1SM.svg\" width=\"200\">\n                    <p><br>Your bonus pay is unchanged, and remains at $0.62.</p>\n            ","response":0,"trial_type":"html-button-response","trial_index":44,"time_elapsed":295846,"internal_node_id":"0.0-4.0-1.18","subject_id":"5d6ee372f52ee2001b314d3a","study_id":"60edd13110225f80f9f3709b","session_id":"6196c70451ae9cdde8a939b4","condition":"contingent","relevant_dimensions":["pattern","legs"],"bee_group":{"antennae":"X","wings":"X","pattern":"S","legs":"M"},"bonus":1.0600000000000005},{"rt":1132,"stimulus":"bees-with-color/bee-A1DF.svg","response":0,"trial_type":"image-button-response","trial_index":45,"time_elapsed":296978,"internal_node_id":"0.0-4.0-0.19","subject_id":"5d6ee372f52ee2001b314d3a","study_id":"60edd13110225f80f9f3709b","session_id":"6196c70451ae9cdde8a939b4","condition":"contingent","relevant_dimensions":["pattern","legs"],"bee_group":{"antennae":"X","wings":"X","pattern":"S","legs":"M"},"action":"harvest","summary":"good-harvest","bonus":1.0600000000000005},{"rt":883,"stimulus":"\n                    <p><b>Action: <em>harvest</em></b></p>\n                    <p>This is the bee that you just saw.</p>\n                    <img src=\"bees-with-color/bee-A1DF.svg\" width=\"200\">\n                    <p><span class=\"greenText\"><b>Successful harvest!</b></span><br>Your pay has increased by $0.02. Your bonus pay is now $0.64.</p>\n            ","response":0,"trial_type":"html-button-response","trial_index":46,"time_elapsed":297863,"internal_node_id":"0.0-4.0-1.19","subject_id":"5d6ee372f52ee2001b314d3a","study_id":"60edd13110225f80f9f3709b","session_id":"6196c70451ae9cdde8a939b4","condition":"contingent","relevant_dimensions":["pattern","legs"],"bee_group":{"antennae":"X","wings":"X","pattern":"S","legs":"M"},"bonus":1.0600000000000005},{"rt":965,"stimulus":"bees-with-color/bee-B1DM.svg","response":1,"trial_type":"image-button-response","trial_index":47,"time_elapsed":298829,"internal_node_id":"0.0-4.0-0.20","subject_id":"5d6ee372f52ee2001b314d3a","study_id":"60edd13110225f80f9f3709b","session_id":"6196c70451ae9cdde8a939b4","condition":"contingent","relevant_dimensions":["pattern","legs"],"bee_group":{"antennae":"X","wings":"X","pattern":"S","legs":"M"},"action":"avoid","summary":"bad-avoid","bonus":1.0600000000000005},{"rt":683,"stimulus":"\n                    <p><b>Action: <em>avoid</em></b></p>\n                    <p>This is the bee that you just saw.</p>\n                    <img src=\"bees-with-color/bee-B1DM.svg\" width=\"200\">\n                    <p><br>Your bonus pay is unchanged, and remains at $0.64.</p>\n            ","response":0,"trial_type":"html-button-response","trial_index":48,"time_elapsed":299513,"internal_node_id":"0.0-4.0-1.20","subject_id":"5d6ee372f52ee2001b314d3a","study_id":"60edd13110225f80f9f3709b","session_id":"6196c70451ae9cdde8a939b4","condition":"contingent","relevant_dimensions":["pattern","legs"],"bee_group":{"antennae":"X","wings":"X","pattern":"S","legs":"M"},"bonus":1.0600000000000005},{"rt":1082,"stimulus":"bees-with-color/bee-A1DM.svg","response":1,"trial_type":"image-button-response","trial_index":49,"time_elapsed":300596,"internal_node_id":"0.0-4.0-0.21","subject_id":"5d6ee372f52ee2001b314d3a","study_id":"60edd13110225f80f9f3709b","session_id":"6196c70451ae9cdde8a939b4","condition":"contingent","relevant_dimensions":["pattern","legs"],"bee_group":{"antennae":"X","wings":"X","pattern":"S","legs":"M"},"action":"avoid","summary":"bad-avoid","bonus":1.0600000000000005},{"rt":648,"stimulus":"\n                    <p><b>Action: <em>avoid</em></b></p>\n                    <p>This is the bee that you just saw.</p>\n                    <img src=\"bees-with-color/bee-A1DM.svg\" width=\"200\">\n                    <p><br>Your bonus pay is unchanged, and remains at $0.64.</p>\n            ","response":0,"trial_type":"html-button-response","trial_index":50,"time_elapsed":301246,"internal_node_id":"0.0-4.0-1.21","subject_id":"5d6ee372f52ee2001b314d3a","study_id":"60edd13110225f80f9f3709b","session_id":"6196c70451ae9cdde8a939b4","condition":"contingent","relevant_dimensions":["pattern","legs"],"bee_group":{"antennae":"X","wings":"X","pattern":"S","legs":"M"},"bonus":1.0600000000000005},{"rt":1013,"stimulus":"bees-with-color/bee-A2DM.svg","response":1,"trial_type":"image-button-response","trial_index":51,"time_elapsed":302261,"internal_node_id":"0.0-4.0-0.22","subject_id":"5d6ee372f52ee2001b314d3a","study_id":"60edd13110225f80f9f3709b","session_id":"6196c70451ae9cdde8a939b4","condition":"contingent","relevant_dimensions":["pattern","legs"],"bee_group":{"antennae":"X","wings":"X","pattern":"S","legs":"M"},"action":"avoid","summary":"bad-avoid","bonus":1.0600000000000005},{"rt":700,"stimulus":"\n                    <p><b>Action: <em>avoid</em></b></p>\n                    <p>This is the bee that you just saw.</p>\n                    <img src=\"bees-with-color/bee-A2DM.svg\" width=\"200\">\n                    <p><br>Your bonus pay is unchanged, and remains at $0.64.</p>\n            ","response":0,"trial_type":"html-button-response","trial_index":52,"time_elapsed":302963,"internal_node_id":"0.0-4.0-1.22","subject_id":"5d6ee372f52ee2001b314d3a","study_id":"60edd13110225f80f9f3709b","session_id":"6196c70451ae9cdde8a939b4","condition":"contingent","relevant_dimensions":["pattern","legs"],"bee_group":{"antennae":"X","wings":"X","pattern":"S","legs":"M"},"bonus":1.0600000000000005},{"rt":2581,"stimulus":"bees-with-color/bee-B2DF.svg","response":0,"trial_type":"image-button-response","trial_index":53,"time_elapsed":305545,"internal_node_id":"0.0-4.0-0.23","subject_id":"5d6ee372f52ee2001b314d3a","study_id":"60edd13110225f80f9f3709b","session_id":"6196c70451ae9cdde8a939b4","condition":"contingent","relevant_dimensions":["pattern","legs"],"bee_group":{"antennae":"X","wings":"X","pattern":"S","legs":"M"},"action":"harvest","summary":"good-harvest","bonus":1.0600000000000005},{"rt":900,"stimulus":"\n                    <p><b>Action: <em>harvest</em></b></p>\n                    <p>This is the bee that you just saw.</p>\n                    <img src=\"bees-with-color/bee-B2DF.svg\" width=\"200\">\n                    <p><span class=\"greenText\"><b>Successful harvest!</b></span><br>Your pay has increased by $0.02. Your bonus pay is now $0.66.</p>\n            ","response":0,"trial_type":"html-button-response","trial_index":54,"time_elapsed":306446,"internal_node_id":"0.0-4.0-1.23","subject_id":"5d6ee372f52ee2001b314d3a","study_id":"60edd13110225f80f9f3709b","session_id":"6196c70451ae9cdde8a939b4","condition":"contingent","relevant_dimensions":["pattern","legs"],"bee_group":{"antennae":"X","wings":"X","pattern":"S","legs":"M"},"bonus":1.0600000000000005},{"rt":1832,"stimulus":"bees-with-color/bee-B2DM.svg","response":1,"trial_type":"image-button-response","trial_index":55,"time_elapsed":308279,"internal_node_id":"0.0-4.0-0.24","subject_id":"5d6ee372f52ee2001b314d3a","study_id":"60edd13110225f80f9f3709b","session_id":"6196c70451ae9cdde8a939b4","condition":"contingent","relevant_dimensions":["pattern","legs"],"bee_group":{"antennae":"X","wings":"X","pattern":"S","legs":"M"},"action":"avoid","summary":"bad-avoid","bonus":1.0600000000000005},{"rt":750,"stimulus":"\n                    <p><b>Action: <em>avoid</em></b></p>\n                    <p>This is the bee that you just saw.</p>\n                    <img src=\"bees-with-color/bee-B2DM.svg\" width=\"200\">\n                    <p><br>Your bonus pay is unchanged, and remains at $0.66.</p>\n            ","response":0,"trial_type":"html-button-response","trial_index":56,"time_elapsed":309029,"internal_node_id":"0.0-4.0-1.24","subject_id":"5d6ee372f52ee2001b314d3a","study_id":"60edd13110225f80f9f3709b","session_id":"6196c70451ae9cdde8a939b4","condition":"contingent","relevant_dimensions":["pattern","legs"],"bee_group":{"antennae":"X","wings":"X","pattern":"S","legs":"M"},"bonus":1.0600000000000005},{"rt":965,"stimulus":"bees-with-color/bee-B2SF.svg","response":0,"trial_type":"image-button-response","trial_index":57,"time_elapsed":309995,"internal_node_id":"0.0-4.0-0.25","subject_id":"5d6ee372f52ee2001b314d3a","study_id":"60edd13110225f80f9f3709b","session_id":"6196c70451ae9cdde8a939b4","condition":"contingent","relevant_dimensions":["pattern","legs"],"bee_group":{"antennae":"X","wings":"X","pattern":"S","legs":"M"},"action":"harvest","summary":"good-harvest","bonus":1.0600000000000005},{"rt":717,"stimulus":"\n                    <p><b>Action: <em>harvest</em></b></p>\n                    <p>This is the bee that you just saw.</p>\n                    <img src=\"bees-with-color/bee-B2SF.svg\" width=\"200\">\n                    <p><span class=\"greenText\"><b>Successful harvest!</b></span><br>Your pay has increased by $0.02. Your bonus pay is now $0.68.</p>\n            ","response":0,"trial_type":"html-button-response","trial_index":58,"time_elapsed":310713,"internal_node_id":"0.0-4.0-1.25","subject_id":"5d6ee372f52ee2001b314d3a","study_id":"60edd13110225f80f9f3709b","session_id":"6196c70451ae9cdde8a939b4","condition":"contingent","relevant_dimensions":["pattern","legs"],"bee_group":{"antennae":"X","wings":"X","pattern":"S","legs":"M"},"bonus":1.0600000000000005},{"rt":1682,"stimulus":"bees-with-color/bee-A2DF.svg","response":0,"trial_type":"image-button-response","trial_index":59,"time_elapsed":312396,"internal_node_id":"0.0-4.0-0.26","subject_id":"5d6ee372f52ee2001b314d3a","study_id":"60edd13110225f80f9f3709b","session_id":"6196c70451ae9cdde8a939b4","condition":"contingent","relevant_dimensions":["pattern","legs"],"bee_group":{"antennae":"X","wings":"X","pattern":"S","legs":"M"},"action":"harvest","summary":"good-harvest","bonus":1.0600000000000005},{"rt":833,"stimulus":"\n                    <p><b>Action: <em>harvest</em></b></p>\n                    <p>This is the bee that you just saw.</p>\n                    <img src=\"bees-with-color/bee-A2DF.svg\" width=\"200\">\n                    <p><span class=\"greenText\"><b>Successful harvest!</b></span><br>Your pay has increased by $0.02. Your bonus pay is now $0.70.</p>\n            ","response":0,"trial_type":"html-button-response","trial_index":60,"time_elapsed":313230,"internal_node_id":"0.0-4.0-1.26","subject_id":"5d6ee372f52ee2001b314d3a","study_id":"60edd13110225f80f9f3709b","session_id":"6196c70451ae9cdde8a939b4","condition":"contingent","relevant_dimensions":["pattern","legs"],"bee_group":{"antennae":"X","wings":"X","pattern":"S","legs":"M"},"bonus":1.0600000000000005},{"rt":9381,"stimulus":"bees-with-color/bee-B1DF.svg","response":0,"trial_type":"image-button-response","trial_index":61,"time_elapsed":322612,"internal_node_id":"0.0-4.0-0.27","subject_id":"5d6ee372f52ee2001b314d3a","study_id":"60edd13110225f80f9f3709b","session_id":"6196c70451ae9cdde8a939b4","condition":"contingent","relevant_dimensions":["pattern","legs"],"bee_group":{"antennae":"X","wings":"X","pattern":"S","legs":"M"},"action":"harvest","summary":"good-harvest","bonus":1.0600000000000005},{"rt":815,"stimulus":"\n                    <p><b>Action: <em>harvest</em></b></p>\n                    <p>This is the bee that you just saw.</p>\n                    <img src=\"bees-with-color/bee-B1DF.svg\" width=\"200\">\n                    <p><span class=\"greenText\"><b>Successful harvest!</b></span><br>Your pay has increased by $0.02. Your bonus pay is now $0.72.</p>\n            ","response":0,"trial_type":"html-button-response","trial_index":62,"time_elapsed":323429,"internal_node_id":"0.0-4.0-1.27","subject_id":"5d6ee372f52ee2001b314d3a","study_id":"60edd13110225f80f9f3709b","session_id":"6196c70451ae9cdde8a939b4","condition":"contingent","relevant_dimensions":["pattern","legs"],"bee_group":{"antennae":"X","wings":"X","pattern":"S","legs":"M"},"bonus":1.0600000000000005},{"rt":865,"stimulus":"bees-with-color/bee-B1SM.svg","response":1,"trial_type":"image-button-response","trial_index":63,"time_elapsed":324295,"internal_node_id":"0.0-4.0-0.28","subject_id":"5d6ee372f52ee2001b314d3a","study_id":"60edd13110225f80f9f3709b","session_id":"6196c70451ae9cdde8a939b4","condition":"contingent","relevant_dimensions":["pattern","legs"],"bee_group":{"antennae":"X","wings":"X","pattern":"S","legs":"M"},"action":"avoid","summary":"good-avoid","bonus":1.0600000000000005},{"rt":1065,"stimulus":"\n                    <p><b>Action: <em>avoid</em></b></p>\n                    <p>This is the bee that you just saw.</p>\n                    <img src=\"bees-with-color/bee-B1SM.svg\" width=\"200\">\n                    <p><br>Your bonus pay is unchanged, and remains at $0.72.</p>\n            ","response":0,"trial_type":"html-button-response","trial_index":64,"time_elapsed":325362,"internal_node_id":"0.0-4.0-1.28","subject_id":"5d6ee372f52ee2001b314d3a","study_id":"60edd13110225f80f9f3709b","session_id":"6196c70451ae9cdde8a939b4","condition":"contingent","relevant_dimensions":["pattern","legs"],"bee_group":{"antennae":"X","wings":"X","pattern":"S","legs":"M"},"bonus":1.0600000000000005},{"rt":2298,"stimulus":"bees-with-color/bee-B1SF.svg","response":0,"trial_type":"image-button-response","trial_index":65,"time_elapsed":327662,"internal_node_id":"0.0-4.0-0.29","subject_id":"5d6ee372f52ee2001b314d3a","study_id":"60edd13110225f80f9f3709b","session_id":"6196c70451ae9cdde8a939b4","condition":"contingent","relevant_dimensions":["pattern","legs"],"bee_group":{"antennae":"X","wings":"X","pattern":"S","legs":"M"},"action":"harvest","summary":"good-harvest","bonus":1.0600000000000005},{"rt":798,"stimulus":"\n                    <p><b>Action: <em>harvest</em></b></p>\n                    <p>This is the bee that you just saw.</p>\n                    <img src=\"bees-with-color/bee-B1SF.svg\" width=\"200\">\n                    <p><span class=\"greenText\"><b>Successful harvest!</b></span><br>Your pay has increased by $0.02. Your bonus pay is now $0.74.</p>\n            ","response":0,"trial_type":"html-button-response","trial_index":66,"time_elapsed":328462,"internal_node_id":"0.0-4.0-1.29","subject_id":"5d6ee372f52ee2001b314d3a","study_id":"60edd13110225f80f9f3709b","session_id":"6196c70451ae9cdde8a939b4","condition":"contingent","relevant_dimensions":["pattern","legs"],"bee_group":{"antennae":"X","wings":"X","pattern":"S","legs":"M"},"bonus":1.0600000000000005},{"rt":1216,"stimulus":"bees-with-color/bee-A2SF.svg","response":0,"trial_type":"image-button-response","trial_index":67,"time_elapsed":329679,"internal_node_id":"0.0-4.0-0.30","subject_id":"5d6ee372f52ee2001b314d3a","study_id":"60edd13110225f80f9f3709b","session_id":"6196c70451ae9cdde8a939b4","condition":"contingent","relevant_dimensions":["pattern","legs"],"bee_group":{"antennae":"X","wings":"X","pattern":"S","legs":"M"},"action":"harvest","summary":"good-harvest","bonus":1.0600000000000005},{"rt":781,"stimulus":"\n                    <p><b>Action: <em>harvest</em></b></p>\n                    <p>This is the bee that you just saw.</p>\n                    <img src=\"bees-with-color/bee-A2SF.svg\" width=\"200\">\n                    <p><span class=\"greenText\"><b>Successful harvest!</b></span><br>Your pay has increased by $0.02. Your bonus pay is now $0.76.</p>\n            ","response":0,"trial_type":"html-button-response","trial_index":68,"time_elapsed":330462,"internal_node_id":"0.0-4.0-1.30","subject_id":"5d6ee372f52ee2001b314d3a","study_id":"60edd13110225f80f9f3709b","session_id":"6196c70451ae9cdde8a939b4","condition":"contingent","relevant_dimensions":["pattern","legs"],"bee_group":{"antennae":"X","wings":"X","pattern":"S","legs":"M"},"bonus":1.0600000000000005},{"rt":1149,"stimulus":"bees-with-color/bee-A2SM.svg","response":1,"trial_type":"image-button-response","trial_index":69,"time_elapsed":331613,"internal_node_id":"0.0-4.0-0.31","subject_id":"5d6ee372f52ee2001b314d3a","study_id":"60edd13110225f80f9f3709b","session_id":"6196c70451ae9cdde8a939b4","condition":"contingent","relevant_dimensions":["pattern","legs"],"bee_group":{"antennae":"X","wings":"X","pattern":"S","legs":"M"},"action":"avoid","summary":"good-avoid","bonus":1.0600000000000005},{"rt":832,"stimulus":"\n                    <p><b>Action: <em>avoid</em></b></p>\n                    <p>This is the bee that you just saw.</p>\n                    <img src=\"bees-with-color/bee-A2SM.svg\" width=\"200\">\n                    <p><br>Your bonus pay is unchanged, and remains at $0.76.</p>\n            ","response":0,"trial_type":"html-button-response","trial_index":70,"time_elapsed":332446,"internal_node_id":"0.0-4.0-1.31","subject_id":"5d6ee372f52ee2001b314d3a","study_id":"60edd13110225f80f9f3709b","session_id":"6196c70451ae9cdde8a939b4","condition":"contingent","relevant_dimensions":["pattern","legs"],"bee_group":{"antennae":"X","wings":"X","pattern":"S","legs":"M"},"bonus":1.0600000000000005},{"rt":1264,"stimulus":"bees-with-color/bee-B1DM.svg","response":1,"trial_type":"image-button-response","trial_index":71,"time_elapsed":333713,"internal_node_id":"0.0-4.0-0.32","subject_id":"5d6ee372f52ee2001b314d3a","study_id":"60edd13110225f80f9f3709b","session_id":"6196c70451ae9cdde8a939b4","condition":"contingent","relevant_dimensions":["pattern","legs"],"bee_group":{"antennae":"X","wings":"X","pattern":"S","legs":"M"},"action":"avoid","summary":"bad-avoid","bonus":1.0600000000000005},{"rt":1116,"stimulus":"\n                    <p><b>Action: <em>avoid</em></b></p>\n                    <p>This is the bee that you just saw.</p>\n                    <img src=\"bees-with-color/bee-B1DM.svg\" width=\"200\">\n                    <p><br>Your bonus pay is unchanged, and remains at $0.76.</p>\n            ","response":0,"trial_type":"html-button-response","trial_index":72,"time_elapsed":334829,"internal_node_id":"0.0-4.0-1.32","subject_id":"5d6ee372f52ee2001b314d3a","study_id":"60edd13110225f80f9f3709b","session_id":"6196c70451ae9cdde8a939b4","condition":"contingent","relevant_dimensions":["pattern","legs"],"bee_group":{"antennae":"X","wings":"X","pattern":"S","legs":"M"},"bonus":1.0600000000000005},{"rt":1065,"stimulus":"bees-with-color/bee-B1SF.svg","response":0,"trial_type":"image-button-response","trial_index":73,"time_elapsed":335896,"internal_node_id":"0.0-4.0-0.33","subject_id":"5d6ee372f52ee2001b314d3a","study_id":"60edd13110225f80f9f3709b","session_id":"6196c70451ae9cdde8a939b4","condition":"contingent","relevant_dimensions":["pattern","legs"],"bee_group":{"antennae":"X","wings":"X","pattern":"S","legs":"M"},"action":"harvest","summary":"good-harvest","bonus":1.0600000000000005},{"rt":749,"stimulus":"\n                    <p><b>Action: <em>harvest</em></b></p>\n                    <p>This is the bee that you just saw.</p>\n                    <img src=\"bees-with-color/bee-B1SF.svg\" width=\"200\">\n                    <p><span class=\"greenText\"><b>Successful harvest!</b></span><br>Your pay has increased by $0.02. Your bonus pay is now $0.78.</p>\n            ","response":0,"trial_type":"html-button-response","trial_index":74,"time_elapsed":336646,"internal_node_id":"0.0-4.0-1.33","subject_id":"5d6ee372f52ee2001b314d3a","study_id":"60edd13110225f80f9f3709b","session_id":"6196c70451ae9cdde8a939b4","condition":"contingent","relevant_dimensions":["pattern","legs"],"bee_group":{"antennae":"X","wings":"X","pattern":"S","legs":"M"},"bonus":1.0600000000000005},{"rt":1249,"stimulus":"bees-with-color/bee-A1DF.svg","response":0,"trial_type":"image-button-response","trial_index":75,"time_elapsed":337897,"internal_node_id":"0.0-4.0-0.34","subject_id":"5d6ee372f52ee2001b314d3a","study_id":"60edd13110225f80f9f3709b","session_id":"6196c70451ae9cdde8a939b4","condition":"contingent","relevant_dimensions":["pattern","legs"],"bee_group":{"antennae":"X","wings":"X","pattern":"S","legs":"M"},"action":"harvest","summary":"good-harvest","bonus":1.0600000000000005},{"rt":715,"stimulus":"\n                    <p><b>Action: <em>harvest</em></b></p>\n                    <p>This is the bee that you just saw.</p>\n                    <img src=\"bees-with-color/bee-A1DF.svg\" width=\"200\">\n                    <p><span class=\"greenText\"><b>Successful harvest!</b></span><br>Your pay has increased by $0.02. Your bonus pay is now $0.80.</p>\n            ","response":0,"trial_type":"html-button-response","trial_index":76,"time_elapsed":338612,"internal_node_id":"0.0-4.0-1.34","subject_id":"5d6ee372f52ee2001b314d3a","study_id":"60edd13110225f80f9f3709b","session_id":"6196c70451ae9cdde8a939b4","condition":"contingent","relevant_dimensions":["pattern","legs"],"bee_group":{"antennae":"X","wings":"X","pattern":"S","legs":"M"},"bonus":1.0600000000000005},{"rt":1233,"stimulus":"bees-with-color/bee-B2SF.svg","response":0,"trial_type":"image-button-response","trial_index":77,"time_elapsed":339846,"internal_node_id":"0.0-4.0-0.35","subject_id":"5d6ee372f52ee2001b314d3a","study_id":"60edd13110225f80f9f3709b","session_id":"6196c70451ae9cdde8a939b4","condition":"contingent","relevant_dimensions":["pattern","legs"],"bee_group":{"antennae":"X","wings":"X","pattern":"S","legs":"M"},"action":"harvest","summary":"good-harvest","bonus":1.0600000000000005},{"rt":614,"stimulus":"\n                    <p><b>Action: <em>harvest</em></b></p>\n                    <p>This is the bee that you just saw.</p>\n                    <img src=\"bees-with-color/bee-B2SF.svg\" width=\"200\">\n                    <p><span class=\"greenText\"><b>Successful harvest!</b></span><br>Your pay has increased by $0.02. Your bonus pay is now $0.82.</p>\n            ","response":0,"trial_type":"html-button-response","trial_index":78,"time_elapsed":340463,"internal_node_id":"0.0-4.0-1.35","subject_id":"5d6ee372f52ee2001b314d3a","study_id":"60edd13110225f80f9f3709b","session_id":"6196c70451ae9cdde8a939b4","condition":"contingent","relevant_dimensions":["pattern","legs"],"bee_group":{"antennae":"X","wings":"X","pattern":"S","legs":"M"},"bonus":1.0600000000000005},{"rt":1448,"stimulus":"bees-with-color/bee-A2SF.svg","response":0,"trial_type":"image-button-response","trial_index":79,"time_elapsed":341912,"internal_node_id":"0.0-4.0-0.36","subject_id":"5d6ee372f52ee2001b314d3a","study_id":"60edd13110225f80f9f3709b","session_id":"6196c70451ae9cdde8a939b4","condition":"contingent","relevant_dimensions":["pattern","legs"],"bee_group":{"antennae":"X","wings":"X","pattern":"S","legs":"M"},"action":"harvest","summary":"good-harvest","bonus":1.0600000000000005},{"rt":1417,"stimulus":"\n                    <p><b>Action: <em>harvest</em></b></p>\n                    <p>This is the bee that you just saw.</p>\n                    <img src=\"bees-with-color/bee-A2SF.svg\" width=\"200\">\n                    <p><span class=\"greenText\"><b>Successful harvest!</b></span><br>Your pay has increased by $0.02. Your bonus pay is now $0.84.</p>\n            ","response":0,"trial_type":"html-button-response","trial_index":80,"time_elapsed":343329,"internal_node_id":"0.0-4.0-1.36","subject_id":"5d6ee372f52ee2001b314d3a","study_id":"60edd13110225f80f9f3709b","session_id":"6196c70451ae9cdde8a939b4","condition":"contingent","relevant_dimensions":["pattern","legs"],"bee_group":{"antennae":"X","wings":"X","pattern":"S","legs":"M"},"bonus":1.0600000000000005},{"rt":1247,"stimulus":"bees-with-color/bee-B1SM.svg","response":1,"trial_type":"image-button-response","trial_index":81,"time_elapsed":344579,"internal_node_id":"0.0-4.0-0.37","subject_id":"5d6ee372f52ee2001b314d3a","study_id":"60edd13110225f80f9f3709b","session_id":"6196c70451ae9cdde8a939b4","condition":"contingent","relevant_dimensions":["pattern","legs"],"bee_group":{"antennae":"X","wings":"X","pattern":"S","legs":"M"},"action":"avoid","summary":"good-avoid","bonus":1.0600000000000005},{"rt":900,"stimulus":"\n                    <p><b>Action: <em>avoid</em></b></p>\n                    <p>This is the bee that you just saw.</p>\n                    <img src=\"bees-with-color/bee-B1SM.svg\" width=\"200\">\n                    <p><br>Your bonus pay is unchanged, and remains at $0.84.</p>\n            ","response":0,"trial_type":"html-button-response","trial_index":82,"time_elapsed":345479,"internal_node_id":"0.0-4.0-1.37","subject_id":"5d6ee372f52ee2001b314d3a","study_id":"60edd13110225f80f9f3709b","session_id":"6196c70451ae9cdde8a939b4","condition":"contingent","relevant_dimensions":["pattern","legs"],"bee_group":{"antennae":"X","wings":"X","pattern":"S","legs":"M"},"bonus":1.0600000000000005},{"rt":1300,"stimulus":"bees-with-color/bee-A2DM.svg","response":1,"trial_type":"image-button-response","trial_index":83,"time_elapsed":346779,"internal_node_id":"0.0-4.0-0.38","subject_id":"5d6ee372f52ee2001b314d3a","study_id":"60edd13110225f80f9f3709b","session_id":"6196c70451ae9cdde8a939b4","condition":"contingent","relevant_dimensions":["pattern","legs"],"bee_group":{"antennae":"X","wings":"X","pattern":"S","legs":"M"},"action":"avoid","summary":"bad-avoid","bonus":1.0600000000000005},{"rt":815,"stimulus":"\n                    <p><b>Action: <em>avoid</em></b></p>\n                    <p>This is the bee that you just saw.</p>\n                    <img src=\"bees-with-color/bee-A2DM.svg\" width=\"200\">\n                    <p><br>Your bonus pay is unchanged, and remains at $0.84.</p>\n            ","response":0,"trial_type":"html-button-response","trial_index":84,"time_elapsed":347596,"internal_node_id":"0.0-4.0-1.38","subject_id":"5d6ee372f52ee2001b314d3a","study_id":"60edd13110225f80f9f3709b","session_id":"6196c70451ae9cdde8a939b4","condition":"contingent","relevant_dimensions":["pattern","legs"],"bee_group":{"antennae":"X","wings":"X","pattern":"S","legs":"M"},"bonus":1.0600000000000005},{"rt":1232,"stimulus":"bees-with-color/bee-B2SM.svg","response":1,"trial_type":"image-button-response","trial_index":85,"time_elapsed":348830,"internal_node_id":"0.0-4.0-0.39","subject_id":"5d6ee372f52ee2001b314d3a","study_id":"60edd13110225f80f9f3709b","session_id":"6196c70451ae9cdde8a939b4","condition":"contingent","relevant_dimensions":["pattern","legs"],"bee_group":{"antennae":"X","wings":"X","pattern":"S","legs":"M"},"action":"avoid","summary":"good-avoid","bonus":1.0600000000000005},{"rt":631,"stimulus":"\n                    <p><b>Action: <em>avoid</em></b></p>\n                    <p>This is the bee that you just saw.</p>\n                    <img src=\"bees-with-color/bee-B2SM.svg\" width=\"200\">\n                    <p><br>Your bonus pay is unchanged, and remains at $0.84.</p>\n            ","response":0,"trial_type":"html-button-response","trial_index":86,"time_elapsed":349462,"internal_node_id":"0.0-4.0-1.39","subject_id":"5d6ee372f52ee2001b314d3a","study_id":"60edd13110225f80f9f3709b","session_id":"6196c70451ae9cdde8a939b4","condition":"contingent","relevant_dimensions":["pattern","legs"],"bee_group":{"antennae":"X","wings":"X","pattern":"S","legs":"M"},"bonus":1.0600000000000005},{"rt":1333,"stimulus":"bees-with-color/bee-A1DM.svg","response":1,"trial_type":"image-button-response","trial_index":87,"time_elapsed":350796,"internal_node_id":"0.0-4.0-0.40","subject_id":"5d6ee372f52ee2001b314d3a","study_id":"60edd13110225f80f9f3709b","session_id":"6196c70451ae9cdde8a939b4","condition":"contingent","relevant_dimensions":["pattern","legs"],"bee_group":{"antennae":"X","wings":"X","pattern":"S","legs":"M"},"action":"avoid","summary":"bad-avoid","bonus":1.0600000000000005},{"rt":1465,"stimulus":"\n                    <p><b>Action: <em>avoid</em></b></p>\n                    <p>This is the bee that you just saw.</p>\n                    <img src=\"bees-with-color/bee-A1DM.svg\" width=\"200\">\n                    <p><br>Your bonus pay is unchanged, and remains at $0.84.</p>\n            ","response":0,"trial_type":"html-button-response","trial_index":88,"time_elapsed":352263,"internal_node_id":"0.0-4.0-1.40","subject_id":"5d6ee372f52ee2001b314d3a","study_id":"60edd13110225f80f9f3709b","session_id":"6196c70451ae9cdde8a939b4","condition":"contingent","relevant_dimensions":["pattern","legs"],"bee_group":{"antennae":"X","wings":"X","pattern":"S","legs":"M"},"bonus":1.0600000000000005},{"rt":1698,"stimulus":"bees-with-color/bee-A1SM.svg","response":1,"trial_type":"image-button-response","trial_index":89,"time_elapsed":353962,"internal_node_id":"0.0-4.0-0.41","subject_id":"5d6ee372f52ee2001b314d3a","study_id":"60edd13110225f80f9f3709b","session_id":"6196c70451ae9cdde8a939b4","condition":"contingent","relevant_dimensions":["pattern","legs"],"bee_group":{"antennae":"X","wings":"X","pattern":"S","legs":"M"},"action":"avoid","summary":"good-avoid","bonus":1.0600000000000005},{"rt":600,"stimulus":"\n                    <p><b>Action: <em>avoid</em></b></p>\n                    <p>This is the bee that you just saw.</p>\n                    <img src=\"bees-with-color/bee-A1SM.svg\" width=\"200\">\n                    <p><br>Your bonus pay is unchanged, and remains at $0.84.</p>\n            ","response":0,"trial_type":"html-button-response","trial_index":90,"time_elapsed":354563,"internal_node_id":"0.0-4.0-1.41","subject_id":"5d6ee372f52ee2001b314d3a","study_id":"60edd13110225f80f9f3709b","session_id":"6196c70451ae9cdde8a939b4","condition":"contingent","relevant_dimensions":["pattern","legs"],"bee_group":{"antennae":"X","wings":"X","pattern":"S","legs":"M"},"bonus":1.0600000000000005},{"rt":1380,"stimulus":"bees-with-color/bee-B2DF.svg","response":0,"trial_type":"image-button-response","trial_index":91,"time_elapsed":355946,"internal_node_id":"0.0-4.0-0.42","subject_id":"5d6ee372f52ee2001b314d3a","study_id":"60edd13110225f80f9f3709b","session_id":"6196c70451ae9cdde8a939b4","condition":"contingent","relevant_dimensions":["pattern","legs"],"bee_group":{"antennae":"X","wings":"X","pattern":"S","legs":"M"},"action":"harvest","summary":"good-harvest","bonus":1.0600000000000005},{"rt":1015,"stimulus":"\n                    <p><b>Action: <em>harvest</em></b></p>\n                    <p>This is the bee that you just saw.</p>\n                    <img src=\"bees-with-color/bee-B2DF.svg\" width=\"200\">\n                    <p><span class=\"greenText\"><b>Successful harvest!</b></span><br>Your pay has increased by $0.02. Your bonus pay is now $0.86.</p>\n            ","response":0,"trial_type":"html-button-response","trial_index":92,"time_elapsed":356962,"internal_node_id":"0.0-4.0-1.42","subject_id":"5d6ee372f52ee2001b314d3a","study_id":"60edd13110225f80f9f3709b","session_id":"6196c70451ae9cdde8a939b4","condition":"contingent","relevant_dimensions":["pattern","legs"],"bee_group":{"antennae":"X","wings":"X","pattern":"S","legs":"M"},"bonus":1.0600000000000005},{"rt":1700,"stimulus":"bees-with-color/bee-B2DM.svg","response":1,"trial_type":"image-button-response","trial_index":93,"time_elapsed":358662,"internal_node_id":"0.0-4.0-0.43","subject_id":"5d6ee372f52ee2001b314d3a","study_id":"60edd13110225f80f9f3709b","session_id":"6196c70451ae9cdde8a939b4","condition":"contingent","relevant_dimensions":["pattern","legs"],"bee_group":{"antennae":"X","wings":"X","pattern":"S","legs":"M"},"action":"avoid","summary":"bad-avoid","bonus":1.0600000000000005},{"rt":663,"stimulus":"\n                    <p><b>Action: <em>avoid</em></b></p>\n                    <p>This is the bee that you just saw.</p>\n                    <img src=\"bees-with-color/bee-B2DM.svg\" width=\"200\">\n                    <p><br>Your bonus pay is unchanged, and remains at $0.86.</p>\n            ","response":0,"trial_type":"html-button-response","trial_index":94,"time_elapsed":359329,"internal_node_id":"0.0-4.0-1.43","subject_id":"5d6ee372f52ee2001b314d3a","study_id":"60edd13110225f80f9f3709b","session_id":"6196c70451ae9cdde8a939b4","condition":"contingent","relevant_dimensions":["pattern","legs"],"bee_group":{"antennae":"X","wings":"X","pattern":"S","legs":"M"},"bonus":1.0600000000000005},{"rt":1116,"stimulus":"bees-with-color/bee-B1DF.svg","response":0,"trial_type":"image-button-response","trial_index":95,"time_elapsed":360445,"internal_node_id":"0.0-4.0-0.44","subject_id":"5d6ee372f52ee2001b314d3a","study_id":"60edd13110225f80f9f3709b","session_id":"6196c70451ae9cdde8a939b4","condition":"contingent","relevant_dimensions":["pattern","legs"],"bee_group":{"antennae":"X","wings":"X","pattern":"S","legs":"M"},"action":"harvest","summary":"good-harvest","bonus":1.0600000000000005},{"rt":850,"stimulus":"\n                    <p><b>Action: <em>harvest</em></b></p>\n                    <p>This is the bee that you just saw.</p>\n                    <img src=\"bees-with-color/bee-B1DF.svg\" width=\"200\">\n                    <p><span class=\"greenText\"><b>Successful harvest!</b></span><br>Your pay has increased by $0.02. Your bonus pay is now $0.88.</p>\n            ","response":0,"trial_type":"html-button-response","trial_index":96,"time_elapsed":361296,"internal_node_id":"0.0-4.0-1.44","subject_id":"5d6ee372f52ee2001b314d3a","study_id":"60edd13110225f80f9f3709b","session_id":"6196c70451ae9cdde8a939b4","condition":"contingent","relevant_dimensions":["pattern","legs"],"bee_group":{"antennae":"X","wings":"X","pattern":"S","legs":"M"},"bonus":1.0600000000000005},{"rt":1265,"stimulus":"bees-with-color/bee-A2SM.svg","response":1,"trial_type":"image-button-response","trial_index":97,"time_elapsed":362562,"internal_node_id":"0.0-4.0-0.45","subject_id":"5d6ee372f52ee2001b314d3a","study_id":"60edd13110225f80f9f3709b","session_id":"6196c70451ae9cdde8a939b4","condition":"contingent","relevant_dimensions":["pattern","legs"],"bee_group":{"antennae":"X","wings":"X","pattern":"S","legs":"M"},"action":"avoid","summary":"good-avoid","bonus":1.0600000000000005},{"rt":549,"stimulus":"\n                    <p><b>Action: <em>avoid</em></b></p>\n                    <p>This is the bee that you just saw.</p>\n                    <img src=\"bees-with-color/bee-A2SM.svg\" width=\"200\">\n                    <p><br>Your bonus pay is unchanged, and remains at $0.88.</p>\n            ","response":0,"trial_type":"html-button-response","trial_index":98,"time_elapsed":363113,"internal_node_id":"0.0-4.0-1.45","subject_id":"5d6ee372f52ee2001b314d3a","study_id":"60edd13110225f80f9f3709b","session_id":"6196c70451ae9cdde8a939b4","condition":"contingent","relevant_dimensions":["pattern","legs"],"bee_group":{"antennae":"X","wings":"X","pattern":"S","legs":"M"},"bonus":1.0600000000000005},{"rt":1565,"stimulus":"bees-with-color/bee-A2DF.svg","response":0,"trial_type":"image-button-response","trial_index":99,"time_elapsed":364680,"internal_node_id":"0.0-4.0-0.46","subject_id":"5d6ee372f52ee2001b314d3a","study_id":"60edd13110225f80f9f3709b","session_id":"6196c70451ae9cdde8a939b4","condition":"contingent","relevant_dimensions":["pattern","legs"],"bee_group":{"antennae":"X","wings":"X","pattern":"S","legs":"M"},"action":"harvest","summary":"good-harvest","bonus":1.0600000000000005},{"rt":747,"stimulus":"\n                    <p><b>Action: <em>harvest</em></b></p>\n                    <p>This is the bee that you just saw.</p>\n                    <img src=\"bees-with-color/bee-A2DF.svg\" width=\"200\">\n                    <p><span class=\"greenText\"><b>Successful harvest!</b></span><br>Your pay has increased by $0.02. Your bonus pay is now $0.90.</p>\n            ","response":0,"trial_type":"html-button-response","trial_index":100,"time_elapsed":365430,"internal_node_id":"0.0-4.0-1.46","subject_id":"5d6ee372f52ee2001b314d3a","study_id":"60edd13110225f80f9f3709b","session_id":"6196c70451ae9cdde8a939b4","condition":"contingent","relevant_dimensions":["pattern","legs"],"bee_group":{"antennae":"X","wings":"X","pattern":"S","legs":"M"},"bonus":1.0600000000000005},{"rt":1379,"stimulus":"bees-with-color/bee-A1SF.svg","response":0,"trial_type":"image-button-response","trial_index":101,"time_elapsed":366812,"internal_node_id":"0.0-4.0-0.47","subject_id":"5d6ee372f52ee2001b314d3a","study_id":"60edd13110225f80f9f3709b","session_id":"6196c70451ae9cdde8a939b4","condition":"contingent","relevant_dimensions":["pattern","legs"],"bee_group":{"antennae":"X","wings":"X","pattern":"S","legs":"M"},"action":"harvest","summary":"good-harvest","bonus":1.0600000000000005},{"rt":682,"stimulus":"\n                    <p><b>Action: <em>harvest</em></b></p>\n                    <p>This is the bee that you just saw.</p>\n                    <img src=\"bees-with-color/bee-A1SF.svg\" width=\"200\">\n                    <p><span class=\"greenText\"><b>Successful harvest!</b></span><br>Your pay has increased by $0.02. Your bonus pay is now $0.92.</p>\n            ","response":0,"trial_type":"html-button-response","trial_index":102,"time_elapsed":367496,"internal_node_id":"0.0-4.0-1.47","subject_id":"5d6ee372f52ee2001b314d3a","study_id":"60edd13110225f80f9f3709b","session_id":"6196c70451ae9cdde8a939b4","condition":"contingent","relevant_dimensions":["pattern","legs"],"bee_group":{"antennae":"X","wings":"X","pattern":"S","legs":"M"},"bonus":1.0600000000000005},{"rt":1347,"stimulus":"bees-with-color/bee-A1SM.svg","response":1,"trial_type":"image-button-response","trial_index":103,"time_elapsed":368846,"internal_node_id":"0.0-4.0-0.48","subject_id":"5d6ee372f52ee2001b314d3a","study_id":"60edd13110225f80f9f3709b","session_id":"6196c70451ae9cdde8a939b4","condition":"contingent","relevant_dimensions":["pattern","legs"],"bee_group":{"antennae":"X","wings":"X","pattern":"S","legs":"M"},"action":"avoid","summary":"good-avoid","bonus":1.0600000000000005},{"rt":895,"stimulus":"\n                    <p><b>Action: <em>avoid</em></b></p>\n                    <p>This is the bee that you just saw.</p>\n                    <img src=\"bees-with-color/bee-A1SM.svg\" width=\"200\">\n                    <p><br>Your bonus pay is unchanged, and remains at $0.92.</p>\n            ","response":0,"trial_type":"html-button-response","trial_index":104,"time_elapsed":369742,"internal_node_id":"0.0-4.0-1.48","subject_id":"5d6ee372f52ee2001b314d3a","study_id":"60edd13110225f80f9f3709b","session_id":"6196c70451ae9cdde8a939b4","condition":"contingent","relevant_dimensions":["pattern","legs"],"bee_group":{"antennae":"X","wings":"X","pattern":"S","legs":"M"},"bonus":1.0600000000000005},{"rt":2286,"stimulus":"bees-with-color/bee-B1DF.svg","response":0,"trial_type":"image-button-response","trial_index":105,"time_elapsed":372030,"internal_node_id":"0.0-4.0-0.49","subject_id":"5d6ee372f52ee2001b314d3a","study_id":"60edd13110225f80f9f3709b","session_id":"6196c70451ae9cdde8a939b4","condition":"contingent","relevant_dimensions":["pattern","legs"],"bee_group":{"antennae":"X","wings":"X","pattern":"S","legs":"M"},"action":"harvest","summary":"good-harvest","bonus":1.0600000000000005},{"rt":697,"stimulus":"\n                    <p><b>Action: <em>harvest</em></b></p>\n                    <p>This is the bee that you just saw.</p>\n                    <img src=\"bees-with-color/bee-B1DF.svg\" width=\"200\">\n                    <p><span class=\"greenText\"><b>Successful harvest!</b></span><br>Your pay has increased by $0.02. Your bonus pay is now $0.94.</p>\n            ","response":0,"trial_type":"html-button-response","trial_index":106,"time_elapsed":372730,"internal_node_id":"0.0-4.0-1.49","subject_id":"5d6ee372f52ee2001b314d3a","study_id":"60edd13110225f80f9f3709b","session_id":"6196c70451ae9cdde8a939b4","condition":"contingent","relevant_dimensions":["pattern","legs"],"bee_group":{"antennae":"X","wings":"X","pattern":"S","legs":"M"},"bonus":1.0600000000000005},{"rt":1565,"stimulus":"bees-with-color/bee-A2DF.svg","response":0,"trial_type":"image-button-response","trial_index":107,"time_elapsed":374296,"internal_node_id":"0.0-4.0-0.50","subject_id":"5d6ee372f52ee2001b314d3a","study_id":"60edd13110225f80f9f3709b","session_id":"6196c70451ae9cdde8a939b4","condition":"contingent","relevant_dimensions":["pattern","legs"],"bee_group":{"antennae":"X","wings":"X","pattern":"S","legs":"M"},"action":"harvest","summary":"good-harvest","bonus":1.0600000000000005},{"rt":1348,"stimulus":"\n                    <p><b>Action: <em>harvest</em></b></p>\n                    <p>This is the bee that you just saw.</p>\n                    <img src=\"bees-with-color/bee-A2DF.svg\" width=\"200\">\n                    <p><span class=\"greenText\"><b>Successful harvest!</b></span><br>Your pay has increased by $0.02. Your bonus pay is now $0.96.</p>\n            ","response":0,"trial_type":"html-button-response","trial_index":108,"time_elapsed":375646,"internal_node_id":"0.0-4.0-1.50","subject_id":"5d6ee372f52ee2001b314d3a","study_id":"60edd13110225f80f9f3709b","session_id":"6196c70451ae9cdde8a939b4","condition":"contingent","relevant_dimensions":["pattern","legs"],"bee_group":{"antennae":"X","wings":"X","pattern":"S","legs":"M"},"bonus":1.0600000000000005},{"rt":1165,"stimulus":"bees-with-color/bee-A2SM.svg","response":1,"trial_type":"image-button-response","trial_index":109,"time_elapsed":376813,"internal_node_id":"0.0-4.0-0.51","subject_id":"5d6ee372f52ee2001b314d3a","study_id":"60edd13110225f80f9f3709b","session_id":"6196c70451ae9cdde8a939b4","condition":"contingent","relevant_dimensions":["pattern","legs"],"bee_group":{"antennae":"X","wings":"X","pattern":"S","legs":"M"},"action":"avoid","summary":"good-avoid","bonus":1.0600000000000005},{"rt":879,"stimulus":"\n                    <p><b>Action: <em>avoid</em></b></p>\n                    <p>This is the bee that you just saw.</p>\n                    <img src=\"bees-with-color/bee-A2SM.svg\" width=\"200\">\n                    <p><br>Your bonus pay is unchanged, and remains at $0.96.</p>\n            ","response":0,"trial_type":"html-button-response","trial_index":110,"time_elapsed":377696,"internal_node_id":"0.0-4.0-1.51","subject_id":"5d6ee372f52ee2001b314d3a","study_id":"60edd13110225f80f9f3709b","session_id":"6196c70451ae9cdde8a939b4","condition":"contingent","relevant_dimensions":["pattern","legs"],"bee_group":{"antennae":"X","wings":"X","pattern":"S","legs":"M"},"bonus":1.0600000000000005},{"rt":1232,"stimulus":"bees-with-color/bee-B2DF.svg","response":0,"trial_type":"image-button-response","trial_index":111,"time_elapsed":378928,"internal_node_id":"0.0-4.0-0.52","subject_id":"5d6ee372f52ee2001b314d3a","study_id":"60edd13110225f80f9f3709b","session_id":"6196c70451ae9cdde8a939b4","condition":"contingent","relevant_dimensions":["pattern","legs"],"bee_group":{"antennae":"X","wings":"X","pattern":"S","legs":"M"},"action":"harvest","summary":"good-harvest","bonus":1.0600000000000005},{"rt":833,"stimulus":"\n                    <p><b>Action: <em>harvest</em></b></p>\n                    <p>This is the bee that you just saw.</p>\n                    <img src=\"bees-with-color/bee-B2DF.svg\" width=\"200\">\n                    <p><span class=\"greenText\"><b>Successful harvest!</b></span><br>Your pay has increased by $0.02. Your bonus pay is now $0.98.</p>\n            ","response":0,"trial_type":"html-button-response","trial_index":112,"time_elapsed":379762,"internal_node_id":"0.0-4.0-1.52","subject_id":"5d6ee372f52ee2001b314d3a","study_id":"60edd13110225f80f9f3709b","session_id":"6196c70451ae9cdde8a939b4","condition":"contingent","relevant_dimensions":["pattern","legs"],"bee_group":{"antennae":"X","wings":"X","pattern":"S","legs":"M"},"bonus":1.0600000000000005},{"rt":999,"stimulus":"bees-with-color/bee-B2DM.svg","response":1,"trial_type":"image-button-response","trial_index":113,"time_elapsed":380762,"internal_node_id":"0.0-4.0-0.53","subject_id":"5d6ee372f52ee2001b314d3a","study_id":"60edd13110225f80f9f3709b","session_id":"6196c70451ae9cdde8a939b4","condition":"contingent","relevant_dimensions":["pattern","legs"],"bee_group":{"antennae":"X","wings":"X","pattern":"S","legs":"M"},"action":"avoid","summary":"bad-avoid","bonus":1.0600000000000005},{"rt":831,"stimulus":"\n                    <p><b>Action: <em>avoid</em></b></p>\n                    <p>This is the bee that you just saw.</p>\n                    <img src=\"bees-with-color/bee-B2DM.svg\" width=\"200\">\n                    <p><br>Your bonus pay is unchanged, and remains at $0.98.</p>\n            ","response":0,"trial_type":"html-button-response","trial_index":114,"time_elapsed":381596,"internal_node_id":"0.0-4.0-1.53","subject_id":"5d6ee372f52ee2001b314d3a","study_id":"60edd13110225f80f9f3709b","session_id":"6196c70451ae9cdde8a939b4","condition":"contingent","relevant_dimensions":["pattern","legs"],"bee_group":{"antennae":"X","wings":"X","pattern":"S","legs":"M"},"bonus":1.0600000000000005},{"rt":1448,"stimulus":"bees-with-color/bee-B1DM.svg","response":1,"trial_type":"image-button-response","trial_index":115,"time_elapsed":383046,"internal_node_id":"0.0-4.0-0.54","subject_id":"5d6ee372f52ee2001b314d3a","study_id":"60edd13110225f80f9f3709b","session_id":"6196c70451ae9cdde8a939b4","condition":"contingent","relevant_dimensions":["pattern","legs"],"bee_group":{"antennae":"X","wings":"X","pattern":"S","legs":"M"},"action":"avoid","summary":"bad-avoid","bonus":1.0600000000000005},{"rt":547,"stimulus":"\n                    <p><b>Action: <em>avoid</em></b></p>\n                    <p>This is the bee that you just saw.</p>\n                    <img src=\"bees-with-color/bee-B1DM.svg\" width=\"200\">\n                    <p><br>Your bonus pay is unchanged, and remains at $0.98.</p>\n            ","response":0,"trial_type":"html-button-response","trial_index":116,"time_elapsed":383596,"internal_node_id":"0.0-4.0-1.54","subject_id":"5d6ee372f52ee2001b314d3a","study_id":"60edd13110225f80f9f3709b","session_id":"6196c70451ae9cdde8a939b4","condition":"contingent","relevant_dimensions":["pattern","legs"],"bee_group":{"antennae":"X","wings":"X","pattern":"S","legs":"M"},"bonus":1.0600000000000005},{"rt":1866,"stimulus":"bees-with-color/bee-A1DF.svg","response":0,"trial_type":"image-button-response","trial_index":117,"time_elapsed":385463,"internal_node_id":"0.0-4.0-0.55","subject_id":"5d6ee372f52ee2001b314d3a","study_id":"60edd13110225f80f9f3709b","session_id":"6196c70451ae9cdde8a939b4","condition":"contingent","relevant_dimensions":["pattern","legs"],"bee_group":{"antennae":"X","wings":"X","pattern":"S","legs":"M"},"action":"harvest","summary":"good-harvest","bonus":1.0600000000000005},{"rt":1182,"stimulus":"\n                    <p><b>Action: <em>harvest</em></b></p>\n                    <p>This is the bee that you just saw.</p>\n                    <img src=\"bees-with-color/bee-A1DF.svg\" width=\"200\">\n                    <p><span class=\"greenText\"><b>Successful harvest!</b></span><br>Your pay has increased by $0.02. Your bonus pay is now $1.00.</p>\n            ","response":0,"trial_type":"html-button-response","trial_index":118,"time_elapsed":386646,"internal_node_id":"0.0-4.0-1.55","subject_id":"5d6ee372f52ee2001b314d3a","study_id":"60edd13110225f80f9f3709b","session_id":"6196c70451ae9cdde8a939b4","condition":"contingent","relevant_dimensions":["pattern","legs"],"bee_group":{"antennae":"X","wings":"X","pattern":"S","legs":"M"},"bonus":1.0600000000000005},{"rt":1166,"stimulus":"bees-with-color/bee-A1SF.svg","response":0,"trial_type":"image-button-response","trial_index":119,"time_elapsed":387812,"internal_node_id":"0.0-4.0-0.56","subject_id":"5d6ee372f52ee2001b314d3a","study_id":"60edd13110225f80f9f3709b","session_id":"6196c70451ae9cdde8a939b4","condition":"contingent","relevant_dimensions":["pattern","legs"],"bee_group":{"antennae":"X","wings":"X","pattern":"S","legs":"M"},"action":"harvest","summary":"good-harvest","bonus":1.0600000000000005},{"rt":581,"stimulus":"\n                    <p><b>Action: <em>harvest</em></b></p>\n                    <p>This is the bee that you just saw.</p>\n                    <img src=\"bees-with-color/bee-A1SF.svg\" width=\"200\">\n                    <p><span class=\"greenText\"><b>Successful harvest!</b></span><br>Your pay has increased by $0.02. Your bonus pay is now $1.02.</p>\n            ","response":0,"trial_type":"html-button-response","trial_index":120,"time_elapsed":388396,"internal_node_id":"0.0-4.0-1.56","subject_id":"5d6ee372f52ee2001b314d3a","study_id":"60edd13110225f80f9f3709b","session_id":"6196c70451ae9cdde8a939b4","condition":"contingent","relevant_dimensions":["pattern","legs"],"bee_group":{"antennae":"X","wings":"X","pattern":"S","legs":"M"},"bonus":1.0600000000000005},{"rt":1048,"stimulus":"bees-with-color/bee-A2SF.svg","response":0,"trial_type":"image-button-response","trial_index":121,"time_elapsed":389445,"internal_node_id":"0.0-4.0-0.57","subject_id":"5d6ee372f52ee2001b314d3a","study_id":"60edd13110225f80f9f3709b","session_id":"6196c70451ae9cdde8a939b4","condition":"contingent","relevant_dimensions":["pattern","legs"],"bee_group":{"antennae":"X","wings":"X","pattern":"S","legs":"M"},"action":"harvest","summary":"good-harvest","bonus":1.0600000000000005},{"rt":732,"stimulus":"\n                    <p><b>Action: <em>harvest</em></b></p>\n                    <p>This is the bee that you just saw.</p>\n                    <img src=\"bees-with-color/bee-A2SF.svg\" width=\"200\">\n                    <p><span class=\"greenText\"><b>Successful harvest!</b></span><br>Your pay has increased by $0.02. Your bonus pay is now $1.04.</p>\n            ","response":0,"trial_type":"html-button-response","trial_index":122,"time_elapsed":390179,"internal_node_id":"0.0-4.0-1.57","subject_id":"5d6ee372f52ee2001b314d3a","study_id":"60edd13110225f80f9f3709b","session_id":"6196c70451ae9cdde8a939b4","condition":"contingent","relevant_dimensions":["pattern","legs"],"bee_group":{"antennae":"X","wings":"X","pattern":"S","legs":"M"},"bonus":1.0600000000000005},{"rt":899,"stimulus":"bees-with-color/bee-B2SM.svg","response":1,"trial_type":"image-button-response","trial_index":123,"time_elapsed":391079,"internal_node_id":"0.0-4.0-0.58","subject_id":"5d6ee372f52ee2001b314d3a","study_id":"60edd13110225f80f9f3709b","session_id":"6196c70451ae9cdde8a939b4","condition":"contingent","relevant_dimensions":["pattern","legs"],"bee_group":{"antennae":"X","wings":"X","pattern":"S","legs":"M"},"action":"avoid","summary":"good-avoid","bonus":1.0600000000000005},{"rt":1096,"stimulus":"\n                    <p><b>Action: <em>avoid</em></b></p>\n                    <p>This is the bee that you just saw.</p>\n                    <img src=\"bees-with-color/bee-B2SM.svg\" width=\"200\">\n                    <p><br>Your bonus pay is unchanged, and remains at $1.04.</p>\n            ","response":0,"trial_type":"html-button-response","trial_index":124,"time_elapsed":392178,"internal_node_id":"0.0-4.0-1.58","subject_id":"5d6ee372f52ee2001b314d3a","study_id":"60edd13110225f80f9f3709b","session_id":"6196c70451ae9cdde8a939b4","condition":"contingent","relevant_dimensions":["pattern","legs"],"bee_group":{"antennae":"X","wings":"X","pattern":"S","legs":"M"},"bonus":1.0600000000000005},{"rt":1400,"stimulus":"bees-with-color/bee-B2SF.svg","response":0,"trial_type":"image-button-response","trial_index":125,"time_elapsed":393579,"internal_node_id":"0.0-4.0-0.59","subject_id":"5d6ee372f52ee2001b314d3a","study_id":"60edd13110225f80f9f3709b","session_id":"6196c70451ae9cdde8a939b4","condition":"contingent","relevant_dimensions":["pattern","legs"],"bee_group":{"antennae":"X","wings":"X","pattern":"S","legs":"M"},"action":"harvest","summary":"good-harvest","bonus":1.0600000000000005},{"rt":597,"stimulus":"\n                    <p><b>Action: <em>harvest</em></b></p>\n                    <p>This is the bee that you just saw.</p>\n                    <img src=\"bees-with-color/bee-B2SF.svg\" width=\"200\">\n                    <p><span class=\"greenText\"><b>Successful harvest!</b></span><br>Your pay has increased by $0.02. Your bonus pay is now $1.06.</p>\n            ","response":0,"trial_type":"html-button-response","trial_index":126,"time_elapsed":394179,"internal_node_id":"0.0-4.0-1.59","subject_id":"5d6ee372f52ee2001b314d3a","study_id":"60edd13110225f80f9f3709b","session_id":"6196c70451ae9cdde8a939b4","condition":"contingent","relevant_dimensions":["pattern","legs"],"bee_group":{"antennae":"X","wings":"X","pattern":"S","legs":"M"},"bonus":1.0600000000000005},{"rt":1034,"stimulus":"bees-with-color/bee-B1SM.svg","response":1,"trial_type":"image-button-response","trial_index":127,"time_elapsed":395212,"internal_node_id":"0.0-4.0-0.60","subject_id":"5d6ee372f52ee2001b314d3a","study_id":"60edd13110225f80f9f3709b","session_id":"6196c70451ae9cdde8a939b4","condition":"contingent","relevant_dimensions":["pattern","legs"],"bee_group":{"antennae":"X","wings":"X","pattern":"S","legs":"M"},"action":"avoid","summary":"good-avoid","bonus":1.0600000000000005},{"rt":682,"stimulus":"\n                    <p><b>Action: <em>avoid</em></b></p>\n                    <p>This is the bee that you just saw.</p>\n                    <img src=\"bees-with-color/bee-B1SM.svg\" width=\"200\">\n                    <p><br>Your bonus pay is unchanged, and remains at $1.06.</p>\n            ","response":0,"trial_type":"html-button-response","trial_index":128,"time_elapsed":395895,"internal_node_id":"0.0-4.0-1.60","subject_id":"5d6ee372f52ee2001b314d3a","study_id":"60edd13110225f80f9f3709b","session_id":"6196c70451ae9cdde8a939b4","condition":"contingent","relevant_dimensions":["pattern","legs"],"bee_group":{"antennae":"X","wings":"X","pattern":"S","legs":"M"},"bonus":1.0600000000000005},{"rt":2032,"stimulus":"bees-with-color/bee-B1SF.svg","response":0,"trial_type":"image-button-response","trial_index":129,"time_elapsed":397929,"internal_node_id":"0.0-4.0-0.61","subject_id":"5d6ee372f52ee2001b314d3a","study_id":"60edd13110225f80f9f3709b","session_id":"6196c70451ae9cdde8a939b4","condition":"contingent","relevant_dimensions":["pattern","legs"],"bee_group":{"antennae":"X","wings":"X","pattern":"S","legs":"M"},"action":"harvest","summary":"good-harvest","bonus":1.0600000000000005},{"rt":616,"stimulus":"\n                    <p><b>Action: <em>harvest</em></b></p>\n                    <p>This is the bee that you just saw.</p>\n                    <img src=\"bees-with-color/bee-B1SF.svg\" width=\"200\">\n                    <p><span class=\"greenText\"><b>Successful harvest!</b></span><br>Your pay has increased by $0.02. Your bonus pay is now $1.08.</p>\n            ","response":0,"trial_type":"html-button-response","trial_index":130,"time_elapsed":398546,"internal_node_id":"0.0-4.0-1.61","subject_id":"5d6ee372f52ee2001b314d3a","study_id":"60edd13110225f80f9f3709b","session_id":"6196c70451ae9cdde8a939b4","condition":"contingent","relevant_dimensions":["pattern","legs"],"bee_group":{"antennae":"X","wings":"X","pattern":"S","legs":"M"},"bonus":1.0600000000000005},{"rt":1233,"stimulus":"bees-with-color/bee-A1DM.svg","response":1,"trial_type":"image-button-response","trial_index":131,"time_elapsed":399780,"internal_node_id":"0.0-4.0-0.62","subject_id":"5d6ee372f52ee2001b314d3a","study_id":"60edd13110225f80f9f3709b","session_id":"6196c70451ae9cdde8a939b4","condition":"contingent","relevant_dimensions":["pattern","legs"],"bee_group":{"antennae":"X","wings":"X","pattern":"S","legs":"M"},"action":"avoid","summary":"bad-avoid","bonus":1.0600000000000005},{"rt":548,"stimulus":"\n                    <p><b>Action: <em>avoid</em></b></p>\n                    <p>This is the bee that you just saw.</p>\n                    <img src=\"bees-with-color/bee-A1DM.svg\" width=\"200\">\n                    <p><br>Your bonus pay is unchanged, and remains at $1.08.</p>\n            ","response":0,"trial_type":"html-button-response","trial_index":132,"time_elapsed":400329,"internal_node_id":"0.0-4.0-1.62","subject_id":"5d6ee372f52ee2001b314d3a","study_id":"60edd13110225f80f9f3709b","session_id":"6196c70451ae9cdde8a939b4","condition":"contingent","relevant_dimensions":["pattern","legs"],"bee_group":{"antennae":"X","wings":"X","pattern":"S","legs":"M"},"bonus":1.0600000000000005},{"rt":865,"stimulus":"bees-with-color/bee-A2DM.svg","response":1,"trial_type":"image-button-response","trial_index":133,"time_elapsed":401195,"internal_node_id":"0.0-4.0-0.63","subject_id":"5d6ee372f52ee2001b314d3a","study_id":"60edd13110225f80f9f3709b","session_id":"6196c70451ae9cdde8a939b4","condition":"contingent","relevant_dimensions":["pattern","legs"],"bee_group":{"antennae":"X","wings":"X","pattern":"S","legs":"M"},"action":"avoid","summary":"bad-avoid","bonus":1.0600000000000005},{"rt":599,"stimulus":"\n                    <p><b>Action: <em>avoid</em></b></p>\n                    <p>This is the bee that you just saw.</p>\n                    <img src=\"bees-with-color/bee-A2DM.svg\" width=\"200\">\n                    <p><br>Your bonus pay is unchanged, and remains at $1.08.</p>\n            ","response":0,"trial_type":"html-button-response","trial_index":134,"time_elapsed":401796,"internal_node_id":"0.0-4.0-1.63","subject_id":"5d6ee372f52ee2001b314d3a","study_id":"60edd13110225f80f9f3709b","session_id":"6196c70451ae9cdde8a939b4","condition":"contingent","relevant_dimensions":["pattern","legs"],"bee_group":{"antennae":"X","wings":"X","pattern":"S","legs":"M"},"bonus":1.0600000000000005},{"rt":7400,"stimulus":"You have completed the first part of this experiment.<br><br>You will now begin a shorter second part, in which you will receive no feedback.<br>The same rules regarding bonus pay apply.<br><br>Press any key to begin.","response":"enter","trial_type":"html-keyboard-response","trial_index":135,"time_elapsed":409197,"internal_node_id":"0.0-5.0","subject_id":"5d6ee372f52ee2001b314d3a","study_id":"60edd13110225f80f9f3709b","session_id":"6196c70451ae9cdde8a939b4","condition":"contingent","relevant_dimensions":["pattern","legs"],"bee_group":{"antennae":"X","wings":"X","pattern":"S","legs":"M"},"bonus":1.0600000000000005},{"rt":4096,"stimulus":"bees-with-color/bee-A1DF.svg","response":0,"trial_type":"image-button-response","trial_index":136,"time_elapsed":413296,"internal_node_id":"0.0-6.0-0.0","subject_id":"5d6ee372f52ee2001b314d3a","study_id":"60edd13110225f80f9f3709b","session_id":"6196c70451ae9cdde8a939b4","condition":"contingent","relevant_dimensions":["pattern","legs"],"bee_group":{"antennae":"X","wings":"X","pattern":"S","legs":"M"},"bonus":1.0600000000000005},{"rt":2415,"stimulus":"bees-with-color/bee-A2DM.svg","response":0,"trial_type":"image-button-response","trial_index":137,"time_elapsed":415712,"internal_node_id":"0.0-6.0-0.1","subject_id":"5d6ee372f52ee2001b314d3a","study_id":"60edd13110225f80f9f3709b","session_id":"6196c70451ae9cdde8a939b4","condition":"contingent","relevant_dimensions":["pattern","legs"],"bee_group":{"antennae":"X","wings":"X","pattern":"S","legs":"M"},"bonus":1.0600000000000005},{"rt":466,"stimulus":"bees-with-color/bee-B2SM.svg","response":0,"trial_type":"image-button-response","trial_index":138,"time_elapsed":416179,"internal_node_id":"0.0-6.0-0.2","subject_id":"5d6ee372f52ee2001b314d3a","study_id":"60edd13110225f80f9f3709b","session_id":"6196c70451ae9cdde8a939b4","condition":"contingent","relevant_dimensions":["pattern","legs"],"bee_group":{"antennae":"X","wings":"X","pattern":"S","legs":"M"},"bonus":1.0600000000000005},{"rt":182,"stimulus":"bees-with-color/bee-B2DF.svg","response":0,"trial_type":"image-button-response","trial_index":139,"time_elapsed":416363,"internal_node_id":"0.0-6.0-0.3","subject_id":"5d6ee372f52ee2001b314d3a","study_id":"60edd13110225f80f9f3709b","session_id":"6196c70451ae9cdde8a939b4","condition":"contingent","relevant_dimensions":["pattern","legs"],"bee_group":{"antennae":"X","wings":"X","pattern":"S","legs":"M"},"bonus":1.0600000000000005},{"rt":216,"stimulus":"bees-with-color/bee-B1SF.svg","response":0,"trial_type":"image-button-response","trial_index":140,"time_elapsed":416579,"internal_node_id":"0.0-6.0-0.4","subject_id":"5d6ee372f52ee2001b314d3a","study_id":"60edd13110225f80f9f3709b","session_id":"6196c70451ae9cdde8a939b4","condition":"contingent","relevant_dimensions":["pattern","legs"],"bee_group":{"antennae":"X","wings":"X","pattern":"S","legs":"M"},"bonus":1.0600000000000005},{"rt":583,"stimulus":"bees-with-color/bee-A1SF.svg","response":1,"trial_type":"image-button-response","trial_index":141,"time_elapsed":417163,"internal_node_id":"0.0-6.0-0.5","subject_id":"5d6ee372f52ee2001b314d3a","study_id":"60edd13110225f80f9f3709b","session_id":"6196c70451ae9cdde8a939b4","condition":"contingent","relevant_dimensions":["pattern","legs"],"bee_group":{"antennae":"X","wings":"X","pattern":"S","legs":"M"},"bonus":1.0600000000000005},{"rt":698,"stimulus":"bees-with-color/bee-B1SM.svg","response":1,"trial_type":"image-button-response","trial_index":142,"time_elapsed":417862,"internal_node_id":"0.0-6.0-0.6","subject_id":"5d6ee372f52ee2001b314d3a","study_id":"60edd13110225f80f9f3709b","session_id":"6196c70451ae9cdde8a939b4","condition":"contingent","relevant_dimensions":["pattern","legs"],"bee_group":{"antennae":"X","wings":"X","pattern":"S","legs":"M"},"bonus":1.0600000000000005},{"rt":2081,"stimulus":"bees-with-color/bee-A1DM.svg","response":0,"trial_type":"image-button-response","trial_index":143,"time_elapsed":419946,"internal_node_id":"0.0-6.0-0.7","subject_id":"5d6ee372f52ee2001b314d3a","study_id":"60edd13110225f80f9f3709b","session_id":"6196c70451ae9cdde8a939b4","condition":"contingent","relevant_dimensions":["pattern","legs"],"bee_group":{"antennae":"X","wings":"X","pattern":"S","legs":"M"},"bonus":1.0600000000000005},{"rt":2198,"stimulus":"bees-with-color/bee-A2DF.svg","response":0,"trial_type":"image-button-response","trial_index":144,"time_elapsed":422146,"internal_node_id":"0.0-6.0-0.8","subject_id":"5d6ee372f52ee2001b314d3a","study_id":"60edd13110225f80f9f3709b","session_id":"6196c70451ae9cdde8a939b4","condition":"contingent","relevant_dimensions":["pattern","legs"],"bee_group":{"antennae":"X","wings":"X","pattern":"S","legs":"M"},"bonus":1.0600000000000005},{"rt":932,"stimulus":"bees-with-color/bee-A2SF.svg","response":0,"trial_type":"image-button-response","trial_index":145,"time_elapsed":423079,"internal_node_id":"0.0-6.0-0.9","subject_id":"5d6ee372f52ee2001b314d3a","study_id":"60edd13110225f80f9f3709b","session_id":"6196c70451ae9cdde8a939b4","condition":"contingent","relevant_dimensions":["pattern","legs"],"bee_group":{"antennae":"X","wings":"X","pattern":"S","legs":"M"},"bonus":1.0600000000000005},{"rt":614,"stimulus":"bees-with-color/bee-B2SF.svg","response":0,"trial_type":"image-button-response","trial_index":146,"time_elapsed":423695,"internal_node_id":"0.0-6.0-0.10","subject_id":"5d6ee372f52ee2001b314d3a","study_id":"60edd13110225f80f9f3709b","session_id":"6196c70451ae9cdde8a939b4","condition":"contingent","relevant_dimensions":["pattern","legs"],"bee_group":{"antennae":"X","wings":"X","pattern":"S","legs":"M"},"bonus":1.0600000000000005},{"rt":1715,"stimulus":"bees-with-color/bee-B1DM.svg","response":1,"trial_type":"image-button-response","trial_index":147,"time_elapsed":425412,"internal_node_id":"0.0-6.0-0.11","subject_id":"5d6ee372f52ee2001b314d3a","study_id":"60edd13110225f80f9f3709b","session_id":"6196c70451ae9cdde8a939b4","condition":"contingent","relevant_dimensions":["pattern","legs"],"bee_group":{"antennae":"X","wings":"X","pattern":"S","legs":"M"},"bonus":1.0600000000000005},{"rt":912,"stimulus":"bees-with-color/bee-A1SM.svg","response":1,"trial_type":"image-button-response","trial_index":148,"time_elapsed":426328,"internal_node_id":"0.0-6.0-0.12","subject_id":"5d6ee372f52ee2001b314d3a","study_id":"60edd13110225f80f9f3709b","session_id":"6196c70451ae9cdde8a939b4","condition":"contingent","relevant_dimensions":["pattern","legs"],"bee_group":{"antennae":"X","wings":"X","pattern":"S","legs":"M"},"bonus":1.0600000000000005},{"rt":1083,"stimulus":"bees-with-color/bee-B1DF.svg","response":0,"trial_type":"image-button-response","trial_index":149,"time_elapsed":427413,"internal_node_id":"0.0-6.0-0.13","subject_id":"5d6ee372f52ee2001b314d3a","study_id":"60edd13110225f80f9f3709b","session_id":"6196c70451ae9cdde8a939b4","condition":"contingent","relevant_dimensions":["pattern","legs"],"bee_group":{"antennae":"X","wings":"X","pattern":"S","legs":"M"},"bonus":1.0600000000000005},{"rt":1381,"stimulus":"bees-with-color/bee-A2SM.svg","response":1,"trial_type":"image-button-response","trial_index":150,"time_elapsed":428796,"internal_node_id":"0.0-6.0-0.14","subject_id":"5d6ee372f52ee2001b314d3a","study_id":"60edd13110225f80f9f3709b","session_id":"6196c70451ae9cdde8a939b4","condition":"contingent","relevant_dimensions":["pattern","legs"],"bee_group":{"antennae":"X","wings":"X","pattern":"S","legs":"M"},"bonus":1.0600000000000005},{"rt":849,"stimulus":"bees-with-color/bee-B2DM.svg","response":0,"trial_type":"image-button-response","trial_index":151,"time_elapsed":429646,"internal_node_id":"0.0-6.0-0.15","subject_id":"5d6ee372f52ee2001b314d3a","study_id":"60edd13110225f80f9f3709b","session_id":"6196c70451ae9cdde8a939b4","condition":"contingent","relevant_dimensions":["pattern","legs"],"bee_group":{"antennae":"X","wings":"X","pattern":"S","legs":"M"},"bonus":1.0600000000000005},{"rt":415,"stimulus":"bees-with-color/bee-A2SM.svg","response":0,"trial_type":"image-button-response","trial_index":152,"time_elapsed":430062,"internal_node_id":"0.0-6.0-0.16","subject_id":"5d6ee372f52ee2001b314d3a","study_id":"60edd13110225f80f9f3709b","session_id":"6196c70451ae9cdde8a939b4","condition":"contingent","relevant_dimensions":["pattern","legs"],"bee_group":{"antennae":"X","wings":"X","pattern":"S","legs":"M"},"bonus":1.0600000000000005},{"rt":449,"stimulus":"bees-with-color/bee-A1DF.svg","response":0,"trial_type":"image-button-response","trial_index":153,"time_elapsed":430513,"internal_node_id":"0.0-6.0-0.17","subject_id":"5d6ee372f52ee2001b314d3a","study_id":"60edd13110225f80f9f3709b","session_id":"6196c70451ae9cdde8a939b4","condition":"contingent","relevant_dimensions":["pattern","legs"],"bee_group":{"antennae":"X","wings":"X","pattern":"S","legs":"M"},"bonus":1.0600000000000005},{"rt":281,"stimulus":"bees-with-color/bee-B1SF.svg","response":0,"trial_type":"image-button-response","trial_index":154,"time_elapsed":430796,"internal_node_id":"0.0-6.0-0.18","subject_id":"5d6ee372f52ee2001b314d3a","study_id":"60edd13110225f80f9f3709b","session_id":"6196c70451ae9cdde8a939b4","condition":"contingent","relevant_dimensions":["pattern","legs"],"bee_group":{"antennae":"X","wings":"X","pattern":"S","legs":"M"},"bonus":1.0600000000000005},{"rt":699,"stimulus":"bees-with-color/bee-A1SM.svg","response":1,"trial_type":"image-button-response","trial_index":155,"time_elapsed":431496,"internal_node_id":"0.0-6.0-0.19","subject_id":"5d6ee372f52ee2001b314d3a","study_id":"60edd13110225f80f9f3709b","session_id":"6196c70451ae9cdde8a939b4","condition":"contingent","relevant_dimensions":["pattern","legs"],"bee_group":{"antennae":"X","wings":"X","pattern":"S","legs":"M"},"bonus":1.0600000000000005},{"rt":1532,"stimulus":"bees-with-color/bee-A1DM.svg","response":0,"trial_type":"image-button-response","trial_index":156,"time_elapsed":433029,"internal_node_id":"0.0-6.0-0.20","subject_id":"5d6ee372f52ee2001b314d3a","study_id":"60edd13110225f80f9f3709b","session_id":"6196c70451ae9cdde8a939b4","condition":"contingent","relevant_dimensions":["pattern","legs"],"bee_group":{"antennae":"X","wings":"X","pattern":"S","legs":"M"},"bonus":1.0600000000000005},{"rt":464,"stimulus":"bees-with-color/bee-B1DM.svg","response":0,"trial_type":"image-button-response","trial_index":157,"time_elapsed":433496,"internal_node_id":"0.0-6.0-0.21","subject_id":"5d6ee372f52ee2001b314d3a","study_id":"60edd13110225f80f9f3709b","session_id":"6196c70451ae9cdde8a939b4","condition":"contingent","relevant_dimensions":["pattern","legs"],"bee_group":{"antennae":"X","wings":"X","pattern":"S","legs":"M"},"bonus":1.0600000000000005},{"rt":280,"stimulus":"bees-with-color/bee-A2SF.svg","response":0,"trial_type":"image-button-response","trial_index":158,"time_elapsed":433779,"internal_node_id":"0.0-6.0-0.22","subject_id":"5d6ee372f52ee2001b314d3a","study_id":"60edd13110225f80f9f3709b","session_id":"6196c70451ae9cdde8a939b4","condition":"contingent","relevant_dimensions":["pattern","legs"],"bee_group":{"antennae":"X","wings":"X","pattern":"S","legs":"M"},"bonus":1.0600000000000005},{"rt":499,"stimulus":"bees-with-color/bee-B1DF.svg","response":1,"trial_type":"image-button-response","trial_index":159,"time_elapsed":434280,"internal_node_id":"0.0-6.0-0.23","subject_id":"5d6ee372f52ee2001b314d3a","study_id":"60edd13110225f80f9f3709b","session_id":"6196c70451ae9cdde8a939b4","condition":"contingent","relevant_dimensions":["pattern","legs"],"bee_group":{"antennae":"X","wings":"X","pattern":"S","legs":"M"},"bonus":1.0600000000000005},{"rt":415,"stimulus":"bees-with-color/bee-A2DM.svg","response":1,"trial_type":"image-button-response","trial_index":160,"time_elapsed":434696,"internal_node_id":"0.0-6.0-0.24","subject_id":"5d6ee372f52ee2001b314d3a","study_id":"60edd13110225f80f9f3709b","session_id":"6196c70451ae9cdde8a939b4","condition":"contingent","relevant_dimensions":["pattern","legs"],"bee_group":{"antennae":"X","wings":"X","pattern":"S","legs":"M"},"bonus":1.0600000000000005},{"rt":180,"stimulus":"bees-with-color/bee-B2DF.svg","response":1,"trial_type":"image-button-response","trial_index":161,"time_elapsed":434878,"internal_node_id":"0.0-6.0-0.25","subject_id":"5d6ee372f52ee2001b314d3a","study_id":"60edd13110225f80f9f3709b","session_id":"6196c70451ae9cdde8a939b4","condition":"contingent","relevant_dimensions":["pattern","legs"],"bee_group":{"antennae":"X","wings":"X","pattern":"S","legs":"M"},"bonus":1.0600000000000005},{"rt":633,"stimulus":"bees-with-color/bee-B2SF.svg","response":0,"trial_type":"image-button-response","trial_index":162,"time_elapsed":435513,"internal_node_id":"0.0-6.0-0.26","subject_id":"5d6ee372f52ee2001b314d3a","study_id":"60edd13110225f80f9f3709b","session_id":"6196c70451ae9cdde8a939b4","condition":"contingent","relevant_dimensions":["pattern","legs"],"bee_group":{"antennae":"X","wings":"X","pattern":"S","legs":"M"},"bonus":1.0600000000000005},{"rt":799,"stimulus":"bees-with-color/bee-A2DF.svg","response":0,"trial_type":"image-button-response","trial_index":163,"time_elapsed":436312,"internal_node_id":"0.0-6.0-0.27","subject_id":"5d6ee372f52ee2001b314d3a","study_id":"60edd13110225f80f9f3709b","session_id":"6196c70451ae9cdde8a939b4","condition":"contingent","relevant_dimensions":["pattern","legs"],"bee_group":{"antennae":"X","wings":"X","pattern":"S","legs":"M"},"bonus":1.0600000000000005},{"rt":714,"stimulus":"bees-with-color/bee-A1SF.svg","response":0,"trial_type":"image-button-response","trial_index":164,"time_elapsed":437029,"internal_node_id":"0.0-6.0-0.28","subject_id":"5d6ee372f52ee2001b314d3a","study_id":"60edd13110225f80f9f3709b","session_id":"6196c70451ae9cdde8a939b4","condition":"contingent","relevant_dimensions":["pattern","legs"],"bee_group":{"antennae":"X","wings":"X","pattern":"S","legs":"M"},"bonus":1.0600000000000005},{"rt":900,"stimulus":"bees-with-color/bee-B1SM.svg","response":0,"trial_type":"image-button-response","trial_index":165,"time_elapsed":437929,"internal_node_id":"0.0-6.0-0.29","subject_id":"5d6ee372f52ee2001b314d3a","study_id":"60edd13110225f80f9f3709b","session_id":"6196c70451ae9cdde8a939b4","condition":"contingent","relevant_dimensions":["pattern","legs"],"bee_group":{"antennae":"X","wings":"X","pattern":"S","legs":"M"},"bonus":1.0600000000000005},{"rt":598,"stimulus":"bees-with-color/bee-B2SM.svg","response":0,"trial_type":"image-button-response","trial_index":166,"time_elapsed":438529,"internal_node_id":"0.0-6.0-0.30","subject_id":"5d6ee372f52ee2001b314d3a","study_id":"60edd13110225f80f9f3709b","session_id":"6196c70451ae9cdde8a939b4","condition":"contingent","relevant_dimensions":["pattern","legs"],"bee_group":{"antennae":"X","wings":"X","pattern":"S","legs":"M"},"bonus":1.0600000000000005},{"rt":998,"stimulus":"bees-with-color/bee-B2DM.svg","response":0,"trial_type":"image-button-response","trial_index":167,"time_elapsed":439529,"internal_node_id":"0.0-6.0-0.31","subject_id":"5d6ee372f52ee2001b314d3a","study_id":"60edd13110225f80f9f3709b","session_id":"6196c70451ae9cdde8a939b4","condition":"contingent","relevant_dimensions":["pattern","legs"],"bee_group":{"antennae":"X","wings":"X","pattern":"S","legs":"M"},"bonus":1.0600000000000005},{"rt":7332,"stimulus":"You started with $2.50 of base pay.<br><br>\n            You made $1.06 in bonus pay,\n            for a total of <b>$3.56</b>.","response":0,"trial_type":"html-button-response","trial_index":168,"time_elapsed":446862,"internal_node_id":"0.0-7.0-0.0","subject_id":"5d6ee372f52ee2001b314d3a","study_id":"60edd13110225f80f9f3709b","session_id":"6196c70451ae9cdde8a939b4","condition":"contingent","relevant_dimensions":["pattern","legs"],"bee_group":{"antennae":"X","wings":"X","pattern":"S","legs":"M"},"bonus":1.0600000000000005},{"rt":48365,"response":{"percent-dangerous-bees":"40"},"trial_type":"su