[{"success":true,"trial_type":"fullscreen","trial_index":0,"time_elapsed":3915,"internal_node_id":"0.0-0.0","subject_id":"5f68f02c41716709ee9be42d","study_id":"60edd13110225f80f9f3709b","session_id":"6196c29e9062cc44cf612877","condition":"full-information","relevant_dimensions":["antennae","pattern"],"bee_group":{"antennae":"B","wings":"X","pattern":"S","legs":"X"},"bonus":0},{"success":true,"timeout":false,"failed_images":[],"failed_audio":[],"failed_video":[],"trial_type":"preload","trial_index":1,"time_elapsed":5337,"internal_node_id":"0.0-1.0","subject_id":"5f68f02c41716709ee9be42d","study_id":"60edd13110225f80f9f3709b","session_id":"6196c29e9062cc44cf612877","condition":"full-information","relevant_dimensions":["antennae","pattern"],"bee_group":{"antennae":"B","wings":"X","pattern":"S","legs":"X"},"bonus":0},{"rt":2150.300000011921,"stimulus":"Welcome! Press any key to begin.","response":"arrowdown","trial_type":"html-keyboard-response","trial_index":2,"time_elapsed":7488,"internal_node_id":"0.0-2.0","subject_id":"5f68f02c41716709ee9be42d","study_id":"60edd13110225f80f9f3709b","session_id":"6196c29e9062cc44cf612877","condition":"full-information","relevant_dimensions":["antennae","pattern"],"bee_group":{"antennae":"B","wings":"X","pattern":"S","legs":"X"},"bonus":0},{"view_history":[{"page_index":0,"viewing_time":3352.2000000029802},{"page_index":1,"viewing_time":8517.5},{"page_index":2,"viewing_time":24412.5},{"page_index":3,"viewing_time":13569.79999999702},{"page_index":4,"viewing_time":11146.40000000596},{"page_index":5,"viewing_time":8621.89999999106},{"page_index":6,"viewing_time":9834.10000000894},{"page_index":7,"viewing_time":4653.79999999702},{"page_index":6,"viewing_time":5584.29999999702},{"page_index":7,"viewing_time":2137.7000000029802},{"page_index":6,"viewing_time":3072.0999999940395},{"page_index":7,"viewing_time":5526},{"page_index":8,"viewing_time":3904.2999999970198},{"page_index":9,"viewing_time":9780.10000000894},{"page_index":10,"viewing_time":4493.899999991059},{"page_index":11,"viewing_time":8228.10000000894},{"page_index":12,"viewing_time":13252},{"page_index":13,"viewing_time":1104},{"page_index":14,"viewing_time":2902.0999999940395}],"rt":144093.5,"trial_type":"instructions","trial_index":3,"time_elapsed":151582,"internal_node_id":"0.0-3.0-0.0","subject_id":"5f68f02c41716709ee9be42d","study_id":"60edd13110225f80f9f3709b","session_id":"6196c29e9062cc44cf612877","condition":"full-information","relevant_dimensions":["antennae","pattern"],"bee_group":{"antennae":"B","wings":"X","pattern":"S","legs":"X"},"bonus":0},{"rt":37726.20000000298,"response":{"Q0":["Two or six legs","Single or double wings","Antennae or no antennae"]},"question_order":[0],"trial_type":"survey-multi-select","trial_index":4,"time_elapsed":189313,"internal_node_id":"0.0-3.0-1.0","subject_id":"5f68f02c41716709ee9be42d","study_id":"60edd13110225f80f9f3709b","session_id":"6196c29e9062cc44cf612877","condition":"full-information","relevant_dimensions":["antennae","pattern"],"bee_group":{"antennae":"B","wings":"X","pattern":"S","legs":"X"},"correct":false,"bonus":0},{"rt":22501.29999999702,"response":{"Q1":"No.","Q2":"Based on the four features of the bee.","Q3":"You learn if it was friendly or dangerous, but do not alter your bonus."},"question_order":[0,1,2],"trial_type":"survey-multi-choice","trial_index":5,"time_elapsed":211816,"internal_node_id":"0.0-3.0-2.0","subject_id":"5f68f02c41716709ee9be42d","study_id":"60edd13110225f80f9f3709b","session_id":"6196c29e9062cc44cf612877","condition":"full-information","relevant_dimensions":["antennae","pattern"],"bee_group":{"antennae":"B","wings":"X","pattern":"S","legs":"X"},"correct":true,"bonus":0},{"rt":3050.6000000089407,"stimulus":"<p>You did not answer all comprehension questions correctly.<br>Press <b>continue</b> to review the instructions again.</p>","response":0,"trial_type":"html-button-response","trial_index":6,"time_elapsed":214869,"internal_node_id":"0.0-3.0-3.0","subject_id":"5f68f02c41716709ee9be42d","study_id":"60edd13110225f80f9f3709b","session_id":"6196c29e9062cc44cf612877","condition":"full-information","relevant_dimensions":["antennae","pattern"],"bee_group":{"antennae":"B","wings":"X","pattern":"S","legs":"X"},"bonus":0},{"view_history":[{"page_index":0,"viewing_time":1916.300000011921},{"page_index":1,"viewing_time":3156},{"page_index":2,"viewing_time":2367.8999999910593},{"page_index":3,"viewing_time":5534.100000008941},{"page_index":4,"viewing_time":12342.09999999404},{"page_index":5,"viewing_time":9560.5},{"page_index":6,"viewing_time":4817.5999999940395},{"page_index":7,"viewing_time":5637.9000000059605},{"page_index":6,"viewing_time":1896.0999999940395},{"page_index":7,"viewing_time":1041.9000000059605},{"page_index":8,"viewing_time":2990},{"page_index":9,"viewing_time":2170.0999999940395},{"page_index":10,"viewing_time":1368.2000000029802},{"page_index":11,"viewing_time":1268},{"page_index":12,"viewing_time":1417.9000000059605},{"page_index":13,"viewing_time":794},{"page_index":14,"viewing_time":872}],"rt":59150.90000000596,"trial_type":"instructions","trial_index":7,"time_elapsed":274020,"internal_node_id":"0.0-3.0-4.0-0.0","subject_id":"5f68f02c41716709ee9be42d","study_id":"60edd13110225f80f9f3709b","session_id":"6196c29e9062cc44cf612877","condition":"full-information","relevant_dimensions":["antennae","pattern"],"bee_group":{"antennae":"B","wings":"X","pattern":"S","legs":"X"},"bonus":0},{"rt":8701.40000000596,"response":{"Q0":["Two or six legs","Stripes or spots on body","Single or double wings","Antennae or no antennae"]},"question_order":[0],"trial_type":"survey-multi-select","trial_index":8,"time_elapsed":282724,"internal_node_id":"0.0-3.0-4.0-1.0","subject_id":"5f68f02c41716709ee9be42d","study_id":"60edd13110225f80f9f3709b","session_id":"6196c29e9062cc44cf612877","condition":"full-information","relevant_dimensions":["antennae","pattern"],"bee_group":{"antennae":"B","wings":"X","pattern":"S","legs":"X"},"correct":true,"bonus":0},{"rt":11806.79999999702,"response":{"Q1":"No.","Q2":"Based on the four features of the bee.","Q3":"You learn if it was friendly or dangerous, but do not alter your bonus."},"question_order":[0,1,2],"trial_type":"survey-multi-choice","trial_index":9,"time_elapsed":294533,"internal_node_id":"0.0-3.0-4.0-2.0","subject_id":"5f68f02c41716709ee9be42d","study_id":"60edd13110225f80f9f3709b","session_id":"6196c29e9062cc44cf612877","condition":"full-information","relevant_dimensions":["antennae","pattern"],"bee_group":{"antennae":"B","wings":"X","pattern":"S","legs":"X"},"correct":true,"bonus":0},{"rt":2028.4000000059605,"stimulus":"<p>Congrats, you got everything right<br>When you're ready, click the button below to continue to the experiment.</p>","response":0,"trial_type":"html-button-response","trial_index":10,"time_elapsed":296562,"internal_node_id":"0.0-3.0-4.0-3.0","subject_id":"5f68f02c41716709ee9be42d","study_id":"60edd13110225f80f9f3709b","session_id":"6196c29e9062cc44cf612877","condition":"full-information","relevant_dimensions":["antennae","pattern"],"bee_group":{"antennae":"B","wings":"X","pattern":"S","legs":"X"},"bonus":0},{"rt":9912,"stimulus":"bees-with-color/bee-B1SF.svg","response":0,"trial_type":"image-button-response","trial_index":11,"time_elapsed":306476,"internal_node_id":"0.0-4.0-0.0","subject_id":"5f68f02c41716709ee9be42d","study_id":"60edd13110225f80f9f3709b","session_id":"6196c29e9062cc44cf612877","condition":"full-information","relevant_dimensions":["antennae","pattern"],"bee_group":{"antennae":"B","wings":"X","pattern":"S","legs":"X"},"action":"harvest","summary":"bad-harvest","bonus":0},{"rt":9086.89999999106,"stimulus":"\n                    <p><b>Action: <em>harvest</em></b></p>\n                    <p>This is the bee that you just saw.</p>\n                    <img src=\"bees-with-color/bee-B1SF.svg\" width=\"200\">\n                    <p><span class=\"redText\">Bad choice, the bee was angry.</span><br><b>You have been stung!</b><br>Your pay has been decreased by $0.10. Your bonus pay is now $0.44.</p>\n            ","response":0,"trial_type":"html-button-response","trial_index":12,"time_elapsed":315583,"internal_node_id":"0.0-4.0-1.0","subject_id":"5f68f02c41716709ee9be42d","study_id":"60edd13110225f80f9f3709b","session_id":"6196c29e9062cc44cf612877","condition":"full-information","relevant_dimensions":["antennae","pattern"],"bee_group":{"antennae":"B","wings":"X","pattern":"S","legs":"X"},"bonus":0},{"rt":2652.2000000029802,"stimulus":"bees-with-color/bee-B2SF.svg","response":1,"trial_type":"image-button-response","trial_index":13,"time_elapsed":318237,"internal_node_id":"0.0-4.0-0.1","subject_id":"5f68f02c41716709ee9be42d","study_id":"60edd13110225f80f9f3709b","session_id":"6196c29e9062cc44cf612877","condition":"full-information","relevant_dimensions":["antennae","pattern"],"bee_group":{"antennae":"B","wings":"X","pattern":"S","legs":"X"},"action":"avoid","summary":"good-avoid","bonus":0},{"rt":6666.29999999702,"stimulus":"\n                    <p><b>Action: <em>avoid</em></b></p>\n                    <p>This is the bee that you just saw.</p>\n                    <img src=\"bees-with-color/bee-B2SF.svg\" width=\"200\">\n                    <p><span class=\"greenText\">Good choice!</span>  This bee would have stung you.<br>Your bonus pay is unchanged, and remains at $0.44.</p>\n            ","response":0,"trial_type":"html-button-response","trial_index":14,"time_elapsed":324904,"internal_node_id":"0.0-4.0-1.1","subject_id":"5f68f02c41716709ee9be42d","study_id":"60edd13110225f80f9f3709b","session_id":"6196c29e9062cc44cf612877","condition":"full-information","relevant_dimensions":["antennae","pattern"],"bee_group":{"antennae":"B","wings":"X","pattern":"S","legs":"X"},"bonus":0},{"rt":5482.5999999940395,"stimulus":"bees-with-color/bee-A1DM.svg","response":1,"trial_type":"image-button-response","trial_index":15,"time_elapsed":330389,"internal_node_id":"0.0-4.0-0.2","subject_id":"5f68f02c41716709ee9be42d","study_id":"60edd13110225f80f9f3709b","session_id":"6196c29e9062cc44cf612877","condition":"full-information","relevant_dimensions":["antennae","pattern"],"bee_group":{"antennae":"B","wings":"X","pattern":"S","legs":"X"},"action":"avoid","summary":"bad-avoid","bonus":0},{"rt":7637,"stimulus":"\n                    <p><b>Action: <em>avoid</em></b></p>\n                    <p>This is the bee that you just saw.</p>\n                    <img src=\"bees-with-color/bee-A1DM.svg\" width=\"200\">\n                    <p><span class=\"redText\">Bad choice,</span> the bee was friendly.<br>Your bonus pay is unchanged, and remains at $0.44.</p>\n            ","response":0,"trial_type":"html-button-response","trial_index":16,"time_elapsed":338027,"internal_node_id":"0.0-4.0-1.2","subject_id":"5f68f02c41716709ee9be42d","study_id":"60edd13110225f80f9f3709b","session_id":"6196c29e9062cc44cf612877","condition":"full-information","relevant_dimensions":["antennae","pattern"],"bee_group":{"antennae":"B","wings":"X","pattern":"S","legs":"X"},"bonus":0},{"rt":3092.2999999970198,"stimulus":"bees-with-color/bee-A2DM.svg","response":0,"trial_type":"image-button-response","trial_index":17,"time_elapsed":341120,"internal_node_id":"0.0-4.0-0.3","subject_id":"5f68f02c41716709ee9be42d","study_id":"60edd13110225f80f9f3709b","session_id":"6196c29e9062cc44cf612877","condition":"full-information","relevant_dimensions":["antennae","pattern"],"bee_group":{"antennae":"B","wings":"X","pattern":"S","legs":"X"},"action":"harvest","summary":"good-harvest","bonus":0},{"rt":5195.0999999940395,"stimulus":"\n                    <p><b>Action: <em>harvest</em></b></p>\n                    <p>This is the bee that you just saw.</p>\n                    <img src=\"bees-with-color/bee-A2DM.svg\" width=\"200\">\n                    <p><span class=\"greenText\"><b>Successful harvest!</b></span><br>Your pay has increased by $0.02. Your bonus pay is now $0.46.</p>\n            ","response":0,"trial_type":"html-button-response","trial_index":18,"time_elapsed":346317,"internal_node_id":"0.0-4.0-1.3","subject_id":"5f68f02c41716709ee9be42d","study_id":"60edd13110225f80f9f3709b","session_id":"6196c29e9062cc44cf612877","condition":"full-information","relevant_dimensions":["antennae","pattern"],"bee_group":{"antennae":"B","wings":"X","pattern":"S","legs":"X"},"bonus":0},{"rt":1392.5999999940395,"stimulus":"bees-with-color/bee-A2SM.svg","response":0,"trial_type":"image-button-response","trial_index":19,"time_elapsed":347711,"internal_node_id":"0.0-4.0-0.4","subject_id":"5f68f02c41716709ee9be42d","study_id":"60edd13110225f80f9f3709b","session_id":"6196c29e9062cc44cf612877","condition":"full-information","relevant_dimensions":["antennae","pattern"],"bee_group":{"antennae":"B","wings":"X","pattern":"S","legs":"X"},"action":"harvest","summary":"good-harvest","bonus":0},{"rt":3738.5,"stimulus":"\n                    <p><b>Action: <em>harvest</em></b></p>\n                    <p>This is the bee that you just saw.</p>\n                    <img src=\"bees-with-color/bee-A2SM.svg\" width=\"200\">\n                    <p><span class=\"greenText\"><b>Successful harvest!</b></span><br>Your pay has increased by $0.02. Your bonus pay is now $0.48.</p>\n            ","response":0,"trial_type":"html-button-response","trial_index":20,"time_elapsed":351451,"internal_node_id":"0.0-4.0-1.4","subject_id":"5f68f02c41716709ee9be42d","study_id":"60edd13110225f80f9f3709b","session_id":"6196c29e9062cc44cf612877","condition":"full-information","relevant_dimensions":["antennae","pattern"],"bee_group":{"antennae":"B","wings":"X","pattern":"S","legs":"X"},"bonus":0},{"rt":3683.0999999940395,"stimulus":"bees-with-color/bee-A1DF.svg","response":1,"trial_type":"image-button-response","trial_index":21,"time_elapsed":355135,"internal_node_id":"0.0-4.0-0.5","subject_id":"5f68f02c41716709ee9be42d","study_id":"60edd13110225f80f9f3709b","session_id":"6196c29e9062cc44cf612877","condition":"full-information","relevant_dimensions":["antennae","pattern"],"bee_group":{"antennae":"B","wings":"X","pattern":"S","legs":"X"},"action":"avoid","summary":"bad-avoid","bonus":0},{"rt":7968.4000000059605,"stimulus":"\n                    <p><b>Action: <em>avoid</em></b></p>\n                    <p>This is the bee that you just saw.</p>\n                    <img src=\"bees-with-color/bee-A1DF.svg\" width=\"200\">\n                    <p><span class=\"redText\">Bad choice,</span> the bee was friendly.<br>Your bonus pay is unchanged, and remains at $0.48.</p>\n            ","response":0,"trial_type":"html-button-response","trial_index":22,"time_elapsed":363105,"internal_node_id":"0.0-4.0-1.5","subject_id":"5f68f02c41716709ee9be42d","study_id":"60edd13110225f80f9f3709b","session_id":"6196c29e9062cc44cf612877","condition":"full-information","relevant_dimensions":["antennae","pattern"],"bee_group":{"antennae":"B","wings":"X","pattern":"S","legs":"X"},"bonus":0},{"rt":3676.2000000029802,"stimulus":"bees-with-color/bee-A2DF.svg","response":0,"trial_type":"image-button-response","trial_index":23,"time_elapsed":366783,"internal_node_id":"0.0-4.0-0.6","subject_id":"5f68f02c41716709ee9be42d","study_id":"60edd13110225f80f9f3709b","session_id":"6196c29e9062cc44cf612877","condition":"full-information","relevant_dimensions":["antennae","pattern"],"bee_group":{"antennae":"B","wings":"X","pattern":"S","legs":"X"},"action":"harvest","summary":"good-harvest","bonus":0},{"rt":3172.9000000059605,"stimulus":"\n                    <p><b>Action: <em>harvest</em></b></p>\n                    <p>This is the bee that you just saw.</p>\n                    <img src=\"bees-with-color/bee-A2DF.svg\" width=\"200\">\n                    <p><span class=\"greenText\"><b>Successful harvest!</b></span><br>Your pay has increased by $0.02. Your bonus pay is now $0.50.</p>\n            ","response":0,"trial_type":"html-button-response","trial_index":24,"time_elapsed":369957,"internal_node_id":"0.0-4.0-1.6","subject_id":"5f68f02c41716709ee9be42d","study_id":"60edd13110225f80f9f3709b","session_id":"6196c29e9062cc44cf612877","condition":"full-information","relevant_dimensions":["antennae","pattern"],"bee_group":{"antennae":"B","wings":"X","pattern":"S","legs":"X"},"bonus":0},{"rt":3612.4000000059605,"stimulus":"bees-with-color/bee-B1DF.svg","response":0,"trial_type":"image-button-response","trial_index":25,"time_elapsed":373571,"internal_node_id":"0.0-4.0-0.7","subject_id":"5f68f02c41716709ee9be42d","study_id":"60edd13110225f80f9f3709b","session_id":"6196c29e9062cc44cf612877","condition":"full-information","relevant_dimensions":["antennae","pattern"],"bee_group":{"antennae":"B","wings":"X","pattern":"S","legs":"X"},"action":"harvest","summary":"good-harvest","bonus":0},{"rt":1958.7999999970198,"stimulus":"\n                    <p><b>Action: <em>harvest</em></b></p>\n                    <p>This is the bee that you just saw.</p>\n                    <img src=\"bees-with-color/bee-B1DF.svg\" width=\"200\">\n                    <p><span class=\"greenText\"><b>Successful harvest!</b></span><br>Your pay has increased by $0.02. Your bonus pay is now $0.52.</p>\n            ","response":0,"trial_type":"html-button-response","trial_index":26,"time_elapsed":375531,"internal_node_id":"0.0-4.0-1.7","subject_id":"5f68f02c41716709ee9be42d","study_id":"60edd13110225f80f9f3709b","session_id":"6196c29e9062cc44cf612877","condition":"full-information","relevant_dimensions":["antennae","pattern"],"bee_group":{"antennae":"B","wings":"X","pattern":"S","legs":"X"},"bonus":0},{"rt":4780,"stimulus":"bees-with-color/bee-B2DM.svg","response":1,"trial_type":"image-button-response","trial_index":27,"time_elapsed":380313,"internal_node_id":"0.0-4.0-0.8","subject_id":"5f68f02c41716709ee9be42d","study_id":"60edd13110225f80f9f3709b","session_id":"6196c29e9062cc44cf612877","condition":"full-information","relevant_dimensions":["antennae","pattern"],"bee_group":{"antennae":"B","wings":"X","pattern":"S","legs":"X"},"action":"avoid","summary":"bad-avoid","bonus":0},{"rt":4150.699999988079,"stimulus":"\n                    <p><b>Action: <em>avoid</em></b></p>\n                    <p>This is the bee that you just saw.</p>\n                    <img src=\"bees-with-color/bee-B2DM.svg\" width=\"200\">\n                    <p><span class=\"redText\">Bad choice,</span> the bee was friendly.<br>Your bonus pay is unchanged, and remains at $0.52.</p>\n            ","response":0,"trial_type":"html-button-response","trial_index":28,"time_elapsed":384465,"internal_node_id":"0.0-4.0-1.8","subject_id":"5f68f02c41716709ee9be42d","study_id":"60edd13110225f80f9f3709b","session_id":"6196c29e9062cc44cf612877","condition":"full-information","relevant_dimensions":["antennae","pattern"],"bee_group":{"antennae":"B","wings":"X","pattern":"S","legs":"X"},"bonus":0},{"rt":2486.4000000059605,"stimulus":"bees-with-color/bee-B2SM.svg","response":0,"trial_type":"image-button-response","trial_index":29,"time_elapsed":386953,"internal_node_id":"0.0-4.0-0.9","subject_id":"5f68f02c41716709ee9be42d","study_id":"60edd13110225f80f9f3709b","session_id":"6196c29e9062cc44cf612877","condition":"full-information","relevant_dimensions":["antennae","pattern"],"bee_group":{"antennae":"B","wings":"X","pattern":"S","legs":"X"},"action":"harvest","summary":"bad-harvest","bonus":0},{"rt":3156.7000000029802,"stimulus":"\n                    <p><b>Action: <em>harvest</em></b></p>\n                    <p>This is the bee that you just saw.</p>\n                    <img src=\"bees-with-color/bee-B2SM.svg\" width=\"200\">\n                    <p><span class=\"redText\">Bad choice, the bee was angry.</span><br><b>You have been stung!</b><br>Your pay has been decreased by $0.10. Your bonus pay is now $0.42.</p>\n            ","response":0,"trial_type":"html-button-response","trial_index":30,"time_elapsed":390111,"internal_node_id":"0.0-4.0-1.9","subject_id":"5f68f02c41716709ee9be42d","study_id":"60edd13110225f80f9f3709b","session_id":"6196c29e9062cc44cf612877","condition":"full-information","relevant_dimensions":["antennae","pattern"],"bee_group":{"antennae":"B","wings":"X","pattern":"S","legs":"X"},"bonus":0},{"rt":2304.7000000029802,"stimulus":"bees-with-color/bee-A1SM.svg","response":1,"trial_type":"image-button-response","trial_index":31,"time_elapsed":392418,"internal_node_id":"0.0-4.0-0.10","subject_id":"5f68f02c41716709ee9be42d","study_id":"60edd13110225f80f9f3709b","session_id":"6196c29e9062cc44cf612877","condition":"full-information","relevant_dimensions":["antennae","pattern"],"bee_group":{"antennae":"B","wings":"X","pattern":"S","legs":"X"},"action":"avoid","summary":"bad-avoid","bonus":0},{"rt":1582.5999999940395,"stimulus":"\n                    <p><b>Action: <em>avoid</em></b></p>\n                    <p>This is the bee that you just saw.</p>\n                    <img src=\"bees-with-color/bee-A1SM.svg\" width=\"200\">\n                    <p><span class=\"redText\">Bad choice,</span> the bee was friendly.<br>Your bonus pay is unchanged, and remains at $0.42.</p>\n            ","response":0,"trial_type":"html-button-response","trial_index":32,"time_elapsed":394001,"internal_node_id":"0.0-4.0-1.10","subject_id":"5f68f02c41716709ee9be42d","study_id":"60edd13110225f80f9f3709b","session_id":"6196c29e9062cc44cf612877","condition":"full-information","relevant_dimensions":["antennae","pattern"],"bee_group":{"antennae":"B","wings":"X","pattern":"S","legs":"X"},"bonus":0},{"rt":1395.0999999940395,"stimulus":"bees-with-color/bee-B2DF.svg","response":0,"trial_type":"image-button-response","trial_index":33,"time_elapsed":395398,"internal_node_id":"0.0-4.0-0.11","subject_id":"5f68f02c41716709ee9be42d","study_id":"60edd13110225f80f9f3709b","session_id":"6196c29e9062cc44cf612877","condition":"full-information","relevant_dimensions":["antennae","pattern"],"bee_group":{"antennae":"B","wings":"X","pattern":"S","legs":"X"},"action":"harvest","summary":"good-harvest","bonus":0},{"rt":3444.9000000059605,"stimulus":"\n                    <p><b>Action: <em>harvest</em></b></p>\n                    <p>This is the bee that you just saw.</p>\n                    <img src=\"bees-with-color/bee-B2DF.svg\" width=\"200\">\n                    <p><span class=\"greenText\"><b>Successful harvest!</b></span><br>Your pay has increased by $0.02. Your bonus pay is now $0.44.</p>\n            ","response":0,"trial_type":"html-button-response","trial_index":34,"time_elapsed":398843,"internal_node_id":"0.0-4.0-1.11","subject_id":"5f68f02c41716709ee9be42d","study_id":"60edd13110225f80f9f3709b","session_id":"6196c29e9062cc44cf612877","condition":"full-information","relevant_dimensions":["antennae","pattern"],"bee_group":{"antennae":"B","wings":"X","pattern":"S","legs":"X"},"bonus":0},{"rt":3446.7999999970198,"stimulus":"bees-with-color/bee-A1SF.svg","response":1,"trial_type":"image-button-response","trial_index":35,"time_elapsed":402291,"internal_node_id":"0.0-4.0-0.12","subject_id":"5f68f02c41716709ee9be42d","study_id":"60edd13110225f80f9f3709b","session_id":"6196c29e9062cc44cf612877","condition":"full-information","relevant_dimensions":["antennae","pattern"],"bee_group":{"antennae":"B","wings":"X","pattern":"S","legs":"X"},"action":"avoid","summary":"bad-avoid","bonus":0},{"rt":1788.7999999970198,"stimulus":"\n                    <p><b>Action: <em>avoid</em></b></p>\n                    <p>This is the bee that you just saw.</p>\n                    <img src=\"bees-with-color/bee-A1SF.svg\" width=\"200\">\n                    <p><span class=\"redText\">Bad choice,</span> the bee was friendly.<br>Your bonus pay is unchanged, and remains at $0.44.</p>\n            ","response":0,"trial_type":"html-button-response","trial_index":36,"time_elapsed":404081,"internal_node_id":"0.0-4.0-1.12","subject_id":"5f68f02c41716709ee9be42d","study_id":"60edd13110225f80f9f3709b","session_id":"6196c29e9062cc44cf612877","condition":"full-information","relevant_dimensions":["antennae","pattern"],"bee_group":{"antennae":"B","wings":"X","pattern":"S","legs":"X"},"bonus":0},{"rt":4008.7999999970198,"stimulus":"bees-with-color/bee-B1DM.svg","response":0,"trial_type":"image-button-response","trial_index":37,"time_elapsed":408091,"internal_node_id":"0.0-4.0-0.13","subject_id":"5f68f02c41716709ee9be42d","study_id":"60edd13110225f80f9f3709b","session_id":"6196c29e9062cc44cf612877","condition":"full-information","relevant_dimensions":["antennae","pattern"],"bee_group":{"antennae":"B","wings":"X","pattern":"S","legs":"X"},"action":"harvest","summary":"good-harvest","bonus":0},{"rt":2812.7999999970198,"stimulus":"\n                    <p><b>Action: <em>harvest</em></b></p>\n                    <p>This is the bee that you just saw.</p>\n                    <img src=\"bees-with-color/bee-B1DM.svg\" width=\"200\">\n                    <p><span class=\"greenText\"><b>Successful harvest!</b></span><br>Your pay has increased by $0.02. Your bonus pay is now $0.46.</p>\n            ","response":0,"trial_type":"html-button-response","trial_index":38,"time_elapsed":410905,"internal_node_id":"0.0-4.0-1.13","subject_id":"5f68f02c41716709ee9be42d","study_id":"60edd13110225f80f9f3709b","session_id":"6196c29e9062cc44cf612877","condition":"full-information","relevant_dimensions":["antennae","pattern"],"bee_group":{"antennae":"B","wings":"X","pattern":"S","legs":"X"},"bonus":0},{"rt":1932.5,"stimulus":"bees-with-color/bee-A2SF.svg","response":1,"trial_type":"image-button-response","trial_index":39,"time_elapsed":412839,"internal_node_id":"0.0-4.0-0.14","subject_id":"5f68f02c41716709ee9be42d","study_id":"60edd13110225f80f9f3709b","session_id":"6196c29e9062cc44cf612877","condition":"full-information","relevant_dimensions":["antennae","pattern"],"bee_group":{"antennae":"B","wings":"X","pattern":"S","legs":"X"},"action":"avoid","summary":"bad-avoid","bonus":0},{"rt":2853.2000000029802,"stimulus":"\n                    <p><b>Action: <em>avoid</em></b></p>\n                    <p>This is the bee that you just saw.</p>\n                    <img src=\"bees-with-color/bee-A2SF.svg\" width=\"200\">\n                    <p><span class=\"redText\">Bad choice,</span> the bee was friendly.<br>Your bonus pay is unchanged, and remains at $0.46.</p>\n            ","response":0,"trial_type":"html-button-response","trial_index":40,"time_elapsed":415694,"internal_node_id":"0.0-4.0-1.14","subject_id":"5f68f02c41716709ee9be42d","study_id":"60edd13110225f80f9f3709b","session_id":"6196c29e9062cc44cf612877","condition":"full-information","relevant_dimensions":["antennae","pattern"],"bee_group":{"antennae":"B","wings":"X","pattern":"S","legs":"X"},"bonus":0},{"rt":3308.5,"stimulus":"bees-with-color/bee-B1SM.svg","response":1,"trial_type":"image-button-response","trial_index":41,"time_elapsed":419003,"internal_node_id":"0.0-4.0-0.15","subject_id":"5f68f02c41716709ee9be42d","study_id":"60edd13110225f80f9f3709b","session_id":"6196c29e9062cc44cf612877","condition":"full-information","relevant_dimensions":["antennae","pattern"],"bee_group":{"antennae":"B","wings":"X","pattern":"S","legs":"X"},"action":"avoid","summary":"good-avoid","bonus":0},{"rt":2556.9000000059605,"stimulus":"\n                    <p><b>Action: <em>avoid</em></b></p>\n                    <p>This is the bee that you just saw.</p>\n                    <img src=\"bees-with-color/bee-B1SM.svg\" width=\"200\">\n                    <p><span class=\"greenText\">Good choice!</span>  This bee would have stung you.<br>Your bonus pay is unchanged, and remains at $0.46.</p>\n            ","response":0,"trial_type":"html-button-response","trial_index":42,"time_elapsed":421561,"internal_node_id":"0.0-4.0-1.15","subject_id":"5f68f02c41716709ee9be42d","study_id":"60edd13110225f80f9f3709b","session_id":"6196c29e9062cc44cf612877","condition":"full-information","relevant_dimensions":["antennae","pattern"],"bee_group":{"antennae":"B","wings":"X","pattern":"S","legs":"X"},"bonus":0},{"rt":1729.199999988079,"stimulus":"bees-with-color/bee-A2SM.svg","response":0,"trial_type":"image-button-response","trial_index":43,"time_elapsed":423292,"internal_node_id":"0.0-4.0-0.16","subject_id":"5f68f02c41716709ee9be42d","study_id":"60edd13110225f80f9f3709b","session_id":"6196c29e9062cc44cf612877","condition":"full-information","relevant_dimensions":["antennae","pattern"],"bee_group":{"antennae":"B","wings":"X","pattern":"S","legs":"X"},"action":"harvest","summary":"good-harvest","bonus":0},{"rt":2856.7000000029802,"stimulus":"\n                    <p><b>Action: <em>harvest</em></b></p>\n                    <p>This is the bee that you just saw.</p>\n                    <img src=\"bees-with-color/bee-A2SM.svg\" width=\"200\">\n                    <p><span class=\"greenText\"><b>Successful harvest!</b></span><br>Your pay has increased by $0.02. Your bonus pay is now $0.48.</p>\n            ","response":0,"trial_type":"html-button-response","trial_index":44,"time_elapsed":426150,"internal_node_id":"0.0-4.0-1.16","subject_id":"5f68f02c41716709ee9be42d","study_id":"60edd13110225f80f9f3709b","session_id":"6196c29e9062cc44cf612877","condition":"full-information","relevant_dimensions":["antennae","pattern"],"bee_group":{"antennae":"B","wings":"X","pattern":"S","legs":"X"},"bonus":0},{"rt":2038.5,"stimulus":"bees-with-color/bee-B1DM.svg","response":0,"trial_type":"image-button-response","trial_index":45,"time_elapsed":428189,"internal_node_id":"0.0-4.0-0.17","subject_id":"5f68f02c41716709ee9be42d","study_id":"60edd13110225f80f9f3709b","session_id":"6196c29e9062cc44cf612877","condition":"full-information","relevant_dimensions":["antennae","pattern"],"bee_group":{"antennae":"B","wings":"X","pattern":"S","legs":"X"},"action":"harvest","summary":"good-harvest","bonus":0},{"rt":925.2999999970198,"stimulus":"\n                    <p><b>Action: <em>harvest</em></b></p>\n                    <p>This is the bee that you just saw.</p>\n                    <img src=\"bees-with-color/bee-B1DM.svg\" width=\"200\">\n                    <p><span class=\"greenText\"><b>Successful harvest!</b></span><br>Your pay has increased by $0.02. Your bonus pay is now $0.50.</p>\n            ","response":0,"trial_type":"html-button-response","trial_index":46,"time_elapsed":429116,"internal_node_id":"0.0-4.0-1.17","subject_id":"5f68f02c41716709ee9be42d","study_id":"60edd13110225f80f9f3709b","session_id":"6196c29e9062cc44cf612877","condition":"full-information","relevant_dimensions":["antennae","pattern"],"bee_group":{"antennae":"B","wings":"X","pattern":"S","legs":"X"},"bonus":0},{"rt":2796.7999999970198,"stimulus":"bees-with-color/bee-B1SF.svg","response":0,"trial_type":"image-button-response","trial_index":47,"time_elapsed":431914,"internal_node_id":"0.0-4.0-0.18","subject_id":"5f68f02c41716709ee9be42d","study_id":"60edd13110225f80f9f3709b","session_id":"6196c29e9062cc44cf612877","condition":"full-information","relevant_dimensions":["antennae","pattern"],"bee_group":{"antennae":"B","wings":"X","pattern":"S","legs":"X"},"action":"harvest","summary":"bad-harvest","bonus":0},{"rt":1576.7999999970198,"stimulus":"\n                    <p><b>Action: <em>harvest</em></b></p>\n                    <p>This is the bee that you just saw.</p>\n                    <img src=\"bees-with-color/bee-B1SF.svg\" width=\"200\">\n                    <p><span class=\"redText\">Bad choice, the bee was angry.</span><br><b>You have been stung!</b><br>Your pay has been decreased by $0.10. Your bonus pay is now $0.40.</p>\n            ","response":0,"trial_type":"html-button-response","trial_index":48,"time_elapsed":433491,"internal_node_id":"0.0-4.0-1.18","subject_id":"5f68f02c41716709ee9be42d","study_id":"60edd13110225f80f9f3709b","session_id":"6196c29e9062cc44cf612877","condition":"full-information","relevant_dimensions":["antennae","pattern"],"bee_group":{"antennae":"B","wings":"X","pattern":"S","legs":"X"},"bonus":0},{"rt":3658.5999999940395,"stimulus":"bees-with-color/bee-A2DF.svg","response":1,"trial_type":"image-button-response","trial_index":49,"time_elapsed":437151,"internal_node_id":"0.0-4.0-0.19","subject_id":"5f68f02c41716709ee9be42d","study_id":"60edd13110225f80f9f3709b","session_id":"6196c29e9062cc44cf612877","condition":"full-information","relevant_dimensions":["antennae","pattern"],"bee_group":{"antennae":"B","wings":"X","pattern":"S","legs":"X"},"action":"avoid","summary":"bad-avoid","bonus":0},{"rt":996.7999999970198,"stimulus":"\n                    <p><b>Action: <em>avoid</em></b></p>\n                    <p>This is the bee that you just saw.</p>\n                    <img src=\"bees-with-color/bee-A2DF.svg\" width=\"200\">\n                    <p><span class=\"redText\">Bad choice,</span> the bee was friendly.<br>Your bonus pay is unchanged, and remains at $0.40.</p>\n            ","response":0,"trial_type":"html-button-response","trial_index":50,"time_elapsed":438149,"internal_node_id":"0.0-4.0-1.19","subject_id":"5f68f02c41716709ee9be42d","study_id":"60edd13110225f80f9f3709b","session_id":"6196c29e9062cc44cf612877","condition":"full-information","relevant_dimensions":["antennae","pattern"],"bee_group":{"antennae":"B","wings":"X","pattern":"S","legs":"X"},"bonus":0},{"rt":1393.2000000029802,"stimulus":"bees-with-color/bee-B1SM.svg","response":0,"trial_type":"image-button-response","trial_index":51,"time_elapsed":439544,"internal_node_id":"0.0-4.0-0.20","subject_id":"5f68f02c41716709ee9be42d","study_id":"60edd13110225f80f9f3709b","session_id":"6196c29e9062cc44cf612877","condition":"full-information","relevant_dimensions":["antennae","pattern"],"bee_group":{"antennae":"B","wings":"X","pattern":"S","legs":"X"},"action":"harvest","summary":"bad-harvest","bonus":0},{"rt":1231.2000000029802,"stimulus":"\n                    <p><b>Action: <em>harvest</em></b></p>\n                    <p>This is the bee that you just saw.</p>\n                    <img src=\"bees-with-color/bee-B1SM.svg\" width=\"200\">\n                    <p><span class=\"redText\">Bad choice, the bee was angry.</span><br><b>You have been stung!</b><br>Your pay has been decreased by $0.10. Your bonus pay is now $0.30.</p>\n            ","response":0,"trial_type":"html-button-response","trial_index":52,"time_elapsed":440776,"internal_node_id":"0.0-4.0-1.20","subject_id":"5f68f02c41716709ee9be42d","study_id":"60edd13110225f80f9f3709b","session_id":"6196c29e9062cc44cf612877","condition":"full-information","relevant_dimensions":["antennae","pattern"],"bee_group":{"antennae":"B","wings":"X","pattern":"S","legs":"X"},"bonus":0},{"rt":1675.6000000089407,"stimulus":"bees-with-color/bee-A1SF.svg","response":1,"trial_type":"image-button-response","trial_index":53,"time_elapsed":442453,"internal_node_id":"0.0-4.0-0.21","subject_id":"5f68f02c41716709ee9be42d","study_id":"60edd13110225f80f9f3709b","session_id":"6196c29e9062cc44cf612877","condition":"full-information","relevant_dimensions":["antennae","pattern"],"bee_group":{"antennae":"B","wings":"X","pattern":"S","legs":"X"},"action":"avoid","summary":"bad-avoid","bonus":0},{"rt":1937.3999999910593,"stimulus":"\n                    <p><b>Action: <em>avoid</em></b></p>\n                    <p>This is the bee that you just saw.</p>\n                    <img src=\"bees-with-color/bee-A1SF.svg\" width=\"200\">\n                    <p><span class=\"redText\">Bad choice,</span> the bee was friendly.<br>Your bonus pay is unchanged, and remains at $0.30.</p>\n            ","response":0,"trial_type":"html-button-response","trial_index":54,"time_elapsed":444392,"internal_node_id":"0.0-4.0-1.21","subject_id":"5f68f02c41716709ee9be42d","study_id":"60edd13110225f80f9f3709b","session_id":"6196c29e9062cc44cf612877","condition":"full-information","relevant_dimensions":["antennae","pattern"],"bee_group":{"antennae":"B","wings":"X","pattern":"S","legs":"X"},"bonus":0},{"rt":1194.5,"stimulus":"bees-with-color/bee-B2DF.svg","response":1,"trial_type":"image-button-response","trial_index":55,"time_elapsed":445588,"internal_node_id":"0.0-4.0-0.22","subject_id":"5f68f02c41716709ee9be42d","study_id":"60edd13110225f80f9f3709b","session_id":"6196c29e9062cc44cf612877","condition":"full-information","relevant_dimensions":["antennae","pattern"],"bee_group":{"antennae":"B","wings":"X","pattern":"S","legs":"X"},"action":"avoid","summary":"bad-avoid","bonus":0},{"rt":22826.90000000596,"stimulus":"\n                    <p><b>Action: <em>avoid</em></b></p>\n                    <p>This is the bee that you just saw.</p>\n                    <img src=\"bees-with-color/bee-B2DF.svg\" width=\"200\">\n                    <p><span class=\"redText\">Bad choice,</span> the bee was friendly.<br>Your bonus pay is unchanged, and remains at $0.30.</p>\n            ","response":0,"trial_type":"html-button-response","trial_index":56,"time_elapsed":468416,"internal_node_id":"0.0-4.0-1.22","subject_id":"5f68f02c41716709ee9be42d","study_id":"60edd13110225f80f9f3709b","session_id":"6196c29e9062cc44cf612877","condition":"full-information","relevant_dimensions":["antennae","pattern"],"bee_group":{"antennae":"B","wings":"X","pattern":"S","legs":"X"},"bonus":0},{"rt":1172.6000000089407,"stimulus":"bees-with-color/bee-B1DF.svg","response":1,"trial_type":"image-button-response","trial_index":57,"time_elapsed":469590,"internal_node_id":"0.0-4.0-0.23","subject_id":"5f68f02c41716709ee9be42d","study_id":"60edd13110225f80f9f3709b","session_id":"6196c29e9062cc44cf612877","condition":"full-information","relevant_dimensions":["antennae","pattern"],"bee_group":{"antennae":"B","wings":"X","pattern":"S","legs":"X"},"action":"avoid","summary":"bad-avoid","bonus":0},{"rt":643,"stimulus":"\n                    <p><b>Action: <em>avoid</em></b></p>\n                    <p>This is the bee that you just saw.</p>\n                    <img src=\"bees-with-color/bee-B1DF.svg\" width=\"200\">\n                    <p><span class=\"redText\">Bad choice,</span> the bee was friendly.<br>Your bonus pay is unchanged, and remains at $0.30.</p>\n            ","response":0,"trial_type":"html-button-response","trial_index":58,"time_elapsed":470234,"internal_node_id":"0.0-4.0-1.23","subject_id":"5f68f02c41716709ee9be42d","study_id":"60edd13110225f80f9f3709b","session_id":"6196c29e9062cc44cf612877","condition":"full-information","relevant_dimensions":["antennae","pattern"],"bee_group":{"antennae":"B","wings":"X","pattern":"S","legs":"X"},"bonus":0},{"rt":1269.2000000029802,"stimulus":"bees-with-color/bee-B2SF.svg","response":1,"trial_type":"image-button-response","trial_index":59,"time_elapsed":471504,"internal_node_id":"0.0-4.0-0.24","subject_id":"5f68f02c41716709ee9be42d","study_id":"60edd13110225f80f9f3709b","session_id":"6196c29e9062cc44cf612877","condition":"full-information","relevant_dimensions":["antennae","pattern"],"bee_group":{"antennae":"B","wings":"X","pattern":"S","legs":"X"},"action":"avoid","summary":"good-avoid","bonus":0},{"rt":1828.7000000029802,"stimulus":"\n                    <p><b>Action: <em>avoid</em></b></p>\n                    <p>This is the bee that you just saw.</p>\n                    <img src=\"bees-with-color/bee-B2SF.svg\" width=\"200\">\n                    <p><span class=\"greenText\">Good choice!</span>  This bee would have stung you.<br>Your bonus pay is unchanged, and remains at $0.30.</p>\n            ","response":0,"trial_type":"html-button-response","trial_index":60,"time_elapsed":473333,"internal_node_id":"0.0-4.0-1.24","subject_id":"5f68f02c41716709ee9be42d","study_id":"60edd13110225f80f9f3709b","session_id":"6196c29e9062cc44cf612877","condition":"full-information","relevant_dimensions":["antennae","pattern"],"bee_group":{"antennae":"B","wings":"X","pattern":"S","legs":"X"},"bonus":0},{"rt":986.7999999970198,"stimulus":"bees-with-color/bee-A1DM.svg","response":0,"trial_type":"image-button-response","trial_index":61,"time_elapsed":474321,"internal_node_id":"0.0-4.0-0.25","subject_id":"5f68f02c41716709ee9be42d","study_id":"60edd13110225f80f9f3709b","session_id":"6196c29e9062cc44cf612877","condition":"full-information","relevant_dimensions":["antennae","pattern"],"bee_group":{"antennae":"B","wings":"X","pattern":"S","legs":"X"},"action":"harvest","summary":"good-harvest","bonus":0},{"rt":720.7000000029802,"stimulus":"\n                    <p><b>Action: <em>harvest</em></b></p>\n                    <p>This is the bee that you just saw.</p>\n                    <img src=\"bees-with-color/bee-A1DM.svg\" width=\"200\">\n                    <p><span class=\"greenText\"><b>Successful harvest!</b></span><br>Your pay has increased by $0.02. Your bonus pay is now $0.32.</p>\n            ","response":0,"trial_type":"html-button-response","trial_index":62,"time_elapsed":475043,"internal_node_id":"0.0-4.0-1.25","subject_id":"5f68f02c41716709ee9be42d","study_id":"60edd13110225f80f9f3709b","session_id":"6196c29e9062cc44cf612877","condition":"full-information","relevant_dimensions":["antennae","pattern"],"bee_group":{"antennae":"B","wings":"X","pattern":"S","legs":"X"},"bonus":0},{"rt":1193.5,"stimulus":"bees-with-color/bee-A2SF.svg","response":1,"trial_type":"image-button-response","trial_index":63,"time_elapsed":476238,"internal_node_id":"0.0-4.0-0.26","subject_id":"5f68f02c41716709ee9be42d","study_id":"60edd13110225f80f9f3709b","session_id":"6196c29e9062cc44cf612877","condition":"full-information","relevant_dimensions":["antennae","pattern"],"bee_group":{"antennae":"B","wings":"X","pattern":"S","legs":"X"},"action":"avoid","summary":"bad-avoid","bonus":0},{"rt":1348.699999988079,"stimulus":"\n                    <p><b>Action: <em>avoid</em></b></p>\n                    <p>This is the bee that you just saw.</p>\n                    <img src=\"bees-with-color/bee-A2SF.svg\" width=\"200\">\n                    <p><span class=\"redText\">Bad choice,</span> the bee was friendly.<br>Your bonus pay is unchanged, and remains at $0.32.</p>\n            ","response":0,"trial_type":"html-button-response","trial_index":64,"time_elapsed":477587,"internal_node_id":"0.0-4.0-1.26","subject_id":"5f68f02c41716709ee9be42d","study_id":"60edd13110225f80f9f3709b","session_id":"6196c29e9062cc44cf612877","condition":"full-information","relevant_dimensions":["antennae","pattern"],"bee_group":{"antennae":"B","wings":"X","pattern":"S","legs":"X"},"bonus":0},{"rt":1246.1000000089407,"stimulus":"bees-with-color/bee-A2DM.svg","response":0,"trial_type":"image-button-response","trial_index":65,"time_elapsed":478835,"internal_node_id":"0.0-4.0-0.27","subject_id":"5f68f02c41716709ee9be42d","study_id":"60edd13110225f80f9f3709b","session_id":"6196c29e9062cc44cf612877","condition":"full-information","relevant_dimensions":["antennae","pattern"],"bee_group":{"antennae":"B","wings":"X","pattern":"S","legs":"X"},"action":"harvest","summary":"good-harvest","bonus":0},{"rt":1234,"stimulus":"\n                    <p><b>Action: <em>harvest</em></b></p>\n                    <p>This is the bee that you just saw.</p>\n                    <img src=\"bees-with-color/bee-A2DM.svg\" width=\"200\">\n                    <p><span class=\"greenText\"><b>Successful harvest!</b></span><br>Your pay has increased by $0.02. Your bonus pay is now $0.34.</p>\n            ","response":0,"trial_type":"html-button-response","trial_index":66,"time_elapsed":480070,"internal_node_id":"0.0-4.0-1.27","subject_id":"5f68f02c41716709ee9be42d","study_id":"60edd13110225f80f9f3709b","session_id":"6196c29e9062cc44cf612877","condition":"full-information","relevant_dimensions":["antennae","pattern"],"bee_group":{"antennae":"B","wings":"X","pattern":"S","legs":"X"},"bonus":0},{"rt":1095.1000000089407,"stimulus":"bees-with-color/bee-B2SM.svg","response":0,"trial_type":"image-button-response","trial_index":67,"time_elapsed":481166,"internal_node_id":"0.0-4.0-0.28","subject_id":"5f68f02c41716709ee9be42d","study_id":"60edd13110225f80f9f3709b","session_id":"6196c29e9062cc44cf612877","condition":"full-information","relevant_dimensions":["antennae","pattern"],"bee_group":{"antennae":"B","wings":"X","pattern":"S","legs":"X"},"action":"harvest","summary":"bad-harvest","bonus":0},{"rt":1177.2000000029802,"stimulus":"\n                    <p><b>Action: <em>harvest</em></b></p>\n                    <p>This is the bee that you just saw.</p>\n                    <img src=\"bees-with-color/bee-B2SM.svg\" width=\"200\">\n                    <p><span class=\"redText\">Bad choice, the bee was angry.</span><br><b>You have been stung!</b><br>Your pay has been decreased by $0.10. Your bonus pay is now $0.24.</p>\n            ","response":0,"trial_type":"html-button-response","trial_index":68,"time_elapsed":482344,"internal_node_id":"0.0-4.0-1.28","subject_id":"5f68f02c41716709ee9be42d","study_id":"60edd13110225f80f9f3709b","session_id":"6196c29e9062cc44cf612877","condition":"full-information","relevant_dimensions":["antennae","pattern"],"bee_group":{"antennae":"B","wings":"X","pattern":"S","legs":"X"},"bonus":0},{"rt":1929.2000000029802,"stimulus":"bees-with-color/bee-B2DM.svg","response":0,"trial_type":"image-button-response","trial_index":69,"time_elapsed":484274,"internal_node_id":"0.0-4.0-0.29","subject_id":"5f68f02c41716709ee9be42d","study_id":"60edd13110225f80f9f3709b","session_id":"6196c29e9062cc44cf612877","condition":"full-information","relevant_dimensions":["antennae","pattern"],"bee_group":{"antennae":"B","wings":"X","pattern":"S","legs":"X"},"action":"harvest","summary":"good-harvest","bonus":0},{"rt":1012.6000000089407,"stimulus":"\n                    <p><b>Action: <em>harvest</em></b></p>\n                    <p>This is the bee that you just saw.</p>\n                    <img src=\"bees-with-color/bee-B2DM.svg\" width=\"200\">\n                    <p><span class=\"greenText\"><b>Successful harvest!</b></span><br>Your pay has increased by $0.02. Your bonus pay is now $0.26.</p>\n            ","response":0,"trial_type":"html-button-response","trial_index":70,"time_elapsed":485288,"internal_node_id":"0.0-4.0-1.29","subject_id":"5f68f02c41716709ee9be42d","study_id":"60edd13110225f80f9f3709b","session_id":"6196c29e9062cc44cf612877","condition":"full-information","relevant_dimensions":["antennae","pattern"],"bee_group":{"antennae":"B","wings":"X","pattern":"S","legs":"X"},"bonus":0},{"rt":909.8999999910593,"stimulus":"bees-with-color/bee-A1SM.svg","response":0,"trial_type":"image-button-response","trial_index":71,"time_elapsed":486200,"internal_node_id":"0.0-4.0-0.30","subject_id":"5f68f02c41716709ee9be42d","study_id":"60edd13110225f80f9f3709b","session_id":"6196c29e9062cc44cf612877","condition":"full-information","relevant_dimensions":["antennae","pattern"],"bee_group":{"antennae":"B","wings":"X","pattern":"S","legs":"X"},"action":"harvest","summary":"good-harvest","bonus":0},{"rt":632.7999999970198,"stimulus":"\n                    <p><b>Action: <em>harvest</em></b></p>\n                    <p>This is the bee that you just saw.</p>\n                    <img src=\"bees-with-color/bee-A1SM.svg\" width=\"200\">\n                    <p><span class=\"greenText\"><b>Successful harvest!</b></span><br>Your pay has increased by $0.02. Your bonus pay is now $0.28.</p>\n            ","response":0,"trial_type":"html-button-response","trial_index":72,"time_elapsed":486834,"internal_node_id":"0.0-4.0-1.30","subject_id":"5f68f02c41716709ee9be42d","study_id":"60edd13110225f80f9f3709b","session_id":"6196c29e9062cc44cf612877","condition":"full-information","relevant_dimensions":["antennae","pattern"],"bee_group":{"antennae":"B","wings":"X","pattern":"S","legs":"X"},"bonus":0},{"rt":2075.5,"stimulus":"bees-with-color/bee-A1DF.svg","response":1,"trial_type":"image-button-response","trial_index":73,"time_elapsed":488910,"internal_node_id":"0.0-4.0-0.31","subject_id":"5f68f02c41716709ee9be42d","study_id":"60edd13110225f80f9f3709b","session_id":"6196c29e9062cc44cf612877","condition":"full-information","relevant_dimensions":["antennae","pattern"],"bee_group":{"antennae":"B","wings":"X","pattern":"S","legs":"X"},"action":"avoid","summary":"bad-avoid","bonus":0},{"rt":723.1999999880791,"stimulus":"\n                    <p><b>Action: <em>avoid</em></b></p>\n                    <p>This is the bee that you just saw.</p>\n                    <img src=\"bees-with-color/bee-A1DF.svg\" width=\"200\">\n                    <p><span class=\"redText\">Bad choice,</span> the bee was friendly.<br>Your bonus pay is unchanged, and remains at $0.28.</p>\n            ","response":0,"trial_type":"html-button-response","trial_index":74,"time_elapsed":489635,"internal_node_id":"0.0-4.0-1.31","subject_id":"5f68f02c41716709ee9be42d","study_id":"60edd13110225f80f9f3709b","session_id":"6196c29e9062cc44cf612877","condition":"full-information","relevant_dimensions":["antennae","pattern"],"bee_group":{"antennae":"B","wings":"X","pattern":"S","legs":"X"},"bonus":0},{"rt":952,"stimulus":"bees-with-color/bee-B1DF.svg","response":1,"trial_type":"image-button-response","trial_index":75,"time_elapsed":490588,"internal_node_id":"0.0-4.0-0.32","subject_id":"5f68f02c41716709ee9be42d","study_id":"60edd13110225f80f9f3709b","session_id":"6196c29e9062cc44cf612877","condition":"full-information","relevant_dimensions":["antennae","pattern"],"bee_group":{"antennae":"B","wings":"X","pattern":"S","legs":"X"},"action":"avoid","summary":"bad-avoid","bonus":0},{"rt":904.8999999910593,"stimulus":"\n                    <p><b>Action: <em>avoid</em></b></p>\n                    <p>This is the bee that you just saw.</p>\n                    <img src=\"bees-with-color/bee-B1DF.svg\" width=\"200\">\n                    <p><span class=\"redText\">Bad choice,</span> the bee was friendly.<br>Your bonus pay is unchanged, and remains at $0.28.</p>\n            ","response":0,"trial_type":"html-button-response","trial_index":76,"time_elapsed":491494,"internal_node_id":"0.0-4.0-1.32","subject_id":"5f68f02c41716709ee9be42d","study_id":"60edd13110225f80f9f3709b","session_id":"6196c29e9062cc44cf612877","condition":"full-information","relevant_dimensions":["antennae","pattern"],"bee_group":{"antennae":"B","wings":"X","pattern":"S","legs":"X"},"bonus":0},{"rt":876.7999999970198,"stimulus":"bees-with-color/bee-B2SM.svg","response":0,"trial_type":"image-button-response","trial_index":77,"time_elapsed":492372,"internal_node_id":"0.0-4.0-0.33","subject_id":"5f68f02c41716709ee9be42d","study_id":"60edd13110225f80f9f3709b","session_id":"6196c29e9062cc44cf612877","condition":"full-information","relevant_dimensions":["antennae","pattern"],"bee_group":{"antennae":"B","wings":"X","pattern":"S","legs":"X"},"action":"harvest","summary":"bad-harvest","bonus":0},{"rt":1199,"stimulus":"\n                    <p><b>Action: <em>harvest</em></b></p>\n                    <p>This is the bee that you just saw.</p>\n                    <img src=\"bees-with-color/bee-B2SM.svg\" width=\"200\">\n                    <p><span class=\"redText\">Bad choice, the bee was angry.</span><br><b>You have been stung!</b><br>Your pay has been decreased by $0.10. Your bonus pay is now $0.18.</p>\n            ","response":0,"trial_type":"html-button-response","trial_index":78,"time_elapsed":493572,"internal_node_id":"0.0-4.0-1.33","subject_id":"5f68f02c41716709ee9be42d","study_id":"60edd13110225f80f9f3709b","session_id":"6196c29e9062cc44cf612877","condition":"full-information","relevant_dimensions":["antennae","pattern"],"bee_group":{"antennae":"B","wings":"X","pattern":"S","legs":"X"},"bonus":0},{"rt":1426.9000000059605,"stimulus":"bees-with-color/bee-B2SF.svg","response":1,"trial_type":"image-button-response","trial_index":79,"time_elapsed":495000,"internal_node_id":"0.0-4.0-0.34","subject_id":"5f68f02c41716709ee9be42d","study_id":"60edd13110225f80f9f3709b","session_id":"6196c29e9062cc44cf612877","condition":"full-information","relevant_dimensions":["antennae","pattern"],"bee_group":{"antennae":"B","wings":"X","pattern":"S","legs":"X"},"action":"avoid","summary":"good-avoid","bonus":0},{"rt":560.7999999970198,"stimulus":"\n                    <p><b>Action: <em>avoid</em></b></p>\n                    <p>This is the bee that you just saw.</p>\n                    <img src=\"bees-with-color/bee-B2SF.svg\" width=\"200\">\n                    <p><span class=\"greenText\">Good choice!</span>  This bee would have stung you.<br>Your bonus pay is unchanged, and remains at $0.18.</p>\n            ","response":0,"trial_type":"html-button-response","trial_index":80,"time_elapsed":495562,"internal_node_id":"0.0-4.0-1.34","subject_id":"5f68f02c41716709ee9be42d","study_id":"60edd13110225f80f9f3709b","session_id":"6196c29e9062cc44cf612877","condition":"full-information","relevant_dimensions":["antennae","pattern"],"bee_group":{"antennae":"B","wings":"X","pattern":"S","legs":"X"},"bonus":0},{"rt":1092.9000000059605,"stimulus":"bees-with-color/bee-A2DF.svg","response":1,"trial_type":"image-button-response","trial_index":81,"time_elapsed":496656,"internal_node_id":"0.0-4.0-0.35","subject_id":"5f68f02c41716709ee9be42d","study_id":"60edd13110225f80f9f3709b","session_id":"6196c29e9062cc44cf612877","condition":"full-information","relevant_dimensions":["antennae","pattern"],"bee_group":{"antennae":"B","wings":"X","pattern":"S","legs":"X"},"action":"avoid","summary":"bad-avoid","bonus":0},{"rt":650.8000000119209,"stimulus":"\n                    <p><b>Action: <em>avoid</em></b></p>\n                    <p>This is the bee that you just saw.</p>\n                    <img src=\"bees-with-color/bee-A2DF.svg\" width=\"200\">\n                    <p><span class=\"redText\">Bad choice,</span> the bee was friendly.<br>Your bonus pay is unchanged, and remains at $0.18.</p>\n            ","response":0,"trial_type":"html-button-response","trial_index":82,"time_elapsed":497308,"internal_node_id":"0.0-4.0-1.35","subject_id":"5f68f02c41716709ee9be42d","study_id":"60edd13110225f80f9f3709b","session_id":"6196c29e9062cc44cf612877","condition":"full-information","relevant_dimensions":["antennae","pattern"],"bee_group":{"antennae":"B","wings":"X","pattern":"S","legs":"X"},"bonus":0},{"rt":635,"stimulus":"bees-with-color/bee-B2DF.svg","response":1,"trial_type":"image-button-response","trial_index":83,"time_elapsed":497944,"internal_node_id":"0.0-4.0-0.36","subject_id":"5f68f02c41716709ee9be42d","study_id":"60edd13110225f80f9f3709b","session_id":"6196c29e9062cc44cf612877","condition":"full-information","relevant_dimensions":["antennae","pattern"],"bee_group":{"antennae":"B","wings":"X","pattern":"S","legs":"X"},"action":"avoid","summary":"bad-avoid","bonus":0},{"rt":602.7000000029802,"stimulus":"\n                    <p><b>Action: <em>avoid</em></b></p>\n                    <p>This is the bee that you just saw.</p>\n                    <img src=\"bees-with-color/bee-B2DF.svg\" width=\"200\">\n                    <p><span class=\"redText\">Bad choice,</span> the bee was friendly.<br>Your bonus pay is unchanged, and remains at $0.18.</p>\n            ","response":0,"trial_type":"html-button-response","trial_index":84,"time_elapsed":498548,"internal_node_id":"0.0-4.0-1.36","subject_id":"5f68f02c41716709ee9be42d","study_id":"60edd13110225f80f9f3709b","session_id":"6196c29e9062cc44cf612877","condition":"full-information","relevant_dimensions":["antennae","pattern"],"bee_group":{"antennae":"B","wings":"X","pattern":"S","legs":"X"},"bonus":0},{"rt":2004.5,"stimulus":"bees-with-color/bee-A1SF.svg","response":1,"trial_type":"image-button-response","trial_index":85,"time_elapsed":500554,"internal_node_id":"0.0-4.0-0.37","subject_id":"5f68f02c41716709ee9be42d","study_id":"60edd13110225f80f9f3709b","session_id":"6196c29e9062cc44cf612877","condition":"full-information","relevant_dimensions":["antennae","pattern"],"bee_group":{"antennae":"B","wings":"X","pattern":"S","legs":"X"},"action":"avoid","summary":"bad-avoid","bonus":0},{"rt":746.7000000029802,"stimulus":"\n                    <p><b>Action: <em>avoid</em></b></p>\n                    <p>This is the bee that you just saw.</p>\n                    <img src=\"bees-with-color/bee-A1SF.svg\" width=\"200\">\n                    <p><span class=\"redText\">Bad choice,</span> the bee was friendly.<br>Your bonus pay is unchanged, and remains at $0.18.</p>\n            ","response":0,"trial_type":"html-button-response","trial_index":86,"time_elapsed":501302,"internal_node_id":"0.0-4.0-1.37","subject_id":"5f68f02c41716709ee9be42d","study_id":"60edd13110225f80f9f3709b","session_id":"6196c29e9062cc44cf612877","condition":"full-information","relevant_dimensions":["antennae","pattern"],"bee_group":{"antennae":"B","wings":"X","pattern":"S","legs":"X"},"bonus":0},{"rt":958.7999999970198,"stimulus":"bees-with-color/bee-A1SM.svg","response":0,"trial_type":"image-button-response","trial_index":87,"time_elapsed":502262,"internal_node_id":"0.0-4.0-0.38","subject_id":"5f68f02c41716709ee9be42d","study_id":"60edd13110225f80f9f3709b","session_id":"6196c29e9062cc44cf612877","condition":"full-information","relevant_dimensions":["antennae","pattern"],"bee_group":{"antennae":"B","wings":"X","pattern":"S","legs":"X"},"action":"harvest","summary":"good-harvest","bonus":0},{"rt":499.40000000596046,"stimulus":"\n                    <p><b>Action: <em>harvest</em></b></p>\n                    <p>This is the bee that you just saw.</p>\n                    <img src=\"bees-with-color/bee-A1SM.svg\" width=\"200\">\n                    <p><span class=\"greenText\"><b>Successful harvest!</b></span><br>Your pay has increased by $0.02. Your bonus pay is now $0.20.</p>\n            ","response":0,"trial_type":"html-button-response","trial_index":88,"time_elapsed":502762,"internal_node_id":"0.0-4.0-1.38","subject_id":"5f68f02c41716709ee9be42d","study_id":"60edd13110225f80f9f3709b","session_id":"6196c29e9062cc44cf612877","condition":"full-information","relevant_dimensions":["antennae","pattern"],"bee_group":{"antennae":"B","wings":"X","pattern":"S","legs":"X"},"bonus":0},{"rt":1290.7000000029802,"stimulus":"bees-with-color/bee-A1DF.svg","response":0,"trial_type":"image-button-response","trial_index":89,"time_elapsed":504054,"internal_node_id":"0.0-4.0-0.39","subject_id":"5f68f02c41716709ee9be42d","study_id":"60edd13110225f80f9f3709b","session_id":"6196c29e9062cc44cf612877","condition":"full-information","relevant_dimensions":["antennae","pattern"],"bee_group":{"antennae":"B","wings":"X","pattern":"S","legs":"X"},"action":"harvest","summary":"good-harvest","bonus":0},{"rt":727.1000000089407,"stimulus":"\n                    <p><b>Action: <em>harvest</em></b></p>\n                    <p>This is the bee that you just saw.</p>\n                    <img src=\"bees-with-color/bee-A1DF.svg\" width=\"200\">\n                    <p><span class=\"greenText\"><b>Successful harvest!</b></span><br>Your pay has increased by $0.02. Your bonus pay is now $0.22.</p>\n            ","response":0,"trial_type":"html-button-response","trial_index":90,"time_elapsed":504782,"internal_node_id":"0.0-4.0-1.39","subject_id":"5f68f02c41716709ee9be42d","study_id":"60edd13110225f80f9f3709b","session_id":"6196c29e9062cc44cf612877","condition":"full-information","relevant_dimensions":["antennae","pattern"],"bee_group":{"antennae":"B","wings":"X","pattern":"S","legs":"X"},"bonus":0},{"rt":1458.9000000059605,"stimulus":"bees-with-color/bee-A1DM.svg","response":0,"trial_type":"image-button-response","trial_index":91,"time_elapsed":506242,"internal_node_id":"0.0-4.0-0.40","subject_id":"5f68f02c41716709ee9be42d","study_id":"60edd13110225f80f9f3709b","session_id":"6196c29e9062cc44cf612877","condition":"full-information","relevant_dimensions":["antennae","pattern"],"bee_group":{"antennae":"B","wings":"X","pattern":"S","legs":"X"},"action":"harvest","summary":"good-harvest","bonus":0},{"rt":854.9000000059605,"stimulus":"\n                    <p><b>Action: <em>harvest</em></b></p>\n                    <p>This is the bee that you just saw.</p>\n                    <img src=\"bees-with-color/bee-A1DM.svg\" width=\"200\">\n                    <p><span class=\"greenText\"><b>Successful harvest!</b></span><br>Your pay has increased by $0.02. Your bonus pay is now $0.24.</p>\n            ","response":0,"trial_type":"html-button-response","trial_index":92,"time_elapsed":507098,"internal_node_id":"0.0-4.0-1.40","subject_id":"5f68f02c41716709ee9be42d","study_id":"60edd13110225f80f9f3709b","session_id":"6196c29e9062cc44cf612877","condition":"full-information","relevant_dimensions":["antennae","pattern"],"bee_group":{"antennae":"B","wings":"X","pattern":"S","legs":"X"},"bonus":0},{"rt":1875,"stimulus":"bees-with-color/bee-A2SM.svg","response":0,"trial_type":"image-button-response","trial_index":93,"time_elapsed":508974,"internal_node_id":"0.0-4.0-0.41","subject_id":"5f68f02c41716709ee9be42d","study_id":"60edd13110225f80f9f3709b","session_id":"6196c29e9062cc44cf612877","condition":"full-information","relevant_dimensions":["antennae","pattern"],"bee_group":{"antennae":"B","wings":"X","pattern":"S","legs":"X"},"action":"harvest","summary":"good-harvest","bonus":0},{"rt":770.9000000059605,"stimulus":"\n                    <p><b>Action: <em>harvest</em></b></p>\n                    <p>This is the bee that you just saw.</p>\n                    <img src=\"bees-with-color/bee-A2SM.svg\" width=\"200\">\n                    <p><span class=\"greenText\"><b>Successful harvest!</b></span><br>Your pay has increased by $0.02. Your bonus pay is now $0.26.</p>\n            ","response":0,"trial_type":"html-button-response","trial_index":94,"time_elapsed":509746,"internal_node_id":"0.0-4.0-1.41","subject_id":"5f68f02c41716709ee9be42d","study_id":"60edd13110225f80f9f3709b","session_id":"6196c29e9062cc44cf612877","condition":"full-information","relevant_dimensions":["antennae","pattern"],"bee_group":{"antennae":"B","wings":"X","pattern":"S","legs":"X"},"bonus":0},{"rt":1419.4000000059605,"stimulus":"bees-with-color/bee-B2DM.svg","response":0,"trial_type":"image-button-response","trial_index":95,"time_elapsed":511167,"internal_node_id":"0.0-4.0-0.42","subject_id":"5f68f02c41716709ee9be42d","study_id":"60edd13110225f80f9f3709b","session_id":"6196c29e9062cc44cf612877","condition":"full-information","relevant_dimensions":["antennae","pattern"],"bee_group":{"antennae":"B","wings":"X","pattern":"S","legs":"X"},"action":"harvest","summary":"good-harvest","bonus":0},{"rt":796.6000000089407,"stimulus":"\n                    <p><b>Action: <em>harvest</em></b></p>\n                    <p>This is the bee that you just saw.</p>\n                    <img src=\"bees-with-color/bee-B2DM.svg\" width=\"200\">\n                    <p><span class=\"greenText\"><b>Successful harvest!</b></span><br>Your pay has increased by $0.02. Your bonus pay is now $0.28.</p>\n            ","response":0,"trial_type":"html-button-response","trial_index":96,"time_elapsed":511964,"internal_node_id":"0.0-4.0-1.42","subject_id":"5f68f02c41716709ee9be42d","study_id":"60edd13110225f80f9f3709b","session_id":"6196c29e9062cc44cf612877","condition":"full-information","relevant_dimensions":["antennae","pattern"],"bee_group":{"antennae":"B","wings":"X","pattern":"S","legs":"X"},"bonus":0},{"rt":2651.1000000089407,"stimulus":"bees-with-color/bee-B1SF.svg","response":0,"trial_type":"image-button-response","trial_index":97,"time_elapsed":514616,"internal_node_id":"0.0-4.0-0.43","subject_id":"5f68f02c41716709ee9be42d","study_id":"60edd13110225f80f9f3709b","session_id":"6196c29e9062cc44cf612877","condition":"full-information","relevant_dimensions":["antennae","pattern"],"bee_group":{"antennae":"B","wings":"X","pattern":"S","legs":"X"},"action":"harvest","summary":"bad-harvest","bonus":0},{"rt":1079.3999999910593,"stimulus":"\n                    <p><b>Action: <em>harvest</em></b></p>\n                    <p>This is the bee that you just saw.</p>\n                    <img src=\"bees-with-color/bee-B1SF.svg\" width=\"200\">\n                    <p><span class=\"redText\">Bad choice, the bee was angry.</span><br><b>You have been stung!</b><br>Your pay has been decreased by $0.10. Your bonus pay is now $0.18.</p>\n            ","response":0,"trial_type":"html-button-response","trial_index":98,"time_elapsed":515697,"internal_node_id":"0.0-4.0-1.43","subject_id":"5f68f02c41716709ee9be42d","study_id":"60edd13110225f80f9f3709b","session_id":"6196c29e9062cc44cf612877","condition":"full-information","relevant_dimensions":["antennae","pattern"],"bee_group":{"antennae":"B","wings":"X","pattern":"S","legs":"X"},"bonus":0},{"rt":1632.5,"stimulus":"bees-with-color/bee-A2SF.svg","response":0,"trial_type":"image-button-response","trial_index":99,"time_elapsed":517330,"internal_node_id":"0.0-4.0-0.44","subject_id":"5f68f02c41716709ee9be42d","study_id":"60edd13110225f80f9f3709b","session_id":"6196c29e9062cc44cf612877","condition":"full-information","relevant_dimensions":["antennae","pattern"],"bee_group":{"antennae":"B","wings":"X","pattern":"S","legs":"X"},"action":"harvest","summary":"good-harvest","bonus":0},{"rt":484.90000000596046,"stimulus":"\n                    <p><b>Action: <em>harvest</em></b></p>\n                    <p>This is the bee that you just saw.</p>\n                    <img src=\"bees-with-color/bee-A2SF.svg\" width=\"200\">\n                    <p><span class=\"greenText\"><b>Successful harvest!</b></span><br>Your pay has increased by $0.02. Your bonus pay is now $0.20.</p>\n            ","response":0,"trial_type":"html-button-response","trial_index":100,"time_elapsed":517816,"internal_node_id":"0.0-4.0-1.44","subject_id":"5f68f02c41716709ee9be42d","study_id":"60edd13110225f80f9f3709b","session_id":"6196c29e9062cc44cf612877","condition":"full-information","relevant_dimensions":["antennae","pattern"],"bee_group":{"antennae":"B","wings":"X","pattern":"S","legs":"X"},"bonus":0},{"rt":979.2999999970198,"stimulus":"bees-with-color/bee-B1SM.svg","response":0,"trial_type":"image-button-response","trial_index":101,"time_elapsed":518797,"internal_node_id":"0.0-4.0-0.45","subject_id":"5f68f02c41716709ee9be42d","study_id":"60edd13110225f80f9f3709b","session_id":"6196c29e9062cc44cf612877","condition":"full-information","relevant_dimensions":["antennae","pattern"],"bee_group":{"antennae":"B","wings":"X","pattern":"S","legs":"X"},"action":"harvest","summary":"bad-harvest","bonus":0},{"rt":720.6999999880791,"stimulus":"\n                    <p><b>Action: <em>harvest</em></b></p>\n                    <p>This is the bee that you just saw.</p>\n                    <img src=\"bees-with-color/bee-B1SM.svg\" width=\"200\">\n                    <p><span class=\"redText\">Bad choice, the bee was angry.</span><br><b>You have been stung!</b><br>Your pay has been decreased by $0.10. Your bonus pay is now $0.10.</p>\n            ","response":0,"trial_type":"html-button-response","trial_index":102,"time_elapsed":519518,"internal_node_id":"0.0-4.0-1.45","subject_id":"5f68f02c41716709ee9be42d","study_id":"60edd13110225f80f9f3709b","session_id":"6196c29e9062cc44cf612877","condition":"full-information","relevant_dimensions":["antennae","pattern"],"bee_group":{"antennae":"B","wings":"X","pattern":"S","legs":"X"},"bonus":0},{"rt":1382.9000000059605,"stimulus":"bees-with-color/bee-B1DM.svg","response":0,"trial_type":"image-button-response","trial_index":103,"time_elapsed":520902,"internal_node_id":"0.0-4.0-0.46","subject_id":"5f68f02c41716709ee9be42d","study_id":"60edd13110225f80f9f3709b","session_id":"6196c29e9062cc44cf612877","condition":"full-information","relevant_dimensions":["antennae","pattern"],"bee_group":{"antennae":"B","wings":"X","pattern":"S","legs":"X"},"action":"harvest","summary":"good-harvest","bonus":0},{"rt":536.7000000029802,"stimulus":"\n                    <p><b>Action: <em>harvest</em></b></p>\n                    <p>This is the bee that you just saw.</p>\n                    <img src=\"bees-with-color/bee-B1DM.svg\" width=\"200\">\n                    <p><span class=\"greenText\"><b>Successful harvest!</b></span><br>Your pay has increased by $0.02. Your bonus pay is now $0.12.</p>\n            ","response":0,"trial_type":"html-button-response","trial_index":104,"time_elapsed":521440,"internal_node_id":"0.0-4.0-1.46","subject_id":"5f68f02c41716709ee9be42d","study_id":"60edd13110225f80f9f3709b","session_id":"6196c29e9062cc44cf612877","condition":"full-information","relevant_dimensions":["antennae","pattern"],"bee_group":{"antennae":"B","wings":"X","pattern":"S","legs":"X"},"bonus":0},{"rt":3395.199999988079,"stimulus":"bees-with-color/bee-A2DM.svg","response":0,"trial_type":"image-button-response","trial_index":105,"time_elapsed":524836,"internal_node_id":"0.0-4.0-0.47","subject_id":"5f68f02c41716709ee9be42d","study_id":"60edd13110225f80f9f3709b","session_id":"6196c29e9062cc44cf612877","condition":"full-information","relevant_dimensions":["antennae","pattern"],"bee_group":{"antennae":"B","wings":"X","pattern":"S","legs":"X"},"action":"harvest","summary":"good-harvest","bonus":0},{"rt":732.7999999970198,"stimulus":"\n                    <p><b>Action: <em>harvest</em></b></p>\n                    <p>This is the bee that you just saw.</p>\n                    <img src=\"bees-with-color/bee-A2DM.svg\" width=\"200\">\n                    <p><span class=\"greenText\"><b>Successful harvest!</b></span><br>Your pay has increased by $0.02. Your bonus pay is now $0.14.</p>\n            ","response":0,"trial_type":"html-button-response","trial_index":106,"time_elapsed":525570,"internal_node_id":"0.0-4.0-1.47","subject_id":"5f68f02c41716709ee9be42d","study_id":"60edd13110225f80f9f3709b","session_id":"6196c29e9062cc44cf612877","condition":"full-information","relevant_dimensions":["antennae","pattern"],"bee_group":{"antennae":"B","wings":"X","pattern":"S","legs":"X"},"bonus":0},{"rt":816.7000000029802,"stimulus":"bees-with-color/bee-B1DM.svg","response":0,"trial_type":"image-button-response","trial_index":107,"time_elapsed":526389,"internal_node_id":"0.0-4.0-0.48","subject_id":"5f68f02c41716709ee9be42d","study_id":"60edd13110225f80f9f3709b","session_id":"6196c29e9062cc44cf612877","condition":"full-information","relevant_dimensions":["antennae","pattern"],"bee_group":{"antennae":"B","wings":"X","pattern":"S","legs":"X"},"action":"harvest","summary":"good-harvest","bonus":0},{"rt":562.7000000029802,"stimulus":"\n                    <p><b>Action: <em>harvest</em></b></p>\n                    <p>This is the bee that you just saw.</p>\n                    <img src=\"bees-with-color/bee-B1DM.svg\" width=\"200\">\n                    <p><span class=\"greenText\"><b>Successful harvest!</b></span><br>Your pay has increased by $0.02. Your bonus pay is now $0.16.</p>\n            ","response":0,"trial_type":"html-button-response","trial_index":108,"time_elapsed":526953,"internal_node_id":"0.0-4.0-1.48","subject_id":"5f68f02c41716709ee9be42d","study_id":"60edd13110225f80f9f3709b","session_id":"6196c29e9062cc44cf612877","condition":"full-information","relevant_dimensions":["antennae","pattern"],"bee_group":{"antennae":"B","wings":"X","pattern":"S","legs":"X"},"bonus":0},{"rt":1782.5999999940395,"stimulus":"bees-with-color/bee-A2SF.svg","response":0,"trial_type":"image-button-response","trial_index":109,"time_elapsed":528737,"internal_node_id":"0.0-4.0-0.49","subject_id":"5f68f02c41716709ee9be42d","study_id":"60edd13110225f80f9f3709b","session_id":"6196c29e9062cc44cf612877","condition":"full-information","relevant_dimensions":["antennae","pattern"],"bee_group":{"antennae":"B","wings":"X","pattern":"S","legs":"X"},"action":"harvest","summary":"good-harvest","bonus":0},{"rt":538.5999999940395,"stimulus":"\n                    <p><b>Action: <em>harvest</em></b></p>\n                    <p>This is the bee that you just saw.</p>\n                    <img src=\"bees-with-color/bee-A2SF.svg\" width=\"200\">\n                    <p><span class=\"greenText\"><b>Successful harvest!</b></span><br>Your pay has increased by $0.02. Your bonus pay is now $0.18.</p>\n            ","response":0,"trial_type":"html-button-response","trial_index":110,"time_elapsed":529277,"internal_node_id":"0.0-4.0-1.49","subject_id":"5f68f02c41716709ee9be42d","study_id":"60edd13110225f80f9f3709b","session_id":"6196c29e9062cc44cf612877","condition":"full-information","relevant_dimensions":["antennae","pattern"],"bee_group":{"antennae":"B","wings":"X","pattern":"S","legs":"X"},"bonus":0},{"rt":770.5999999940395,"stimulus":"bees-with-color/bee-A1SM.svg","response":0,"trial_type":"image-button-response","trial_index":111,"time_elapsed":530048,"internal_node_id":"0.0-4.0-0.50","subject_id":"5f68f02c41716709ee9be42d","study_id":"60edd13110225f80f9f3709b","session_id":"6196c29e9062cc44cf612877","condition":"full-information","relevant_dimensions":["antennae","pattern"],"bee_group":{"antennae":"B","wings":"X","pattern":"S","legs":"X"},"action":"harvest","summary":"good-harvest","bonus":0},{"rt":459.09999999403954,"stimulus":"\n                    <p><b>Action: <em>harvest</em></b></p>\n                    <p>This is the bee that you just saw.</p>\n                    <img src=\"bees-with-color/bee-A1SM.svg\" width=\"200\">\n                    <p><span class=\"greenText\"><b>Successful harvest!</b></span><br>Your pay has increased by $0.02. Your bonus pay is now $0.20.</p>\n            ","response":0,"trial_type":"html-button-response","trial_index":112,"time_elapsed":530509,"internal_node_id":"0.0-4.0-1.50","subject_id":"5f68f02c41716709ee9be42d","study_id":"60edd13110225f80f9f3709b","session_id":"6196c29e9062cc44cf612877","condition":"full-information","relevant_dimensions":["antennae","pattern"],"bee_group":{"antennae":"B","wings":"X","pattern":"S","legs":"X"},"bonus":0},{"rt":1080.7999999970198,"stimulus":"bees-with-color/bee-B2SF.svg","response":0,"trial_type":"image-button-response","trial_index":113,"time_elapsed":531590,"internal_node_id":"0.0-4.0-0.51","subject_id":"5f68f02c41716709ee9be42d","study_id":"60edd13110225f80f9f3709b","session_id":"6196c29e9062cc44cf612877","condition":"full-information","relevant_dimensions":["antennae","pattern"],"bee_group":{"antennae":"B","wings":"X","pattern":"S","legs":"X"},"action":"harvest","summary":"bad-harvest","bonus":0},{"rt":1135.2999999970198,"stimulus":"\n                    <p><b>Action: <em>harvest</em></b></p>\n                    <p>This is the bee that you just saw.</p>\n                    <img src=\"bees-with-color/bee-B2SF.svg\" width=\"200\">\n                    <p><span class=\"redText\">Bad choice, the bee was angry.</span><br><b>You have been stung!</b><br>Your pay has been decreased by $0.10. Your bonus pay is now $0.10.</p>\n            ","response":0,"trial_type":"html-button-response","trial_index":114,"time_elapsed":532727,"internal_node_id":"0.0-4.0-1.51","subject_id":"5f68f02c41716709ee9be42d","study_id":"60edd13110225f80f9f3709b","session_id":"6196c29e9062cc44cf612877","condition":"full-information","relevant_dimensions":["antennae","pattern"],"bee_group":{"antennae":"B","wings":"X","pattern":"S","legs":"X"},"bonus":0},{"rt":878.4000000059605,"stimulus":"bees-with-color/bee-B2DM.svg","response":0,"trial_type":"image-button-response","trial_index":115,"time_elapsed":533606,"internal_node_id":"0.0-4.0-0.52","subject_id":"5f68f02c41716709ee9be42d","study_id":"60edd13110225f80f9f3709b","session_id":"6196c29e9062cc44cf612877","condition":"full-information","relevant_dimensions":["antennae","pattern"],"bee_group":{"antennae":"B","wings":"X","pattern":"S","legs":"X"},"action":"harvest","summary":"good-harvest","bonus":0},{"rt":481.20000000298023,"stimulus":"\n                    <p><b>Action: <em>harvest</em></b></p>\n                    <p>This is the bee that you just saw.</p>\n                    <img src=\"bees-with-color/bee-B2DM.svg\" width=\"200\">\n                    <p><span class=\"greenText\"><b>Successful harvest!</b></span><br>Your pay has increased by $0.02. Your bonus pay is now $0.12.</p>\n            ","response":0,"trial_type":"html-button-response","trial_index":116,"time_elapsed":534089,"internal_node_id":"0.0-4.0-1.52","subject_id":"5f68f02c41716709ee9be42d","study_id":"60edd13110225f80f9f3709b","session_id":"6196c29e9062cc44cf612877","condition":"full-information","relevant_dimensions":["antennae","pattern"],"bee_group":{"antennae":"B","wings":"X","pattern":"S","legs":"X"},"bonus":0},{"rt":694.7000000029802,"stimulus":"bees-with-color/bee-A1DM.svg","response":0,"trial_type":"image-button-response","trial_index":117,"time_elapsed":534784,"internal_node_id":"0.0-4.0-0.53","subject_id":"5f68f02c41716709ee9be42d","study_id":"60edd13110225f80f9f3709b","session_id":"6196c29e9062cc44cf612877","condition":"full-information","relevant_dimensions":["antennae","pattern"],"bee_group":{"antennae":"B","wings":"X","pattern":"S","legs":"X"},"action":"harvest","summary":"good-harvest","bonus":0},{"rt":405.29999999701977,"stimulus":"\n                    <p><b>Action: <em>harvest</em></b></p>\n                    <p>This is the bee that you just saw.</p>\n                    <img src=\"bees-with-color/bee-A1DM.svg\" width=\"200\">\n                    <p><span class=\"greenText\"><b>Successful harvest!</b></span><br>Your pay has increased by $0.02. Your bonus pay is now $0.14.</p>\n            ","response":0,"trial_type":"html-button-response","trial_index":118,"time_elapsed":535190,"internal_node_id":"0.0-4.0-1.53","subject_id":"5f68f02c41716709ee9be42d","study_id":"60edd13110225f80f9f3709b","session_id":"6196c29e9062cc44cf612877","condition":"full-information","relevant_dimensions":["antennae","pattern"],"bee_group":{"antennae":"B","wings":"X","pattern":"S","legs":"X"},"bonus":0},{"rt":4965.20000000298,"stimulus":"bees-with-color/bee-B2DF.svg","response":0,"trial_type":"image-button-response","trial_index":119,"time_elapsed":540157,"internal_node_id":"0.0-4.0-0.54","subject_id":"5f68f02c41716709ee9be42d","study_id":"60edd13110225f80f9f3709b","session_id":"6196c29e9062cc44cf612877","condition":"full-information","relevant_dimensions":["antennae","pattern"],"bee_group":{"antennae":"B","wings":"X","pattern":"S","legs":"X"},"action":"harvest","summary":"good-harvest","bonus":0},{"rt":707,"stimulus":"\n                    <p><b>Action: <em>harvest</em></b></p>\n                    <p>This is the bee that you just saw.</p>\n                    <img src=\"bees-with-color/bee-B2DF.svg\" width=\"200\">\n                    <p><span class=\"greenText\"><b>Successful harvest!</b></span><br>Your pay has increased by $0.02. Your bonus pay is now $0.16.</p>\n            ","response":0,"trial_type":"html-button-response","trial_index":120,"time_elapsed":540865,"internal_node_id":"0.0-4.0-1.54","subject_id":"5f68f02c41716709ee9be42d","study_id":"60edd13110225f80f9f3709b","session_id":"6196c29e9062cc44cf612877","condition":"full-information","relevant_dimensions":["antennae","pattern"],"bee_group":{"antennae":"B","wings":"X","pattern":"S","legs":"X"},"bonus":0},{"rt":2206.4000000059605,"stimulus":"bees-with-color/bee-B1SF.svg","response":0,"trial_type":"image-button-response","trial_index":121,"time_elapsed":543073,"internal_node_id":"0.0-4.0-0.55","subject_id":"5f68f02c41716709ee9be42d","study_id":"60edd13110225f80f9f3709b","session_id":"6196c29e9062cc44cf612877","condition":"full-information","relevant_dimensions":["antennae","pattern"],"bee_group":{"antennae":"B","wings":"X","pattern":"S","legs":"X"},"action":"harvest","summary":"bad-harvest","bonus":0},{"rt":761,"stimulus":"\n                    <p><b>Action: <em>harvest</em></b></p>\n                    <p>This is the bee that you just saw.</p>\n                    <img src=\"bees-with-color/bee-B1SF.svg\" width=\"200\">\n                    <p><span class=\"redText\">Bad choice, the bee was angry.</span><br><b>You have been stung!</b><br>Your pay has been decreased by $0.10. Your bonus pay is now $0.06.</p>\n            ","response":0,"trial_type":"html-button-response","trial_index":122,"time_elapsed":543835,"internal_node_id":"0.0-4.0-1.55","subject_id":"5f68f02c41716709ee9be42d","study_id":"60edd13110225f80f9f3709b","session_id":"6196c29e9062cc44cf612877","condition":"full-information","relevant_dimensions":["antennae","pattern"],"bee_group":{"antennae":"B","wings":"X","pattern":"S","legs":"X"},"bonus":0},{"rt":1556.8999999910593,"stimulus":"bees-with-color/bee-B1SM.svg","response":0,"trial_type":"image-button-response","trial_index":123,"time_elapsed":545392,"internal_node_id":"0.0-4.0-0.56","subject_id":"5f68f02c41716709ee9be42d","study_id":"60edd13110225f80f9f3709b","session_id":"6196c29e9062cc44cf612877","condition":"full-information","relevant_dimensions":["antennae","pattern"],"bee_group":{"antennae":"B","wings":"X","pattern":"S","legs":"X"},"action":"harvest","summary":"bad-harvest","bonus":0},{"rt":937.0999999940395,"stimulus":"\n                    <p><b>Action: <em>harvest</em></b></p>\n                    <p>This is the bee that you just saw.</p>\n                    <img src=\"bees-with-color/bee-B1SM.svg\" width=\"200\">\n                    <p><span class=\"redText\">Bad choice, the bee was angry.</span><br><b>You have been stung!</b><br>Your pay has been decreased by $0.10. Your bonus pay is now $0.00.</p>\n            ","response":0,"trial_type":"html-button-response","trial_index":124,"time_elapsed":546331,"internal_node_id":"0.0-4.0-1.56","subject_id":"5f68f02c41716709ee9be42d","study_id":"60edd13110225f80f9f3709b","session_id":"6196c29e9062cc44cf612877","condition":"full-information","relevant_dimensions":["antennae","pattern"],"bee_group":{"antennae":"B","wings":"X","pattern":"S","legs":"X"},"bonus":0},{"rt":1281.0999999940395,"stimulus":"bees-with-color/bee-A1SF.svg","response":0,"trial_type":"image-button-response","trial_index":125,"time_elapsed":547613,"internal_node_id":"0.0-4.0-0.57","subject_id":"5f68f02c41716709ee9be42d","study_id":"60edd13110225f80f9f3709b","session_id":"6196c29e9062cc44cf612877","condition":"full-information","relevant_dimensions":["antennae","pattern"],"bee_group":{"antennae":"B","wings":"X","pattern":"S","legs":"X"},"action":"harvest","summary":"good-harvest","bonus":0},{"rt":714.9000000059605,"stimulus":"\n                    <p><b>Action: <em>harvest</em></b></p>\n                    <p>This is the bee that you just saw.</p>\n                    <img src=\"bees-with-color/bee-A1SF.svg\" width=\"200\">\n                    <p><span class=\"greenText\"><b>Successful harvest!</b></span><br>Your pay has increased by $0.02. Your bonus pay is now $0.02.</p>\n            ","response":0,"trial_type":"html-button-response","trial_index":126,"time_elapsed":548329,"internal_node_id":"0.0-4.0-1.57","subject_id":"5f68f02c41716709ee9be42d","study_id":"60edd13110225f80f9f3709b","session_id":"6196c29e9062cc44cf612877","condition":"full-information","relevant_dimensions":["antennae","pattern"],"bee_group":{"antennae":"B","wings":"X","pattern":"S","legs":"X"},"bonus":0},{"rt":1336.7000000029802,"stimulus":"bees-with-color/bee-B2SM.svg","response":0,"trial_type":"image-button-response","trial_index":127,"time_elapsed":549667,"internal_node_id":"0.0-4.0-0.58","subject_id":"5f68f02c41716709ee9be42d","study_id":"60edd13110225f80f9f3709b","session_id":"6196c29e9062cc44cf612877","condition":"full-information","relevant_dimensions":["antennae","pattern"],"bee_group":{"antennae":"B","wings":"X","pattern":"S","legs":"X"},"action":"harvest","summary":"bad-harvest","bonus":0},{"rt":576.7999999970198,"stimulus":"\n                    <p><b>Action: <em>harvest</em></b></p>\n                    <p>This is the bee that you just saw.</p>\n                    <img src=\"bees-with-color/bee-B2SM.svg\" width=\"200\">\n                    <p><span class=\"redText\">Bad choice, the bee was angry.</span><br><b>You have been stung!</b><br>Your pay has been decreased by $0.10. Your bonus pay is now $0.00.</p>\n            ","response":0,"trial_type":"html-button-response","trial_index":128,"time_elapsed":550245,"internal_node_id":"0.0-4.0-1.58","subject_id":"5f68f02c41716709ee9be42d","study_id":"60edd13110225f80f9f3709b","session_id":"6196c29e9062cc44cf612877","condition":"full-information","relevant_dimensions":["antennae","pattern"],"bee_group":{"antennae":"B","wings":"X","pattern":"S","legs":"X"},"bonus":0},{"rt":2281.0999999940395,"stimulus":"bees-with-color/bee-A1DF.svg","response":0,"trial_type":"image-button-response","trial_index":129,"time_elapsed":552527,"internal_node_id":"0.0-4.0-0.59","subject_id":"5f68f02c41716709ee9be42d","study_id":"60edd13110225f80f9f3709b","session_id":"6196c29e9062cc44cf612877","condition":"full-information","relevant_dimensions":["antennae","pattern"],"bee_group":{"antennae":"B","wings":"X","pattern":"S","legs":"X"},"action":"harvest","summary":"good-harvest","bonus":0},{"rt":497.20000000298023,"stimulus":"\n                    <p><b>Action: <em>harvest</em></b></p>\n                    <p>This is the bee that you just saw.</p>\n                    <img src=\"bees-with-color/bee-A1DF.svg\" width=\"200\">\n                    <p><span class=\"greenText\"><b>Successful harvest!</b></span><br>Your pay has increased by $0.02. Your bonus pay is now $0.02.</p>\n            ","response":0,"trial_type":"html-button-response","trial_index":130,"time_elapsed":553025,"internal_node_id":"0.0-4.0-1.59","subject_id":"5f68f02c41716709ee9be42d","study_id":"60edd13110225f80f9f3709b","session_id":"6196c29e9062cc44cf612877","condition":"full-information","relevant_dimensions":["antennae","pattern"],"bee_group":{"antennae":"B","wings":"X","pattern":"S","legs":"X"},"bonus":0},{"rt":666.4000000059605,"stimulus":"bees-with-color/bee-A2SM.svg","response":0,"trial_type":"image-button-response","trial_index":131,"time_elapsed":553692,"internal_node_id":"0.0-4.0-0.60","subject_id":"5f68f02c41716709ee9be42d","study_id":"60edd13110225f80f9f3709b","session_id":"6196c29e9062cc44cf612877","condition":"full-information","relevant_dimensions":["antennae","pattern"],"bee_group":{"antennae":"B","wings":"X","pattern":"S","legs":"X"},"action":"harvest","summary":"good-harvest","bonus":0},{"rt":467,"stimulus":"\n                    <p><b>Action: <em>harvest</em></b></p>\n                    <p>This is the bee that you just saw.</p>\n                    <img src=\"bees-with-color/bee-A2SM.svg\" width=\"200\">\n                    <p><span class=\"greenText\"><b>Successful harvest!</b></span><br>Your pay has increased by $0.02. Your bonus pay is now $0.04.</p>\n            ","response":0,"trial_type":"html-button-response","trial_index":132,"time_elapsed":554160,"internal_node_id":"0.0-4.0-1.60","subject_id":"5f68f02c41716709ee9be42d","study_id":"60edd13110225f80f9f3709b","session_id":"6196c29e9062cc44cf612877","condition":"full-information","relevant_dimensions":["antennae","pattern"],"bee_group":{"antennae":"B","wings":"X","pattern":"S","legs":"X"},"bonus":0},{"rt":1503,"stimulus":"bees-with-color/bee-A2DF.svg","response":0,"trial_type":"image-button-response","trial_index":133,"time_elapsed":555664,"internal_node_id":"0.0-4.0-0.61","subject_id":"5f68f02c41716709ee9be42d","study_id":"60edd13110225f80f9f3709b","session_id":"6196c29e9062cc44cf612877","condition":"full-information","relevant_dimensions":["antennae","pattern"],"bee_group":{"antennae":"B","wings":"X","pattern":"S","legs":"X"},"action":"harvest","summary":"good-harvest","bonus":0},{"rt":1076.8999999910593,"stimulus":"\n                    <p><b>Action: <em>harvest</em></b></p>\n                    <p>This is the bee that you just saw.</p>\n                    <img src=\"bees-with-color/bee-A2DF.svg\" width=\"200\">\n                    <p><span class=\"greenText\"><b>Successful harvest!</b></span><br>Your pay has increased by $0.02. Your bonus pay is now $0.06.</p>\n            ","response":0,"trial_type":"html-button-response","trial_index":134,"time_elapsed":556742,"internal_node_id":"0.0-4.0-1.61","subject_id":"5f68f02c41716709ee9be42d","study_id":"60edd13110225f80f9f3709b","session_id":"6196c29e9062cc44cf612877","condition":"full-information","relevant_dimensions":["antennae","pattern"],"bee_group":{"antennae":"B","wings":"X","pattern":"S","legs":"X"},"bonus":0},{"rt":1430.7999999970198,"stimulus":"bees-with-color/bee-A2DM.svg","response":0,"trial_type":"image-button-response","trial_index":135,"time_elapsed":558174,"internal_node_id":"0.0-4.0-0.62","subject_id":"5f68f02c41716709ee9be42d","study_id":"60edd13110225f80f9f3709b","session_id":"6196c29e9062cc44cf612877","condition":"full-information","relevant_dimensions":["antennae","pattern"],"bee_group":{"antennae":"B","wings":"X","pattern":"S","legs":"X"},"action":"harvest","summary":"good-harvest","bonus":0},{"rt":976.9000000059605,"stimulus":"\n                    <p><b>Action: <em>harvest</em></b></p>\n                    <p>This is the bee that you just saw.</p>\n                    <img src=\"bees-with-color/bee-A2DM.svg\" width=\"200\">\n                    <p><span class=\"greenText\"><b>Successful harvest!</b></span><br>Your pay has increased by $0.02. Your bonus pay is now $0.08.</p>\n            ","response":0,"trial_type":"html-button-response","trial_index":136,"time_elapsed":559152,"internal_node_id":"0.0-4.0-1.62","subject_id":"5f68f02c41716709ee9be42d","study_id":"60edd13110225f80f9f3709b","session_id":"6196c29e9062cc44cf612877","condition":"full-information","relevant_dimensions":["antennae","pattern"],"bee_group":{"antennae":"B","wings":"X","pattern":"S","legs":"X"},"bonus":0},{"rt":2162.7999999970198,"stimulus":"bees-with-color/bee-B1DF.svg","response":0,"trial_type":"image-button-response","trial_index":137,"time_elapsed":561316,"internal_node_id":"0.0-4.0-0.63","subject_id":"5f68f02c41716709ee9be42d","study_id":"60edd13110225f80f9f3709b","session_id":"6196c29e9062cc44cf612877","condition":"full-information","relevant_dimensions":["antennae","pattern"],"bee_group":{"antennae":"B","wings":"X","pattern":"S","legs":"X"},"action":"harvest","summary":"good-harvest","bonus":0},{"rt":1107.2999999970198,"stimulus":"\n                    <p><b>Action: <em>harvest</em></b></p>\n                    <p>This is the bee that you just saw.</p>\n                    <img src=\"bees-with-color/bee-B1DF.svg\" width=\"200\">\n                    <p><span class=\"greenText\"><b>Successful harvest!</b></span><br>Your pay has increased by $0.02. Your bonus pay is now $0.10.</p>\n            ","response":0,"trial_type":"html-button-response","trial_index":138,"time_elapsed":562424,"internal_node_id":"0.0-4.0-1.63","subject_id":"5f68f02c41716709ee9be42d","study_id":"60edd13110225f80f9f3709b","session_id":"6196c29e9062cc44cf612877","condition":"full-information","relevant_dimensions":["antennae","pattern"],"bee_group":{"antennae":"B","wings":"X","pattern":"S","legs":"X"},"bonus":0},{"rt":4875,"stimulus":"You have completed the first part of this experiment.<br><br>You will now begin a shorter second part, in which you will receive no feedback.<br>The same rules regarding bonus pay apply.<br><br>Press any key to begin.","response":"arrowdown","trial_type":"html-keyboard-response","trial_index":139,"time_elapsed":567301,"internal_node_id":"0.0-5.0","subject_id":"5f68f02c41716709ee9be42d","study_id":"60edd13110225f80f9f3709b","session_id":"6196c29e9062cc44cf612877","condition":"full-information","relevant_dimensions":["antennae","pattern"],"bee_group":{"antennae":"B","wings":"X","pattern":"S","legs":"X"},"bonus":0},{"rt":3093.8999999910593,"stimulus":"bees-with-color/bee-A1SF.svg","response":0,"trial_type":"image-button-response","trial_index":140,"time_elapsed":570402,"internal_node_id":"0.0-6.0-0.0","subject_id":"5f68f02c41716709ee9be42d","study_id":"60edd13110225f80f9f3709b","session_id":"6196c29e9062cc44cf612877","condition":"full-information","relevant_dimensions":["antennae","pattern"],"bee_group":{"antennae":"B","wings":"X","pattern":"S","legs":"X"},"bonus":0},{"rt":2554.6000000089407,"stimulus":"bees-with-color/bee-B2SF.svg","response":0,"trial_type":"image-button-response","trial_index":141,"time_elapsed":572959,"internal_node_id":"0.0-6.0-0.1","subject_id":"5f68f02c41716709ee9be42d","study_id":"60edd13110225f80f9f3709b","session_id":"6196c29e9062cc44cf612877","condition":"full-information","relevant_dimensions":["antennae","pattern"],"bee_group":{"antennae":"B","wings":"X","pattern":"S","legs":"X"},"bonus":0},{"rt":1169.5,"stimulus":"bees-with-color/bee-B1DM.svg","response":0,"trial_type":"image-button-response","trial_index":142,"time_elapsed":574130,"internal_node_id":"0.0-6.0-0.2","subject_id":"5f68f02c41716709ee9be42d","study_id":"60edd13110225f80f9f3709b","session_id":"6196c29e9062cc44cf612877","condition":"full-information","relevant_dimensions":["antennae","pattern"],"bee_group":{"antennae":"B","wings":"X","pattern":"S","legs":"X"},"bonus":0},{"rt":694.4000000059605,"stimulus":"bees-with-color/bee-A2DM.svg","response":0,"trial_type":"image-button-response","trial_index":143,"time_elapsed":574826,"internal_node_id":"0.0-6.0-0.3","subject_id":"5f68f02c41716709ee9be42d","study_id":"60edd13110225f80f9f3709b","session_id":"6196c29e9062cc44cf612877","condition":"full-information","relevant_dimensions":["antennae","pattern"],"bee_group":{"antennae":"B","wings":"X","pattern":"S","legs":"X"},"bonus":0},{"rt":1488.5,"stimulus":"bees-with-color/bee-A2SM.svg","response":0,"trial_type":"image-button-response","trial_index":144,"time_elapsed":576317,"internal_node_id":"0.0-6.0-0.4","subject_id":"5f68f02c41716709ee9be42d","study_id":"60edd13110225f80f9f3709b","session_id":"6196c29e9062cc44cf612877","condition":"full-information","relevant_dimensions":["antennae","pattern"],"bee_group":{"antennae":"B","wings":"X","pattern":"S","legs":"X"},"bonus":0},{"rt":1342.0999999940395,"stimulus":"bees-with-color/bee-A2DF.svg","response":0,"trial_type":"image-button-response","trial_index":145,"time_elapsed":577660,"internal_node_id":"0.0-6.0-0.5","subject_id":"5f68f02c41716709ee9be42d","study_id":"60edd13110225f80f9f3709b","session_id":"6196c29e9062cc44cf612877","condition":"full-information","relevant_dimensions":["antennae","pattern"],"bee_group":{"antennae":"B","wings":"X","pattern":"S","legs":"X"},"bonus":0},{"rt":864.5999999940395,"stimulus":"bees-with-color/bee-B2SM.svg","response":0,"trial_type":"image-button-response","trial_index":146,"time_elapsed":578526,"internal_node_id":"0.0-6.0-0.6","subject_id":"5f68f02c41716709ee9be42d","study_id":"60edd13110225f80f9f3709b","session_id":"6196c29e9062cc44cf612877","condition":"full-information","relevant_dimensions":["antennae","pattern"],"bee_group":{"antennae":"B","wings":"X","pattern":"S","legs":"X"},"bonus":0},{"rt":1056.6000000089407,"stimulus":"bees-with-color/bee-B2DM.svg","response":1,"trial_type":"image-button-response","trial_index":147,"time_elapsed":579584,"internal_node_id":"0.0-6.0-0.7","subject_id":"5f68f02c41716709ee9be42d","study_id":"60edd13110225f80f9f3709b","session_id":"6196c29e9062cc44cf612877","condition":"full-information","relevant_dimensions":["antennae","pattern"],"bee_group":{"antennae":"B","wings":"X","pattern":"S","legs":"X"},"bonus":0},{"rt":1142.3999999910593,"stimulus":"bees-with-color/bee-B1SM.svg","response":0,"trial_type":"image-button-response","trial_index":148,"time_elapsed":580728,"internal_node_id":"0.0-6.0-0.8","subject_id":"5f68f02c41716709ee9be42d","study_id":"60edd13110225f80f9f3709b","session_id":"6196c29e9062cc44cf612877","condition":"full-information","relevant_dimensions":["antennae","pattern"],"bee_group":{"antennae":"B","wings":"X","pattern":"S","legs":"X"},"bonus":0},{"rt":1644.800000011921,"stimulus":"bees-with-color/bee-A1DF.svg","response":1,"trial_type":"image-button-response","trial_index":149,"time_elapsed":582375,"internal_node_id":"0.0-6.0-0.9","subject_id":"5f68f02c41716709ee9be42d","study_id":"60edd13110225f80f9f3709b","session_id":"6196c29e9062cc44cf612877","condition":"full-information","relevant_dimensions":["antennae","pattern"],"bee_group":{"antennae":"B","wings":"X","pattern":"S","legs":"X"},"bonus":0},{"rt":834.4000000059605,"stimulus":"bees-with-color/bee-B1SF.svg","response":1,"trial_type":"image-button-response","trial_index":150,"time_elapsed":583211,"internal_node_id":"0.0-6.0-0.10","subject_id":"5f68f02c41716709ee9be42d","study_id":"60edd13110225f80f9f3709b","session_id":"6196c29e9062cc44cf612877","condition":"full-information","relevant_dimensions":["antennae","pattern"],"bee_group":{"antennae":"B","wings":"X","pattern":"S","legs":"X"},"bonus":0},{"rt":680.2999999970198,"stimulus":"bees-with-color/bee-B2DF.svg","response":0,"trial_type":"image-button-response","trial_index":151,"time_elapsed":583892,"internal_node_id":"0.0-6.0-0.11","subject_id":"5f68f02c41716709ee9be42d","study_id":"60edd13110225f80f9f3709b","session_id":"6196c29e9062cc44cf612877","condition":"full-information","relevant_dimensions":["antennae","pattern"],"bee_group":{"antennae":"B","wings":"X","pattern":"S","legs":"X"},"bonus":0},{"rt":724.5,"stimulus":"bees-with-color/bee-A1SM.svg","response":1,"trial_type":"image-button-response","trial_index":152,"time_elapsed":584618,"internal_node_id":"0.0-6.0-0.12","subject_id":"5f68f02c41716709ee9be42d","study_id":"60edd13110225f80f9f3709b","session_id":"6196c29e9062cc44cf612877","condition":"full-information","relevant_dimensions":["antennae","pattern"],"bee_group":{"antennae":"B","wings":"X","pattern":"S","legs":"X"},"bonus":0},{"rt":744.2999999970198,"stimulus":"bees-with-color/bee-B1DF.svg","response":0,"trial_type":"image-button-response","trial_index":153,"time_elapsed":585364,"internal_node_id":"0.0-6.0-0.13","subject_id":"5f68f02c41716709ee9be42d","study_id":"60edd13110225f80f9f3709b","session_id":"6196c29e9062cc44cf612877","condition":"full-information","relevant_dimensions":["antennae","pattern"],"bee_group":{"antennae":"B","wings":"X","pattern":"S","legs":"X"},"bonus":0},{"rt":840.6000000089407,"stimulus":"bees-with-color/bee-A1DM.svg","response":0,"trial_type":"image-button-response","trial_index":154,"time_elapsed":586206,"internal_node_id":"0.0-6.0-0.14","subject_id":"5f68f02c41716709ee9be42d","study_id":"60edd13110225f80f9f3709b","session_id":"6196c29e9062cc44cf612877","condition":"full-information","relevant_dimensions":["antennae","pattern"],"bee_group":{"antennae":"B","wings":"X","pattern":"S","legs":"X"},"bonus":0},{"rt":1208.6000000089407,"stimulus":"bees-with-color/bee-A2SF.svg","response":1,"trial_type":"image-button-response","trial_index":155,"time_elapsed":587417,"internal_node_id":"0.0-6.0-0.15","subject_id":"5f68f02c41716709ee9be42d","study_id":"60edd13110225f80f9f3709b","session_id":"6196c29e9062cc44cf612877","condition":"full-information","relevant_dimensions":["antennae","pattern"],"bee_group":{"antennae":"B","wings":"X","pattern":"S","legs":"X"},"bonus":0},{"rt":484.29999999701977,"stimulus":"bees-with-color/bee-A1DF.svg","response":0,"trial_type":"image-button-response","trial_index":156,"time_elapsed":587902,"internal_node_id":"0.0-6.0-0.16","subject_id":"5f68f02c41716709ee9be42d","study_id":"60edd13110225f80f9f3709b","session_id":"6196c29e9062cc44cf612877","condition":"full-information","relevant_dimensions":["antennae","pattern"],"bee_group":{"antennae":"B","wings":"X","pattern":"S","legs":"X"},"bonus":0},{"rt":634.7999999970198,"stimulus":"bees-with-color/bee-A2DM.svg","response":0,"trial_type":"image-button-response","trial_index":157,"time_elapsed":588538,"internal_node_id":"0.0-6.0-0.17","subject_id":"5f68f02c41716709ee9be42d","study_id":"60edd13110225f80f9f3709b","session_id":"6196c29e9062cc44cf612877","condition":"full-information","relevant_dimensions":["antennae","pattern"],"bee_group":{"antennae":"B","wings":"X","pattern":"S","legs":"X"},"bonus":0},{"rt":610.5999999940395,"stimulus":"bees-with-color/bee-A2SM.svg","response":0,"trial_type":"image-button-response","trial_index":158,"time_elapsed":589150,"internal_node_id":"0.0-6.0-0.18","subject_id":"5f68f02c41716709ee9be42d","study_id":"60edd13110225f80f9f3709b","session_id":"6196c29e9062cc44cf612877","condition":"full-information","relevant_dimensions":["antennae","pattern"],"bee_group":{"antennae":"B","wings":"X","pattern":"S","legs":"X"},"bonus":0},{"rt":1808.9000000059605,"stimulus"