[{"success":true,"trial_type":"fullscreen","trial_index":0,"time_elapsed":7816,"internal_node_id":"0.0-0.0","subject_id":"6162225a85397fc8b4ab1209","study_id":"60edd13110225f80f9f3709b","session_id":"6196c706160aacddf9efc69f","condition":"contingent","relevant_dimensions":["wings","legs"],"bee_group":{"antennae":"X","wings":"2","pattern":"X","legs":"M"},"bonus":0.4400000000000007},{"success":true,"timeout":false,"failed_images":[],"failed_audio":[],"failed_video":[],"trial_type":"preload","trial_index":1,"time_elapsed":34606,"internal_node_id":"0.0-1.0","subject_id":"6162225a85397fc8b4ab1209","study_id":"60edd13110225f80f9f3709b","session_id":"6196c706160aacddf9efc69f","condition":"contingent","relevant_dimensions":["wings","legs"],"bee_group":{"antennae":"X","wings":"2","pattern":"X","legs":"M"},"bonus":0.4400000000000007},{"rt":8209.599999964237,"stimulus":"Welcome! Press any key to begin.","response":"arrowdown","trial_type":"html-keyboard-response","trial_index":2,"time_elapsed":42818,"internal_node_id":"0.0-2.0","subject_id":"6162225a85397fc8b4ab1209","study_id":"60edd13110225f80f9f3709b","session_id":"6196c706160aacddf9efc69f","condition":"contingent","relevant_dimensions":["wings","legs"],"bee_group":{"antennae":"X","wings":"2","pattern":"X","legs":"M"},"bonus":0.4400000000000007},{"view_history":[{"page_index":0,"viewing_time":11361.699999988079},{"page_index":1,"viewing_time":33736},{"page_index":2,"viewing_time":14751.899999976158},{"page_index":3,"viewing_time":33207.700000047684},{"page_index":4,"viewing_time":8232},{"page_index":5,"viewing_time":14799.899999976158},{"page_index":6,"viewing_time":73111.80000001192},{"page_index":7,"viewing_time":8223.899999976158},{"page_index":8,"viewing_time":5248.100000023842},{"page_index":9,"viewing_time":6199.899999976158},{"page_index":10,"viewing_time":4792.100000023842},{"page_index":11,"viewing_time":10911.800000011921},{"page_index":12,"viewing_time":11855.899999976158},{"page_index":13,"viewing_time":2264},{"page_index":14,"viewing_time":3992}],"rt":242689,"trial_type":"instructions","trial_index":3,"time_elapsed":285509,"internal_node_id":"0.0-3.0-0.0","subject_id":"6162225a85397fc8b4ab1209","study_id":"60edd13110225f80f9f3709b","session_id":"6196c706160aacddf9efc69f","condition":"contingent","relevant_dimensions":["wings","legs"],"bee_group":{"antennae":"X","wings":"2","pattern":"X","legs":"M"},"bonus":0.4400000000000007},{"rt":20581.30000001192,"response":{"Q0":["Two or six legs","Stripes or spots on body","Single or double wings","Antennae or no antennae"]},"question_order":[0],"trial_type":"survey-multi-select","trial_index":4,"time_elapsed":306094,"internal_node_id":"0.0-3.0-1.0","subject_id":"6162225a85397fc8b4ab1209","study_id":"60edd13110225f80f9f3709b","session_id":"6196c706160aacddf9efc69f","condition":"contingent","relevant_dimensions":["wings","legs"],"bee_group":{"antennae":"X","wings":"2","pattern":"X","legs":"M"},"correct":true,"bonus":0.4400000000000007},{"rt":34845.69999998808,"response":{"Q1":"No.","Q2":"Based on the four features of the bee.","Q3":"You do not learn if it was friendly or dangerous, and do not alter your bonus."},"question_order":[0,1,2],"trial_type":"survey-multi-choice","trial_index":5,"time_elapsed":340942,"internal_node_id":"0.0-3.0-2.0","subject_id":"6162225a85397fc8b4ab1209","study_id":"60edd13110225f80f9f3709b","session_id":"6196c706160aacddf9efc69f","condition":"contingent","relevant_dimensions":["wings","legs"],"bee_group":{"antennae":"X","wings":"2","pattern":"X","legs":"M"},"correct":true,"bonus":0.4400000000000007},{"rt":4869.5,"stimulus":"<p>Congrats, you got everything right<br>When you're ready, click the button below to continue to the experiment.</p>","response":0,"trial_type":"html-button-response","trial_index":6,"time_elapsed":345813,"internal_node_id":"0.0-3.0-3.0","subject_id":"6162225a85397fc8b4ab1209","study_id":"60edd13110225f80f9f3709b","session_id":"6196c706160aacddf9efc69f","condition":"contingent","relevant_dimensions":["wings","legs"],"bee_group":{"antennae":"X","wings":"2","pattern":"X","legs":"M"},"bonus":0.4400000000000007},{"rt":8845.400000035763,"stimulus":"bees-with-color/bee-B2DM.svg","response":0,"trial_type":"image-button-response","trial_index":7,"time_elapsed":354662,"internal_node_id":"0.0-4.0-0.0","subject_id":"6162225a85397fc8b4ab1209","study_id":"60edd13110225f80f9f3709b","session_id":"6196c706160aacddf9efc69f","condition":"contingent","relevant_dimensions":["wings","legs"],"bee_group":{"antennae":"X","wings":"2","pattern":"X","legs":"M"},"action":"harvest","summary":"bad-harvest","bonus":0.4400000000000007},{"rt":8188.899999976158,"stimulus":"\n                    <p><b>Action: <em>harvest</em></b></p>\n                    <p>This is the bee that you just saw.</p>\n                    <img src=\"bees-with-color/bee-B2DM.svg\" width=\"200\">\n                    <p><span class=\"redText\">Bad choice, the bee was angry.</span><br><b>You have been stung!</b><br>Your pay has been decreased by $0.10. Your bonus pay is now $0.44.</p>\n            ","response":0,"trial_type":"html-button-response","trial_index":8,"time_elapsed":362877,"internal_node_id":"0.0-4.0-1.0","subject_id":"6162225a85397fc8b4ab1209","study_id":"60edd13110225f80f9f3709b","session_id":"6196c706160aacddf9efc69f","condition":"contingent","relevant_dimensions":["wings","legs"],"bee_group":{"antennae":"X","wings":"2","pattern":"X","legs":"M"},"bonus":0.4400000000000007},{"rt":1723.8999999761581,"stimulus":"bees-with-color/bee-A1SM.svg","response":0,"trial_type":"image-button-response","trial_index":9,"time_elapsed":364605,"internal_node_id":"0.0-4.0-0.1","subject_id":"6162225a85397fc8b4ab1209","study_id":"60edd13110225f80f9f3709b","session_id":"6196c706160aacddf9efc69f","condition":"contingent","relevant_dimensions":["wings","legs"],"bee_group":{"antennae":"X","wings":"2","pattern":"X","legs":"M"},"action":"harvest","summary":"good-harvest","bonus":0.4400000000000007},{"rt":2142.300000011921,"stimulus":"\n                    <p><b>Action: <em>harvest</em></b></p>\n                    <p>This is the bee that you just saw.</p>\n                    <img src=\"bees-with-color/bee-A1SM.svg\" width=\"200\">\n                    <p><span class=\"greenText\"><b>Successful harvest!</b></span><br>Your pay has increased by $0.02. Your bonus pay is now $0.46.</p>\n            ","response":0,"trial_type":"html-button-response","trial_index":10,"time_elapsed":366749,"internal_node_id":"0.0-4.0-1.1","subject_id":"6162225a85397fc8b4ab1209","study_id":"60edd13110225f80f9f3709b","session_id":"6196c706160aacddf9efc69f","condition":"contingent","relevant_dimensions":["wings","legs"],"bee_group":{"antennae":"X","wings":"2","pattern":"X","legs":"M"},"bonus":0.4400000000000007},{"rt":3558.5,"stimulus":"bees-with-color/bee-B2SM.svg","response":1,"trial_type":"image-button-response","trial_index":11,"time_elapsed":370309,"internal_node_id":"0.0-4.0-0.2","subject_id":"6162225a85397fc8b4ab1209","study_id":"60edd13110225f80f9f3709b","session_id":"6196c706160aacddf9efc69f","condition":"contingent","relevant_dimensions":["wings","legs"],"bee_group":{"antennae":"X","wings":"2","pattern":"X","legs":"M"},"action":"avoid","summary":"good-avoid","bonus":0.4400000000000007},{"rt":4206.300000011921,"stimulus":"\n                    <p><b>Action: <em>avoid</em></b></p>\n                    <p>This is the bee that you just saw.</p>\n                    <img src=\"bees-with-color/bee-B2SM.svg\" width=\"200\">\n                    <p><br>Your bonus pay is unchanged, and remains at $0.46.</p>\n            ","response":0,"trial_type":"html-button-response","trial_index":12,"time_elapsed":374517,"internal_node_id":"0.0-4.0-1.2","subject_id":"6162225a85397fc8b4ab1209","study_id":"60edd13110225f80f9f3709b","session_id":"6196c706160aacddf9efc69f","condition":"contingent","relevant_dimensions":["wings","legs"],"bee_group":{"antennae":"X","wings":"2","pattern":"X","legs":"M"},"bonus":0.4400000000000007},{"rt":3198.100000023842,"stimulus":"bees-with-color/bee-B1SM.svg","response":0,"trial_type":"image-button-response","trial_index":13,"time_elapsed":377717,"internal_node_id":"0.0-4.0-0.3","subject_id":"6162225a85397fc8b4ab1209","study_id":"60edd13110225f80f9f3709b","session_id":"6196c706160aacddf9efc69f","condition":"contingent","relevant_dimensions":["wings","legs"],"bee_group":{"antennae":"X","wings":"2","pattern":"X","legs":"M"},"action":"harvest","summary":"good-harvest","bonus":0.4400000000000007},{"rt":2141.800000011921,"stimulus":"\n                    <p><b>Action: <em>harvest</em></b></p>\n                    <p>This is the bee that you just saw.</p>\n                    <img src=\"bees-with-color/bee-B1SM.svg\" width=\"200\">\n                    <p><span class=\"greenText\"><b>Successful harvest!</b></span><br>Your pay has increased by $0.02. Your bonus pay is now $0.48.</p>\n            ","response":0,"trial_type":"html-button-response","trial_index":14,"time_elapsed":379861,"internal_node_id":"0.0-4.0-1.3","subject_id":"6162225a85397fc8b4ab1209","study_id":"60edd13110225f80f9f3709b","session_id":"6196c706160aacddf9efc69f","condition":"contingent","relevant_dimensions":["wings","legs"],"bee_group":{"antennae":"X","wings":"2","pattern":"X","legs":"M"},"bonus":0.4400000000000007},{"rt":8998.300000011921,"stimulus":"bees-with-color/bee-B2DF.svg","response":0,"trial_type":"image-button-response","trial_index":15,"time_elapsed":388861,"internal_node_id":"0.0-4.0-0.4","subject_id":"6162225a85397fc8b4ab1209","study_id":"60edd13110225f80f9f3709b","session_id":"6196c706160aacddf9efc69f","condition":"contingent","relevant_dimensions":["wings","legs"],"bee_group":{"antennae":"X","wings":"2","pattern":"X","legs":"M"},"action":"harvest","summary":"good-harvest","bonus":0.4400000000000007},{"rt":1766.0999999642372,"stimulus":"\n                    <p><b>Action: <em>harvest</em></b></p>\n                    <p>This is the bee that you just saw.</p>\n                    <img src=\"bees-with-color/bee-B2DF.svg\" width=\"200\">\n                    <p><span class=\"greenText\"><b>Successful harvest!</b></span><br>Your pay has increased by $0.02. Your bonus pay is now $0.50.</p>\n            ","response":0,"trial_type":"html-button-response","trial_index":16,"time_elapsed":390629,"internal_node_id":"0.0-4.0-1.4","subject_id":"6162225a85397fc8b4ab1209","study_id":"60edd13110225f80f9f3709b","session_id":"6196c706160aacddf9efc69f","condition":"contingent","relevant_dimensions":["wings","legs"],"bee_group":{"antennae":"X","wings":"2","pattern":"X","legs":"M"},"bonus":0.4400000000000007},{"rt":4685.800000011921,"stimulus":"bees-with-color/bee-B1SF.svg","response":0,"trial_type":"image-button-response","trial_index":17,"time_elapsed":395317,"internal_node_id":"0.0-4.0-0.5","subject_id":"6162225a85397fc8b4ab1209","study_id":"60edd13110225f80f9f3709b","session_id":"6196c706160aacddf9efc69f","condition":"contingent","relevant_dimensions":["wings","legs"],"bee_group":{"antennae":"X","wings":"2","pattern":"X","legs":"M"},"action":"harvest","summary":"good-harvest","bonus":0.4400000000000007},{"rt":1797.6000000238419,"stimulus":"\n                    <p><b>Action: <em>harvest</em></b></p>\n                    <p>This is the bee that you just saw.</p>\n                    <img src=\"bees-with-color/bee-B1SF.svg\" width=\"200\">\n                    <p><span class=\"greenText\"><b>Successful harvest!</b></span><br>Your pay has increased by $0.02. Your bonus pay is now $0.52.</p>\n            ","response":0,"trial_type":"html-button-response","trial_index":18,"time_elapsed":397117,"internal_node_id":"0.0-4.0-1.5","subject_id":"6162225a85397fc8b4ab1209","study_id":"60edd13110225f80f9f3709b","session_id":"6196c706160aacddf9efc69f","condition":"contingent","relevant_dimensions":["wings","legs"],"bee_group":{"antennae":"X","wings":"2","pattern":"X","legs":"M"},"bonus":0.4400000000000007},{"rt":2525.800000011921,"stimulus":"bees-with-color/bee-A1SF.svg","response":0,"trial_type":"image-button-response","trial_index":19,"time_elapsed":399645,"internal_node_id":"0.0-4.0-0.6","subject_id":"6162225a85397fc8b4ab1209","study_id":"60edd13110225f80f9f3709b","session_id":"6196c706160aacddf9efc69f","condition":"contingent","relevant_dimensions":["wings","legs"],"bee_group":{"antennae":"X","wings":"2","pattern":"X","legs":"M"},"action":"harvest","summary":"good-harvest","bonus":0.4400000000000007},{"rt":1581.8999999761581,"stimulus":"\n                    <p><b>Action: <em>harvest</em></b></p>\n                    <p>This is the bee that you just saw.</p>\n                    <img src=\"bees-with-color/bee-A1SF.svg\" width=\"200\">\n                    <p><span class=\"greenText\"><b>Successful harvest!</b></span><br>Your pay has increased by $0.02. Your bonus pay is now $0.54.</p>\n            ","response":0,"trial_type":"html-button-response","trial_index":20,"time_elapsed":401229,"internal_node_id":"0.0-4.0-1.6","subject_id":"6162225a85397fc8b4ab1209","study_id":"60edd13110225f80f9f3709b","session_id":"6196c706160aacddf9efc69f","condition":"contingent","relevant_dimensions":["wings","legs"],"bee_group":{"antennae":"X","wings":"2","pattern":"X","legs":"M"},"bonus":0.4400000000000007},{"rt":6102.800000011921,"stimulus":"bees-with-color/bee-A1DM.svg","response":0,"trial_type":"image-button-response","trial_index":21,"time_elapsed":407334,"internal_node_id":"0.0-4.0-0.7","subject_id":"6162225a85397fc8b4ab1209","study_id":"60edd13110225f80f9f3709b","session_id":"6196c706160aacddf9efc69f","condition":"contingent","relevant_dimensions":["wings","legs"],"bee_group":{"antennae":"X","wings":"2","pattern":"X","legs":"M"},"action":"harvest","summary":"good-harvest","bonus":0.4400000000000007},{"rt":1429.199999988079,"stimulus":"\n                    <p><b>Action: <em>harvest</em></b></p>\n                    <p>This is the bee that you just saw.</p>\n                    <img src=\"bees-with-color/bee-A1DM.svg\" width=\"200\">\n                    <p><span class=\"greenText\"><b>Successful harvest!</b></span><br>Your pay has increased by $0.02. Your bonus pay is now $0.56.</p>\n            ","response":0,"trial_type":"html-button-response","trial_index":22,"time_elapsed":408765,"internal_node_id":"0.0-4.0-1.7","subject_id":"6162225a85397fc8b4ab1209","study_id":"60edd13110225f80f9f3709b","session_id":"6196c706160aacddf9efc69f","condition":"contingent","relevant_dimensions":["wings","legs"],"bee_group":{"antennae":"X","wings":"2","pattern":"X","legs":"M"},"bonus":0.4400000000000007},{"rt":6782.199999988079,"stimulus":"bees-with-color/bee-B1DM.svg","response":1,"trial_type":"image-button-response","trial_index":23,"time_elapsed":415549,"internal_node_id":"0.0-4.0-0.8","subject_id":"6162225a85397fc8b4ab1209","study_id":"60edd13110225f80f9f3709b","session_id":"6196c706160aacddf9efc69f","condition":"contingent","relevant_dimensions":["wings","legs"],"bee_group":{"antennae":"X","wings":"2","pattern":"X","legs":"M"},"action":"avoid","summary":"bad-avoid","bonus":0.4400000000000007},{"rt":1854.800000011921,"stimulus":"\n                    <p><b>Action: <em>avoid</em></b></p>\n                    <p>This is the bee that you just saw.</p>\n                    <img src=\"bees-with-color/bee-B1DM.svg\" width=\"200\">\n                    <p><br>Your bonus pay is unchanged, and remains at $0.56.</p>\n            ","response":0,"trial_type":"html-button-response","trial_index":24,"time_elapsed":417405,"internal_node_id":"0.0-4.0-1.8","subject_id":"6162225a85397fc8b4ab1209","study_id":"60edd13110225f80f9f3709b","session_id":"6196c706160aacddf9efc69f","condition":"contingent","relevant_dimensions":["wings","legs"],"bee_group":{"antennae":"X","wings":"2","pattern":"X","legs":"M"},"bonus":0.4400000000000007},{"rt":2422.300000011921,"stimulus":"bees-with-color/bee-A2DM.svg","response":0,"trial_type":"image-button-response","trial_index":25,"time_elapsed":419829,"internal_node_id":"0.0-4.0-0.9","subject_id":"6162225a85397fc8b4ab1209","study_id":"60edd13110225f80f9f3709b","session_id":"6196c706160aacddf9efc69f","condition":"contingent","relevant_dimensions":["wings","legs"],"bee_group":{"antennae":"X","wings":"2","pattern":"X","legs":"M"},"action":"harvest","summary":"bad-harvest","bonus":0.4400000000000007},{"rt":1926.6000000238419,"stimulus":"\n                    <p><b>Action: <em>harvest</em></b></p>\n                    <p>This is the bee that you just saw.</p>\n                    <img src=\"bees-with-color/bee-A2DM.svg\" width=\"200\">\n                    <p><span class=\"redText\">Bad choice, the bee was angry.</span><br><b>You have been stung!</b><br>Your pay has been decreased by $0.10. Your bonus pay is now $0.46.</p>\n            ","response":0,"trial_type":"html-button-response","trial_index":26,"time_elapsed":421757,"internal_node_id":"0.0-4.0-1.9","subject_id":"6162225a85397fc8b4ab1209","study_id":"60edd13110225f80f9f3709b","session_id":"6196c706160aacddf9efc69f","condition":"contingent","relevant_dimensions":["wings","legs"],"bee_group":{"antennae":"X","wings":"2","pattern":"X","legs":"M"},"bonus":0.4400000000000007},{"rt":1918.3999999761581,"stimulus":"bees-with-color/bee-A2SF.svg","response":0,"trial_type":"image-button-response","trial_index":27,"time_elapsed":423677,"internal_node_id":"0.0-4.0-0.10","subject_id":"6162225a85397fc8b4ab1209","study_id":"60edd13110225f80f9f3709b","session_id":"6196c706160aacddf9efc69f","condition":"contingent","relevant_dimensions":["wings","legs"],"bee_group":{"antennae":"X","wings":"2","pattern":"X","legs":"M"},"action":"harvest","summary":"good-harvest","bonus":0.4400000000000007},{"rt":1350.699999988079,"stimulus":"\n                    <p><b>Action: <em>harvest</em></b></p>\n                    <p>This is the bee that you just saw.</p>\n                    <img src=\"bees-with-color/bee-A2SF.svg\" width=\"200\">\n                    <p><span class=\"greenText\"><b>Successful harvest!</b></span><br>Your pay has increased by $0.02. Your bonus pay is now $0.48.</p>\n            ","response":0,"trial_type":"html-button-response","trial_index":28,"time_elapsed":425029,"internal_node_id":"0.0-4.0-1.10","subject_id":"6162225a85397fc8b4ab1209","study_id":"60edd13110225f80f9f3709b","session_id":"6196c706160aacddf9efc69f","condition":"contingent","relevant_dimensions":["wings","legs"],"bee_group":{"antennae":"X","wings":"2","pattern":"X","legs":"M"},"bonus":0.4400000000000007},{"rt":1782.8999999761581,"stimulus":"bees-with-color/bee-A1DF.svg","response":0,"trial_type":"image-button-response","trial_index":29,"time_elapsed":426813,"internal_node_id":"0.0-4.0-0.11","subject_id":"6162225a85397fc8b4ab1209","study_id":"60edd13110225f80f9f3709b","session_id":"6196c706160aacddf9efc69f","condition":"contingent","relevant_dimensions":["wings","legs"],"bee_group":{"antennae":"X","wings":"2","pattern":"X","legs":"M"},"action":"harvest","summary":"good-harvest","bonus":0.4400000000000007},{"rt":990.7999999523163,"stimulus":"\n                    <p><b>Action: <em>harvest</em></b></p>\n                    <p>This is the bee that you just saw.</p>\n                    <img src=\"bees-with-color/bee-A1DF.svg\" width=\"200\">\n                    <p><span class=\"greenText\"><b>Successful harvest!</b></span><br>Your pay has increased by $0.02. Your bonus pay is now $0.50.</p>\n            ","response":0,"trial_type":"html-button-response","trial_index":30,"time_elapsed":427805,"internal_node_id":"0.0-4.0-1.11","subject_id":"6162225a85397fc8b4ab1209","study_id":"60edd13110225f80f9f3709b","session_id":"6196c706160aacddf9efc69f","condition":"contingent","relevant_dimensions":["wings","legs"],"bee_group":{"antennae":"X","wings":"2","pattern":"X","legs":"M"},"bonus":0.4400000000000007},{"rt":5630.599999964237,"stimulus":"bees-with-color/bee-B1DF.svg","response":0,"trial_type":"image-button-response","trial_index":31,"time_elapsed":433437,"internal_node_id":"0.0-4.0-0.12","subject_id":"6162225a85397fc8b4ab1209","study_id":"60edd13110225f80f9f3709b","session_id":"6196c706160aacddf9efc69f","condition":"contingent","relevant_dimensions":["wings","legs"],"bee_group":{"antennae":"X","wings":"2","pattern":"X","legs":"M"},"action":"harvest","summary":"good-harvest","bonus":0.4400000000000007},{"rt":1686.8999999761581,"stimulus":"\n                    <p><b>Action: <em>harvest</em></b></p>\n                    <p>This is the bee that you just saw.</p>\n                    <img src=\"bees-with-color/bee-B1DF.svg\" width=\"200\">\n                    <p><span class=\"greenText\"><b>Successful harvest!</b></span><br>Your pay has increased by $0.02. Your bonus pay is now $0.52.</p>\n            ","response":0,"trial_type":"html-button-response","trial_index":32,"time_elapsed":435125,"internal_node_id":"0.0-4.0-1.12","subject_id":"6162225a85397fc8b4ab1209","study_id":"60edd13110225f80f9f3709b","session_id":"6196c706160aacddf9efc69f","condition":"contingent","relevant_dimensions":["wings","legs"],"bee_group":{"antennae":"X","wings":"2","pattern":"X","legs":"M"},"bonus":0.4400000000000007},{"rt":2222.600000023842,"stimulus":"bees-with-color/bee-B2SF.svg","response":0,"trial_type":"image-button-response","trial_index":33,"time_elapsed":437349,"internal_node_id":"0.0-4.0-0.13","subject_id":"6162225a85397fc8b4ab1209","study_id":"60edd13110225f80f9f3709b","session_id":"6196c706160aacddf9efc69f","condition":"contingent","relevant_dimensions":["wings","legs"],"bee_group":{"antennae":"X","wings":"2","pattern":"X","legs":"M"},"action":"harvest","summary":"good-harvest","bonus":0.4400000000000007},{"rt":2190.5,"stimulus":"\n                    <p><b>Action: <em>harvest</em></b></p>\n                    <p>This is the bee that you just saw.</p>\n                    <img src=\"bees-with-color/bee-B2SF.svg\" width=\"200\">\n                    <p><span class=\"greenText\"><b>Successful harvest!</b></span><br>Your pay has increased by $0.02. Your bonus pay is now $0.54.</p>\n            ","response":0,"trial_type":"html-button-response","trial_index":34,"time_elapsed":439541,"internal_node_id":"0.0-4.0-1.13","subject_id":"6162225a85397fc8b4ab1209","study_id":"60edd13110225f80f9f3709b","session_id":"6196c706160aacddf9efc69f","condition":"contingent","relevant_dimensions":["wings","legs"],"bee_group":{"antennae":"X","wings":"2","pattern":"X","legs":"M"},"bonus":0.4400000000000007},{"rt":2718.5,"stimulus":"bees-with-color/bee-A2SM.svg","response":0,"trial_type":"image-button-response","trial_index":35,"time_elapsed":442261,"internal_node_id":"0.0-4.0-0.14","subject_id":"6162225a85397fc8b4ab1209","study_id":"60edd13110225f80f9f3709b","session_id":"6196c706160aacddf9efc69f","condition":"contingent","relevant_dimensions":["wings","legs"],"bee_group":{"antennae":"X","wings":"2","pattern":"X","legs":"M"},"action":"harvest","summary":"bad-harvest","bonus":0.4400000000000007},{"rt":2878.7999999523163,"stimulus":"\n                    <p><b>Action: <em>harvest</em></b></p>\n                    <p>This is the bee that you just saw.</p>\n                    <img src=\"bees-with-color/bee-A2SM.svg\" width=\"200\">\n                    <p><span class=\"redText\">Bad choice, the bee was angry.</span><br><b>You have been stung!</b><br>Your pay has been decreased by $0.10. Your bonus pay is now $0.44.</p>\n            ","response":0,"trial_type":"html-button-response","trial_index":36,"time_elapsed":445141,"internal_node_id":"0.0-4.0-1.14","subject_id":"6162225a85397fc8b4ab1209","study_id":"60edd13110225f80f9f3709b","session_id":"6196c706160aacddf9efc69f","condition":"contingent","relevant_dimensions":["wings","legs"],"bee_group":{"antennae":"X","wings":"2","pattern":"X","legs":"M"},"bonus":0.4400000000000007},{"rt":1206.2999999523163,"stimulus":"bees-with-color/bee-A2DF.svg","response":0,"trial_type":"image-button-response","trial_index":37,"time_elapsed":446349,"internal_node_id":"0.0-4.0-0.15","subject_id":"6162225a85397fc8b4ab1209","study_id":"60edd13110225f80f9f3709b","session_id":"6196c706160aacddf9efc69f","condition":"contingent","relevant_dimensions":["wings","legs"],"bee_group":{"antennae":"X","wings":"2","pattern":"X","legs":"M"},"action":"harvest","summary":"good-harvest","bonus":0.4400000000000007},{"rt":966.6000000238419,"stimulus":"\n                    <p><b>Action: <em>harvest</em></b></p>\n                    <p>This is the bee that you just saw.</p>\n                    <img src=\"bees-with-color/bee-A2DF.svg\" width=\"200\">\n                    <p><span class=\"greenText\"><b>Successful harvest!</b></span><br>Your pay has increased by $0.02. Your bonus pay is now $0.46.</p>\n            ","response":0,"trial_type":"html-button-response","trial_index":38,"time_elapsed":447317,"internal_node_id":"0.0-4.0-1.15","subject_id":"6162225a85397fc8b4ab1209","study_id":"60edd13110225f80f9f3709b","session_id":"6196c706160aacddf9efc69f","condition":"contingent","relevant_dimensions":["wings","legs"],"bee_group":{"antennae":"X","wings":"2","pattern":"X","legs":"M"},"bonus":0.4400000000000007},{"rt":1494.5,"stimulus":"bees-with-color/bee-A2DF.svg","response":0,"trial_type":"image-button-response","trial_index":39,"time_elapsed":448813,"internal_node_id":"0.0-4.0-0.16","subject_id":"6162225a85397fc8b4ab1209","study_id":"60edd13110225f80f9f3709b","session_id":"6196c706160aacddf9efc69f","condition":"contingent","relevant_dimensions":["wings","legs"],"bee_group":{"antennae":"X","wings":"2","pattern":"X","legs":"M"},"action":"harvest","summary":"good-harvest","bonus":0.4400000000000007},{"rt":1382.5,"stimulus":"\n                    <p><b>Action: <em>harvest</em></b></p>\n                    <p>This is the bee that you just saw.</p>\n                    <img src=\"bees-with-color/bee-A2DF.svg\" width=\"200\">\n                    <p><span class=\"greenText\"><b>Successful harvest!</b></span><br>Your pay has increased by $0.02. Your bonus pay is now $0.48.</p>\n            ","response":0,"trial_type":"html-button-response","trial_index":40,"time_elapsed":450197,"internal_node_id":"0.0-4.0-1.16","subject_id":"6162225a85397fc8b4ab1209","study_id":"60edd13110225f80f9f3709b","session_id":"6196c706160aacddf9efc69f","condition":"contingent","relevant_dimensions":["wings","legs"],"bee_group":{"antennae":"X","wings":"2","pattern":"X","legs":"M"},"bonus":0.4400000000000007},{"rt":1278.300000011921,"stimulus":"bees-with-color/bee-A1SF.svg","response":0,"trial_type":"image-button-response","trial_index":41,"time_elapsed":451477,"internal_node_id":"0.0-4.0-0.17","subject_id":"6162225a85397fc8b4ab1209","study_id":"60edd13110225f80f9f3709b","session_id":"6196c706160aacddf9efc69f","condition":"contingent","relevant_dimensions":["wings","legs"],"bee_group":{"antennae":"X","wings":"2","pattern":"X","legs":"M"},"action":"harvest","summary":"good-harvest","bonus":0.4400000000000007},{"rt":1318.4000000357628,"stimulus":"\n                    <p><b>Action: <em>harvest</em></b></p>\n                    <p>This is the bee that you just saw.</p>\n                    <img src=\"bees-with-color/bee-A1SF.svg\" width=\"200\">\n                    <p><span class=\"greenText\"><b>Successful harvest!</b></span><br>Your pay has increased by $0.02. Your bonus pay is now $0.50.</p>\n            ","response":0,"trial_type":"html-button-response","trial_index":42,"time_elapsed":452797,"internal_node_id":"0.0-4.0-1.17","subject_id":"6162225a85397fc8b4ab1209","study_id":"60edd13110225f80f9f3709b","session_id":"6196c706160aacddf9efc69f","condition":"contingent","relevant_dimensions":["wings","legs"],"bee_group":{"antennae":"X","wings":"2","pattern":"X","legs":"M"},"bonus":0.4400000000000007},{"rt":2038.7999999523163,"stimulus":"bees-with-color/bee-A1SM.svg","response":1,"trial_type":"image-button-response","trial_index":43,"time_elapsed":454837,"internal_node_id":"0.0-4.0-0.18","subject_id":"6162225a85397fc8b4ab1209","study_id":"60edd13110225f80f9f3709b","session_id":"6196c706160aacddf9efc69f","condition":"contingent","relevant_dimensions":["wings","legs"],"bee_group":{"antennae":"X","wings":"2","pattern":"X","legs":"M"},"action":"avoid","summary":"bad-avoid","bonus":0.4400000000000007},{"rt":1046.1000000238419,"stimulus":"\n                    <p><b>Action: <em>avoid</em></b></p>\n                    <p>This is the bee that you just saw.</p>\n                    <img src=\"bees-with-color/bee-A1SM.svg\" width=\"200\">\n                    <p><br>Your bonus pay is unchanged, and remains at $0.50.</p>\n            ","response":0,"trial_type":"html-button-response","trial_index":44,"time_elapsed":455885,"internal_node_id":"0.0-4.0-1.18","subject_id":"6162225a85397fc8b4ab1209","study_id":"60edd13110225f80f9f3709b","session_id":"6196c706160aacddf9efc69f","condition":"contingent","relevant_dimensions":["wings","legs"],"bee_group":{"antennae":"X","wings":"2","pattern":"X","legs":"M"},"bonus":0.4400000000000007},{"rt":1374.4000000357628,"stimulus":"bees-with-color/bee-B1DM.svg","response":0,"trial_type":"image-button-response","trial_index":45,"time_elapsed":457261,"internal_node_id":"0.0-4.0-0.19","subject_id":"6162225a85397fc8b4ab1209","study_id":"60edd13110225f80f9f3709b","session_id":"6196c706160aacddf9efc69f","condition":"contingent","relevant_dimensions":["wings","legs"],"bee_group":{"antennae":"X","wings":"2","pattern":"X","legs":"M"},"action":"harvest","summary":"good-harvest","bonus":0.4400000000000007},{"rt":1886.300000011921,"stimulus":"\n                    <p><b>Action: <em>harvest</em></b></p>\n                    <p>This is the bee that you just saw.</p>\n                    <img src=\"bees-with-color/bee-B1DM.svg\" width=\"200\">\n                    <p><span class=\"greenText\"><b>Successful harvest!</b></span><br>Your pay has increased by $0.02. Your bonus pay is now $0.52.</p>\n            ","response":0,"trial_type":"html-button-response","trial_index":46,"time_elapsed":459149,"internal_node_id":"0.0-4.0-1.19","subject_id":"6162225a85397fc8b4ab1209","study_id":"60edd13110225f80f9f3709b","session_id":"6196c706160aacddf9efc69f","condition":"contingent","relevant_dimensions":["wings","legs"],"bee_group":{"antennae":"X","wings":"2","pattern":"X","legs":"M"},"bonus":0.4400000000000007},{"rt":3054.699999988079,"stimulus":"bees-with-color/bee-B1SF.svg","response":0,"trial_type":"image-button-response","trial_index":47,"time_elapsed":462205,"internal_node_id":"0.0-4.0-0.20","subject_id":"6162225a85397fc8b4ab1209","study_id":"60edd13110225f80f9f3709b","session_id":"6196c706160aacddf9efc69f","condition":"contingent","relevant_dimensions":["wings","legs"],"bee_group":{"antennae":"X","wings":"2","pattern":"X","legs":"M"},"action":"harvest","summary":"good-harvest","bonus":0.4400000000000007},{"rt":1302.300000011921,"stimulus":"\n                    <p><b>Action: <em>harvest</em></b></p>\n                    <p>This is the bee that you just saw.</p>\n                    <img src=\"bees-with-color/bee-B1SF.svg\" width=\"200\">\n                    <p><span class=\"greenText\"><b>Successful harvest!</b></span><br>Your pay has increased by $0.02. Your bonus pay is now $0.54.</p>\n            ","response":0,"trial_type":"html-button-response","trial_index":48,"time_elapsed":463509,"internal_node_id":"0.0-4.0-1.20","subject_id":"6162225a85397fc8b4ab1209","study_id":"60edd13110225f80f9f3709b","session_id":"6196c706160aacddf9efc69f","condition":"contingent","relevant_dimensions":["wings","legs"],"bee_group":{"antennae":"X","wings":"2","pattern":"X","legs":"M"},"bonus":0.4400000000000007},{"rt":5134.5,"stimulus":"bees-with-color/bee-A2SM.svg","response":0,"trial_type":"image-button-response","trial_index":49,"time_elapsed":468645,"internal_node_id":"0.0-4.0-0.21","subject_id":"6162225a85397fc8b4ab1209","study_id":"60edd13110225f80f9f3709b","session_id":"6196c706160aacddf9efc69f","condition":"contingent","relevant_dimensions":["wings","legs"],"bee_group":{"antennae":"X","wings":"2","pattern":"X","legs":"M"},"action":"harvest","summary":"bad-harvest","bonus":0.4400000000000007},{"rt":2085.900000035763,"stimulus":"\n                    <p><b>Action: <em>harvest</em></b></p>\n                    <p>This is the bee that you just saw.</p>\n                    <img src=\"bees-with-color/bee-A2SM.svg\" width=\"200\">\n                    <p><span class=\"redText\">Bad choice, the bee was angry.</span><br><b>You have been stung!</b><br>Your pay has been decreased by $0.10. Your bonus pay is now $0.44.</p>\n            ","response":0,"trial_type":"html-button-response","trial_index":50,"time_elapsed":470733,"internal_node_id":"0.0-4.0-1.21","subject_id":"6162225a85397fc8b4ab1209","study_id":"60edd13110225f80f9f3709b","session_id":"6196c706160aacddf9efc69f","condition":"contingent","relevant_dimensions":["wings","legs"],"bee_group":{"antennae":"X","wings":"2","pattern":"X","legs":"M"},"bonus":0.4400000000000007},{"rt":974.1999999880791,"stimulus":"bees-with-color/bee-B2SF.svg","response":0,"trial_type":"image-button-response","trial_index":51,"time_elapsed":471709,"internal_node_id":"0.0-4.0-0.22","subject_id":"6162225a85397fc8b4ab1209","study_id":"60edd13110225f80f9f3709b","session_id":"6196c706160aacddf9efc69f","condition":"contingent","relevant_dimensions":["wings","legs"],"bee_group":{"antennae":"X","wings":"2","pattern":"X","legs":"M"},"action":"harvest","summary":"good-harvest","bonus":0.4400000000000007},{"rt":942.3000000119209,"stimulus":"\n                    <p><b>Action: <em>harvest</em></b></p>\n                    <p>This is the bee that you just saw.</p>\n                    <img src=\"bees-with-color/bee-B2SF.svg\" width=\"200\">\n                    <p><span class=\"greenText\"><b>Successful harvest!</b></span><br>Your pay has increased by $0.02. Your bonus pay is now $0.46.</p>\n            ","response":0,"trial_type":"html-button-response","trial_index":52,"time_elapsed":472653,"internal_node_id":"0.0-4.0-1.22","subject_id":"6162225a85397fc8b4ab1209","study_id":"60edd13110225f80f9f3709b","session_id":"6196c706160aacddf9efc69f","condition":"contingent","relevant_dimensions":["wings","legs"],"bee_group":{"antennae":"X","wings":"2","pattern":"X","legs":"M"},"bonus":0.4400000000000007},{"rt":654.5999999642372,"stimulus":"bees-with-color/bee-B2DM.svg","response":0,"trial_type":"image-button-response","trial_index":53,"time_elapsed":473309,"internal_node_id":"0.0-4.0-0.23","subject_id":"6162225a85397fc8b4ab1209","study_id":"60edd13110225f80f9f3709b","session_id":"6196c706160aacddf9efc69f","condition":"contingent","relevant_dimensions":["wings","legs"],"bee_group":{"antennae":"X","wings":"2","pattern":"X","legs":"M"},"action":"harvest","summary":"bad-harvest","bonus":0.4400000000000007},{"rt":1174.5,"stimulus":"\n                    <p><b>Action: <em>harvest</em></b></p>\n                    <p>This is the bee that you just saw.</p>\n                    <img src=\"bees-with-color/bee-B2DM.svg\" width=\"200\">\n                    <p><span class=\"redText\">Bad choice, the bee was angry.</span><br><b>You have been stung!</b><br>Your pay has been decreased by $0.10. Your bonus pay is now $0.36.</p>\n            ","response":0,"trial_type":"html-button-response","trial_index":54,"time_elapsed":474485,"internal_node_id":"0.0-4.0-1.23","subject_id":"6162225a85397fc8b4ab1209","study_id":"60edd13110225f80f9f3709b","session_id":"6196c706160aacddf9efc69f","condition":"contingent","relevant_dimensions":["wings","legs"],"bee_group":{"antennae":"X","wings":"2","pattern":"X","legs":"M"},"bonus":0.4400000000000007},{"rt":1238.3999999761581,"stimulus":"bees-with-color/bee-A2SF.svg","response":0,"trial_type":"image-button-response","trial_index":55,"time_elapsed":475725,"internal_node_id":"0.0-4.0-0.24","subject_id":"6162225a85397fc8b4ab1209","study_id":"60edd13110225f80f9f3709b","session_id":"6196c706160aacddf9efc69f","condition":"contingent","relevant_dimensions":["wings","legs"],"bee_group":{"antennae":"X","wings":"2","pattern":"X","legs":"M"},"action":"harvest","summary":"good-harvest","bonus":0.4400000000000007},{"rt":1014.0999999642372,"stimulus":"\n                    <p><b>Action: <em>harvest</em></b></p>\n                    <p>This is the bee that you just saw.</p>\n                    <img src=\"bees-with-color/bee-A2SF.svg\" width=\"200\">\n                    <p><span class=\"greenText\"><b>Successful harvest!</b></span><br>Your pay has increased by $0.02. Your bonus pay is now $0.38.</p>\n            ","response":0,"trial_type":"html-button-response","trial_index":56,"time_elapsed":476741,"internal_node_id":"0.0-4.0-1.24","subject_id":"6162225a85397fc8b4ab1209","study_id":"60edd13110225f80f9f3709b","session_id":"6196c706160aacddf9efc69f","condition":"contingent","relevant_dimensions":["wings","legs"],"bee_group":{"antennae":"X","wings":"2","pattern":"X","legs":"M"},"bonus":0.4400000000000007},{"rt":1062.3999999761581,"stimulus":"bees-with-color/bee-B2SM.svg","response":0,"trial_type":"image-button-response","trial_index":57,"time_elapsed":477805,"internal_node_id":"0.0-4.0-0.25","subject_id":"6162225a85397fc8b4ab1209","study_id":"60edd13110225f80f9f3709b","session_id":"6196c706160aacddf9efc69f","condition":"contingent","relevant_dimensions":["wings","legs"],"bee_group":{"antennae":"X","wings":"2","pattern":"X","legs":"M"},"action":"harvest","summary":"bad-harvest","bonus":0.4400000000000007},{"rt":1574.199999988079,"stimulus":"\n                    <p><b>Action: <em>harvest</em></b></p>\n                    <p>This is the bee that you just saw.</p>\n                    <img src=\"bees-with-color/bee-B2SM.svg\" width=\"200\">\n                    <p><span class=\"redText\">Bad choice, the bee was angry.</span><br><b>You have been stung!</b><br>Your pay has been decreased by $0.10. Your bonus pay is now $0.28.</p>\n            ","response":0,"trial_type":"html-button-response","trial_index":58,"time_elapsed":479381,"internal_node_id":"0.0-4.0-1.25","subject_id":"6162225a85397fc8b4ab1209","study_id":"60edd13110225f80f9f3709b","session_id":"6196c706160aacddf9efc69f","condition":"contingent","relevant_dimensions":["wings","legs"],"bee_group":{"antennae":"X","wings":"2","pattern":"X","legs":"M"},"bonus":0.4400000000000007},{"rt":982.3000000119209,"stimulus":"bees-with-color/bee-A2DM.svg","response":0,"trial_type":"image-button-response","trial_index":59,"time_elapsed":480365,"internal_node_id":"0.0-4.0-0.26","subject_id":"6162225a85397fc8b4ab1209","study_id":"60edd13110225f80f9f3709b","session_id":"6196c706160aacddf9efc69f","condition":"contingent","relevant_dimensions":["wings","legs"],"bee_group":{"antennae":"X","wings":"2","pattern":"X","legs":"M"},"action":"harvest","summary":"bad-harvest","bonus":0.4400000000000007},{"rt":1726.0999999642372,"stimulus":"\n                    <p><b>Action: <em>harvest</em></b></p>\n                    <p>This is the bee that you just saw.</p>\n                    <img src=\"bees-with-color/bee-A2DM.svg\" width=\"200\">\n                    <p><span class=\"redText\">Bad choice, the bee was angry.</span><br><b>You have been stung!</b><br>Your pay has been decreased by $0.10. Your bonus pay is now $0.18.</p>\n            ","response":0,"trial_type":"html-button-response","trial_index":60,"time_elapsed":482093,"internal_node_id":"0.0-4.0-1.26","subject_id":"6162225a85397fc8b4ab1209","study_id":"60edd13110225f80f9f3709b","session_id":"6196c706160aacddf9efc69f","condition":"contingent","relevant_dimensions":["wings","legs"],"bee_group":{"antennae":"X","wings":"2","pattern":"X","legs":"M"},"bonus":0.4400000000000007},{"rt":1589.9000000357628,"stimulus":"bees-with-color/bee-A1DF.svg","response":0,"trial_type":"image-button-response","trial_index":61,"time_elapsed":483685,"internal_node_id":"0.0-4.0-0.27","subject_id":"6162225a85397fc8b4ab1209","study_id":"60edd13110225f80f9f3709b","session_id":"6196c706160aacddf9efc69f","condition":"contingent","relevant_dimensions":["wings","legs"],"bee_group":{"antennae":"X","wings":"2","pattern":"X","legs":"M"},"action":"harvest","summary":"good-harvest","bonus":0.4400000000000007},{"rt":1206.5,"stimulus":"\n                    <p><b>Action: <em>harvest</em></b></p>\n                    <p>This is the bee that you just saw.</p>\n                    <img src=\"bees-with-color/bee-A1DF.svg\" width=\"200\">\n                    <p><span class=\"greenText\"><b>Successful harvest!</b></span><br>Your pay has increased by $0.02. Your bonus pay is now $0.20.</p>\n            ","response":0,"trial_type":"html-button-response","trial_index":62,"time_elapsed":484893,"internal_node_id":"0.0-4.0-1.27","subject_id":"6162225a85397fc8b4ab1209","study_id":"60edd13110225f80f9f3709b","session_id":"6196c706160aacddf9efc69f","condition":"contingent","relevant_dimensions":["wings","legs"],"bee_group":{"antennae":"X","wings":"2","pattern":"X","legs":"M"},"bonus":0.4400000000000007},{"rt":1526.7000000476837,"stimulus":"bees-with-color/bee-B1SM.svg","response":0,"trial_type":"image-button-response","trial_index":63,"time_elapsed":486421,"internal_node_id":"0.0-4.0-0.28","subject_id":"6162225a85397fc8b4ab1209","study_id":"60edd13110225f80f9f3709b","session_id":"6196c706160aacddf9efc69f","condition":"contingent","relevant_dimensions":["wings","legs"],"bee_group":{"antennae":"X","wings":"2","pattern":"X","legs":"M"},"action":"harvest","summary":"good-harvest","bonus":0.4400000000000007},{"rt":1654.800000011921,"stimulus":"\n                    <p><b>Action: <em>harvest</em></b></p>\n                    <p>This is the bee that you just saw.</p>\n                    <img src=\"bees-with-color/bee-B1SM.svg\" width=\"200\">\n                    <p><span class=\"greenText\"><b>Successful harvest!</b></span><br>Your pay has increased by $0.02. Your bonus pay is now $0.22.</p>\n            ","response":0,"trial_type":"html-button-response","trial_index":64,"time_elapsed":488077,"internal_node_id":"0.0-4.0-1.28","subject_id":"6162225a85397fc8b4ab1209","study_id":"60edd13110225f80f9f3709b","session_id":"6196c706160aacddf9efc69f","condition":"contingent","relevant_dimensions":["wings","legs"],"bee_group":{"antennae":"X","wings":"2","pattern":"X","legs":"M"},"bonus":0.4400000000000007},{"rt":1198.800000011921,"stimulus":"bees-with-color/bee-B2DF.svg","response":1,"trial_type":"image-button-response","trial_index":65,"time_elapsed":489277,"internal_node_id":"0.0-4.0-0.29","subject_id":"6162225a85397fc8b4ab1209","study_id":"60edd13110225f80f9f3709b","session_id":"6196c706160aacddf9efc69f","condition":"contingent","relevant_dimensions":["wings","legs"],"bee_group":{"antennae":"X","wings":"2","pattern":"X","legs":"M"},"action":"avoid","summary":"bad-avoid","bonus":0.4400000000000007},{"rt":1478.7000000476837,"stimulus":"\n                    <p><b>Action: <em>avoid</em></b></p>\n                    <p>This is the bee that you just saw.</p>\n                    <img src=\"bees-with-color/bee-B2DF.svg\" width=\"200\">\n                    <p><br>Your bonus pay is unchanged, and remains at $0.22.</p>\n            ","response":0,"trial_type":"html-button-response","trial_index":66,"time_elapsed":490757,"internal_node_id":"0.0-4.0-1.29","subject_id":"6162225a85397fc8b4ab1209","study_id":"60edd13110225f80f9f3709b","session_id":"6196c706160aacddf9efc69f","condition":"contingent","relevant_dimensions":["wings","legs"],"bee_group":{"antennae":"X","wings":"2","pattern":"X","legs":"M"},"bonus":0.4400000000000007},{"rt":1830.800000011921,"stimulus":"bees-with-color/bee-A1DM.svg","response":0,"trial_type":"image-button-response","trial_index":67,"time_elapsed":492589,"internal_node_id":"0.0-4.0-0.30","subject_id":"6162225a85397fc8b4ab1209","study_id":"60edd13110225f80f9f3709b","session_id":"6196c706160aacddf9efc69f","condition":"contingent","relevant_dimensions":["wings","legs"],"bee_group":{"antennae":"X","wings":"2","pattern":"X","legs":"M"},"action":"harvest","summary":"good-harvest","bonus":0.4400000000000007},{"rt":1006.7000000476837,"stimulus":"\n                    <p><b>Action: <em>harvest</em></b></p>\n                    <p>This is the bee that you just saw.</p>\n                    <img src=\"bees-with-color/bee-A1DM.svg\" width=\"200\">\n                    <p><span class=\"greenText\"><b>Successful harvest!</b></span><br>Your pay has increased by $0.02. Your bonus pay is now $0.24.</p>\n            ","response":0,"trial_type":"html-button-response","trial_index":68,"time_elapsed":493597,"internal_node_id":"0.0-4.0-1.30","subject_id":"6162225a85397fc8b4ab1209","study_id":"60edd13110225f80f9f3709b","session_id":"6196c706160aacddf9efc69f","condition":"contingent","relevant_dimensions":["wings","legs"],"bee_group":{"antennae":"X","wings":"2","pattern":"X","legs":"M"},"bonus":0.4400000000000007},{"rt":1614.1000000238419,"stimulus":"bees-with-color/bee-B1DF.svg","response":1,"trial_type":"image-button-response","trial_index":69,"time_elapsed":495213,"internal_node_id":"0.0-4.0-0.31","subject_id":"6162225a85397fc8b4ab1209","study_id":"60edd13110225f80f9f3709b","session_id":"6196c706160aacddf9efc69f","condition":"contingent","relevant_dimensions":["wings","legs"],"bee_group":{"antennae":"X","wings":"2","pattern":"X","legs":"M"},"action":"avoid","summary":"bad-avoid","bonus":0.4400000000000007},{"rt":942.6999999880791,"stimulus":"\n                    <p><b>Action: <em>avoid</em></b></p>\n                    <p>This is the bee that you just saw.</p>\n                    <img src=\"bees-with-color/bee-B1DF.svg\" width=\"200\">\n                    <p><br>Your bonus pay is unchanged, and remains at $0.24.</p>\n            ","response":0,"trial_type":"html-button-response","trial_index":70,"time_elapsed":496157,"internal_node_id":"0.0-4.0-1.31","subject_id":"6162225a85397fc8b4ab1209","study_id":"60edd13110225f80f9f3709b","session_id":"6196c706160aacddf9efc69f","condition":"contingent","relevant_dimensions":["wings","legs"],"bee_group":{"antennae":"X","wings":"2","pattern":"X","legs":"M"},"bonus":0.4400000000000007},{"rt":910.6999999880791,"stimulus":"bees-with-color/bee-A1SM.svg","response":0,"trial_type":"image-button-response","trial_index":71,"time_elapsed":497069,"internal_node_id":"0.0-4.0-0.32","subject_id":"6162225a85397fc8b4ab1209","study_id":"60edd13110225f80f9f3709b","session_id":"6196c706160aacddf9efc69f","condition":"contingent","relevant_dimensions":["wings","legs"],"bee_group":{"antennae":"X","wings":"2","pattern":"X","legs":"M"},"action":"harvest","summary":"good-harvest","bonus":0.4400000000000007},{"rt":1046.5,"stimulus":"\n                    <p><b>Action: <em>harvest</em></b></p>\n                    <p>This is the bee that you just saw.</p>\n                    <img src=\"bees-with-color/bee-A1SM.svg\" width=\"200\">\n                    <p><span class=\"greenText\"><b>Successful harvest!</b></span><br>Your pay has increased by $0.02. Your bonus pay is now $0.26.</p>\n            ","response":0,"trial_type":"html-button-response","trial_index":72,"time_elapsed":498117,"internal_node_id":"0.0-4.0-1.32","subject_id":"6162225a85397fc8b4ab1209","study_id":"60edd13110225f80f9f3709b","session_id":"6196c706160aacddf9efc69f","condition":"contingent","relevant_dimensions":["wings","legs"],"bee_group":{"antennae":"X","wings":"2","pattern":"X","legs":"M"},"bonus":0.4400000000000007},{"rt":3030.699999988079,"stimulus":"bees-with-color/bee-B2DM.svg","response":1,"trial_type":"image-button-response","trial_index":73,"time_elapsed":501149,"internal_node_id":"0.0-4.0-0.33","subject_id":"6162225a85397fc8b4ab1209","study_id":"60edd13110225f80f9f3709b","session_id":"6196c706160aacddf9efc69f","condition":"contingent","relevant_dimensions":["wings","legs"],"bee_group":{"antennae":"X","wings":"2","pattern":"X","legs":"M"},"action":"avoid","summary":"good-avoid","bonus":0.4400000000000007},{"rt":1183,"stimulus":"\n                    <p><b>Action: <em>avoid</em></b></p>\n                    <p>This is the bee that you just saw.</p>\n                    <img src=\"bees-with-color/bee-B2DM.svg\" width=\"200\">\n                    <p><br>Your bonus pay is unchanged, and remains at $0.26.</p>\n            ","response":0,"trial_type":"html-button-response","trial_index":74,"time_elapsed":502333,"internal_node_id":"0.0-4.0-1.33","subject_id":"6162225a85397fc8b4ab1209","study_id":"60edd13110225f80f9f3709b","session_id":"6196c706160aacddf9efc69f","condition":"contingent","relevant_dimensions":["wings","legs"],"bee_group":{"antennae":"X","wings":"2","pattern":"X","legs":"M"},"bonus":0.4400000000000007},{"rt":1070.1000000238419,"stimulus":"bees-with-color/bee-A1DF.svg","response":0,"trial_type":"image-button-response","trial_index":75,"time_elapsed":503405,"internal_node_id":"0.0-4.0-0.34","subject_id":"6162225a85397fc8b4ab1209","study_id":"60edd13110225f80f9f3709b","session_id":"6196c706160aacddf9efc69f","condition":"contingent","relevant_dimensions":["wings","legs"],"bee_group":{"antennae":"X","wings":"2","pattern":"X","legs":"M"},"action":"harvest","summary":"good-harvest","bonus":0.4400000000000007},{"rt":1198.7000000476837,"stimulus":"\n                    <p><b>Action: <em>harvest</em></b></p>\n                    <p>This is the bee that you just saw.</p>\n                    <img src=\"bees-with-color/bee-A1DF.svg\" width=\"200\">\n                    <p><span class=\"greenText\"><b>Successful harvest!</b></span><br>Your pay has increased by $0.02. Your bonus pay is now $0.28.</p>\n            ","response":0,"trial_type":"html-button-response","trial_index":76,"time_elapsed":504605,"internal_node_id":"0.0-4.0-1.34","subject_id":"6162225a85397fc8b4ab1209","study_id":"60edd13110225f80f9f3709b","session_id":"6196c706160aacddf9efc69f","condition":"contingent","relevant_dimensions":["wings","legs"],"bee_group":{"antennae":"X","wings":"2","pattern":"X","legs":"M"},"bonus":0.4400000000000007},{"rt":4006.800000011921,"stimulus":"bees-with-color/bee-A2SF.svg","response":1,"trial_type":"image-button-response","trial_index":77,"time_elapsed":508613,"internal_node_id":"0.0-4.0-0.35","subject_id":"6162225a85397fc8b4ab1209","study_id":"60edd13110225f80f9f3709b","session_id":"6196c706160aacddf9efc69f","condition":"contingent","relevant_dimensions":["wings","legs"],"bee_group":{"antennae":"X","wings":"2","pattern":"X","legs":"M"},"action":"avoid","summary":"bad-avoid","bonus":0.4400000000000007},{"rt":1014.4000000357628,"stimulus":"\n                    <p><b>Action: <em>avoid</em></b></p>\n                    <p>This is the bee that you just saw.</p>\n                    <img src=\"bees-with-color/bee-A2SF.svg\" width=\"200\">\n                    <p><br>Your bonus pay is unchanged, and remains at $0.28.</p>\n            ","response":0,"trial_type":"html-button-response","trial_index":78,"time_elapsed":509629,"internal_node_id":"0.0-4.0-1.35","subject_id":"6162225a85397fc8b4ab1209","study_id":"60edd13110225f80f9f3709b","session_id":"6196c706160aacddf9efc69f","condition":"contingent","relevant_dimensions":["wings","legs"],"bee_group":{"antennae":"X","wings":"2","pattern":"X","legs":"M"},"bonus":0.4400000000000007},{"rt":1373.800000011921,"stimulus":"bees-with-color/bee-B1SF.svg","response":0,"trial_type":"image-button-response","trial_index":79,"time_elapsed":511005,"internal_node_id":"0.0-4.0-0.36","subject_id":"6162225a85397fc8b4ab1209","study_id":"60edd13110225f80f9f3709b","session_id":"6196c706160aacddf9efc69f","condition":"contingent","relevant_dimensions":["wings","legs"],"bee_group":{"antennae":"X","wings":"2","pattern":"X","legs":"M"},"action":"harvest","summary":"good-harvest","bonus":0.4400000000000007},{"rt":1502.8999999761581,"stimulus":"\n                    <p><b>Action: <em>harvest</em></b></p>\n                    <p>This is the bee that you just saw.</p>\n                    <img src=\"bees-with-color/bee-B1SF.svg\" width=\"200\">\n                    <p><span class=\"greenText\"><b>Successful harvest!</b></span><br>Your pay has increased by $0.02. Your bonus pay is now $0.30.</p>\n            ","response":0,"trial_type":"html-button-response","trial_index":80,"time_elapsed":512509,"internal_node_id":"0.0-4.0-1.36","subject_id":"6162225a85397fc8b4ab1209","study_id":"60edd13110225f80f9f3709b","session_id":"6196c706160aacddf9efc69f","condition":"contingent","relevant_dimensions":["wings","legs"],"bee_group":{"antennae":"X","wings":"2","pattern":"X","legs":"M"},"bonus":0.4400000000000007},{"rt":5054.300000011921,"stimulus":"bees-with-color/bee-B1DF.svg","response":0,"trial_type":"image-button-response","trial_index":81,"time_elapsed":517565,"internal_node_id":"0.0-4.0-0.37","subject_id":"6162225a85397fc8b4ab1209","study_id":"60edd13110225f80f9f3709b","session_id":"6196c706160aacddf9efc69f","condition":"contingent","relevant_dimensions":["wings","legs"],"bee_group":{"antennae":"X","wings":"2","pattern":"X","legs":"M"},"action":"harvest","summary":"good-harvest","bonus":0.4400000000000007},{"rt":1054.300000011921,"stimulus":"\n                    <p><b>Action: <em>harvest</em></b></p>\n                    <p>This is the bee that you just saw.</p>\n                    <img src=\"bees-with-color/bee-B1DF.svg\" width=\"200\">\n                    <p><span class=\"greenText\"><b>Successful harvest!</b></span><br>Your pay has increased by $0.02. Your bonus pay is now $0.32.</p>\n            ","response":0,"trial_type":"html-button-response","trial_index":82,"time_elapsed":518621,"internal_node_id":"0.0-4.0-1.37","subject_id":"6162225a85397fc8b4ab1209","study_id":"60edd13110225f80f9f3709b","session_id":"6196c706160aacddf9efc69f","condition":"contingent","relevant_dimensions":["wings","legs"],"bee_group":{"antennae":"X","wings":"2","pattern":"X","legs":"M"},"bonus":0.4400000000000007},{"rt":1758.300000011921,"stimulus":"bees-with-color/bee-B1DM.svg","response":1,"trial_type":"image-button-response","trial_index":83,"time_elapsed":520381,"internal_node_id":"0.0-4.0-0.38","subject_id":"6162225a85397fc8b4ab1209","study_id":"60edd13110225f80f9f3709b","session_id":"6196c706160aacddf9efc69f","condition":"contingent","relevant_dimensions":["wings","legs"],"bee_group":{"antennae":"X","wings":"2","pattern":"X","legs":"M"},"action":"avoid","summary":"bad-avoid","bonus":0.4400000000000007},{"rt":1254.3999999761581,"stimulus":"\n                    <p><b>Action: <em>avoid</em></b></p>\n                    <p>This is the bee that you just saw.</p>\n                    <img src=\"bees-with-color/bee-B1DM.svg\" width=\"200\">\n                    <p><br>Your bonus pay is unchanged, and remains at $0.32.</p>\n            ","response":0,"trial_type":"html-button-response","trial_index":84,"time_elapsed":521637,"internal_node_id":"0.0-4.0-1.38","subject_id":"6162225a85397fc8b4ab1209","study_id":"60edd13110225f80f9f3709b","session_id":"6196c706160aacddf9efc69f","condition":"contingent","relevant_dimensions":["wings","legs"],"bee_group":{"antennae":"X","wings":"2","pattern":"X","legs":"M"},"bonus":0.4400000000000007},{"rt":3582.2999999523163,"stimulus":"bees-with-color/bee-A2DM.svg","response":1,"trial_type":"image-button-response","trial_index":85,"time_elapsed":525221,"internal_node_id":"0.0-4.0-0.39","subject_id":"6162225a85397fc8b4ab1209","study_id":"60edd13110225f80f9f3709b","session_id":"6196c706160aacddf9efc69f","condition":"contingent","relevant_dimensions":["wings","legs"],"bee_group":{"antennae":"X","wings":"2","pattern":"X","legs":"M"},"action":"avoid","summary":"good-avoid","bonus":0.4400000000000007},{"rt":902.6999999880791,"stimulus":"\n                    <p><b>Action: <em>avoid</em></b></p>\n                    <p>This is the bee that you just saw.</p>\n                    <img src=\"bees-with-color/bee-A2DM.svg\" width=\"200\">\n                    <p><br>Your bonus pay is unchanged, and remains at $0.32.</p>\n            ","response":0,"trial_type":"html-button-response","trial_index":86,"time_elapsed":526125,"internal_node_id":"0.0-4.0-1.39","subject_id":"6162225a85397fc8b4ab1209","study_id":"60edd13110225f80f9f3709b","session_id":"6196c706160aacddf9efc69f","condition":"contingent","relevant_dimensions":["wings","legs"],"bee_group":{"antennae":"X","wings":"2","pattern":"X","legs":"M"},"bonus":0.4400000000000007},{"rt":1814.6000000238419,"stimulus":"bees-with-color/bee-A2SM.svg","response":0,"trial_type":"image-button-response","trial_index":87,"time_elapsed":527941,"internal_node_id":"0.0-4.0-0.40","subject_id":"6162225a85397fc8b4ab1209","study_id":"60edd13110225f80f9f3709b","session_id":"6196c706160aacddf9efc69f","condition":"contingent","relevant_dimensions":["wings","legs"],"bee_group":{"antennae":"X","wings":"2","pattern":"X","legs":"M"},"action":"harvest","summary":"bad-harvest","bonus":0.4400000000000007},{"rt":1462.199999988079,"stimulus":"\n                    <p><b>Action: <em>harvest</em></b></p>\n                    <p>This is the bee that you just saw.</p>\n                    <img src=\"bees-with-color/bee-A2SM.svg\" width=\"200\">\n                    <p><span class=\"redText\">Bad choice, the bee was angry.</span><br><b>You have been stung!</b><br>Your pay has been decreased by $0.10. Your bonus pay is now $0.22.</p>\n            ","response":0,"trial_type":"html-button-response","trial_index":88,"time_elapsed":529405,"internal_node_id":"0.0-4.0-1.40","subject_id":"6162225a85397fc8b4ab1209","study_id":"60edd13110225f80f9f3709b","session_id":"6196c706160aacddf9efc69f","condition":"contingent","relevant_dimensions":["wings","legs"],"bee_group":{"antennae":"X","wings":"2","pattern":"X","legs":"M"},"bonus":0.4400000000000007},{"rt":886.3999999761581,"stimulus":"bees-with-color/bee-A1SF.svg","response":0,"trial_type":"image-button-response","trial_index":89,"time_elapsed":530293,"internal_node_id":"0.0-4.0-0.41","subject_id":"6162225a85397fc8b4ab1209","study_id":"60edd13110225f80f9f3709b","session_id":"6196c706160aacddf9efc69f","condition":"contingent","relevant_dimensions":["wings","legs"],"bee_group":{"antennae":"X","wings":"2","pattern":"X","legs":"M"},"action":"harvest","summary":"good-harvest","bonus":0.4400000000000007},{"rt":894.5,"stimulus":"\n                    <p><b>Action: <em>harvest</em></b></p>\n                    <p>This is the bee that you just saw.</p>\n                    <img src=\"bees-with-color/bee-A1SF.svg\" width=\"200\">\n                    <p><span class=\"greenText\"><b>Successful harvest!</b></span><br>Your pay has increased by $0.02. Your bonus pay is now $0.24.</p>\n            ","response":0,"trial_type":"html-button-response","trial_index":90,"time_elapsed":531189,"internal_node_id":"0.0-4.0-1.41","subject_id":"6162225a85397fc8b4ab1209","study_id":"60edd13110225f80f9f3709b","session_id":"6196c706160aacddf9efc69f","condition":"contingent","relevant_dimensions":["wings","legs"],"bee_group":{"antennae":"X","wings":"2","pattern":"X","legs":"M"},"bonus":0.4400000000000007},{"rt":1766.6000000238419,"stimulus":"bees-with-color/bee-A1DM.svg","response":1,"trial_type":"image-button-response","trial_index":91,"time_elapsed":532957,"internal_node_id":"0.0-4.0-0.42","subject_id":"6162225a85397fc8b4ab1209","study_id":"60edd13110225f80f9f3709b","session_id":"6196c706160aacddf9efc69f","condition":"contingent","relevant_dimensions":["wings","legs"],"bee_group":{"antennae":"X","wings":"2","pattern":"X","legs":"M"},"action":"avoid","summary":"bad-avoid","bonus":0.4400000000000007},{"rt":1102,"stimulus":"\n                    <p><b>Action: <em>avoid</em></b></p>\n                    <p>This is the bee that you just saw.</p>\n                    <img src=\"bees-with-color/bee-A1DM.svg\" width=\"200\">\n                    <p><br>Your bonus pay is unchanged, and remains at $0.24.</p>\n            ","response":0,"trial_type":"html-button-response","trial_index":92,"time_elapsed":534061,"internal_node_id":"0.0-4.0-1.42","subject_id":"6162225a85397fc8b4ab1209","study_id":"60edd13110225f80f9f3709b","session_id":"6196c706160aacddf9efc69f","condition":"contingent","relevant_dimensions":["wings","legs"],"bee_group":{"antennae":"X","wings":"2","pattern":"X","legs":"M"},"bonus":0.4400000000000007},{"rt":550.5,"stimulus":"bees-with-color/bee-B2SF.svg","response":0,"trial_type":"image-button-response","trial_index":93,"time_elapsed":534613,"internal_node_id":"0.0-4.0-0.43","subject_id":"6162225a85397fc8b4ab1209","study_id":"60edd13110225f80f9f3709b","session_id":"6196c706160aacddf9efc69f","condition":"contingent","relevant_dimensions":["wings","legs"],"bee_group":{"antennae":"X","wings":"2","pattern":"X","legs":"M"},"action":"harvest","summary":"good-harvest","bonus":0.4400000000000007},{"rt":1006.0999999642372,"stimulus":"\n                    <p><b>Action: <em>harvest</em></b></p>\n                    <p>This is the bee that you just saw.</p>\n                    <img src=\"bees-with-color/bee-B2SF.svg\" width=\"200\">\n                    <p><span class=\"greenText\"><b>Successful harvest!</b></span><br>Your pay has increased by $0.02. Your bonus pay is now $0.26.</p>\n            ","response":0,"trial_type":"html-button-response","trial_index":94,"time_elapsed":535621,"internal_node_id":"0.0-4.0-1.43","subject_id":"6162225a85397fc8b4ab1209","study_id":"60edd13110225f80f9f3709b","session_id":"6196c706160aacddf9efc69f","condition":"contingent","relevant_dimensions":["wings","legs"],"bee_group":{"antennae":"X","wings":"2","pattern":"X","legs":"M"},"bonus":0.4400000000000007},{"rt":1398.699999988079,"stimulus":"bees-with-color/bee-B1SM.svg","response":0,"trial_type":"image-button-response","trial_index":95,"time_elapsed":537021,"internal_node_id":"0.0-4.0-0.44","subject_id":"6162225a85397fc8b4ab1209","study_id":"60edd13110225f80f9f3709b","session_id":"6196c706160aacddf9efc69f","condition":"contingent","relevant_dimensions":["wings","legs"],"bee_group":{"antennae":"X","wings":"2","pattern":"X","legs":"M"},"action":"harvest","summary":"good-harvest","bonus":0.4400000000000007},{"rt":1102.2999999523163,"stimulus":"\n                    <p><b>Action: <em>harvest</em></b></p>\n                    <p>This is the bee that you just saw.</p>\n                    <img src=\"bees-with-color/bee-B1SM.svg\" width=\"200\">\n                    <p><span class=\"greenText\"><b>Successful harvest!</b></span><br>Your pay has increased by $0.02. Your bonus pay is now $0.28.</p>\n            ","response":0,"trial_type":"html-button-response","trial_index":96,"time_elapsed":538124,"internal_node_id":"0.0-4.0-1.44","subject_id":"6162225a85397fc8b4ab1209","study_id":"60edd13110225f80f9f3709b","session_id":"6196c706160aacddf9efc69f","condition":"contingent","relevant_dimensions":["wings","legs"],"bee_group":{"antennae":"X","wings":"2","pattern":"X","legs":"M"},"bonus":0.4400000000000007},{"rt":1342.5999999642372,"stimulus":"bees-with-color/bee-B2SM.svg","response":0,"trial_type":"image-button-response","trial_index":97,"time_elapsed":539469,"internal_node_id":"0.0-4.0-0.45","subject_id":"6162225a85397fc8b4ab1209","study_id":"60edd13110225f80f9f3709b","session_id":"6196c706160aacddf9efc69f","condition":"contingent","relevant_dimensions":["wings","legs"],"bee_group":{"antennae":"X","wings":"2","pattern":"X","legs":"M"},"action":"harvest","summary":"bad-harvest","bonus":0.4400000000000007},{"rt":3006.2999999523163,"stimulus":"\n                    <p><b>Action: <em>harvest</em></b></p>\n                    <p>This is the bee that you just saw.</p>\n                    <img src=\"bees-with-color/bee-B2SM.svg\" width=\"200\">\n                    <p><span class=\"redText\">Bad choice, the bee was angry.</span><br><b>You have been stung!</b><br>Your pay has been decreased by $0.10. Your bonus pay is now $0.18.</p>\n            ","response":0,"trial_type":"html-button-response","trial_index":98,"time_elapsed":542477,"internal_node_id":"0.0-4.0-1.45","subject_id":"6162225a85397fc8b4ab1209","study_id":"60edd13110225f80f9f3709b","session_id":"6196c706160aacddf9efc69f","condition":"contingent","relevant_dimensions":["wings","legs"],"bee_group":{"antennae":"X","wings":"2","pattern":"X","legs":"M"},"bonus":0.4400000000000007},{"rt":4982.100000023842,"stimulus":"bees-with-color/bee-B2DF.svg","response":0,"trial_type":"image-button-response","trial_index":99,"time_elapsed":547460,"internal_node_id":"0.0-4.0-0.46","subject_id":"6162225a85397fc8b4ab1209","study_id":"60edd13110225f80f9f3709b","session_id":"6196c706160aacddf9efc69f","condition":"contingent","relevant_dimensions":["wings","legs"],"bee_group":{"antennae":"X","wings":"2","pattern":"X","legs":"M"},"action":"harvest","summary":"good-harvest","bonus":0.4400000000000007},{"rt":1166.3999999761581,"stimulus":"\n                    <p><b>Action: <em>harvest</em></b></p>\n                    <p>This is the bee that you just saw.</p>\n                    <img src=\"bees-with-color/bee-B2DF.svg\" width=\"200\">\n                    <p><span class=\"greenText\"><b>Successful harvest!</b></span><br>Your pay has increased by $0.02. Your bonus pay is now $0.20.</p>\n            ","response":0,"trial_type":"html-button-response","trial_index":100,"time_elapsed":548629,"internal_node_id":"0.0-4.0-1.46","subject_id":"6162225a85397fc8b4ab1209","study_id":"60edd13110225f80f9f3709b","session_id":"6196c706160aacddf9efc69f","condition":"contingent","relevant_dimensions":["wings","legs"],"bee_group":{"antennae":"X","wings":"2","pattern":"X","legs":"M"},"bonus":0.4400000000000007},{"rt":2709.7999999523163,"stimulus":"bees-with-color/bee-A2DF.svg","response":0,"trial_type":"image-button-response","trial_index":101,"time_elapsed":551340,"internal_node_id":"0.0-4.0-0.47","subject_id":"6162225a85397fc8b4ab1209","study_id":"60edd13110225f80f9f3709b","session_id":"6196c706160aacddf9efc69f","condition":"contingent","relevant_dimensions":["wings","legs"],"bee_group":{"antennae":"X","wings":"2","pattern":"X","legs":"M"},"action":"harvest","summary":"good-harvest","bonus":0.4400000000000007},{"rt":958.5,"stimulus":"\n                    <p><b>Action: <em>harvest</em></b></p>\n                    <p>This is the bee that you just saw.</p>\n                    <img src=\"bees-with-color/bee-A2DF.svg\" width=\"200\">\n                    <p><span class=\"greenText\"><b>Successful harvest!</b></span><br>Your pay has increased by $0.02. Your bonus pay is now $0.22.</p>\n            ","response":0,"trial_type":"html-button-response","trial_index":102,"time_elapsed":552300,"internal_node_id":"0.0-4.0-1.47","subject_id":"6162225a85397fc8b4ab1209","study_id":"60edd13110225f80f9f3709b","session_id":"6196c706160aacddf9efc69f","condition":"contingent","relevant_dimensions":["wings","legs"],"bee_group":{"antennae":"X","wings":"2","pattern":"X","legs":"M"},"bonus":0.4400000000000007},{"rt":1269.800000011921,"stimulus":"bees-with-color/bee-A1SM.svg","response":1,"trial_type":"image-button-response","trial_index":103,"time_elapsed":553572,"internal_node_id":"0.0-4.0-0.48","subject_id":"6162225a85397fc8b4ab1209","study_id":"60edd13110225f80f9f3709b","session_id":"6196c706160aacddf9efc69f","condition":"contingent","relevant_dimensions":["wings","legs"],"bee_group":{"antennae":"X","wings":"2","pattern":"X","legs":"M"},"action":"avoid","summary":"bad-avoid","bonus":0.4400000000000007},{"rt":918.8000000119209,"stimulus":"\n                    <p><b>Action: <em>avoid</em></b></p>\n                    <p>This is the bee that you just saw.</p>\n                    <img src=\"bees-with-color/bee-A1SM.svg\" width=\"200\">\n                    <p><br>Your bonus pay is unchanged, and remains at $0.22.</p>\n            ","response":0,"trial_type":"html-button-response","trial_index":104,"time_elapsed":554492,"internal_node_id":"0.0-4.0-1.48","subject_id":"6162225a85397fc8b4ab1209","study_id":"60edd13110225f80f9f3709b","session_id":"6196c706160aacddf9efc69f","condition":"contingent","relevant_dimensions":["wings","legs"],"bee_group":{"antennae":"X","wings":"2","pattern":"X","legs":"M"},"bonus":0.4400000000000007},{"rt":1286.8999999761581,"stimulus":"bees-with-color/bee-A2SM.svg","response":1,"trial_type":"image-button-response","trial_index":105,"time_elapsed":555780,"internal_node_id":"0.0-4.0-0.49","subject_id":"6162225a85397fc8b4ab1209","study_id":"60edd13110225f80f9f3709b","session_id":"6196c706160aacddf9efc69f","condition":"contingent","relevant_dimensions":["wings","legs"],"bee_group":{"antennae":"X","wings":"2","pattern":"X","legs":"M"},"action":"avoid","summary":"good-avoid","bonus":0.4400000000000007},{"rt":1166.9000000357628,"stimulus":"\n                    <p><b>Action: <em>avoid</em></b></p>\n                    <p>This is the bee that you just saw.</p>\n                    <img src=\"bees-with-color/bee-A2SM.svg\" width=\"200\">\n                    <p><br>Your bonus pay is unchanged, and remains at $0.22.</p>\n            ","response":0,"trial_type":"html-button-response","trial_index":106,"time_elapsed":556948,"internal_node_id":"0.0-4.0-1.49","subject_id":"6162225a85397fc8b4ab1209","study_id":"60edd13110225f80f9f3709b","session_id":"6196c706160aacddf9efc69f","condition":"contingent","relevant_dimensions":["wings","legs"],"bee_group":{"antennae":"X","wings":"2","pattern":"X","legs":"M"},"bonus":0.4400000000000007},{"rt":2918.699999988079,"stimulus":"bees-with-color/bee-A2SF.svg","response":0,"trial_type":"image-button-response","trial_index":107,"time_elapsed":559868,"internal_node_id":"0.0-4.0-0.50","subject_id":"6162225a85397fc8b4ab1209","study_id":"60edd13110225f80f9f3709b","session_id":"6196c706160aacddf9efc69f","condition":"contingent","relevant_dimensions":["wings","legs"],"bee_group":{"antennae":"X","wings":"2","pattern":"X","legs":"M"},"action":"harvest","summary":"good-harvest","bonus":0.4400000000000007},{"rt":934.8000000119209,"stimulus":"\n                    <p><b>Action: <em>harvest</em></b></p>\n                    <p>This is the bee that you just saw.</p>\n                    <img src=\"bees-with-color/bee-A2SF.svg\" width=\"200\">\n                    <p><span class=\"greenText\"><b>Successful harvest!</b></span><br>Your pay has increased by $0.02. Your bonus pay is now $0.24.</p>\n            ","response":0,"trial_type":"html-button-response","trial_index":108,"time_elapsed":560804,"internal_node_id":"0.0-4.0-1.50","subject_id":"6162225a85397fc8b4ab1209","study_id":"60edd13110225f80f9f3709b","session_id":"6196c706160aacddf9efc69f","condition":"contingent","relevant_dimensions":["wings","legs"],"bee_group":{"antennae":"X","wings":"2","pattern":"X","legs":"M"},"bonus":0.4400000000000007},{"rt":1606.6000000238419,"stimulus":"bees-with-color/bee-A1SF.svg","response":0,"trial_type":"image-button-response","trial_index":109,"time_elapsed":562412,"internal_node_id":"0.0-4.0-0.51","subject_id":"6162225a85397fc8b4ab1209","study_id":"60edd13110225f80f9f3709b","session_id":"6196c706160aacddf9efc69f","condition":"contingent","relevant_dimensions":["wings","legs"],"bee_group":{"antennae":"X","wings":"2","pattern":"X","legs":"M"},"action":"harvest","summary":"good-harvest","bonus":0.4400000000000007},{"rt":934.8000000119209,"stimulus":"\n                    <p><b>Action: <em>harvest</em></b></p>\n                    <p>This is the bee that you just saw.</p>\n                    <img src=\"bees-with-color/bee-A1SF.svg\" width=\"200\">\n                    <p><span class=\"greenText\"><b>Successful harvest!</b></span><br>Your pay has increased by $0.02. Your bonus pay is now $0.26.</p>\n            ","response":0,"trial_type":"html-button-response","trial_index":110,"time_elapsed":563348,"internal_node_id":"0.0-4.0-1.51","subject_id":"6162225a85397fc8b4ab1209","study_id":"60edd13110225f80f9f3709b","session_id":"6196c706160aacddf9efc69f","condition":"contingent","relevant_dimensions":["wings","legs"],"bee_group":{"antennae":"X","wings":"2","pattern":"X","legs":"M"},"bonus":0.4400000000000007},{"rt":3710.5,"stimulus":"bees-with-color/bee-A1DF.svg","response":0,"trial_type":"image-button-response","trial_index":111,"time_elapsed":567061,"internal_node_id":"0.0-4.0-0.52","subject_id":"6162225a85397fc8b4ab1209","study_id":"60edd13110225f80f9f3709b","session_id":"6196c706160aacddf9efc69f","condition":"contingent","relevant_dimensions":["wings","legs"],"bee_group":{"antennae":"X","wings":"2","pattern":"X","legs":"M"},"action":"harvest","summary":"good-harvest","bonus":0.4400000000000007},{"rt":1214.1000000238419,"stimulus":"\n                    <p><b>Action: <em>harvest</em></b></p>\n                    <p>This is the bee that you just saw.</p>\n                    <img src=\"bees-with-color/bee-A1DF.svg\" width=\"200\">\n                    <p><span class=\"greenText\"><b>Successful harvest!</b></span><br>Your pay has increased by $0.02. Your bonus pay is now $0.28.</p>\n            ","response":0,"trial_type":"html-button-response","trial_index":112,"time_elapsed":568276,"internal_node_id":"0.0-4.0-1.52","subject_id":"6162225a85397fc8b4ab1209","study_id":"60edd13110225f80f9f3709b","session_id":"6196c706160aacddf9efc69f","condition":"contingent","relevant_dimensions":["wings","legs"],"bee_group":{"antennae":"X","wings":"2","pattern":"X","legs":"M"},"bonus":0.4400000000000007},{"rt":1710.800000011921,"stimulus":"bees-with-color/bee-B2SM.svg","response":1,"trial_type":"image-button-response","trial_index":113,"time_elapsed":569989,"internal_node_id":"0.0-4.0-0.53","subject_id":"6162225a85397fc8b4ab1209","study_id":"60edd13110225f80f9f3709b","session_id":"6196c706160aacddf9efc69f","condition":"contingent","relevant_dimensions":["wings","legs"],"bee_group":{"antennae":"X","wings":"2","pattern":"X","legs":"M"},"action":"avoid","summary":"good-avoid","bonus":0.4400000000000007},{"rt":870.1999999880791,"stimulus":"\n                    <p><b>Action: <em>avoid</em></b></p>\n                    <p>This is the bee that you just saw.</p>\n                    <img src=\"bees-with-color/bee-B2SM.svg\" width=\"200\">\n                    <p><br>Your bonus pay is unchanged, and remains at $0.28.</p>\n            ","response":0,"trial_type":"html-button-response","trial_index":114,"time_elapsed":570860,"internal_node_id":"0.0-4.0-1.53","subject_id":"6162225a85397fc8b4ab1209","study_id":"60edd13110225f80f9f3709b","session_id":"6196c706160aacddf9efc69f","condition":"contingent","relevant_dimensions":["wings","legs"],"bee_group":{"antennae":"X","wings":"2","pattern":"X","legs":"M"},"bonus":0.4400000000000007},{"rt":2710.699999988079,"stimulus":"bees-with-color/bee-B2DF.svg","response":0,"trial_type":"image-button-response","trial_index":115,"time_elapsed":573572,"internal_node_id":"0.0-4.0-0.54","subject_id":"6162225a85397fc8b4ab1209","study_id":"60edd13110225f80f9f3709b","session_id":"6196c706160aacddf9efc69f","condition":"contingent","relevant_dimensions":["wings","legs"],"bee_group":{"antennae":"X","wings":"2","pattern":"X","legs":"M"},"action":"harvest","summary":"good-harvest","bonus":0.4400000000000007},{"rt":918.8000000119209,"stimulus":"\n                    <p><b>Action: <em>harvest</em></b></p>\n                    <p>This is the bee that you just saw.</p>\n                    <img src=\"bees-with-color/bee-B2DF.svg\" width=\"200\">\n                    <p><span class=\"greenText\"><b>Successful harvest!</b></span><br>Your pay has increased by $0.02. Your bonus pay is now $0.30.</p>\n            ","response":0,"trial_type":"html-button-response","trial_index":116,"time_elapsed":574492,"internal_node_id":"0.0-4.0-1.54","subject_id":"6162225a85397fc8b4ab1209","study_id":"60edd13110225f80f9f3709b","session_id":"6196c706160aacddf9efc69f","condition":"contingent","relevant_dimensions":["wings","legs"],"bee_group":{"antennae":"X","wings":"2","pattern":"X","legs":"M"},"bonus":0.4400000000000007},{"rt":13678.399999976158,"stimulus":"bees-with-color/bee-B2SF.svg","response":1,"trial_type":"image-button-response","trial_index":117,"time_elapsed":588172,"internal_node_id":"0.0-4.0-0.55","subject_id":"6162225a85397fc8b4ab1209","study_id":"60edd13110225f80f9f3709b","session_id":"6196c706160aacddf9efc69f","condition":"contingent","relevant_dimensions":["wings","legs"],"bee_group":{"antennae":"X","wings":"2","pattern":"X","legs":"M"},"action":"avoid","summary":"bad-avoid","bonus":0.4400000000000007},{"rt":862.6999999880791,"stimulus":"\n                    <p><b>Action: <em>avoid</em></b></p>\n                    <p>This is the bee that you just saw.</p>\n                    <img src=\"bees-with-color/bee-B2SF.svg\" width=\"200\">\n                    <p><br>Your bonus pay is unchanged, and remains at $0.30.</p>\n            ","response":0,"trial_type":"html-button-response","trial_index":118,"time_elapsed":589036,"internal_node_id":"0.0-4.0-1.55","subject_id":"6162225a85397fc8b4ab1209","study_id":"60edd13110225f80f9f3709b","session_id":"6196c706160aacddf9efc69f","condition":"contingent","relevant_dimensions":["wings","legs"],"bee_group":{"antennae":"X","wings":"2","pattern":"X","legs":"M"},"bonus":0.4400000000000007},{"rt":1310.2000000476837,"stimulus":"bees-with-color/bee-A2DM.svg","response":1,"trial_type":"image-button-response","trial_index":119,"time_elapsed":590348,"internal_node_id":"0.0-4.0-0.56","subject_id":"6162225a85397fc8b4ab1209","study_id":"60edd13110225f80f9f3709b","session_id":"6196c706160aacddf9efc69f","condition":"contingent","relevant_dimensions":["wings","legs"],"bee_group":{"antennae":"X","wings":"2","pattern":"X","legs":"M"},"action":"avoid","summary":"good-avoid","bonus":0.4400000000000007},{"rt":710.3000000119209,"stimulus":"\n                    <p><b>Action: <em>avoid</em></b></p>\n                    <p>This is the bee that you just saw.</p>\n                    <img src=\"bees-with-color/bee-A2DM.svg\" width=\"200\">\n                    <p><br>Your bonus pay is unchanged, and remains at $0.30.</p>\n            ","response":0,"trial_type":"html-button-response","trial_index":120,"time_elapsed":591060,"internal_node_id":"0.0-4.0-1.56","subject_id":"6162225a85397fc8b4ab1209","study_id":"60edd13110225f80f9f3709b","session_id":"6196c706160aacddf9efc69f","condition":"contingent","relevant_dimensions":["wings","legs"],"bee_group":{"antennae":"X","wings":"2","pattern":"X","legs":"M"},"bonus":0.4400000000000007},{"rt":1910.8999999761581,"stimulus":"bees-with-color/bee-B1DF.svg","response":0,"trial_type":"image-button-response","trial_index":121,"time_elapsed":592972,"internal_node_id":"0.0-4.0-0.57","subject_id":"6162225a85397fc8b4ab1209","study_id":"60edd13110225f80f9f3709b","session_id":"6196c706160aacddf9efc69f","condition":"contingent","relevant_dimensions":["wings","legs"],"bee_group":{"antennae":"X","wings":"2","pattern":"X","legs":"M"},"action":"harvest","summary":"good-harvest","bonus":0.4400000000000007},{"rt":1118.4000000357628,"stimulus":"\n                    <p><b>Action: <em>harvest</em></b></p>\n                    <p>This is the bee that you just saw.</p>\n                    <img src=\"bees-with-color/bee-B1DF.svg\" width=\"200\">\n                    <p><span class=\"greenText\"><b>Successful harvest!</b></span><br>Your pay has increased by $0.02. Your bonus pay is now $0.32.</p>\n            ","response":0,"trial_type":"html-button-response","trial_index":122,"time_elapsed":594092,"internal_node_id":"0.0-4.0-1.57","subject_id":"6162225a85397fc8b4ab1209","study_id":"60edd13110225f80f9f3709b","session_id":"6196c706160aacddf9efc69f","condition":"contingent","relevant_dimensions":["wings","legs"],"bee_group":{"antennae":"X","wings":"2","pattern":"X","legs":"M"},"bonus":0.4400000000000007},{"rt":3255,"stimulus":"bees-with-color/bee-B1DM.svg","response":1,"trial_type":"image-button-response","trial_index":123,"time_elapsed":597349,"internal_node_id":"0.0-4.0-0.58","subject_id":"6162225a85397fc8b4ab1209","study_id":"60edd13110225f80f9f3709b","session_id":"6196c706160aacddf9efc69f","condition":"contingent","relevant_dimensions":["wings","legs"],"bee_group":{"antennae":"X","wings":"2","pattern":"X","legs":"M"},"action":"avoid","summary":"bad-avoid","bonus":0.4400000000000007},{"rt":742.3000000119209,"stimulus":"\n                    <p><b>Action: <em>avoid</em></b></p>\n                    <p>This is the bee that you just saw.</p>\n                    <img src=\"bees-with-color/bee-B1DM.svg\" width=\"200\">\n                    <p><br>Your bonus pay is unchanged, and remains at $0.32.</p>\n            ","response":0,"trial_type":"html-button-response","trial_index":124,"time_elapsed":598092,"internal_node_id":"0.0-4.0-1.58","subject_id":"6162225a85397fc8b4ab1209","study_id":"60edd13110225f80f9f3709b","session_id":"6196c706160aacddf9efc69f","condition":"contingent","relevant_dimensions":["wings","legs"],"bee_group":{"antennae":"X","wings":"2","pattern":"X","legs":"M"},"bonus":0.4400000000000007},{"rt":1550.5,"stimulus":"bees-with-color/bee-B1SF.svg","response":0,"trial_type":"image-button-response","trial_index":125,"time_elapsed":599645,"internal_node_id":"0.0-4.0-0.59","subject_id":"6162225a85397fc8b4ab1209","study_id":"60edd13110225f80f9f3709b","session_id":"6196c706160aacddf9efc69f","condition":"contingent","relevant_dimensions":["wings","legs"],"bee_group":{"antennae":"X","wings":"2","pattern":"X","legs":"M"},"action":"harvest","summary":"good-harvest","bonus":0.4400000000000007},{"rt":1046.2000000476837,"stimulus":"\n                    <p><b>Action: <em>harvest</em></b></p>\n                    <p>This is the bee that you just saw.</p>\n                    <img src=\"bees-with-color/bee-B1SF.svg\" width=\"200\">\n                    <p><span class=\"greenText\"><b>Successful harvest!</b></span><br>Your pay has increased by $0.02. Your bonus pay is now $0.34.</p>\n            ","response":0,"trial_type":"html-button-response","trial_index":126,"time_elapsed":600692,"internal_node_id":"0.0-4.0-1.59","subject_id":"6162225a85397fc8b4ab1209","study_id":"60edd13110225f80f9f3709b","session_id":"6196c706160aacddf9efc69f","condition":"contingent","relevant_dimensions":["wings","legs"],"bee_group":{"antennae":"X","wings":"2","pattern":"X","legs":"M"},"bonus":0.4400000000000007},{"rt":1758.6000000238419,"stimulus":"bees-with-color/bee-A1DM.svg","response":1,"trial_type":"image-button-response","trial_index":127,"time_elapsed":602452,"internal_node_id":"0.0-4.0-0.60","subject_id":"6162225a85397fc8b4ab1209","study_id":"60edd13110225f80f9f3709b","session_id":"6196c706160aacddf9efc69f","condition":"contingent","relevant_dimensions":["wings","legs"],"bee_group":{"antennae":"X","wings":"2","pattern":"X","legs":"M"},"action":"avoid","summary":"bad-avoid","bonus":0.4400000000000007},{"rt":766.6000000238419,"stimulus":"\n                    <p><b>Action: <em>avoid</em></b></p>\n                    <p>This is the bee that you just saw.</p>\n                    <img src=\"bees-with-color/bee-A1DM.svg\" width=\"200\">\n                    <p><br>Your bonus pay is unchanged, and remains at $0.34.</p>\n            ","response":0,"trial_type":"html-button-response","trial_index":128,"time_elapsed":603220,"internal_node_id":"0.0-4.0-1.60","subject_id":"6162225a85397fc8b4ab1209","study_id":"60edd13110225f80f9f3709b","session_id":"6196c706160aacddf9efc69f","condition":"contingent","relevant_dimensions":["wings","legs"],"bee_group":{"antennae":"X","wings":"2","pattern":"X","legs":"M"},"bonus":0.4400000000000007},{"rt":1406.4000000357628,"stimulus":"bees-with-color/bee-B2DM.svg","response":1,"trial_type":"image-button-response","trial_index":129,"time_elapsed":604628,"internal_node_id":"0.0-4.0-0.61","subject_id":"6162225a85397fc8b4ab1209","study_id":"60edd13110225f80f9f3709b","session_id":"6196c706160aacddf9efc69f","condition":"contingent","relevant_dimensions":["wings","legs"],"bee_group":{"antennae":"X","wings":"2","pattern":"X","legs":"M"},"action":"avoid","summary":"good-avoid","bonus":0.4400000000000007},{"rt":798.5,"stimulus":"\n                    <p><b>Action: <em>avoid</em></b></p>\n                    <p>This is the bee that you just saw.</p>\n                    <img src=\"bees-with-color/bee-B2DM.svg\" width=\"200\">\n                    <p><br>Your bonus pay is unchanged, and remains at $0.34.</p>\n            ","response":0,"trial_type":"html-button-response","trial_index":130,"time_elapsed":605428,"internal_node_id":"0.0-4.0-1.61","subject_id":"6162225a85397fc8b4ab1209","study_id":"60edd13110225f80f9f3709b","session_id":"6196c706160aacddf9efc69f","condition":"contingent","relevant_dimensions":["wings","legs"],"bee_group":{"antennae":"X","wings":"2","pattern":"X","legs":"M"},"bonus":0.4400000000000007},{"rt":1894.7000000476837,"stimulus":"bees-with-color/bee-B1SM.svg","response":1,"trial_type":"image-button-response","trial_index":131,"time_elapsed":607324,"internal_node_id":"0.0-4.0-0.62","subject_id":"6162225a85397fc8b4ab1209","study_id":"60edd13110225f80f9f3709b","session_id":"6196c706160aacddf9efc69f","condition":"contingent","relevant_dimensions":["wings","legs"],"bee_group":{"antennae":"X","wings":"2","pattern":"X","legs":"M"},"action":"avoid","summary":"bad-avoid","bonus":0.4400000000000007},{"rt":710.3000000119209,"stimulus":"\n                    <p><b>Action: <em>avoid</em></b></p>\n                    <p>This is the bee that you just saw.</p>\n                    <img src=\"bees-with-color/bee-B1SM.svg\" width=\"200\">\n                    <p><br>Your bonus pay is unchanged, and remains at $0.34.</p>\n            ","response":0,"trial_type":"html-button-response","trial_index":132,"time_elapsed":608036,"internal_node_id":"0.0-4.0-1.62","subject_id":"6162225a85397fc8b4ab1209","study_id":"60edd13110225f80f9f3709b","session_id":"6196c706160aacddf9efc69f","condition":"contingent","relevant_dimensions":["wings","legs"],"bee_group":{"antennae":"X","wings":"2","pattern":"X","legs":"M"},"bonus":0.4400000000000007},{"rt":2070.600000023842,"stimulus":"bees-with-color/bee-A2DF.svg","response":0,"trial_type":"image-button-response","trial_index":133,"time_elapsed":610108,"internal_node_id":"0.0-4.0-0.63","subject_id":"6162225a85397fc8b4ab1209","study_id":"60edd13110225f80f9f3709b","session_id":"6196c706160aacddf9efc69f","condition":"contingent","relevant_dimensions":["wings","legs"],"bee_group":{"antennae":"X","wings":"2","pattern":"X","legs":"M"},"action":"harvest","summary":"good-harvest","bonus":0.4400000000000007},{"rt":1238.4000000357628,"stimulus":"\n                    <p><b>Action: <em>harvest</em></b></p>\n                    <p>This is the bee that you just saw.</p>\n                    <img src=\"bees-with-color/bee-A2DF.svg\" width=\"200\">\n                    <p><span class=\"greenText\"><b>Successful harvest!</b></span><br>Your pay has increased by $0.02. Your bonus pay is now $0.36.</p>\n            ","response":0,"trial_type":"html-button-response","trial_index":134,"time_elapsed":611349,"internal_node_id":"0.0-4.0-1.63","subject_id":"6162225a85397fc8b4ab1209","study_id":"60edd13110225f80f9f3709b","session_id":"6196c706160aacddf9efc69f","condition":"contingent","relevant_dimensions":["wings","legs"],"bee_group":{"antennae":"X","wings":"2","pattern":"X","legs":"M"},"bonus":0.4400000000000007},{"rt":12176.600000023842,"stimulus":"You have completed the first part of this experiment.<br><br>You will now begin a shorter second part, in which you will receive no feedback.<br>The same rules regarding bonus pay apply.<br><br>Press any key to begin.","response":"arrowdown","trial_type":"html-keyboard-response","trial_index":135,"time_elapsed":623528,"internal_node_id":"0.0-5.0","subject_id":"6162225a85397fc8b4ab1209","study_id":"60edd13110225f80f9f3709b","session_id":"6196c706160aacddf9efc69f","condition":"contingent","relevant_dimensions":["wings","legs"],"bee_group":{"antennae":"X","wings":"2","pattern":"X","legs":"M"},"bonus":0.4400000000000007},{"rt":3855.7000000476837,"stimulus":"bees-with-color/bee-B2SM.svg","response":1,"trial_type":"image-button-response","trial_index":136,"time_elapsed":627404,"internal_node_id":"0.0-6.0-0.0","subject_id":"6162225a85397fc8b4ab1209","study_id":"60edd13110225f80f9f3709b","session_id":"6196c706160aacddf9efc69f","condition":"contingent","relevant_dimensions":["wings","legs"],"bee_group":{"antennae":"X","wings":"2","pattern":"X","legs":"M"},"bonus":0.4400000000000007},{"rt":1781.699999988079,"stimulus":"bees-with-color/bee-A2SF.svg","response":0,"trial_type":"image-button-response","trial_index":137,"time_elapsed":629188,"internal_node_id":"0.0-6.0-0.1","subject_id":"6162225a85397fc8b4ab1209","study_id":"60edd13110225f80f9f3709b","session_id":"6196c706160aacddf9efc69f","condition":"contingent","relevant_dimensions":["wings","legs"],"bee_group":{"antennae":"X","wings":"2","pattern":"X","legs":"M"},"bonus":0.4400000000000007},{"rt":2229.399999976158,"stimulus":"bees-with-color/bee-A2DM.svg","response":1,"trial_type":"image-button-response","trial_index":138,"time_elapsed":631420,"internal_node_id":"0.0-6.0-0.2","subject_id":"6162225a85397fc8b4ab1209","study_id":"60edd13110225f80f9f3709b","session_id":"6196c706160aacddf9efc69f","condition":"contingent","relevant_dimensions":["wings","legs"],"bee_group":{"antennae":"X","wings":"2","pattern":"X","legs":"M"},"bonus":0.4400000000000007},{"rt":2645.699999988079,"stimulus":"bees-with-color/bee-A1DF.svg","response":0,"trial_type":"image-button-response","trial_index":139,"time_elapsed":634068,"internal_node_id":"0.0-6.0-0.3","subject_id":"6162225a85397fc8b4ab1209","study_id":"60edd13110225f80f9f3709b","session_id":"6196c706160aacddf9efc69f","condition":"contingent","relevant_dimensions":["wings","legs"],"bee_group":{"antennae":"X","wings":"2","pattern":"X","legs":"M"},"bonus":0.4400000000000007},{"rt":2797.399999976158,"stimulus":"bees-with-color/bee-A1DM.svg","response":1,"trial_type":"image-button-response","trial_index":140,"time_elapsed":636868,"internal_node_id":"0.0-6.0-0.4","subject_id":"6162225a85397fc8b4ab1209","study_id":"60edd13110225f80f9f3709b","session_id":"6196c706160aacddf9efc69f","condition":"contingent","relevant_dimensions":["wings","legs"],"bee_group":{"antennae":"X","wings":"2","pattern":"X","legs":"M"},"bonus":0.4400000000000007},{"rt":4749.799999952316,"stimulus":"bees-with-color/bee-B1SF.svg","response":1,"trial_type":"image-button-response","trial_index":141,"time_elapsed":641620,"internal_node_id":"0.0-6.0-0.5","subject_id":"6162225a85397fc8b4ab1209","study_id":"60edd13110225f80f9f3709b","session_id":"6196c706160aacddf9efc69f","condition":"contingent","relevant_dimensions":["wings","legs"],"bee_group":{"antennae":"X","wings":"2","pattern":"X","legs":"M"},"bonus":0.4400000000000007},{"rt":3709.600000023842,"stimulus":"bees-with-color/bee-B1SM.svg","response":0,"trial_type":"image-button-response","trial_index":142,"time_elapsed":645333,"internal_node_id":"0.0-6.0-0.6","subject_id":"6162225a85397fc8b4ab1209","study_id":"60edd13110225f80f9f3709b","session_id":"6196c706160aacddf9efc69f","condition":"contingent","relevant_dimensions":["wings","legs"],"bee_group":{"antennae":"X","wings":"2","pattern":"X","legs":"M"},"bonus":0.4400000000000007},{"rt":3997.5,"stimulus":"bees-with-color/bee-B2SF.svg","response":1,"trial_type":"image-button-response","trial_index":143,"time_elapsed":649333,"internal_node_id":"0.0-6.0-0.7","subject_id":"6162225a85397fc8b4ab1209","study_id":"60edd13110225f80f9f3709b","session_id":"6196c706160aacddf9efc69f","condition":"contingent","relevant_dimensions":["wings","legs"],"bee_group":{"antennae":"X","wings":"2","pattern":"X","legs":"M"},"bonus":0.4400000000000007},{"rt":1661,"stimulus":"bees-with-color/bee-B1DM.svg","response":1,"trial_type":"image-button-response","trial_index":144,"time_elapsed":650996,"internal_node_id":"0.0-6.0-0.8","subject_id":"6162225a85397fc8b4ab1209","study_id":"60edd13110225f80f9f3709b","session_id":"6196c706160aacddf9efc69f","condition":"contingent","relevant_dimensions":["wings","legs"],"bee_group":{"antennae":"X","wings":"2","pattern":"X","legs":"M"},"bonus":0.4400000000000007},{"rt":3269.599999964237,"stimulus":"bees-with-color/bee-A2SM.svg","response":1,"trial_type":"image-button-response","trial_index":145,"time_elapsed":654268,"internal_node_id":"0.0-6.0-0.9","subject_id":"6162225a85397fc8b4ab1209","study_id":"60edd13110225f80f9f3709b","session_id":"6196c706160aacddf9efc69f","condition":"contingent","relevant_dimensions":["wings","legs"],"bee_group":{"antennae":"X","wings":"2","pattern":"X","legs":"M"},"bonus":0.4400000000000007},{"rt":2357.5,"stimulus":"bees-with-color/bee-B2DM.svg","response":1,"trial_type":"image-button-response","trial_index":146,"time_elapsed":656629,"internal_node_id":"0.0-6.0-0.10","subject_id":"6162225a85397fc8b4ab1209","study_id":"60edd13110225f80f9f3709b","session_id":"6196c706160aacddf9efc69f","condition":"contingent","relevant_dimensions":["wings","legs"],"bee_group":{"antennae":"X","wings":"2","pattern":"X","legs":"M"},"bonus":0.4400000000000007},{"rt":1917,"stimulus":"bees-with-color/bee-A2DF.svg","response":0,"trial_type":"image-button-response","trial_index":147,"time_elapsed":658549,"internal_node_id":"0.0-6.0-0.11","subject_id":"6162225a85397fc8b4ab1209","study_id":"60edd13110225f80f9f3709b","session_id":"6196c706160aacddf9efc69f","condition":"contingent","relevant_dimensions":["wings","legs"],"bee_group":{"antennae":"X","wings":"2","pattern":"X","legs":"M"},"bonus":0.4400000000000007},{"rt":3158.300000011921,"stimulus":"bees-with-color/bee-A1SF.svg","response":0,"trial_type":"image-button-response","trial_index":148,"time_elapsed":661709,"internal_node_id":"0.0-6.0-0.12","subject_id":"6162225a85397fc8b4ab1209","study_id":"60edd13110225f80f9f3709b","session_id":"6196c706160aacddf9efc69f","condition":"contingent","relevant_dimensions":["wings","legs"],"bee_group":{"antennae":"X","wings":"2","pattern":"X","legs":"M"},"bonus":0.4400000000000007},{"rt":4869.699999988079,"stimulus":"bees-with-color/bee-A1SM.svg","response":0,"trial_type":"image-button-response","trial_index":149,"time_elapsed":666581,"internal_node_id":"0.0-6.0-0.13","subject_id":"6162225a85397fc8b4ab1209","study_id":"60edd13110225f80f9f3709b","session_id":"6196c706160aacddf9efc69f","condition":"contingent","relevant_dimensions":["wings","legs"],"bee_group":{"antennae":"X","wings":"2","pattern":"X","legs":"M"},"bonus":0.4400000000000007},{"rt":1165.699999988079,"stimulus":"bees-with-color/bee-B1DF.svg","response":1,"trial_type":"image-button-response","trial_index":150,"time_elapsed":667749,"internal_node_id":"0.0-6.0-0.14","subject_id":"6162225a85397fc8b4ab1209","study_id":"60edd13110225f80f9f3709b","session_id":"6196c706160aacddf9efc69f","condition":"contingent","relevant_dimensions":["wings","legs"],"bee_group":{"antennae":"X","wings":"2","pattern":"X","legs":"M"},"bonus":0.4400000000000007},{"rt":3030.199999988079,"stimulus":"bees-with-color/bee-B2DF.svg","response":1,"trial_type":"image-button-response","trial_index":151,"time_elapsed":670781,"internal_node_id":"0.0-6.0-0.15","subject_id":"6162225a85397fc8b4ab1209","study_id":"60edd13110225f80f9f3709b","session_id":"6196c706160aacddf9efc69f","condition":"contingent","relevant_dimensions":["wings","legs"],"bee_group":{"antennae":"X","wings":"2","pattern":"X","legs":"M"},"bonus":0.4400000000000007},{"rt":1814.5,"stimulus":"bees-with-color/bee-A1DM.svg","response":1,"trial_type":"image-button-response","trial_index":152,"time_elapsed":672597,"internal_node_id":"0.0-6.0-0.16","subject_id":"6162225a85397fc8b4ab1209","study_id":"60edd13110225f80f9f3709b","session_id":"6196c706160aacddf9efc69f","condition":"contingent","relevant_dimensions":["wings","legs"],"bee_group":{"antennae":"X","wings":"2","pattern":"X","legs":"M"},"bonus":0.4400000000000007},{"rt":1214.300000011921,"stimulus":"bees-with-color/bee-B1DM.svg","response":1,"trial_type":"image-button-response","trial_index":153,"time_elapsed":673813,"internal_node_id":"0.0-6.0-0.17","subject_id":"6162225a85397fc8b4ab1209","study_id":"60edd13110225f80f9f3709b","session_id":"6196c706160aacddf9efc69f","condition":"contingent","relevant_dimensions":["wings","legs"],"bee_group":{"antennae":"X","wings":"2","pattern":"X","legs":"M"},"bonus":0.4400000000000007},{"rt":2390.599999964237,"stimulus":"bees-with-color/bee-B2SF.svg","response":1,"trial_type":"image-button-response","trial_index":154,"time_elapsed":676205,"internal_node_id":"0.0-6.0-0.18","subject_id":"6162225a85397fc8b4ab1209","study_id":"60edd13110225f80f9f3709b","session_id":"6196c706160aacddf9efc69f","condition":"contingent","relevant_dimensions":["wings","legs"],"bee_group":{"antennae":"X","wings":"2","pattern":"X","legs":"M"},"bonus":0.4400000000000007},{"rt":4950.400000035763,"stimulus":"bees-with-color/bee-A1SF.svg","response":0,"trial_type":"image-button-response","trial_index":155,"time_elapsed":681157,"internal_node_id":"0.0-6.0-0.19","subject_id":"6162225a85397fc8b4ab1209","study_id":"60edd13110225f80f9f3709b","session_id":"6196c706160aacddf9efc69f","condition":"contingent","relevant_dimensions":["wings","legs"],"bee_group":{"antennae":"X","wings":"2","pattern":"X","legs":"M"},"bonus":0.4400000000000007},{"rt":1709.9000000357628,"stimulus":"bees-with-color/bee-B2DM.svg","response":1,"trial_type":"image-button-response","trial_index":156,"time_elapsed":682869,"internal_node_id":"0.0-6.0-0.20","subject_id":"6162225a85397fc8b4ab1209","study_id":"60edd13110225f80f9f3709b","session_id":"6196c706160aacddf9efc69f","condition":"contingent","relevant_dimensions":["wings","legs"],"bee_group":{"antennae":"X","wings":"2","pattern":"X","legs":"M"},"bonus":0.4400000000000007},{"rt":1662.5,"stimulus":"bees-with-color/bee-A2DM.svg","response":1,"trial_type":"image-button-response","trial_index":157,"time_elapsed":684533,"internal_node_id":"0.0-6.0-0.21","subject_id":"6162225a85397fc8b4ab1209","study_id":"60edd13110225f80f9f3709b","session_id":"6196c706160aacddf9efc69f","condition":"contingent","relevant_dimensions":["wings","legs"],"bee_group":{"antennae":"X","wings":"2","pattern":"X","legs":"M"},"bonus":0.4400000000000007},{"rt":1990.5,"stimulus":"bees-with-color/bee-A1DF.svg","response":0,"trial_type":"image-button-response","trial_index":158,"time_elapsed":686525,"internal_node_id":"0.0-6.0-0.22","subject_id":"6162225a85397fc8b4ab1209","study_id":"60edd13110225f80f9f3709b","session_id":"6196c706160aacddf9efc69f","condition":"contingent","relevant_dimensions":["wings","legs"],"bee_group":{"antennae":"X","wings":"2","pattern":"X","legs":"M"},"bonus":0.4400000000000007},{"rt":1350.3999999761581,"stimulus":"bees-with-color/bee-B2DF.svg","response":1,"trial_type":"image-button-response","trial_index":159,"time_elapsed":687877,"internal_node_id":"0.0-6.0-0.23","subject_id":"6162225a85397fc8b4ab1209","study_id":"60edd13110225f80f9f3709b","session_id":"6196c706160aacddf9efc69f","condition":"contingent","relevant_dimensions":["wings","legs"],"bee_group":{"antennae":"X","wings":"2","pattern":"X","legs":"M"},"bonus":0.4400000000000007},{"rt":2190.600000023842,"stimulus":"bees-with-color/bee-A2SM.svg","response":0,"trial_type":"image-button-response","trial_index":160,"time_elapsed":690069,"internal_node_id":"0.0-6.0-0.24","subject_id":"6162225a85397fc8b4ab1209","study_id":"60edd13110225f80f9f3709b","session_id":"6196c706160aacddf9efc69f","condition":"contingent","relevant_dimensions":["wings","legs"],"bee_group":{"antennae":"X","wings":"2","pattern":"X","legs":"M"},"bonus":0.4400000000000007},{"rt":2622,"stimulus":"bees-with-color/bee-B1SF.svg","response":1,"trial_type":"image-button-response","trial_index":161,"time_elapsed":692693,"internal_node_id":"0.0-6.0-0.25","subject_id":"6162225a85397fc8b4ab1209","study_id":"60edd13110225f80f9f3709b","session_id":"6196c706160aacddf9efc69f","condition":"contingent","relevant_dimensions":["wings","legs"],"bee_group":{"antennae":"X","wings":"2","pattern":"X","legs":"M"},"bonus":0.4400000000000007},{"rt":1534,"stimulus":"bees-with-color/bee-A2SF.svg","response":1,"trial_type":"image-button-response","trial_index":162,"time_elapsed":694229,"internal_node_id":"0.0-6.0-0.26","subject_id":"6162225a85397fc8b4ab1209","study_id":"60edd13110225f80f9f3709b","session_id":"6196c706160aacddf9efc69f","condition":"contingent","relevant_dimensions":["wings","legs"],"bee_group":{"antennae":"X","wings":"2","pattern":"X","legs":"M"},"bonus":0.4