[{"success":true,"trial_type":"fullscreen","trial_index":0,"time_elapsed":2624,"internal_node_id":"0.0-0.0","subject_id":"5fb3a8e0bb651604a052d591","study_id":"60edd13110225f80f9f3709b","session_id":"6196c1f4bb76498b082fdf10","condition":"full-information","relevant_dimensions":["pattern","legs"],"bee_group":{"antennae":"X","wings":"X","pattern":"S","legs":"M"},"bonus":1.560000000000001},{"success":true,"timeout":false,"failed_images":[],"failed_audio":[],"failed_video":[],"trial_type":"preload","trial_index":1,"time_elapsed":4779,"internal_node_id":"0.0-1.0","subject_id":"5fb3a8e0bb651604a052d591","study_id":"60edd13110225f80f9f3709b","session_id":"6196c1f4bb76498b082fdf10","condition":"full-information","relevant_dimensions":["pattern","legs"],"bee_group":{"antennae":"X","wings":"X","pattern":"S","legs":"M"},"bonus":1.560000000000001},{"rt":3331.2999999970198,"stimulus":"Welcome! Press any key to begin.","response":" ","trial_type":"html-keyboard-response","trial_index":2,"time_elapsed":8111,"internal_node_id":"0.0-2.0","subject_id":"5fb3a8e0bb651604a052d591","study_id":"60edd13110225f80f9f3709b","session_id":"6196c1f4bb76498b082fdf10","condition":"full-information","relevant_dimensions":["pattern","legs"],"bee_group":{"antennae":"X","wings":"X","pattern":"S","legs":"M"},"bonus":1.560000000000001},{"view_history":[{"page_index":0,"viewing_time":3612},{"page_index":1,"viewing_time":2025.800000000745},{"page_index":2,"viewing_time":2368.900000002235},{"page_index":3,"viewing_time":4107},{"page_index":4,"viewing_time":2302.099999997765},{"page_index":5,"viewing_time":2476},{"page_index":6,"viewing_time":995},{"page_index":7,"viewing_time":2572.400000002235},{"page_index":6,"viewing_time":11343.5},{"page_index":7,"viewing_time":3100},{"page_index":8,"viewing_time":3227.699999999255},{"page_index":9,"viewing_time":1868.5999999977648},{"page_index":10,"viewing_time":1366.9000000022352},{"page_index":11,"viewing_time":4995.5},{"page_index":12,"viewing_time":14502.699999999255},{"page_index":13,"viewing_time":904.6000000014901},{"page_index":14,"viewing_time":967.1999999992549}],"rt":62736.400000002235,"trial_type":"instructions","trial_index":3,"time_elapsed":70848,"internal_node_id":"0.0-3.0-0.0","subject_id":"5fb3a8e0bb651604a052d591","study_id":"60edd13110225f80f9f3709b","session_id":"6196c1f4bb76498b082fdf10","condition":"full-information","relevant_dimensions":["pattern","legs"],"bee_group":{"antennae":"X","wings":"X","pattern":"S","legs":"M"},"bonus":1.560000000000001},{"rt":16700.699999999255,"response":{"Q0":["Two or six legs","Stripes or spots on body","Single or double wings","Antennae or no antennae"]},"question_order":[0],"trial_type":"survey-multi-select","trial_index":4,"time_elapsed":87562,"internal_node_id":"0.0-3.0-1.0","subject_id":"5fb3a8e0bb651604a052d591","study_id":"60edd13110225f80f9f3709b","session_id":"6196c1f4bb76498b082fdf10","condition":"full-information","relevant_dimensions":["pattern","legs"],"bee_group":{"antennae":"X","wings":"X","pattern":"S","legs":"M"},"correct":true,"bonus":1.560000000000001},{"rt":41025.199999999255,"response":{"Q1":"No.","Q2":"Based on the four features of the bee.","Q3":"You learn if it was friendly or dangerous and alter your bonus."},"question_order":[0,1,2],"trial_type":"survey-multi-choice","trial_index":5,"time_elapsed":128595,"internal_node_id":"0.0-3.0-2.0","subject_id":"5fb3a8e0bb651604a052d591","study_id":"60edd13110225f80f9f3709b","session_id":"6196c1f4bb76498b082fdf10","condition":"full-information","relevant_dimensions":["pattern","legs"],"bee_group":{"antennae":"X","wings":"X","pattern":"S","legs":"M"},"correct":false,"bonus":1.560000000000001},{"rt":3265.900000002235,"stimulus":"<p>You did not answer all comprehension questions correctly.<br>Press <b>continue</b> to review the instructions again.</p>","response":0,"trial_type":"html-button-response","trial_index":6,"time_elapsed":131863,"internal_node_id":"0.0-3.0-3.0","subject_id":"5fb3a8e0bb651604a052d591","study_id":"60edd13110225f80f9f3709b","session_id":"6196c1f4bb76498b082fdf10","condition":"full-information","relevant_dimensions":["pattern","legs"],"bee_group":{"antennae":"X","wings":"X","pattern":"S","legs":"M"},"bonus":1.560000000000001},{"view_history":[{"page_index":0,"viewing_time":892.1000000014901},{"page_index":1,"viewing_time":6276.800000000745},{"page_index":2,"viewing_time":7597.099999997765},{"page_index":3,"viewing_time":4693.60000000149},{"page_index":4,"viewing_time":70005},{"page_index":5,"viewing_time":754.8999999985099},{"page_index":6,"viewing_time":720.1999999992549},{"page_index":7,"viewing_time":839},{"page_index":8,"viewing_time":138},{"page_index":9,"viewing_time":125.80000000074506},{"page_index":10,"viewing_time":115.19999999925494},{"page_index":11,"viewing_time":1989.5},{"page_index":12,"viewing_time":1055.300000000745},{"page_index":13,"viewing_time":808.9000000022352},{"page_index":14,"viewing_time":809}],"rt":96821,"trial_type":"instructions","trial_index":7,"time_elapsed":228684,"internal_node_id":"0.0-3.0-4.0-0.0","subject_id":"5fb3a8e0bb651604a052d591","study_id":"60edd13110225f80f9f3709b","session_id":"6196c1f4bb76498b082fdf10","condition":"full-information","relevant_dimensions":["pattern","legs"],"bee_group":{"antennae":"X","wings":"X","pattern":"S","legs":"M"},"bonus":1.560000000000001},{"rt":5873.599999997765,"response":{"Q0":["Two or six legs","Stripes or spots on body","Single or double wings","Antennae or no antennae"]},"question_order":[0],"trial_type":"survey-multi-select","trial_index":8,"time_elapsed":234560,"internal_node_id":"0.0-3.0-4.0-1.0","subject_id":"5fb3a8e0bb651604a052d591","study_id":"60edd13110225f80f9f3709b","session_id":"6196c1f4bb76498b082fdf10","condition":"full-information","relevant_dimensions":["pattern","legs"],"bee_group":{"antennae":"X","wings":"X","pattern":"S","legs":"M"},"correct":true,"bonus":1.560000000000001},{"rt":17168.699999999255,"response":{"Q1":"No.","Q2":"Based on the four features of the bee.","Q3":"You learn if it was friendly or dangerous, but do not alter your bonus."},"question_order":[0,1,2],"trial_type":"survey-multi-choice","trial_index":9,"time_elapsed":251729,"internal_node_id":"0.0-3.0-4.0-2.0","subject_id":"5fb3a8e0bb651604a052d591","study_id":"60edd13110225f80f9f3709b","session_id":"6196c1f4bb76498b082fdf10","condition":"full-information","relevant_dimensions":["pattern","legs"],"bee_group":{"antennae":"X","wings":"X","pattern":"S","legs":"M"},"correct":true,"bonus":1.560000000000001},{"rt":1197.800000000745,"stimulus":"<p>Congrats, you got everything right<br>When you're ready, click the button below to continue to the experiment.</p>","response":0,"trial_type":"html-button-response","trial_index":10,"time_elapsed":252928,"internal_node_id":"0.0-3.0-4.0-3.0","subject_id":"5fb3a8e0bb651604a052d591","study_id":"60edd13110225f80f9f3709b","session_id":"6196c1f4bb76498b082fdf10","condition":"full-information","relevant_dimensions":["pattern","legs"],"bee_group":{"antennae":"X","wings":"X","pattern":"S","legs":"M"},"bonus":1.560000000000001},{"rt":5309.900000002235,"stimulus":"bees-with-color/bee-B2SM.svg","response":1,"trial_type":"image-button-response","trial_index":11,"time_elapsed":258240,"internal_node_id":"0.0-4.0-0.0","subject_id":"5fb3a8e0bb651604a052d591","study_id":"60edd13110225f80f9f3709b","session_id":"6196c1f4bb76498b082fdf10","condition":"full-information","relevant_dimensions":["pattern","legs"],"bee_group":{"antennae":"X","wings":"X","pattern":"S","legs":"M"},"action":"avoid","summary":"good-avoid","bonus":1.560000000000001},{"rt":8265,"stimulus":"\n                    <p><b>Action: <em>avoid</em></b></p>\n                    <p>This is the bee that you just saw.</p>\n                    <img src=\"bees-with-color/bee-B2SM.svg\" width=\"200\">\n                    <p><span class=\"greenText\">Good choice!</span>  This bee would have stung you.<br>Your bonus pay is unchanged, and remains at $0.54.</p>\n            ","response":0,"trial_type":"html-button-response","trial_index":12,"time_elapsed":266506,"internal_node_id":"0.0-4.0-1.0","subject_id":"5fb3a8e0bb651604a052d591","study_id":"60edd13110225f80f9f3709b","session_id":"6196c1f4bb76498b082fdf10","condition":"full-information","relevant_dimensions":["pattern","legs"],"bee_group":{"antennae":"X","wings":"X","pattern":"S","legs":"M"},"bonus":1.560000000000001},{"rt":2864.5,"stimulus":"bees-with-color/bee-A1SF.svg","response":0,"trial_type":"image-button-response","trial_index":13,"time_elapsed":269372,"internal_node_id":"0.0-4.0-0.1","subject_id":"5fb3a8e0bb651604a052d591","study_id":"60edd13110225f80f9f3709b","session_id":"6196c1f4bb76498b082fdf10","condition":"full-information","relevant_dimensions":["pattern","legs"],"bee_group":{"antennae":"X","wings":"X","pattern":"S","legs":"M"},"action":"harvest","summary":"good-harvest","bonus":1.560000000000001},{"rt":8626.900000002235,"stimulus":"\n                    <p><b>Action: <em>harvest</em></b></p>\n                    <p>This is the bee that you just saw.</p>\n                    <img src=\"bees-with-color/bee-A1SF.svg\" width=\"200\">\n                    <p><span class=\"greenText\"><b>Successful harvest!</b></span><br>Your pay has increased by $0.02. Your bonus pay is now $0.56.</p>\n            ","response":0,"trial_type":"html-button-response","trial_index":14,"time_elapsed":278000,"internal_node_id":"0.0-4.0-1.1","subject_id":"5fb3a8e0bb651604a052d591","study_id":"60edd13110225f80f9f3709b","session_id":"6196c1f4bb76498b082fdf10","condition":"full-information","relevant_dimensions":["pattern","legs"],"bee_group":{"antennae":"X","wings":"X","pattern":"S","legs":"M"},"bonus":1.560000000000001},{"rt":1940.699999999255,"stimulus":"bees-with-color/bee-B2SF.svg","response":1,"trial_type":"image-button-response","trial_index":15,"time_elapsed":279942,"internal_node_id":"0.0-4.0-0.2","subject_id":"5fb3a8e0bb651604a052d591","study_id":"60edd13110225f80f9f3709b","session_id":"6196c1f4bb76498b082fdf10","condition":"full-information","relevant_dimensions":["pattern","legs"],"bee_group":{"antennae":"X","wings":"X","pattern":"S","legs":"M"},"action":"avoid","summary":"bad-avoid","bonus":1.560000000000001},{"rt":3002.900000002235,"stimulus":"\n                    <p><b>Action: <em>avoid</em></b></p>\n                    <p>This is the bee that you just saw.</p>\n                    <img src=\"bees-with-color/bee-B2SF.svg\" width=\"200\">\n                    <p><span class=\"redText\">Bad choice,</span> the bee was friendly.<br>Your bonus pay is unchanged, and remains at $0.56.</p>\n            ","response":0,"trial_type":"html-button-response","trial_index":16,"time_elapsed":282947,"internal_node_id":"0.0-4.0-1.2","subject_id":"5fb3a8e0bb651604a052d591","study_id":"60edd13110225f80f9f3709b","session_id":"6196c1f4bb76498b082fdf10","condition":"full-information","relevant_dimensions":["pattern","legs"],"bee_group":{"antennae":"X","wings":"X","pattern":"S","legs":"M"},"bonus":1.560000000000001},{"rt":1395.199999999255,"stimulus":"bees-with-color/bee-A2DF.svg","response":1,"trial_type":"image-button-response","trial_index":17,"time_elapsed":284343,"internal_node_id":"0.0-4.0-0.3","subject_id":"5fb3a8e0bb651604a052d591","study_id":"60edd13110225f80f9f3709b","session_id":"6196c1f4bb76498b082fdf10","condition":"full-information","relevant_dimensions":["pattern","legs"],"bee_group":{"antennae":"X","wings":"X","pattern":"S","legs":"M"},"action":"avoid","summary":"bad-avoid","bonus":1.560000000000001},{"rt":2983.89999999851,"stimulus":"\n                    <p><b>Action: <em>avoid</em></b></p>\n                    <p>This is the bee that you just saw.</p>\n                    <img src=\"bees-with-color/bee-A2DF.svg\" width=\"200\">\n                    <p><span class=\"redText\">Bad choice,</span> the bee was friendly.<br>Your bonus pay is unchanged, and remains at $0.56.</p>\n            ","response":0,"trial_type":"html-button-response","trial_index":18,"time_elapsed":287328,"internal_node_id":"0.0-4.0-1.3","subject_id":"5fb3a8e0bb651604a052d591","study_id":"60edd13110225f80f9f3709b","session_id":"6196c1f4bb76498b082fdf10","condition":"full-information","relevant_dimensions":["pattern","legs"],"bee_group":{"antennae":"X","wings":"X","pattern":"S","legs":"M"},"bonus":1.560000000000001},{"rt":1642.199999999255,"stimulus":"bees-with-color/bee-A2SM.svg","response":1,"trial_type":"image-button-response","trial_index":19,"time_elapsed":288971,"internal_node_id":"0.0-4.0-0.4","subject_id":"5fb3a8e0bb651604a052d591","study_id":"60edd13110225f80f9f3709b","session_id":"6196c1f4bb76498b082fdf10","condition":"full-information","relevant_dimensions":["pattern","legs"],"bee_group":{"antennae":"X","wings":"X","pattern":"S","legs":"M"},"action":"avoid","summary":"good-avoid","bonus":1.560000000000001},{"rt":2300.60000000149,"stimulus":"\n                    <p><b>Action: <em>avoid</em></b></p>\n                    <p>This is the bee that you just saw.</p>\n                    <img src=\"bees-with-color/bee-A2SM.svg\" width=\"200\">\n                    <p><span class=\"greenText\">Good choice!</span>  This bee would have stung you.<br>Your bonus pay is unchanged, and remains at $0.56.</p>\n            ","response":0,"trial_type":"html-button-response","trial_index":20,"time_elapsed":291273,"internal_node_id":"0.0-4.0-1.4","subject_id":"5fb3a8e0bb651604a052d591","study_id":"60edd13110225f80f9f3709b","session_id":"6196c1f4bb76498b082fdf10","condition":"full-information","relevant_dimensions":["pattern","legs"],"bee_group":{"antennae":"X","wings":"X","pattern":"S","legs":"M"},"bonus":1.560000000000001},{"rt":1413.5999999977648,"stimulus":"bees-with-color/bee-B1DF.svg","response":0,"trial_type":"image-button-response","trial_index":21,"time_elapsed":292688,"internal_node_id":"0.0-4.0-0.5","subject_id":"5fb3a8e0bb651604a052d591","study_id":"60edd13110225f80f9f3709b","session_id":"6196c1f4bb76498b082fdf10","condition":"full-information","relevant_dimensions":["pattern","legs"],"bee_group":{"antennae":"X","wings":"X","pattern":"S","legs":"M"},"action":"harvest","summary":"good-harvest","bonus":1.560000000000001},{"rt":2469,"stimulus":"\n                    <p><b>Action: <em>harvest</em></b></p>\n                    <p>This is the bee that you just saw.</p>\n                    <img src=\"bees-with-color/bee-B1DF.svg\" width=\"200\">\n                    <p><span class=\"greenText\"><b>Successful harvest!</b></span><br>Your pay has increased by $0.02. Your bonus pay is now $0.58.</p>\n            ","response":0,"trial_type":"html-button-response","trial_index":22,"time_elapsed":295158,"internal_node_id":"0.0-4.0-1.5","subject_id":"5fb3a8e0bb651604a052d591","study_id":"60edd13110225f80f9f3709b","session_id":"6196c1f4bb76498b082fdf10","condition":"full-information","relevant_dimensions":["pattern","legs"],"bee_group":{"antennae":"X","wings":"X","pattern":"S","legs":"M"},"bonus":1.560000000000001},{"rt":2427.10000000149,"stimulus":"bees-with-color/bee-A1DF.svg","response":0,"trial_type":"image-button-response","trial_index":23,"time_elapsed":297587,"internal_node_id":"0.0-4.0-0.6","subject_id":"5fb3a8e0bb651604a052d591","study_id":"60edd13110225f80f9f3709b","session_id":"6196c1f4bb76498b082fdf10","condition":"full-information","relevant_dimensions":["pattern","legs"],"bee_group":{"antennae":"X","wings":"X","pattern":"S","legs":"M"},"action":"harvest","summary":"good-harvest","bonus":1.560000000000001},{"rt":916.3000000007451,"stimulus":"\n                    <p><b>Action: <em>harvest</em></b></p>\n                    <p>This is the bee that you just saw.</p>\n                    <img src=\"bees-with-color/bee-A1DF.svg\" width=\"200\">\n                    <p><span class=\"greenText\"><b>Successful harvest!</b></span><br>Your pay has increased by $0.02. Your bonus pay is now $0.60.</p>\n            ","response":0,"trial_type":"html-button-response","trial_index":24,"time_elapsed":298505,"internal_node_id":"0.0-4.0-1.6","subject_id":"5fb3a8e0bb651604a052d591","study_id":"60edd13110225f80f9f3709b","session_id":"6196c1f4bb76498b082fdf10","condition":"full-information","relevant_dimensions":["pattern","legs"],"bee_group":{"antennae":"X","wings":"X","pattern":"S","legs":"M"},"bonus":1.560000000000001},{"rt":933.5,"stimulus":"bees-with-color/bee-A2DM.svg","response":1,"trial_type":"image-button-response","trial_index":25,"time_elapsed":299439,"internal_node_id":"0.0-4.0-0.7","subject_id":"5fb3a8e0bb651604a052d591","study_id":"60edd13110225f80f9f3709b","session_id":"6196c1f4bb76498b082fdf10","condition":"full-information","relevant_dimensions":["pattern","legs"],"bee_group":{"antennae":"X","wings":"X","pattern":"S","legs":"M"},"action":"avoid","summary":"bad-avoid","bonus":1.560000000000001},{"rt":1551.699999999255,"stimulus":"\n                    <p><b>Action: <em>avoid</em></b></p>\n                    <p>This is the bee that you just saw.</p>\n                    <img src=\"bees-with-color/bee-A2DM.svg\" width=\"200\">\n                    <p><span class=\"redText\">Bad choice,</span> the bee was friendly.<br>Your bonus pay is unchanged, and remains at $0.60.</p>\n            ","response":0,"trial_type":"html-button-response","trial_index":26,"time_elapsed":300992,"internal_node_id":"0.0-4.0-1.7","subject_id":"5fb3a8e0bb651604a052d591","study_id":"60edd13110225f80f9f3709b","session_id":"6196c1f4bb76498b082fdf10","condition":"full-information","relevant_dimensions":["pattern","legs"],"bee_group":{"antennae":"X","wings":"X","pattern":"S","legs":"M"},"bonus":1.560000000000001},{"rt":910.1999999992549,"stimulus":"bees-with-color/bee-B2DF.svg","response":0,"trial_type":"image-button-response","trial_index":27,"time_elapsed":301903,"internal_node_id":"0.0-4.0-0.8","subject_id":"5fb3a8e0bb651604a052d591","study_id":"60edd13110225f80f9f3709b","session_id":"6196c1f4bb76498b082fdf10","condition":"full-information","relevant_dimensions":["pattern","legs"],"bee_group":{"antennae":"X","wings":"X","pattern":"S","legs":"M"},"action":"harvest","summary":"good-harvest","bonus":1.560000000000001},{"rt":1227.800000000745,"stimulus":"\n                    <p><b>Action: <em>harvest</em></b></p>\n                    <p>This is the bee that you just saw.</p>\n                    <img src=\"bees-with-color/bee-B2DF.svg\" width=\"200\">\n                    <p><span class=\"greenText\"><b>Successful harvest!</b></span><br>Your pay has increased by $0.02. Your bonus pay is now $0.62.</p>\n            ","response":0,"trial_type":"html-button-response","trial_index":28,"time_elapsed":303132,"internal_node_id":"0.0-4.0-1.8","subject_id":"5fb3a8e0bb651604a052d591","study_id":"60edd13110225f80f9f3709b","session_id":"6196c1f4bb76498b082fdf10","condition":"full-information","relevant_dimensions":["pattern","legs"],"bee_group":{"antennae":"X","wings":"X","pattern":"S","legs":"M"},"bonus":1.560000000000001},{"rt":1534.300000000745,"stimulus":"bees-with-color/bee-B1SF.svg","response":0,"trial_type":"image-button-response","trial_index":29,"time_elapsed":304667,"internal_node_id":"0.0-4.0-0.9","subject_id":"5fb3a8e0bb651604a052d591","study_id":"60edd13110225f80f9f3709b","session_id":"6196c1f4bb76498b082fdf10","condition":"full-information","relevant_dimensions":["pattern","legs"],"bee_group":{"antennae":"X","wings":"X","pattern":"S","legs":"M"},"action":"harvest","summary":"good-harvest","bonus":1.560000000000001},{"rt":765.3999999985099,"stimulus":"\n                    <p><b>Action: <em>harvest</em></b></p>\n                    <p>This is the bee that you just saw.</p>\n                    <img src=\"bees-with-color/bee-B1SF.svg\" width=\"200\">\n                    <p><span class=\"greenText\"><b>Successful harvest!</b></span><br>Your pay has increased by $0.02. Your bonus pay is now $0.64.</p>\n            ","response":0,"trial_type":"html-button-response","trial_index":30,"time_elapsed":305434,"internal_node_id":"0.0-4.0-1.9","subject_id":"5fb3a8e0bb651604a052d591","study_id":"60edd13110225f80f9f3709b","session_id":"6196c1f4bb76498b082fdf10","condition":"full-information","relevant_dimensions":["pattern","legs"],"bee_group":{"antennae":"X","wings":"X","pattern":"S","legs":"M"},"bonus":1.560000000000001},{"rt":1822.300000000745,"stimulus":"bees-with-color/bee-A1SM.svg","response":1,"trial_type":"image-button-response","trial_index":31,"time_elapsed":307257,"internal_node_id":"0.0-4.0-0.10","subject_id":"5fb3a8e0bb651604a052d591","study_id":"60edd13110225f80f9f3709b","session_id":"6196c1f4bb76498b082fdf10","condition":"full-information","relevant_dimensions":["pattern","legs"],"bee_group":{"antennae":"X","wings":"X","pattern":"S","legs":"M"},"action":"avoid","summary":"good-avoid","bonus":1.560000000000001},{"rt":1523.6000000014901,"stimulus":"\n                    <p><b>Action: <em>avoid</em></b></p>\n                    <p>This is the bee that you just saw.</p>\n                    <img src=\"bees-with-color/bee-A1SM.svg\" width=\"200\">\n                    <p><span class=\"greenText\">Good choice!</span>  This bee would have stung you.<br>Your bonus pay is unchanged, and remains at $0.64.</p>\n            ","response":0,"trial_type":"html-button-response","trial_index":32,"time_elapsed":308782,"internal_node_id":"0.0-4.0-1.10","subject_id":"5fb3a8e0bb651604a052d591","study_id":"60edd13110225f80f9f3709b","session_id":"6196c1f4bb76498b082fdf10","condition":"full-information","relevant_dimensions":["pattern","legs"],"bee_group":{"antennae":"X","wings":"X","pattern":"S","legs":"M"},"bonus":1.560000000000001},{"rt":1285.7999999970198,"stimulus":"bees-with-color/bee-B1SM.svg","response":1,"trial_type":"image-button-response","trial_index":33,"time_elapsed":310069,"internal_node_id":"0.0-4.0-0.11","subject_id":"5fb3a8e0bb651604a052d591","study_id":"60edd13110225f80f9f3709b","session_id":"6196c1f4bb76498b082fdf10","condition":"full-information","relevant_dimensions":["pattern","legs"],"bee_group":{"antennae":"X","wings":"X","pattern":"S","legs":"M"},"action":"avoid","summary":"good-avoid","bonus":1.560000000000001},{"rt":1138.5,"stimulus":"\n                    <p><b>Action: <em>avoid</em></b></p>\n                    <p>This is the bee that you just saw.</p>\n                    <img src=\"bees-with-color/bee-B1SM.svg\" width=\"200\">\n                    <p><span class=\"greenText\">Good choice!</span>  This bee would have stung you.<br>Your bonus pay is unchanged, and remains at $0.64.</p>\n            ","response":0,"trial_type":"html-button-response","trial_index":34,"time_elapsed":311208,"internal_node_id":"0.0-4.0-1.11","subject_id":"5fb3a8e0bb651604a052d591","study_id":"60edd13110225f80f9f3709b","session_id":"6196c1f4bb76498b082fdf10","condition":"full-information","relevant_dimensions":["pattern","legs"],"bee_group":{"antennae":"X","wings":"X","pattern":"S","legs":"M"},"bonus":1.560000000000001},{"rt":1779.8999999985099,"stimulus":"bees-with-color/bee-B2DM.svg","response":1,"trial_type":"image-button-response","trial_index":35,"time_elapsed":312989,"internal_node_id":"0.0-4.0-0.12","subject_id":"5fb3a8e0bb651604a052d591","study_id":"60edd13110225f80f9f3709b","session_id":"6196c1f4bb76498b082fdf10","condition":"full-information","relevant_dimensions":["pattern","legs"],"bee_group":{"antennae":"X","wings":"X","pattern":"S","legs":"M"},"action":"avoid","summary":"bad-avoid","bonus":1.560000000000001},{"rt":808,"stimulus":"\n                    <p><b>Action: <em>avoid</em></b></p>\n                    <p>This is the bee that you just saw.</p>\n                    <img src=\"bees-with-color/bee-B2DM.svg\" width=\"200\">\n                    <p><span class=\"redText\">Bad choice,</span> the bee was friendly.<br>Your bonus pay is unchanged, and remains at $0.64.</p>\n            ","response":0,"trial_type":"html-button-response","trial_index":36,"time_elapsed":313798,"internal_node_id":"0.0-4.0-1.12","subject_id":"5fb3a8e0bb651604a052d591","study_id":"60edd13110225f80f9f3709b","session_id":"6196c1f4bb76498b082fdf10","condition":"full-information","relevant_dimensions":["pattern","legs"],"bee_group":{"antennae":"X","wings":"X","pattern":"S","legs":"M"},"bonus":1.560000000000001},{"rt":748.1000000014901,"stimulus":"bees-with-color/bee-B1DM.svg","response":0,"trial_type":"image-button-response","trial_index":37,"time_elapsed":314547,"internal_node_id":"0.0-4.0-0.13","subject_id":"5fb3a8e0bb651604a052d591","study_id":"60edd13110225f80f9f3709b","session_id":"6196c1f4bb76498b082fdf10","condition":"full-information","relevant_dimensions":["pattern","legs"],"bee_group":{"antennae":"X","wings":"X","pattern":"S","legs":"M"},"action":"harvest","summary":"good-harvest","bonus":1.560000000000001},{"rt":586.9000000022352,"stimulus":"\n                    <p><b>Action: <em>harvest</em></b></p>\n                    <p>This is the bee that you just saw.</p>\n                    <img src=\"bees-with-color/bee-B1DM.svg\" width=\"200\">\n                    <p><span class=\"greenText\"><b>Successful harvest!</b></span><br>Your pay has increased by $0.02. Your bonus pay is now $0.66.</p>\n            ","response":0,"trial_type":"html-button-response","trial_index":38,"time_elapsed":315135,"internal_node_id":"0.0-4.0-1.13","subject_id":"5fb3a8e0bb651604a052d591","study_id":"60edd13110225f80f9f3709b","session_id":"6196c1f4bb76498b082fdf10","condition":"full-information","relevant_dimensions":["pattern","legs"],"bee_group":{"antennae":"X","wings":"X","pattern":"S","legs":"M"},"bonus":1.560000000000001},{"rt":1048.300000000745,"stimulus":"bees-with-color/bee-A1DM.svg","response":0,"trial_type":"image-button-response","trial_index":39,"time_elapsed":316185,"internal_node_id":"0.0-4.0-0.14","subject_id":"5fb3a8e0bb651604a052d591","study_id":"60edd13110225f80f9f3709b","session_id":"6196c1f4bb76498b082fdf10","condition":"full-information","relevant_dimensions":["pattern","legs"],"bee_group":{"antennae":"X","wings":"X","pattern":"S","legs":"M"},"action":"harvest","summary":"good-harvest","bonus":1.560000000000001},{"rt":496.0999999977648,"stimulus":"\n                    <p><b>Action: <em>harvest</em></b></p>\n                    <p>This is the bee that you just saw.</p>\n                    <img src=\"bees-with-color/bee-A1DM.svg\" width=\"200\">\n                    <p><span class=\"greenText\"><b>Successful harvest!</b></span><br>Your pay has increased by $0.02. Your bonus pay is now $0.68.</p>\n            ","response":0,"trial_type":"html-button-response","trial_index":40,"time_elapsed":316682,"internal_node_id":"0.0-4.0-1.14","subject_id":"5fb3a8e0bb651604a052d591","study_id":"60edd13110225f80f9f3709b","session_id":"6196c1f4bb76498b082fdf10","condition":"full-information","relevant_dimensions":["pattern","legs"],"bee_group":{"antennae":"X","wings":"X","pattern":"S","legs":"M"},"bonus":1.560000000000001},{"rt":1096.699999999255,"stimulus":"bees-with-color/bee-A2SF.svg","response":1,"trial_type":"image-button-response","trial_index":41,"time_elapsed":317780,"internal_node_id":"0.0-4.0-0.15","subject_id":"5fb3a8e0bb651604a052d591","study_id":"60edd13110225f80f9f3709b","session_id":"6196c1f4bb76498b082fdf10","condition":"full-information","relevant_dimensions":["pattern","legs"],"bee_group":{"antennae":"X","wings":"X","pattern":"S","legs":"M"},"action":"avoid","summary":"bad-avoid","bonus":1.560000000000001},{"rt":891.8000000007451,"stimulus":"\n                    <p><b>Action: <em>avoid</em></b></p>\n                    <p>This is the bee that you just saw.</p>\n                    <img src=\"bees-with-color/bee-A2SF.svg\" width=\"200\">\n                    <p><span class=\"redText\">Bad choice,</span> the bee was friendly.<br>Your bonus pay is unchanged, and remains at $0.68.</p>\n            ","response":0,"trial_type":"html-button-response","trial_index":42,"time_elapsed":318672,"internal_node_id":"0.0-4.0-1.15","subject_id":"5fb3a8e0bb651604a052d591","study_id":"60edd13110225f80f9f3709b","session_id":"6196c1f4bb76498b082fdf10","condition":"full-information","relevant_dimensions":["pattern","legs"],"bee_group":{"antennae":"X","wings":"X","pattern":"S","legs":"M"},"bonus":1.560000000000001},{"rt":623.6000000014901,"stimulus":"bees-with-color/bee-A1DF.svg","response":0,"trial_type":"image-button-response","trial_index":43,"time_elapsed":319297,"internal_node_id":"0.0-4.0-0.16","subject_id":"5fb3a8e0bb651604a052d591","study_id":"60edd13110225f80f9f3709b","session_id":"6196c1f4bb76498b082fdf10","condition":"full-information","relevant_dimensions":["pattern","legs"],"bee_group":{"antennae":"X","wings":"X","pattern":"S","legs":"M"},"action":"harvest","summary":"good-harvest","bonus":1.560000000000001},{"rt":573,"stimulus":"\n                    <p><b>Action: <em>harvest</em></b></p>\n                    <p>This is the bee that you just saw.</p>\n                    <img src=\"bees-with-color/bee-A1DF.svg\" width=\"200\">\n                    <p><span class=\"greenText\"><b>Successful harvest!</b></span><br>Your pay has increased by $0.02. Your bonus pay is now $0.70.</p>\n            ","response":0,"trial_type":"html-button-response","trial_index":44,"time_elapsed":319872,"internal_node_id":"0.0-4.0-1.16","subject_id":"5fb3a8e0bb651604a052d591","study_id":"60edd13110225f80f9f3709b","session_id":"6196c1f4bb76498b082fdf10","condition":"full-information","relevant_dimensions":["pattern","legs"],"bee_group":{"antennae":"X","wings":"X","pattern":"S","legs":"M"},"bonus":1.560000000000001},{"rt":623.9000000022352,"stimulus":"bees-with-color/bee-B1DF.svg","response":0,"trial_type":"image-button-response","trial_index":45,"time_elapsed":320497,"internal_node_id":"0.0-4.0-0.17","subject_id":"5fb3a8e0bb651604a052d591","study_id":"60edd13110225f80f9f3709b","session_id":"6196c1f4bb76498b082fdf10","condition":"full-information","relevant_dimensions":["pattern","legs"],"bee_group":{"antennae":"X","wings":"X","pattern":"S","legs":"M"},"action":"harvest","summary":"good-harvest","bonus":1.560000000000001},{"rt":566.6999999992549,"stimulus":"\n                    <p><b>Action: <em>harvest</em></b></p>\n                    <p>This is the bee that you just saw.</p>\n                    <img src=\"bees-with-color/bee-B1DF.svg\" width=\"200\">\n                    <p><span class=\"greenText\"><b>Successful harvest!</b></span><br>Your pay has increased by $0.02. Your bonus pay is now $0.72.</p>\n            ","response":0,"trial_type":"html-button-response","trial_index":46,"time_elapsed":321065,"internal_node_id":"0.0-4.0-1.17","subject_id":"5fb3a8e0bb651604a052d591","study_id":"60edd13110225f80f9f3709b","session_id":"6196c1f4bb76498b082fdf10","condition":"full-information","relevant_dimensions":["pattern","legs"],"bee_group":{"antennae":"X","wings":"X","pattern":"S","legs":"M"},"bonus":1.560000000000001},{"rt":587.5,"stimulus":"bees-with-color/bee-B2DF.svg","response":0,"trial_type":"image-button-response","trial_index":47,"time_elapsed":321653,"internal_node_id":"0.0-4.0-0.18","subject_id":"5fb3a8e0bb651604a052d591","study_id":"60edd13110225f80f9f3709b","session_id":"6196c1f4bb76498b082fdf10","condition":"full-information","relevant_dimensions":["pattern","legs"],"bee_group":{"antennae":"X","wings":"X","pattern":"S","legs":"M"},"action":"harvest","summary":"good-harvest","bonus":1.560000000000001},{"rt":472.80000000074506,"stimulus":"\n                    <p><b>Action: <em>harvest</em></b></p>\n                    <p>This is the bee that you just saw.</p>\n                    <img src=\"bees-with-color/bee-B2DF.svg\" width=\"200\">\n                    <p><span class=\"greenText\"><b>Successful harvest!</b></span><br>Your pay has increased by $0.02. Your bonus pay is now $0.74.</p>\n            ","response":0,"trial_type":"html-button-response","trial_index":48,"time_elapsed":322127,"internal_node_id":"0.0-4.0-1.18","subject_id":"5fb3a8e0bb651604a052d591","study_id":"60edd13110225f80f9f3709b","session_id":"6196c1f4bb76498b082fdf10","condition":"full-information","relevant_dimensions":["pattern","legs"],"bee_group":{"antennae":"X","wings":"X","pattern":"S","legs":"M"},"bonus":1.560000000000001},{"rt":1281.699999999255,"stimulus":"bees-with-color/bee-A1SM.svg","response":1,"trial_type":"image-button-response","trial_index":49,"time_elapsed":323410,"internal_node_id":"0.0-4.0-0.19","subject_id":"5fb3a8e0bb651604a052d591","study_id":"60edd13110225f80f9f3709b","session_id":"6196c1f4bb76498b082fdf10","condition":"full-information","relevant_dimensions":["pattern","legs"],"bee_group":{"antennae":"X","wings":"X","pattern":"S","legs":"M"},"action":"avoid","summary":"good-avoid","bonus":1.560000000000001},{"rt":820.8000000007451,"stimulus":"\n                    <p><b>Action: <em>avoid</em></b></p>\n                    <p>This is the bee that you just saw.</p>\n                    <img src=\"bees-with-color/bee-A1SM.svg\" width=\"200\">\n                    <p><span class=\"greenText\">Good choice!</span>  This bee would have stung you.<br>Your bonus pay is unchanged, and remains at $0.74.</p>\n            ","response":0,"trial_type":"html-button-response","trial_index":50,"time_elapsed":324232,"internal_node_id":"0.0-4.0-1.19","subject_id":"5fb3a8e0bb651604a052d591","study_id":"60edd13110225f80f9f3709b","session_id":"6196c1f4bb76498b082fdf10","condition":"full-information","relevant_dimensions":["pattern","legs"],"bee_group":{"antennae":"X","wings":"X","pattern":"S","legs":"M"},"bonus":1.560000000000001},{"rt":699.5999999977648,"stimulus":"bees-with-color/bee-B2DM.svg","response":0,"trial_type":"image-button-response","trial_index":51,"time_elapsed":324932,"internal_node_id":"0.0-4.0-0.20","subject_id":"5fb3a8e0bb651604a052d591","study_id":"60edd13110225f80f9f3709b","session_id":"6196c1f4bb76498b082fdf10","condition":"full-information","relevant_dimensions":["pattern","legs"],"bee_group":{"antennae":"X","wings":"X","pattern":"S","legs":"M"},"action":"harvest","summary":"good-harvest","bonus":1.560000000000001},{"rt":617.1000000014901,"stimulus":"\n                    <p><b>Action: <em>harvest</em></b></p>\n                    <p>This is the bee that you just saw.</p>\n                    <img src=\"bees-with-color/bee-B2DM.svg\" width=\"200\">\n                    <p><span class=\"greenText\"><b>Successful harvest!</b></span><br>Your pay has increased by $0.02. Your bonus pay is now $0.76.</p>\n            ","response":0,"trial_type":"html-button-response","trial_index":52,"time_elapsed":325550,"internal_node_id":"0.0-4.0-1.20","subject_id":"5fb3a8e0bb651604a052d591","study_id":"60edd13110225f80f9f3709b","session_id":"6196c1f4bb76498b082fdf10","condition":"full-information","relevant_dimensions":["pattern","legs"],"bee_group":{"antennae":"X","wings":"X","pattern":"S","legs":"M"},"bonus":1.560000000000001},{"rt":881,"stimulus":"bees-with-color/bee-B2SM.svg","response":1,"trial_type":"image-button-response","trial_index":53,"time_elapsed":326432,"internal_node_id":"0.0-4.0-0.21","subject_id":"5fb3a8e0bb651604a052d591","study_id":"60edd13110225f80f9f3709b","session_id":"6196c1f4bb76498b082fdf10","condition":"full-information","relevant_dimensions":["pattern","legs"],"bee_group":{"antennae":"X","wings":"X","pattern":"S","legs":"M"},"action":"avoid","summary":"good-avoid","bonus":1.560000000000001},{"rt":533.3999999985099,"stimulus":"\n                    <p><b>Action: <em>avoid</em></b></p>\n                    <p>This is the bee that you just saw.</p>\n                    <img src=\"bees-with-color/bee-B2SM.svg\" width=\"200\">\n                    <p><span class=\"greenText\">Good choice!</span>  This bee would have stung you.<br>Your bonus pay is unchanged, and remains at $0.76.</p>\n            ","response":0,"trial_type":"html-button-response","trial_index":54,"time_elapsed":326966,"internal_node_id":"0.0-4.0-1.21","subject_id":"5fb3a8e0bb651604a052d591","study_id":"60edd13110225f80f9f3709b","session_id":"6196c1f4bb76498b082fdf10","condition":"full-information","relevant_dimensions":["pattern","legs"],"bee_group":{"antennae":"X","wings":"X","pattern":"S","legs":"M"},"bonus":1.560000000000001},{"rt":987.0999999977648,"stimulus":"bees-with-color/bee-B2SF.svg","response":1,"trial_type":"image-button-response","trial_index":55,"time_elapsed":327954,"internal_node_id":"0.0-4.0-0.22","subject_id":"5fb3a8e0bb651604a052d591","study_id":"60edd13110225f80f9f3709b","session_id":"6196c1f4bb76498b082fdf10","condition":"full-information","relevant_dimensions":["pattern","legs"],"bee_group":{"antennae":"X","wings":"X","pattern":"S","legs":"M"},"action":"avoid","summary":"bad-avoid","bonus":1.560000000000001},{"rt":521.6000000014901,"stimulus":"\n                    <p><b>Action: <em>avoid</em></b></p>\n                    <p>This is the bee that you just saw.</p>\n                    <img src=\"bees-with-color/bee-B2SF.svg\" width=\"200\">\n                    <p><span class=\"redText\">Bad choice,</span> the bee was friendly.<br>Your bonus pay is unchanged, and remains at $0.76.</p>\n            ","response":0,"trial_type":"html-button-response","trial_index":56,"time_elapsed":328476,"internal_node_id":"0.0-4.0-1.22","subject_id":"5fb3a8e0bb651604a052d591","study_id":"60edd13110225f80f9f3709b","session_id":"6196c1f4bb76498b082fdf10","condition":"full-information","relevant_dimensions":["pattern","legs"],"bee_group":{"antennae":"X","wings":"X","pattern":"S","legs":"M"},"bonus":1.560000000000001},{"rt":604.6000000014901,"stimulus":"bees-with-color/bee-A2DF.svg","response":0,"trial_type":"image-button-response","trial_index":57,"time_elapsed":329082,"internal_node_id":"0.0-4.0-0.23","subject_id":"5fb3a8e0bb651604a052d591","study_id":"60edd13110225f80f9f3709b","session_id":"6196c1f4bb76498b082fdf10","condition":"full-information","relevant_dimensions":["pattern","legs"],"bee_group":{"antennae":"X","wings":"X","pattern":"S","legs":"M"},"action":"harvest","summary":"good-harvest","bonus":1.560000000000001},{"rt":592.1000000014901,"stimulus":"\n                    <p><b>Action: <em>harvest</em></b></p>\n                    <p>This is the bee that you just saw.</p>\n                    <img src=\"bees-with-color/bee-A2DF.svg\" width=\"200\">\n                    <p><span class=\"greenText\"><b>Successful harvest!</b></span><br>Your pay has increased by $0.02. Your bonus pay is now $0.78.</p>\n            ","response":0,"trial_type":"html-button-response","trial_index":58,"time_elapsed":329675,"internal_node_id":"0.0-4.0-1.23","subject_id":"5fb3a8e0bb651604a052d591","study_id":"60edd13110225f80f9f3709b","session_id":"6196c1f4bb76498b082fdf10","condition":"full-information","relevant_dimensions":["pattern","legs"],"bee_group":{"antennae":"X","wings":"X","pattern":"S","legs":"M"},"bonus":1.560000000000001},{"rt":682.6000000014901,"stimulus":"bees-with-color/bee-B1DM.svg","response":0,"trial_type":"image-button-response","trial_index":59,"time_elapsed":330358,"internal_node_id":"0.0-4.0-0.24","subject_id":"5fb3a8e0bb651604a052d591","study_id":"60edd13110225f80f9f3709b","session_id":"6196c1f4bb76498b082fdf10","condition":"full-information","relevant_dimensions":["pattern","legs"],"bee_group":{"antennae":"X","wings":"X","pattern":"S","legs":"M"},"action":"harvest","summary":"good-harvest","bonus":1.560000000000001},{"rt":496.5,"stimulus":"\n                    <p><b>Action: <em>harvest</em></b></p>\n                    <p>This is the bee that you just saw.</p>\n                    <img src=\"bees-with-color/bee-B1DM.svg\" width=\"200\">\n                    <p><span class=\"greenText\"><b>Successful harvest!</b></span><br>Your pay has increased by $0.02. Your bonus pay is now $0.80.</p>\n            ","response":0,"trial_type":"html-button-response","trial_index":60,"time_elapsed":330856,"internal_node_id":"0.0-4.0-1.24","subject_id":"5fb3a8e0bb651604a052d591","study_id":"60edd13110225f80f9f3709b","session_id":"6196c1f4bb76498b082fdf10","condition":"full-information","relevant_dimensions":["pattern","legs"],"bee_group":{"antennae":"X","wings":"X","pattern":"S","legs":"M"},"bonus":1.560000000000001},{"rt":1258,"stimulus":"bees-with-color/bee-A2SF.svg","response":1,"trial_type":"image-button-response","trial_index":61,"time_elapsed":332115,"internal_node_id":"0.0-4.0-0.25","subject_id":"5fb3a8e0bb651604a052d591","study_id":"60edd13110225f80f9f3709b","session_id":"6196c1f4bb76498b082fdf10","condition":"full-information","relevant_dimensions":["pattern","legs"],"bee_group":{"antennae":"X","wings":"X","pattern":"S","legs":"M"},"action":"avoid","summary":"bad-avoid","bonus":1.560000000000001},{"rt":562,"stimulus":"\n                    <p><b>Action: <em>avoid</em></b></p>\n                    <p>This is the bee that you just saw.</p>\n                    <img src=\"bees-with-color/bee-A2SF.svg\" width=\"200\">\n                    <p><span class=\"redText\">Bad choice,</span> the bee was friendly.<br>Your bonus pay is unchanged, and remains at $0.80.</p>\n            ","response":0,"trial_type":"html-button-response","trial_index":62,"time_elapsed":332678,"internal_node_id":"0.0-4.0-1.25","subject_id":"5fb3a8e0bb651604a052d591","study_id":"60edd13110225f80f9f3709b","session_id":"6196c1f4bb76498b082fdf10","condition":"full-information","relevant_dimensions":["pattern","legs"],"bee_group":{"antennae":"X","wings":"X","pattern":"S","legs":"M"},"bonus":1.560000000000001},{"rt":1636.2000000029802,"stimulus":"bees-with-color/bee-A2DM.svg","response":0,"trial_type":"image-button-response","trial_index":63,"time_elapsed":334315,"internal_node_id":"0.0-4.0-0.26","subject_id":"5fb3a8e0bb651604a052d591","study_id":"60edd13110225f80f9f3709b","session_id":"6196c1f4bb76498b082fdf10","condition":"full-information","relevant_dimensions":["pattern","legs"],"bee_group":{"antennae":"X","wings":"X","pattern":"S","legs":"M"},"action":"harvest","summary":"good-harvest","bonus":1.560000000000001},{"rt":1006.1000000014901,"stimulus":"\n                    <p><b>Action: <em>harvest</em></b></p>\n                    <p>This is the bee that you just saw.</p>\n                    <img src=\"bees-with-color/bee-A2DM.svg\" width=\"200\">\n                    <p><span class=\"greenText\"><b>Successful harvest!</b></span><br>Your pay has increased by $0.02. Your bonus pay is now $0.82.</p>\n            ","response":0,"trial_type":"html-button-response","trial_index":64,"time_elapsed":335322,"internal_node_id":"0.0-4.0-1.26","subject_id":"5fb3a8e0bb651604a052d591","study_id":"60edd13110225f80f9f3709b","session_id":"6196c1f4bb76498b082fdf10","condition":"full-information","relevant_dimensions":["pattern","legs"],"bee_group":{"antennae":"X","wings":"X","pattern":"S","legs":"M"},"bonus":1.560000000000001},{"rt":1275.199999999255,"stimulus":"bees-with-color/bee-B1SM.svg","response":1,"trial_type":"image-button-response","trial_index":65,"time_elapsed":336599,"internal_node_id":"0.0-4.0-0.27","subject_id":"5fb3a8e0bb651604a052d591","study_id":"60edd13110225f80f9f3709b","session_id":"6196c1f4bb76498b082fdf10","condition":"full-information","relevant_dimensions":["pattern","legs"],"bee_group":{"antennae":"X","wings":"X","pattern":"S","legs":"M"},"action":"avoid","summary":"good-avoid","bonus":1.560000000000001},{"rt":849.8999999985099,"stimulus":"\n                    <p><b>Action: <em>avoid</em></b></p>\n                    <p>This is the bee that you just saw.</p>\n                    <img src=\"bees-with-color/bee-B1SM.svg\" width=\"200\">\n                    <p><span class=\"greenText\">Good choice!</span>  This bee would have stung you.<br>Your bonus pay is unchanged, and remains at $0.82.</p>\n            ","response":0,"trial_type":"html-button-response","trial_index":66,"time_elapsed":337450,"internal_node_id":"0.0-4.0-1.27","subject_id":"5fb3a8e0bb651604a052d591","study_id":"60edd13110225f80f9f3709b","session_id":"6196c1f4bb76498b082fdf10","condition":"full-information","relevant_dimensions":["pattern","legs"],"bee_group":{"antennae":"X","wings":"X","pattern":"S","legs":"M"},"bonus":1.560000000000001},{"rt":2078.89999999851,"stimulus":"bees-with-color/bee-B1SF.svg","response":1,"trial_type":"image-button-response","trial_index":67,"time_elapsed":339531,"internal_node_id":"0.0-4.0-0.28","subject_id":"5fb3a8e0bb651604a052d591","study_id":"60edd13110225f80f9f3709b","session_id":"6196c1f4bb76498b082fdf10","condition":"full-information","relevant_dimensions":["pattern","legs"],"bee_group":{"antennae":"X","wings":"X","pattern":"S","legs":"M"},"action":"avoid","summary":"bad-avoid","bonus":1.560000000000001},{"rt":579.2000000029802,"stimulus":"\n                    <p><b>Action: <em>avoid</em></b></p>\n                    <p>This is the bee that you just saw.</p>\n                    <img src=\"bees-with-color/bee-B1SF.svg\" width=\"200\">\n                    <p><span class=\"redText\">Bad choice,</span> the bee was friendly.<br>Your bonus pay is unchanged, and remains at $0.82.</p>\n            ","response":0,"trial_type":"html-button-response","trial_index":68,"time_elapsed":340112,"internal_node_id":"0.0-4.0-1.28","subject_id":"5fb3a8e0bb651604a052d591","study_id":"60edd13110225f80f9f3709b","session_id":"6196c1f4bb76498b082fdf10","condition":"full-information","relevant_dimensions":["pattern","legs"],"bee_group":{"antennae":"X","wings":"X","pattern":"S","legs":"M"},"bonus":1.560000000000001},{"rt":1401.3999999985099,"stimulus":"bees-with-color/bee-A2SM.svg","response":1,"trial_type":"image-button-response","trial_index":69,"time_elapsed":341514,"internal_node_id":"0.0-4.0-0.29","subject_id":"5fb3a8e0bb651604a052d591","study_id":"60edd13110225f80f9f3709b","session_id":"6196c1f4bb76498b082fdf10","condition":"full-information","relevant_dimensions":["pattern","legs"],"bee_group":{"antennae":"X","wings":"X","pattern":"S","legs":"M"},"action":"avoid","summary":"good-avoid","bonus":1.560000000000001},{"rt":467.29999999701977,"stimulus":"\n                    <p><b>Action: <em>avoid</em></b></p>\n                    <p>This is the bee that you just saw.</p>\n                    <img src=\"bees-with-color/bee-A2SM.svg\" width=\"200\">\n                    <p><span class=\"greenText\">Good choice!</span>  This bee would have stung you.<br>Your bonus pay is unchanged, and remains at $0.82.</p>\n            ","response":0,"trial_type":"html-button-response","trial_index":70,"time_elapsed":341983,"internal_node_id":"0.0-4.0-1.29","subject_id":"5fb3a8e0bb651604a052d591","study_id":"60edd13110225f80f9f3709b","session_id":"6196c1f4bb76498b082fdf10","condition":"full-information","relevant_dimensions":["pattern","legs"],"bee_group":{"antennae":"X","wings":"X","pattern":"S","legs":"M"},"bonus":1.560000000000001},{"rt":1659.1000000014901,"stimulus":"bees-with-color/bee-A1DM.svg","response":0,"trial_type":"image-button-response","trial_index":71,"time_elapsed":343643,"internal_node_id":"0.0-4.0-0.30","subject_id":"5fb3a8e0bb651604a052d591","study_id":"60edd13110225f80f9f3709b","session_id":"6196c1f4bb76498b082fdf10","condition":"full-information","relevant_dimensions":["pattern","legs"],"bee_group":{"antennae":"X","wings":"X","pattern":"S","legs":"M"},"action":"harvest","summary":"good-harvest","bonus":1.560000000000001},{"rt":965.3000000007451,"stimulus":"\n                    <p><b>Action: <em>harvest</em></b></p>\n                    <p>This is the bee that you just saw.</p>\n                    <img src=\"bees-with-color/bee-A1DM.svg\" width=\"200\">\n                    <p><span class=\"greenText\"><b>Successful harvest!</b></span><br>Your pay has increased by $0.02. Your bonus pay is now $0.84.</p>\n            ","response":0,"trial_type":"html-button-response","trial_index":72,"time_elapsed":344609,"internal_node_id":"0.0-4.0-1.30","subject_id":"5fb3a8e0bb651604a052d591","study_id":"60edd13110225f80f9f3709b","session_id":"6196c1f4bb76498b082fdf10","condition":"full-information","relevant_dimensions":["pattern","legs"],"bee_group":{"antennae":"X","wings":"X","pattern":"S","legs":"M"},"bonus":1.560000000000001},{"rt":1059.800000000745,"stimulus":"bees-with-color/bee-A1SF.svg","response":1,"trial_type":"image-button-response","trial_index":73,"time_elapsed":345670,"internal_node_id":"0.0-4.0-0.31","subject_id":"5fb3a8e0bb651604a052d591","study_id":"60edd13110225f80f9f3709b","session_id":"6196c1f4bb76498b082fdf10","condition":"full-information","relevant_dimensions":["pattern","legs"],"bee_group":{"antennae":"X","wings":"X","pattern":"S","legs":"M"},"action":"avoid","summary":"bad-avoid","bonus":1.560000000000001},{"rt":646,"stimulus":"\n                    <p><b>Action: <em>avoid</em></b></p>\n                    <p>This is the bee that you just saw.</p>\n                    <img src=\"bees-with-color/bee-A1SF.svg\" width=\"200\">\n                    <p><span class=\"redText\">Bad choice,</span> the bee was friendly.<br>Your bonus pay is unchanged, and remains at $0.84.</p>\n            ","response":0,"trial_type":"html-button-response","trial_index":74,"time_elapsed":346317,"internal_node_id":"0.0-4.0-1.31","subject_id":"5fb3a8e0bb651604a052d591","study_id":"60edd13110225f80f9f3709b","session_id":"6196c1f4bb76498b082fdf10","condition":"full-information","relevant_dimensions":["pattern","legs"],"bee_group":{"antennae":"X","wings":"X","pattern":"S","legs":"M"},"bonus":1.560000000000001},{"rt":1144.2999999970198,"stimulus":"bees-with-color/bee-A2SM.svg","response":1,"trial_type":"image-button-response","trial_index":75,"time_elapsed":347462,"internal_node_id":"0.0-4.0-0.32","subject_id":"5fb3a8e0bb651604a052d591","study_id":"60edd13110225f80f9f3709b","session_id":"6196c1f4bb76498b082fdf10","condition":"full-information","relevant_dimensions":["pattern","legs"],"bee_group":{"antennae":"X","wings":"X","pattern":"S","legs":"M"},"action":"avoid","summary":"good-avoid","bonus":1.560000000000001},{"rt":569.0999999977648,"stimulus":"\n                    <p><b>Action: <em>avoid</em></b></p>\n                    <p>This is the bee that you just saw.</p>\n                    <img src=\"bees-with-color/bee-A2SM.svg\" width=\"200\">\n                    <p><span class=\"greenText\">Good choice!</span>  This bee would have stung you.<br>Your bonus pay is unchanged, and remains at $0.84.</p>\n            ","response":0,"trial_type":"html-button-response","trial_index":76,"time_elapsed":348032,"internal_node_id":"0.0-4.0-1.32","subject_id":"5fb3a8e0bb651604a052d591","study_id":"60edd13110225f80f9f3709b","session_id":"6196c1f4bb76498b082fdf10","condition":"full-information","relevant_dimensions":["pattern","legs"],"bee_group":{"antennae":"X","wings":"X","pattern":"S","legs":"M"},"bonus":1.560000000000001},{"rt":1037,"stimulus":"bees-with-color/bee-A1DM.svg","response":0,"trial_type":"image-button-response","trial_index":77,"time_elapsed":349070,"internal_node_id":"0.0-4.0-0.33","subject_id":"5fb3a8e0bb651604a052d591","study_id":"60edd13110225f80f9f3709b","session_id":"6196c1f4bb76498b082fdf10","condition":"full-information","relevant_dimensions":["pattern","legs"],"bee_group":{"antennae":"X","wings":"X","pattern":"S","legs":"M"},"action":"harvest","summary":"good-harvest","bonus":1.560000000000001},{"rt":494.69999999925494,"stimulus":"\n                    <p><b>Action: <em>harvest</em></b></p>\n                    <p>This is the bee that you just saw.</p>\n                    <img src=\"bees-with-color/bee-A1DM.svg\" width=\"200\">\n                    <p><span class=\"greenText\"><b>Successful harvest!</b></span><br>Your pay has increased by $0.02. Your bonus pay is now $0.86.</p>\n            ","response":0,"trial_type":"html-button-response","trial_index":78,"time_elapsed":349566,"internal_node_id":"0.0-4.0-1.33","subject_id":"5fb3a8e0bb651604a052d591","study_id":"60edd13110225f80f9f3709b","session_id":"6196c1f4bb76498b082fdf10","condition":"full-information","relevant_dimensions":["pattern","legs"],"bee_group":{"antennae":"X","wings":"X","pattern":"S","legs":"M"},"bonus":1.560000000000001},{"rt":940.9000000022352,"stimulus":"bees-with-color/bee-B1DF.svg","response":0,"trial_type":"image-button-response","trial_index":79,"time_elapsed":350507,"internal_node_id":"0.0-4.0-0.34","subject_id":"5fb3a8e0bb651604a052d591","study_id":"60edd13110225f80f9f3709b","session_id":"6196c1f4bb76498b082fdf10","condition":"full-information","relevant_dimensions":["pattern","legs"],"bee_group":{"antennae":"X","wings":"X","pattern":"S","legs":"M"},"action":"harvest","summary":"good-harvest","bonus":1.560000000000001},{"rt":430.69999999925494,"stimulus":"\n                    <p><b>Action: <em>harvest</em></b></p>\n                    <p>This is the bee that you just saw.</p>\n                    <img src=\"bees-with-color/bee-B1DF.svg\" width=\"200\">\n                    <p><span class=\"greenText\"><b>Successful harvest!</b></span><br>Your pay has increased by $0.02. Your bonus pay is now $0.88.</p>\n            ","response":0,"trial_type":"html-button-response","trial_index":80,"time_elapsed":350939,"internal_node_id":"0.0-4.0-1.34","subject_id":"5fb3a8e0bb651604a052d591","study_id":"60edd13110225f80f9f3709b","session_id":"6196c1f4bb76498b082fdf10","condition":"full-information","relevant_dimensions":["pattern","legs"],"bee_group":{"antennae":"X","wings":"X","pattern":"S","legs":"M"},"bonus":1.560000000000001},{"rt":851,"stimulus":"bees-with-color/bee-B2DM.svg","response":0,"trial_type":"image-button-response","trial_index":81,"time_elapsed":351791,"internal_node_id":"0.0-4.0-0.35","subject_id":"5fb3a8e0bb651604a052d591","study_id":"60edd13110225f80f9f3709b","session_id":"6196c1f4bb76498b082fdf10","condition":"full-information","relevant_dimensions":["pattern","legs"],"bee_group":{"antennae":"X","wings":"X","pattern":"S","legs":"M"},"action":"harvest","summary":"good-harvest","bonus":1.560000000000001},{"rt":767.5,"stimulus":"\n                    <p><b>Action: <em>harvest</em></b></p>\n                    <p>This is the bee that you just saw.</p>\n                    <img src=\"bees-with-color/bee-B2DM.svg\" width=\"200\">\n                    <p><span class=\"greenText\"><b>Successful harvest!</b></span><br>Your pay has increased by $0.02. Your bonus pay is now $0.90.</p>\n            ","response":0,"trial_type":"html-button-response","trial_index":82,"time_elapsed":352559,"internal_node_id":"0.0-4.0-1.35","subject_id":"5fb3a8e0bb651604a052d591","study_id":"60edd13110225f80f9f3709b","session_id":"6196c1f4bb76498b082fdf10","condition":"full-information","relevant_dimensions":["pattern","legs"],"bee_group":{"antennae":"X","wings":"X","pattern":"S","legs":"M"},"bonus":1.560000000000001},{"rt":1041.199999999255,"stimulus":"bees-with-color/bee-A2SF.svg","response":1,"trial_type":"image-button-response","trial_index":83,"time_elapsed":353601,"internal_node_id":"0.0-4.0-0.36","subject_id":"5fb3a8e0bb651604a052d591","study_id":"60edd13110225f80f9f3709b","session_id":"6196c1f4bb76498b082fdf10","condition":"full-information","relevant_dimensions":["pattern","legs"],"bee_group":{"antennae":"X","wings":"X","pattern":"S","legs":"M"},"action":"avoid","summary":"bad-avoid","bonus":1.560000000000001},{"rt":1359.699999999255,"stimulus":"\n                    <p><b>Action: <em>avoid</em></b></p>\n                    <p>This is the bee that you just saw.</p>\n                    <img src=\"bees-with-color/bee-A2SF.svg\" width=\"200\">\n                    <p><span class=\"redText\">Bad choice,</span> the bee was friendly.<br>Your bonus pay is unchanged, and remains at $0.90.</p>\n            ","response":0,"trial_type":"html-button-response","trial_index":84,"time_elapsed":354962,"internal_node_id":"0.0-4.0-1.36","subject_id":"5fb3a8e0bb651604a052d591","study_id":"60edd13110225f80f9f3709b","session_id":"6196c1f4bb76498b082fdf10","condition":"full-information","relevant_dimensions":["pattern","legs"],"bee_group":{"antennae":"X","wings":"X","pattern":"S","legs":"M"},"bonus":1.560000000000001},{"rt":11894.400000002235,"stimulus":"bees-with-color/bee-B2SF.svg","response":1,"trial_type":"image-button-response","trial_index":85,"time_elapsed":366857,"internal_node_id":"0.0-4.0-0.37","subject_id":"5fb3a8e0bb651604a052d591","study_id":"60edd13110225f80f9f3709b","session_id":"6196c1f4bb76498b082fdf10","condition":"full-information","relevant_dimensions":["pattern","legs"],"bee_group":{"antennae":"X","wings":"X","pattern":"S","legs":"M"},"action":"avoid","summary":"bad-avoid","bonus":1.560000000000001},{"rt":1192.5,"stimulus":"\n                    <p><b>Action: <em>avoid</em></b></p>\n                    <p>This is the bee that you just saw.</p>\n                    <img src=\"bees-with-color/bee-B2SF.svg\" width=\"200\">\n                    <p><span class=\"redText\">Bad choice,</span> the bee was friendly.<br>Your bonus pay is unchanged, and remains at $0.90.</p>\n            ","response":0,"trial_type":"html-button-response","trial_index":86,"time_elapsed":368050,"internal_node_id":"0.0-4.0-1.37","subject_id":"5fb3a8e0bb651604a052d591","study_id":"60edd13110225f80f9f3709b","session_id":"6196c1f4bb76498b082fdf10","condition":"full-information","relevant_dimensions":["pattern","legs"],"bee_group":{"antennae":"X","wings":"X","pattern":"S","legs":"M"},"bonus":1.560000000000001},{"rt":1233.3999999985099,"stimulus":"bees-with-color/bee-A1SM.svg","response":1,"trial_type":"image-button-response","trial_index":87,"time_elapsed":369285,"internal_node_id":"0.0-4.0-0.38","subject_id":"5fb3a8e0bb651604a052d591","study_id":"60edd13110225f80f9f3709b","session_id":"6196c1f4bb76498b082fdf10","condition":"full-information","relevant_dimensions":["pattern","legs"],"bee_group":{"antennae":"X","wings":"X","pattern":"S","legs":"M"},"action":"avoid","summary":"good-avoid","bonus":1.560000000000001},{"rt":1041.5,"stimulus":"\n                    <p><b>Action: <em>avoid</em></b></p>\n                    <p>This is the bee that you just saw.</p>\n                    <img src=\"bees-with-color/bee-A1SM.svg\" width=\"200\">\n                    <p><span class=\"greenText\">Good choice!</span>  This bee would have stung you.<br>Your bonus pay is unchanged, and remains at $0.90.</p>\n            ","response":0,"trial_type":"html-button-response","trial_index":88,"time_elapsed":370328,"internal_node_id":"0.0-4.0-1.38","subject_id":"5fb3a8e0bb651604a052d591","study_id":"60edd13110225f80f9f3709b","session_id":"6196c1f4bb76498b082fdf10","condition":"full-information","relevant_dimensions":["pattern","legs"],"bee_group":{"antennae":"X","wings":"X","pattern":"S","legs":"M"},"bonus":1.560000000000001},{"rt":1168.199999999255,"stimulus":"bees-with-color/bee-A2DF.svg","response":0,"trial_type":"image-button-response","trial_index":89,"time_elapsed":371497,"internal_node_id":"0.0-4.0-0.39","subject_id":"5fb3a8e0bb651604a052d591","study_id":"60edd13110225f80f9f3709b","session_id":"6196c1f4bb76498b082fdf10","condition":"full-information","relevant_dimensions":["pattern","legs"],"bee_group":{"antennae":"X","wings":"X","pattern":"S","legs":"M"},"action":"harvest","summary":"good-harvest","bonus":1.560000000000001},{"rt":610.6999999992549,"stimulus":"\n                    <p><b>Action: <em>harvest</em></b></p>\n                    <p>This is the bee that you just saw.</p>\n                    <img src=\"bees-with-color/bee-A2DF.svg\" width=\"200\">\n                    <p><span class=\"greenText\"><b>Successful harvest!</b></span><br>Your pay has increased by $0.02. Your bonus pay is now $0.92.</p>\n            ","response":0,"trial_type":"html-button-response","trial_index":90,"time_elapsed":372108,"internal_node_id":"0.0-4.0-1.39","subject_id":"5fb3a8e0bb651604a052d591","study_id":"60edd13110225f80f9f3709b","session_id":"6196c1f4bb76498b082fdf10","condition":"full-information","relevant_dimensions":["pattern","legs"],"bee_group":{"antennae":"X","wings":"X","pattern":"S","legs":"M"},"bonus":1.560000000000001},{"rt":1042.5999999977648,"stimulus":"bees-with-color/bee-B1DM.svg","response":0,"trial_type":"image-button-response","trial_index":91,"time_elapsed":373152,"internal_node_id":"0.0-4.0-0.40","subject_id":"5fb3a8e0bb651604a052d591","study_id":"60edd13110225f80f9f3709b","session_id":"6196c1f4bb76498b082fdf10","condition":"full-information","relevant_dimensions":["pattern","legs"],"bee_group":{"antennae":"X","wings":"X","pattern":"S","legs":"M"},"action":"harvest","summary":"good-harvest","bonus":1.560000000000001},{"rt":443,"stimulus":"\n                    <p><b>Action: <em>harvest</em></b></p>\n                    <p>This is the bee that you just saw.</p>\n                    <img src=\"bees-with-color/bee-B1DM.svg\" width=\"200\">\n                    <p><span class=\"greenText\"><b>Successful harvest!</b></span><br>Your pay has increased by $0.02. Your bonus pay is now $0.94.</p>\n            ","response":0,"trial_type":"html-button-response","trial_index":92,"time_elapsed":373596,"internal_node_id":"0.0-4.0-1.40","subject_id":"5fb3a8e0bb651604a052d591","study_id":"60edd13110225f80f9f3709b","session_id":"6196c1f4bb76498b082fdf10","condition":"full-information","relevant_dimensions":["pattern","legs"],"bee_group":{"antennae":"X","wings":"X","pattern":"S","legs":"M"},"bonus":1.560000000000001},{"rt":628.1000000014901,"stimulus":"bees-with-color/bee-A2DM.svg","response":0,"trial_type":"image-button-response","trial_index":93,"time_elapsed":374225,"internal_node_id":"0.0-4.0-0.41","subject_id":"5fb3a8e0bb651604a052d591","study_id":"60edd13110225f80f9f3709b","session_id":"6196c1f4bb76498b082fdf10","condition":"full-information","relevant_dimensions":["pattern","legs"],"bee_group":{"antennae":"X","wings":"X","pattern":"S","legs":"M"},"action":"harvest","summary":"good-harvest","bonus":1.560000000000001},{"rt":466.9000000022352,"stimulus":"\n                    <p><b>Action: <em>harvest</em></b></p>\n                    <p>This is the bee that you just saw.</p>\n                    <img src=\"bees-with-color/bee-A2DM.svg\" width=\"200\">\n                    <p><span class=\"greenText\"><b>Successful harvest!</b></span><br>Your pay has increased by $0.02. Your bonus pay is now $0.96.</p>\n            ","response":0,"trial_type":"html-button-response","trial_index":94,"time_elapsed":374692,"internal_node_id":"0.0-4.0-1.41","subject_id":"5fb3a8e0bb651604a052d591","study_id":"60edd13110225f80f9f3709b","session_id":"6196c1f4bb76498b082fdf10","condition":"full-information","relevant_dimensions":["pattern","legs"],"bee_group":{"antennae":"X","wings":"X","pattern":"S","legs":"M"},"bonus":1.560000000000001},{"rt":503.4000000022352,"stimulus":"bees-with-color/bee-A1DF.svg","response":0,"trial_type":"image-button-response","trial_index":95,"time_elapsed":375196,"internal_node_id":"0.0-4.0-0.42","subject_id":"5fb3a8e0bb651604a052d591","study_id":"60edd13110225f80f9f3709b","session_id":"6196c1f4bb76498b082fdf10","condition":"full-information","relevant_dimensions":["pattern","legs"],"bee_group":{"antennae":"X","wings":"X","pattern":"S","legs":"M"},"action":"harvest","summary":"good-harvest","bonus":1.560000000000001},{"rt":478.19999999925494,"stimulus":"\n                    <p><b>Action: <em>harvest</em></b></p>\n                    <p>This is the bee that you just saw.</p>\n                    <img src=\"bees-with-color/bee-A1DF.svg\" width=\"200\">\n                    <p><span class=\"greenText\"><b>Successful harvest!</b></span><br>Your pay has increased by $0.02. Your bonus pay is now $0.98.</p>\n            ","response":0,"trial_type":"html-button-response","trial_index":96,"time_elapsed":375675,"internal_node_id":"0.0-4.0-1.42","subject_id":"5fb3a8e0bb651604a052d591","study_id":"60edd13110225f80f9f3709b","session_id":"6196c1f4bb76498b082fdf10","condition":"full-information","relevant_dimensions":["pattern","legs"],"bee_group":{"antennae":"X","wings":"X","pattern":"S","legs":"M"},"bonus":1.560000000000001},{"rt":1684.1000000014901,"stimulus":"bees-with-color/bee-B1SM.svg","response":0,"trial_type":"image-button-response","trial_index":97,"time_elapsed":377360,"internal_node_id":"0.0-4.0-0.43","subject_id":"5fb3a8e0bb651604a052d591","study_id":"60edd13110225f80f9f3709b","session_id":"6196c1f4bb76498b082fdf10","condition":"full-information","relevant_dimensions":["pattern","legs"],"bee_group":{"antennae":"X","wings":"X","pattern":"S","legs":"M"},"action":"harvest","summary":"bad-harvest","bonus":1.560000000000001},{"rt":923.8000000007451,"stimulus":"\n                    <p><b>Action: <em>harvest</em></b></p>\n                    <p>This is the bee that you just saw.</p>\n                    <img src=\"bees-with-color/bee-B1SM.svg\" width=\"200\">\n                    <p><span class=\"redText\">Bad choice, the bee was angry.</span><br><b>You have been stung!</b><br>Your pay has been decreased by $0.10. Your bonus pay is now $0.88.</p>\n            ","response":0,"trial_type":"html-button-response","trial_index":98,"time_elapsed":378285,"internal_node_id":"0.0-4.0-1.43","subject_id":"5fb3a8e0bb651604a052d591","study_id":"60edd13110225f80f9f3709b","session_id":"6196c1f4bb76498b082fdf10","condition":"full-information","relevant_dimensions":["pattern","legs"],"bee_group":{"antennae":"X","wings":"X","pattern":"S","legs":"M"},"bonus":1.560000000000001},{"rt":1023.5,"stimulus":"bees-with-color/bee-B2DF.svg","response":0,"trial_type":"image-button-response","trial_index":99,"time_elapsed":379309,"internal_node_id":"0.0-4.0-0.44","subject_id":"5fb3a8e0bb651604a052d591","study_id":"60edd13110225f80f9f3709b","session_id":"6196c1f4bb76498b082fdf10","condition":"full-information","relevant_dimensions":["pattern","legs"],"bee_group":{"antennae":"X","wings":"X","pattern":"S","legs":"M"},"action":"harvest","summary":"good-harvest","bonus":1.560000000000001},{"rt":449.19999999925494,"stimulus":"\n                    <p><b>Action: <em>harvest</em></b></p>\n                    <p>This is the bee that you just saw.</p>\n                    <img src=\"bees-with-color/bee-B2DF.svg\" width=\"200\">\n                    <p><span class=\"greenText\"><b>Successful harvest!</b></span><br>Your pay has increased by $0.02. Your bonus pay is now $0.90.</p>\n            ","response":0,"trial_type":"html-button-response","trial_index":100,"time_elapsed":379759,"internal_node_id":"0.0-4.0-1.44","subject_id":"5fb3a8e0bb651604a052d591","study_id":"60edd13110225f80f9f3709b","session_id":"6196c1f4bb76498b082fdf10","condition":"full-information","relevant_dimensions":["pattern","legs"],"bee_group":{"antennae":"X","wings":"X","pattern":"S","legs":"M"},"bonus":1.560000000000001},{"rt":754.2000000029802,"stimulus":"bees-with-color/bee-B2SM.svg","response":1,"trial_type":"image-button-response","trial_index":101,"time_elapsed":380514,"internal_node_id":"0.0-4.0-0.45","subject_id":"5fb3a8e0bb651604a052d591","study_id":"60edd13110225f80f9f3709b","session_id":"6196c1f4bb76498b082fdf10","condition":"full-information","relevant_dimensions":["pattern","legs"],"bee_group":{"antennae":"X","wings":"X","pattern":"S","legs":"M"},"action":"avoid","summary":"good-avoid","bonus":1.560000000000001},{"rt":490.8999999985099,"stimulus":"\n                    <p><b>Action: <em>avoid</em></b></p>\n                    <p>This is the bee that you just saw.</p>\n                    <img src=\"bees-with-color/bee-B2SM.svg\" width=\"200\">\n                    <p><span class=\"greenText\">Good choice!</span>  This bee would have stung you.<br>Your bonus pay is unchanged, and remains at $0.90.</p>\n            ","response":0,"trial_type":"html-button-response","trial_index":102,"time_elapsed":381006,"internal_node_id":"0.0-4.0-1.45","subject_id":"5fb3a8e0bb651604a052d591","study_id":"60edd13110225f80f9f3709b","session_id":"6196c1f4bb76498b082fdf10","condition":"full-information","relevant_dimensions":["pattern","legs"],"bee_group":{"antennae":"X","wings":"X","pattern":"S","legs":"M"},"bonus":1.560000000000001},{"rt":1581.800000000745,"stimulus":"bees-with-color/bee-B1SF.svg","response":0,"trial_type":"image-button-response","trial_index":103,"time_elapsed":382589,"internal_node_id":"0.0-4.0-0.46","subject_id":"5fb3a8e0bb651604a052d591","study_id":"60edd13110225f80f9f3709b","session_id":"6196c1f4bb76498b082fdf10","condition":"full-information","relevant_dimensions":["pattern","legs"],"bee_group":{"antennae":"X","wings":"X","pattern":"S","legs":"M"},"action":"harvest","summary":"good-harvest","bonus":1.560000000000001},{"rt":472.0999999977648,"stimulus":"\n                    <p><b>Action: <em>harvest</em></b></p>\n                    <p>This is the bee that you just saw.</p>\n                    <img src=\"bees-with-color/bee-B1SF.svg\" width=\"200\">\n                    <p><span class=\"greenText\"><b>Successful harvest!</b></span><br>Your pay has increased by $0.02. Your bonus pay is now $0.92.</p>\n            ","response":0,"trial_type":"html-button-response","trial_index":104,"time_elapsed":383062,"internal_node_id":"0.0-4.0-1.46","subject_id":"5fb3a8e0bb651604a052d591","study_id":"60edd13110225f80f9f3709b","session_id":"6196c1f4bb76498b082fdf10","condition":"full-information","relevant_dimensions":["pattern","legs"],"bee_group":{"antennae":"X","wings":"X","pattern":"S","legs":"M"},"bonus":1.560000000000001},{"rt":880.8999999985099,"stimulus":"bees-with-color/bee-A1SF.svg","response":0,"trial_type":"image-button-response","trial_index":105,"time_elapsed":383944,"internal_node_id":"0.0-4.0-0.47","subject_id":"5fb3a8e0bb651604a052d591","study_id":"60edd13110225f80f9f3709b","session_id":"6196c1f4bb76498b082fdf10","condition":"full-information","relevant_dimensions":["pattern","legs"],"bee_group":{"antennae":"X","wings":"X","pattern":"S","legs":"M"},"action":"harvest","summary":"good-harvest","bonus":1.560000000000001},{"rt":502,"stimulus":"\n                    <p><b>Action: <em>harvest</em></b></p>\n                    <p>This is the bee that you just saw.</p>\n                    <img src=\"bees-with-color/bee-A1SF.svg\" width=\"200\">\n                    <p><span class=\"greenText\"><b>Successful harvest!</b></span><br>Your pay has increased by $0.02. Your bonus pay is now $0.94.</p>\n            ","response":0,"trial_type":"html-button-response","trial_index":106,"time_elapsed":384447,"internal_node_id":"0.0-4.0-1.47","subject_id":"5fb3a8e0bb651604a052d591","study_id":"60edd13110225f80f9f3709b","session_id":"6196c1f4bb76498b082fdf10","condition":"full-information","relevant_dimensions":["pattern","legs"],"bee_group":{"antennae":"X","wings":"X","pattern":"S","legs":"M"},"bonus":1.560000000000001},{"rt":1193.1000000014901,"stimulus":"bees-with-color/bee-B2DM.svg","response":0,"trial_type":"image-button-response","trial_index":107,"time_elapsed":385641,"internal_node_id":"0.0-4.0-0.48","subject_id":"5fb3a8e0bb651604a052d591","study_id":"60edd13110225f80f9f3709b","session_id":"6196c1f4bb76498b082fdf10","condition":"full-information","relevant_dimensions":["pattern","legs"],"bee_group":{"antennae":"X","wings":"X","pattern":"S","legs":"M"},"action":"harvest","summary":"good-harvest","bonus":1.560000000000001},{"rt":430.1000000014901,"stimulus":"\n                    <p><b>Action: <em>harvest</em></b></p>\n                    <p>This is the bee that you just saw.</p>\n                    <img src=\"bees-with-color/bee-B2DM.svg\" width=\"200\">\n                    <p><span class=\"greenText\"><b>Successful harvest!</b></span><br>Your pay has increased by $0.02. Your bonus pay is now $0.96.</p>\n            ","response":0,"trial_type":"html-button-response","trial_index":108,"time_elapsed":386072,"internal_node_id":"0.0-4.0-1.48","subject_id":"5fb3a8e0bb651604a052d591","study_id":"60edd13110225f80f9f3709b","session_id":"6196c1f4bb76498b082fdf10","condition":"full-information","relevant_dimensions":["pattern","legs"],"bee_group":{"antennae":"X","wings":"X","pattern":"S","legs":"M"},"bonus":1.560000000000001},{"rt":1265.1000000014901,"stimulus":"bees-with-color/bee-B2DF.svg","response":0,"trial_type":"image-button-response","trial_index":109,"time_elapsed":387338,"internal_node_id":"0.0-4.0-0.49","subject_id":"5fb3a8e0bb651604a052d591","study_id":"60edd13110225f80f9f3709b","session_id":"6196c1f4bb76498b082fdf10","condition":"full-information","relevant_dimensions":["pattern","legs"],"bee_group":{"antennae":"X","wings":"X","pattern":"S","legs":"M"},"action":"harvest","summary":"good-harvest","bonus":1.560000000000001},{"rt":1677.7000000029802,"stimulus":"\n                    <p><b>Action: <em>harvest</em></b></p>\n                    <p>This is the bee that you just saw.</p>\n                    <img src=\"bees-with-color/bee-B2DF.svg\" width=\"200\">\n                    <p><span class=\"greenText\"><b>Successful harvest!</b></span><br>Your pay has increased by $0.02. Your bonus pay is now $0.98.</p>\n            ","response":0,"trial_type":"html-button-response","trial_index":110,"time_elapsed":389016,"internal_node_id":"0.0-4.0-1.49","subject_id":"5fb3a8e0bb651604a052d591","study_id":"60edd13110225f80f9f3709b","session_id":"6196c1f4bb76498b082fdf10","condition":"full-information","relevant_dimensions":["pattern","legs"],"bee_group":{"antennae":"X","wings":"X","pattern":"S","legs":"M"},"bonus":1.560000000000001},{"rt":10676.900000002235,"stimulus":"bees-with-color/bee-A2SM.svg","response":1,"trial_type":"image-button-response","trial_index":111,"time_elapsed":399694,"internal_node_id":"0.0-4.0-0.50","subject_id":"5fb3a8e0bb651604a052d591","study_id":"60edd13110225f80f9f3709b","session_id":"6196c1f4bb76498b082fdf10","condition":"full-information","relevant_dimensions":["pattern","legs"],"bee_group":{"antennae":"X","wings":"X","pattern":"S","legs":"M"},"action":"avoid","summary":"good-avoid","bonus":1.560000000000001},{"rt":719.1000000014901,"stimulus":"\n                    <p><b>Action: <em>avoid</em></b></p>\n                    <p>This is the bee that you just saw.</p>\n                    <img src=\"bees-with-color/bee-A2SM.svg\" width=\"200\">\n                    <p><span class=\"greenText\">Good choice!</span>  This bee would have stung you.<br>Your bonus pay is unchanged, and remains at $0.98.</p>\n            ","response":0,"trial_type":"html-button-response","trial_index":112,"time_elapsed":400414,"internal_node_id":"0.0-4.0-1.50","subject_id":"5fb3a8e0bb651604a052d591","study_id":"60edd13110225f80f9f3709b","session_id":"6196c1f4bb76498b082fdf10","condition":"full-information","relevant_dimensions":["pattern","legs"],"bee_group":{"antennae":"X","wings":"X","pattern":"S","legs":"M"},"bonus":1.560000000000001},{"rt":1485.699999999255,"stimulus":"bees-with-color/bee-A1SF.svg","response":0,"trial_type":"image-button-response","trial_index":113,"time_elapsed":401901,"internal_node_id":"0.0-4.0-0.51","subject_id":"5fb3a8e0bb651604a052d591","study_id":"60edd13110225f80f9f3709b","session_id":"6196c1f4bb76498b082fdf10","condition":"full-information","relevant_dimensions":["pattern","legs"],"bee_group":{"antennae":"X","wings":"X","pattern":"S","legs":"M"},"action":"harvest","summary":"good-harvest","bonus":1.560000000000001},{"rt":622.8000000007451,"stimulus":"\n                    <p><b>Action: <em>harvest</em></b></p>\n                    <p>This is the bee that you just saw.</p>\n                    <img src=\"bees-with-color/bee-A1SF.svg\" width=\"200\">\n                    <p><span class=\"greenText\"><b>Successful harvest!</b></span><br>Your pay has increased by $0.02. Your bonus pay is now $1.00.</p>\n            ","response":0,"trial_type":"html-button-response","trial_index":114,"time_elapsed":402525,"internal_node_id":"0.0-4.0-1.51","subject_id":"5fb3a8e0bb651604a052d591","study_id":"60edd13110225f80f9f3709b","session_id":"6196c1f4bb76498b082fdf10","condition":"full-information","relevant_dimensions":["pattern","legs"],"bee_group":{"antennae":"X","wings":"X","pattern":"S","legs":"M"},"bonus":1.560000000000001},{"rt":754.3000000007451,"stimulus":"bees-with-color/bee-A2DM.svg","response":0,"trial_type":"image-button-response","trial_index":115,"time_elapsed":403280,"internal_node_id":"0.0-4.0-0.52","subject_id":"5fb3a8e0bb651604a052d591","study_id":"60edd13110225f80f9f3709b","session_id":"6196c1f4bb76498b082fdf10","condition":"full-information","relevant_dimensions":["pattern","legs"],"bee_group":{"antennae":"X","wings":"X","pattern":"S","legs":"M"},"action":"harvest","summary":"good-harvest","bonus":1.560000000000001},{"rt":388.3999999985099,"stimulus":"\n                    <p><b>Action: <em>harvest</em></b></p>\n                    <p>This is the bee that you just saw.</p>\n                    <img src=\"bees-with-color/bee-A2DM.svg\" width=\"200\">\n                    <p><span class=\"greenText\"><b>Successful harvest!</b></span><br>Your pay has increased by $0.02. Your bonus pay is now $1.02.</p>\n            ","response":0,"trial_type":"html-button-response","trial_index":116,"time_elapsed":403670,"internal_node_id":"0.0-4.0-1.52","subject_id":"5fb3a8e0bb651604a052d591","study_id":"60edd13110225f80f9f3709b","session_id":"6196c1f4bb76498b082fdf10","condition":"full-information","relevant_dimensions":["pattern","legs"],"bee_group":{"antennae":"X","wings":"X","pattern":"S","legs":"M"},"bonus":1.560000000000001},{"rt":863,"stimulus":"bees-with-color/bee-B1DF.svg","response":0,"trial_type":"image-button-response","trial_index":117,"time_elapsed":404534,"internal_node_id":"0.0-4.0-0.53","subject_id":"5fb3a8e0bb651604a052d591","study_id":"60edd13110225f80f9f3709b","session_id":"6196c1f4bb76498b082fdf10","condition":"full-information","relevant_dimensions":["pattern","legs"],"bee_group":{"antennae":"X","wings":"X","pattern":"S","legs":"M"},"action":"harvest","summary":"good-harvest","bonus":1.560000000000001},{"rt":1125.4000000022352,"stimulus":"\n                    <p><b>Action: <em>harvest</em></b></p>\n                    <p>This is the bee that you just saw.</p>\n                    <img src=\"bees-with-color/bee-B1DF.svg\" width=\"200\">\n                    <p><span class=\"greenText\"><b>Successful harvest!</b></span><br>Your pay has increased by $0.02. Your bonus pay is now $1.04.</p>\n            ","response":0,"trial_type":"html-button-response","trial_index":118,"time_elapsed":405661,"internal_node_id":"0.0-4.0-1.53","subject_id":"5fb3a8e0bb651604a052d591","study_id":"60edd13110225f80f9f3709b","session_id":"6196c1f4bb76498b082fdf10","condition":"full-information","relevant_dimensions":["pattern","legs"],"bee_group":{"antennae":"X","wings":"X","pattern":"S","legs":"M"},"bonus":1.560000000000001},{"rt":2103.300000000745,"stimulus":"bees-with-color/bee-A1DM.svg","response":0,"trial_type":"image-button-response","trial_index":119,"time_elapsed":407765,"internal_node_id":"0.0-4.0-0.54","subject_id":"5fb3a8e0bb651604a052d591","study_id":"60edd13110225f80f9f3709b","session_id":"6196c1f4bb76498b082fdf10","condition":"full-information","relevant_dimensions":["pattern","legs"],"bee_group":{"antennae":"X","wings":"X","pattern":"S","legs":"M"},"action":"harvest","summary":"good-harvest","bonus":1.560000000000001},{"rt":598.8000000007451,"stimulus":"\n                    <p><b>Action: <em>harvest</em></b></p>\n                    <p>This is the bee that you just saw.</p>\n                    <img src=\"bees-with-color/bee-A1DM.svg\" width=\"200\">\n                    <p><span class=\"greenText\"><b>Successful harvest!</b></span><br>Your pay has increased by $0.02. Your bonus pay is now $1.06.</p>\n            ","response":0,"trial_type":"html-button-response","trial_index":120,"time_elapsed":408365,"internal_node_id":"0.0-4.0-1.54","subject_id":"5fb3a8e0bb651604a052d591","study_id":"60edd13110225f80f9f3709b","session_id":"6196c1f4bb76498b082fdf10","condition":"full-information","relevant_dimensions":["pattern","legs"],"bee_group":{"antennae":"X","wings":"X","pattern":"S","legs":"M"},"bonus":1.560000000000001},{"rt":1053.300000000745,"stimulus":"bees-with-color/bee-A1SM.svg","response":1,"trial_type":"image-button-response","trial_index":121,"time_elapsed":409419,"internal_node_id":"0.0-4.0-0.55","subject_id":"5fb3a8e0bb651604a052d591","study_id":"60edd13110225f80f9f3709b","session_id":"6196c1f4bb76498b082fdf10","condition":"full-information","relevant_dimensions":["pattern","legs"],"bee_group":{"antennae":"X","wings":"X","pattern":"S","legs":"M"},"action":"avoid","summary":"good-avoid","bonus":1.560000000000001},{"rt":484.69999999925494,"stimulus":"\n                    <p><b>Action: <em>avoid</em></b></p>\n                    <p>This is the bee that you just saw.</p>\n                    <img src=\"bees-with-color/bee-A1SM.svg\" width=\"200\">\n                    <p><span class=\"greenText\">Good choice!</span>  This bee would have stung you.<br>Your bonus pay is unchanged, and remains at $1.06.</p>\n            ","response":0,"trial_type":"html-button-response","trial_index":122,"time_elapsed":409905,"internal_node_id":"0.0-4.0-1.55","subject_id":"5fb3a8e0bb651604a052d591","study_id":"60edd13110225f80f9f3709b","session_id":"6196c1f4bb76498b082fdf10","condition":"full-information","relevant_dimensions":["pattern","legs"],"bee_group":{"antennae":"X","wings":"X","pattern":"S","legs":"M"},"bonus":1.560000000000001},{"rt":6234.099999997765,"stimulus":"bees-with-color/bee-B2SF.svg","response":1,"trial_type":"image-button-response","trial_index":123,"time_elapsed":416140,"internal_node_id":"0.0-4.0-0.56","subject_id":"5fb3a8e0bb651604a052d591","study_id":"60edd13110225f80f9f3709b","session_id":"6196c1f4bb76498b082fdf10","condition":"full-information","relevant_dimensions":["pattern","legs"],"bee_group":{"antennae":"X","wings":"X","pattern":"S","legs":"M"},"action":"avoid","summary":"bad-avoid","bonus":1.560000000000001},{"rt":712.4000000022352,"stimulus":"\n                    <p><b>Action: <em>avoid</em></b></p>\n                    <p>This is the bee that you just saw.</p>\n                    <img src=\"bees-with-color/bee-B2SF.svg\" width=\"200\">\n                    <p><span class=\"redText\">Bad choice,</span> the bee was friendly.<br>Your bonus pay is unchanged, and remains at $1.06.</p>\n            ","response":0,"trial_type":"html-button-response","trial_index":124,"time_elapsed":416853,"internal_node_id":"0.0-4.0-1.56","subject_id":"5fb3a8e0bb651604a052d591","study_id":"60edd13110225f80f9f3709b","session_id":"6196c1f4bb76498b082fdf10","condition":"full-information","relevant_dimensions":["pattern","legs"],"bee_group":{"antennae":"X","wings":"X","pattern":"S","legs":"M"},"bonus":1.560000000000001},{"rt":802.5999999977648,"stimulus":"bees-with-color/bee-A1DF.svg","response":0,"trial_type":"image-button-response","trial_index":125,"time_elapsed":417657,"internal_node_id":"0.0-4.0-0.57","subject_id":"5fb3a8e0bb651604a052d591","study_id":"60edd13110225f80f9f3709b","session_id":"6196c1f4bb76498b082fdf10","condition":"full-information","relevant_dimensions":["pattern","legs"],"bee_group":{"antennae":"X","wings":"X","pattern":"S","legs":"M"},"action":"harvest","summary":"good-harvest","bonus":1.560000000000001},{"rt":478.19999999925494,"stimulus":"\n                    <p><b>Action: <em>harvest</em></b></p>\n                    <p>This is the bee that you just saw.</p>\n                    <img src=\"bees-with-color/bee-A1DF.svg\" width=\"200\">\n                    <p><span class=\"greenText\"><b>Successful harvest!</b></span><br>Your pay has increased by $0.02. Your bonus pay is now $1.08.</p>\n            ","response":0,"trial_type":"html-button-response","trial_index":126,"time_elapsed":418136,"internal_node_id":"0.0-4.0-1.57","subject_id":"5fb3a8e0bb651604a052d591","study_id":"60edd13110225f80f9f3709b","session_id":"6196c1f4bb76498b082fdf10","condition":"full-information","relevant_dimensions":["pattern","legs"],"bee_group":{"antennae":"X","wings":"X","pattern":"S","legs":"M"},"bonus":1.560000000000001},{"rt":840.0999999977648,"stimulus":"bees-with-color/bee-B1SF.svg","response":1,"trial_type":"image-button-response","trial_index":127,"time_elapsed":418977,"internal_node_id":"0.0-4.0-0.58","subject_id":"5fb3a8e0bb651604a052d591","study_id":"60edd13110225f80f9f3709b","session_id":"6196c1f4bb76498b082fdf10","condition":"full-information","relevant_dimensions":["pattern","legs"],"bee_group":{"antennae":"X","wings":"X","pattern":"S","legs":"M"},"action":"avoid","summary":"bad-avoid","bonus":1.560000000000001},{"rt":500.6000000014901,"stimulus":"\n                    <p><b>Action: <em>avoid</em></b></p>\n                    <p>This is the bee that you just saw.</p>\n                    <img src=\"bees-with-color/bee-B1SF.svg\" width=\"200\">\n                    <p><span class=\"redText\">Bad choice,</span> the bee was friendly.<br>Your bonus pay is unchanged, and remains at $1.08.</p>\n            ","response":0,"trial_type":"html-button-response","trial_index":128,"time_elapsed":419479,"internal_node_id":"0.0-4.0-1.58","subject_id":"5fb3a8e0bb651604a052d591","study_id":"60edd13110225f80f9f3709b","session_id":"6196c1f4bb76498b082fdf10","condition":"full-information","relevant_dimensions":["pattern","legs"],"bee_group":{"antennae":"X","wings":"X","pattern":"S","legs":"M"},"bonus":1.560000000000001},{"rt":1180.199999999255,"stimulus":"bees-with-color/bee-B2SM.svg","response":1,"trial_type":"image-button-response","trial_index":129,"time_elapsed":420660,"internal_node_id":"0.0-4.0-0.59","subject_id":"5fb3a8e0bb651604a052d591","study_id":"60edd13110225f80f9f3709b","session_id":"6196c1f4bb76498b082fdf10","condition":"full-information","relevant_dimensions":["pattern","legs"],"bee_group":{"antennae":"X","wings":"X","pattern":"S","legs":"M"},"action":"avoid","summary":"good-avoid","bonus":1.560000000000001},{"rt":814.2999999970198,"stimulus":"\n                    <p><b>Action: <em>avoid</em></b></p>\n                    <p>This is the bee that you just saw.</p>\n                    <img src=\"bees-with-color/bee-B2SM.svg\" width=\"200\">\n                    <p><span class=\"greenText\">Good choice!</span>  This bee would have stung you.<br>Your bonus pay is unchanged, and remains at $1.08.</p>\n            ","response":0,"trial_type":"html-button-response","trial_index":130,"time_elapsed":421475,"internal_node_id":"0.0-4.0-1.59","subject_id":"5fb3a8e0bb651604a052d591","study_id":"60edd13110225f80f9f3709b","session_id":"6196c1f4bb76498b082fdf10","condition":"full-information","relevant_dimensions":["pattern","legs"],"bee_group":{"antennae":"X","wings":"X","pattern":"S","legs":"M"},"bonus":1.560000000000001},{"rt":1049,"stimulus":"bees-with-color/bee-B1SM.svg","response":1,"trial_type":"image-button-response","trial_index":131,"time_elapsed":422525,"internal_node_id":"0.0-4.0-0.60","subject_id":"5fb3a8e0bb651604a052d591","study_id":"60edd13110225f80f9f3709b","session_id":"6196c1f4bb76498b082fdf10","condition":"full-information","relevant_dimensions":["pattern","legs"],"bee_group":{"antennae":"X","wings":"X","pattern":"S","legs":"M"},"action":"avoid","summary":"good-avoid","bonus":1.560000000000001},{"rt":586.7000000029802,"stimulus":"\n                    <p><b>Action: <em>avoid</em></b></p>\n                    <p>This is the bee that you just saw.</p>\n                    <img src=\"bees-with-color/bee-B1SM.svg\" width=\"200\">\n                    <p><span class=\"greenText\">Good choice!</span>  This bee would have stung you.<br>Your bonus pay is unchanged, and remains at $1.08.</p>\n            ","response":0,"trial_type":"html-button-response","trial_index":132,"time_elapsed":423113,"internal_node_id":"0.0-4.0-1.60","subject_id":"5fb3a8e0bb651604a052d591","study_id":"60edd13110225f80f9f3709b","session_id":"6196c1f4bb76498b082fdf10","condition":"full-information","relevant_dimensions":["pattern","legs"],"bee_group":{"antennae":"X","wings":"X","pattern":"S","legs":"M"},"bonus":1.560000000000001},{"rt":730.3000000007451,"stimulus":"bees-with-color/bee-B1DM.svg","response":0,"trial_type":"image-button-response","trial_index":133,"time_elapsed":423844,"internal_node_id":"0.0-4.0-0.61","subject_id":"5fb3a8e0bb651604a052d591","study_id":"60edd13110225f80f9f3709b","session_id":"6196c1f4bb76498b082fdf10","condition":"full-information","relevant_dimensions":["pattern","legs"],"bee_group":{"antennae":"X","wings":"X","pattern":"S","legs":"M"},"action":"harvest","summary":"good-harvest","bonus":1.560000000000001},{"rt":813.6999999992549,"stimulus":"\n                    <p><b>Action: <em>harvest</em></b></p>\n                    <p>This is the bee that you just saw.</p>\n                    <img src=\"bees-with-color/bee-B1DM.svg\" width=\"200\">\n                    <p><span class=\"greenText\"><b>Successful harvest!</b></span><br>Your pay has increased by $0.02. Your bonus pay is now $1.10.</p>\n            ","response":0,"trial_type":"html-button-response","trial_index":134,"time_elapsed":424659,"internal_node_id":"0.0-4.0-1.61","subject_id":"5fb3a8e0bb651604a052d591","study_id":"60edd13110225f80f9f3709b","session_id":"6196c1f4bb76498b082fdf10","condition":"full-information","relevant_dimensions":["pattern","legs"],"bee_group":{"antennae":"X","wings":"X","pattern":"S","legs":"M"},"bonus":1.560000000000001},{"rt":1408.199999999255,"stimulus":"bees-with-color/bee-A2SF.svg","response":0,"trial_type":"image-button-response","trial_index":135,"time_elapsed":426068,"internal_node_id":"0.0-4.0-0.62","subject_id":"5fb3a8e0bb651604a052d591","study_id":"60edd13110225f80f9f3709b","session_id":"6196c1f4bb76498b082fdf10","condition":"full-information","relevant_dimensions":["pattern","legs"],"bee_group":{"antennae":"X","wings":"X","pattern":"S","legs":"M"},"action":"harvest","summary":"good-harvest","bonus":1.560000000000001},{"rt":912.0999999977648,"stimulus":"\n                    <p><b>Action: <em>harvest</em></b></p>\n                    <p>This is the bee that you just saw.</p>\n                    <img src=\"bees-with-color/bee-A2SF.svg\" width=\"200\">\n                    <p><span class=\"greenText\"><b>Successful harvest!</b></span><br>Your pay has increased by $0.02. Your bonus pay is now $1.12.</p>\n            ","response":0,"trial_type":"html-button-response","trial_index":136,"time_elapsed":426981,"internal_node_id":"0.0-4.0-1.62","subject_id":"5fb3a8e0bb651604a052d591","study_id":"60edd13110225f80f9f3709b","session_id":"6196c1f4bb76498b082fdf10","condition":"full-information","relevant_dimensions":["pattern","legs"],"bee_group":{"antennae":"X","wings":"X","pattern":"S","legs":"M"},"bonus":1.560000000000001},{"rt":986.8000000007451,"stimulus":"bees-with-color/bee-A2DF.svg","response":0,"trial_type":"image-button-response","trial_index":137,"time_elapsed":427969,"internal_node_id":"0.0-4.0-0.63","subject_id":"5fb3a8e0bb651604a052d591","study_id":"60edd13110225f80f9f3709b","session_id":"6196c1f4bb76498b082fdf10","condition":"full-information","relevant_dimensions":["pattern","legs"],"bee_group":{"antennae":"X","wings":"X","pattern":"S","legs":"M"},"action":"harvest","summary":"good-harvest","bonus":1.560000000000001},{"rt":425.69999999925494,"stimulus":"\n                    <p><b>Action: <em>harvest</em></b></p>\n                    <p>This is the bee that you just saw.</p>\n                    <img src=\"bees-with-color/bee-A2DF.svg\" width=\"200\">\n                    <p><span class=\"greenText\"><b>Successful harvest!</b></span><br>Your pay has increased by $0.02. Your bonus pay is now $1.14.</p>\n            ","response":0,"trial_type":"html-button-response","trial_index":138,"time_elapsed":428395,"internal_node_id":"0.0-4.0-1.63","subject_id":"5fb3a8e0bb651604a052d591","study_id":"60edd13110225f80f9f3709b","session_id":"6196c1f4bb76498b082fdf10","condition":"full-information","relevant_dimensions":["pattern","legs"],"bee_group":{"antennae":"X","wings":"X","pattern":"S","legs":"M"},"bonus":1.560000000000001},{"rt":10605.099999997765,"stimulus":"You have completed the first part of this experiment.<br><br>You will now begin a shorter second part, in which you will receive no feedback.<br>The same rules regarding bonus pay apply.<br><br>Press any key to begin.","response":" ","trial_type":"html-keyboard-response","trial_index":139,"time_elapsed":439001,"internal_node_id":"0.0-5.0","subject_id":"5fb3a8e0bb651604a052d591","study_id":"60edd13110225f80f9f3709b","session_id":"6196c1f4bb76498b082fdf10","condition":"full-information","relevant_dimensions":["pattern","legs"],"bee_group":{"antennae":"X","wings":"X","pattern":"S","legs":"M"},"bonus":1.560000000000001},{"rt":4563.5,"stimulus":"bees-with-color/bee-B1SM.svg","response":1,"trial_type":"image-button-response","trial_index":140,"time_elapsed":443582,"internal_node_id":"0.0-6.0-0.0","subject_id":"5fb3a8e0bb651604a052d591","study_id":"60edd13110225f80f9f3709b","session_id":"6196c1f4bb76498b082fdf10","condition":"full-information","relevant_dimensions":["pattern","legs"],"bee_group":{"antennae":"X","wings":"X","pattern":"S","legs":"M"},"bonus":1.560000000000001},{"rt":933.3000000007451,"stimulus":"bees-with-color/bee-B2DM.svg","response":0,"trial_type":"image-button-response","trial_index":141,"time_elapsed":444517,"internal_node_id":"0.0-6.0-0.1","subject_id":"5fb3a8e0bb651604a052d591","study_id":"60edd13110225f80f9f3709b","session_id":"6196c1f4bb76498b082fdf10","condition":"full-information","relevant_dimensions":["pattern","legs"],"bee_group":{"antennae":"X","wings":"X","pattern":"S","legs":"M"},"bonus":1.560000000000001},{"rt":1801.199999999255,"stimulus":"bees-with-color/bee-A1SF.svg","response":0,"trial_type":"image-button-response","trial_index":142,"time_elapsed":446321,"internal_node_id":"0.0-6.0-0.2","subject_id":"5fb3a8e0bb651604a052d591","study_id":"60edd13110225f80f9f3709b","session_id":"6196c1f4bb76498b082fdf10","condition":"full-information","relevant_dimensions":["pattern","legs"],"bee_group":{"antennae":"X","wings":"X","pattern":"S","legs":"M"},"bonus":1.560000000000001},{"rt":730.8000000007451,"stimulus":"bees-with-color/bee-A2DM.svg","response":0,"trial_type":"image-button-response","trial_index":143,"time_elapsed":447053,"internal_node_id":"0.0-6.0-0.3","subject_id":"5fb3a8e0bb651604a052d591","study_id":"60edd13110225f80f9f3709b","session_id":"6196c1f4bb76498b082fdf10","condition":"full-information","relevant_dimensions":["pattern","legs"],"bee_group":{"antennae":"X","wings":"X","pattern":"S","legs":"M"},"bonus":1.560000000000001},{"rt":531.6000000014901,"stimulus":"bees-with-color/bee-A2DF.svg","response":0,"trial_type":"image-button-response","trial_index":144,"time_elapsed":447586,"internal_node_id":"0.0-6.0-0.4","subject_id":"5fb3a8e0bb651604a052d591","study_id":"60edd13110225f80f9f3709b","session_id":"6196c1f4bb76498b082fdf10","condition":"full-information","relevant_dimensions":["pattern","legs"],"bee_group":{"antennae":"X","wings":"X","pattern":"S","legs":"M"},"bonus":1.560000000000001},{"rt":478.9000000022352,"stimulus":"bees-with-color/bee-A1DM.svg","response":0,"trial_type":"image-button-response","trial_index":145,"time_elapsed":448066,"internal_node_id":"0.0-6.0-0.5","subject_id":"5fb3a8e0bb651604a052d591","study_id":"60edd13110225f80f9f3709b","session_id":"6196c1f4bb76498b082fdf10","condition":"full-information","relevant_dimensions":["pattern","legs"],"bee_group":{"antennae":"X","wings":"X","pattern":"S","legs":"M"},"bonus":1.560000000000001},{"rt":490.5,"stimulus":"bees-with-color/bee-B1DM.svg","response":0,"trial_type":"image-button-response","trial_index":146,"time_elapsed":448558,"internal_node_id":"0.0-6.0-0.6","subject_id":"5fb3a8e0bb651604a052d591","study_id":"60edd13110225f80f9f3709b","session_id":"6196c1f4bb76498b082fdf10","condition":"full-information","relevant_dimensions":["pattern","legs"],"bee_group":{"antennae":"X","wings":"X","pattern":"S","legs":"M"},"bonus":1.560000000000001},{"rt":1459.699999999255,"stimulus":"bees-with-color/bee-B2SM.svg","response":1,"trial_type":"image-button-response","trial_index":147,"time_elapsed":450020,"internal_node_id":"0.0-6.0-0.7","subject_id":"5fb3a8e0bb651604a052d591","study_id":"60edd13110225f80f9f3709b","session_id":"6196c1f4bb76498b082fdf10","condition":"full-information","relevant_dimensions":["pattern","legs"],"bee_group":{"antennae":"X","wings":"X","pattern":"S","legs":"M"},"bonus":1.560000000000001},{"rt":4363.199999999255,"stimulus":"bees-with-color/bee-B2SF.svg","response":0,"trial_type":"image-button-response","trial_index":148,"time_elapsed":454385,"internal_node_id":"0.0-6.0-0.8","subject_id":"5fb3a8e0bb651604a052d591","study_id":"60edd13110225f80f9f3709b","session_id":"6196c1f4bb76498b082fdf10","condition":"full-information","relevant_dimensions":["pattern","legs"],"bee_group":{"antennae":"X","wings":"X","pattern":"S","legs":"M"},"bonus":1.560000000000001},{"rt":1107.3999999985099,"stimulus":"bees-with-color/bee-A2SM.svg","response":1,"trial_type":"image-button-response","trial_index":149,"time_elapsed":455494,"internal_node_id":"0.0-6.0-0.9","subject_id":"5fb3a8e0bb651604a052d591","study_id":"60edd13110225f80f9f3709b","session_id":"6196c1f4bb76498b082fdf10","condition":"full-information","relevant_dimensions":["pattern","legs"],"bee_group":{"antennae":"X","wings":"X","pattern":"S","legs":"M"},"bonus":1.560000000000001},{"rt":604.0999999977648,"stimulus":"bees-with-color/bee-A1DF.svg","response":0,"trial_type":"image-button-response","trial_index":150,"time_elapsed":456099,"internal_node_id":"0.0-6.0-0.10","subject_id":"5fb3a8e0bb651604a052d591","study_id":"60edd13110225f80f9f3709b","session_id":"6196c1f4bb76498b082fdf10","condition":"full-information","relevant_dimensions":["pattern","legs"],"bee_group":{"antennae":"X","wings":"X","pattern":"S","legs":"M"},"bonus":1.560000000000001},{"rt":1575.800000000745,"stimulus":"bees-with-color/bee-A2SF.svg","response":1,"trial_type":"image-button-response","trial_index":151,"time_elapsed":457676,"internal_node_id":"0.0-6.0-0.11","subject_id":"5fb3a8e0bb651604a052d591","study_id":"60edd13110225f80f9f3709b","session_id":"6196c1f4bb76498b082fdf10","condition":"full-information","relevant_dimensions":["pattern","legs"],"bee_group":{"antennae":"X","wings":"X","pattern":"S","legs":"M"},"bonus":1.560000000000001},{"rt":724.3999999985099,"stimulus":"bees-with-color/bee-B1SF.svg","response":0,"trial_type":"image-button-response","trial_index":152,"time_elapsed":458402,"internal_node_id":"0.0-6.0-0.12","subject_id":"5fb3a8e0bb651604a052d591","study_id":"60edd13110225f80f9f3709b","session_id":"6196c1f4bb76498b082fdf10","condition":"full-information","relevant_dimensions":["pattern","legs"],"bee_group":{"antennae":"X","wings":"X","pattern":"S","legs":"M"},"bonus":1.560000000000001},{"rt":831.5,"stimulus":"bees-with-color/bee-B2DF.svg","response":0,"trial_type":"image-button-response","trial_index":153,"time_elapsed":459235,"internal_node_id":"0.0-6.0-0.13","subject_id":"5fb3a8e0bb651604a052d591","study_id":"60edd13110225f80f9f3709b","session_id":"6196c1f4bb76498b082fdf10","condition":"full-information","relevant_dimensions":["pattern","legs"],"bee_group":{"antennae":"X","wings":"X","pattern":"S","legs":"M"},"bonus":1.560000000000001},{"rt":551.4000000022352,"stimulus":"bees-with-color/bee-B1DF.svg","response":0,"trial_type":"image-button-response","trial_index":154,"time_elapsed":459787,"internal_node_id":"0.0-6.0-0.14","subject_id":"5fb3a8e0bb651604a052d591","study_id":"60edd13110225f80f9f3709b","session_id":"6196c1f4bb76498b082fdf10","condition":"full-information","relevant_dimensions":["pattern","legs"],"bee_group":{"antennae":"X","wings":"X","pattern":"S","legs":"M"},"bonus":1.560000000000001},{"rt":1033.3999999985099,"stimulus":"bees-with-color/bee-A1SM.svg","response":1,"trial_type":"image-button-response","trial_index":155,"time_elapsed":460823,"internal_node_id":"0.0-6.0-0.15","subject_id":"5fb3a8e0bb651604a052d591","study_id":"60edd13110225f80f9f3709b","session_id":"6196c1f4bb76498b082fdf10","condition":"full-information","relevant_dimensions":["pattern","legs"],"bee_group":{"antennae":"X","wings":"X","pattern":"S","legs":"M"},"bonus":1.560000000000001},{"rt":1179.800000000745,"stimulus":"bees-with-color/bee-B1SM.svg","response":1,"trial_type":"image-button-response","trial_index":156,"time_elapsed":462005,"internal_node