[{"success":true,"trial_type":"fullscreen","trial_index":0,"time_elapsed":2923,"internal_node_id":"0.0-0.0","subject_id":"60e5e13a4702f70b2ac0c0a7","study_id":"6197b3f67c2b5cd3b6d9596a","session_id":"6197b89383e4d0d52fe3e769","condition":"contingent","relevant_dimensions":["wings","pattern"],"bee_group":{"antennae":"X","wings":"2","pattern":"S","legs":"X"},"bonus":0.9800000000000012},{"success":true,"timeout":false,"failed_images":[],"failed_audio":[],"failed_video":[],"trial_type":"preload","trial_index":1,"time_elapsed":5646,"internal_node_id":"0.0-1.0","subject_id":"60e5e13a4702f70b2ac0c0a7","study_id":"6197b3f67c2b5cd3b6d9596a","session_id":"6197b89383e4d0d52fe3e769","condition":"contingent","relevant_dimensions":["wings","pattern"],"bee_group":{"antennae":"X","wings":"2","pattern":"S","legs":"X"},"bonus":0.9800000000000012},{"rt":2368,"stimulus":"Welcome! Press any key to begin.","response":" ","trial_type":"html-keyboard-response","trial_index":2,"time_elapsed":8019,"internal_node_id":"0.0-2.0","subject_id":"60e5e13a4702f70b2ac0c0a7","study_id":"6197b3f67c2b5cd3b6d9596a","session_id":"6197b89383e4d0d52fe3e769","condition":"contingent","relevant_dimensions":["wings","pattern"],"bee_group":{"antennae":"X","wings":"2","pattern":"S","legs":"X"},"bonus":0.9800000000000012},{"view_history":[{"page_index":0,"viewing_time":6284.199999928474},{"page_index":1,"viewing_time":14052.100000023842},{"page_index":2,"viewing_time":12920.600000023842},{"page_index":3,"viewing_time":8567.299999952316},{"page_index":4,"viewing_time":3433.3000000715256},{"page_index":5,"viewing_time":5150.699999928474},{"page_index":6,"viewing_time":4507.800000071526},{"page_index":7,"viewing_time":4452.399999976158},{"page_index":8,"viewing_time":2743.6999999284744},{"page_index":9,"viewing_time":2256.3000000715256},{"page_index":10,"viewing_time":1711.8999999761581},{"page_index":11,"viewing_time":3824.399999976158},{"page_index":12,"viewing_time":5280.800000071526},{"page_index":13,"viewing_time":967.7999999523163},{"page_index":14,"viewing_time":1059}],"rt":77212.79999995232,"trial_type":"instructions","trial_index":3,"time_elapsed":85231,"internal_node_id":"0.0-3.0-0.0","subject_id":"60e5e13a4702f70b2ac0c0a7","study_id":"6197b3f67c2b5cd3b6d9596a","session_id":"6197b89383e4d0d52fe3e769","condition":"contingent","relevant_dimensions":["wings","pattern"],"bee_group":{"antennae":"X","wings":"2","pattern":"S","legs":"X"},"bonus":0.9800000000000012},{"rt":8072.700000047684,"response":{"Q0":["Two or six legs","Stripes or spots on body","Single or double wings","Antennae or no antennae"]},"question_order":[0],"trial_type":"survey-multi-select","trial_index":4,"time_elapsed":93316,"internal_node_id":"0.0-3.0-1.0","subject_id":"60e5e13a4702f70b2ac0c0a7","study_id":"6197b3f67c2b5cd3b6d9596a","session_id":"6197b89383e4d0d52fe3e769","condition":"contingent","relevant_dimensions":["wings","pattern"],"bee_group":{"antennae":"X","wings":"2","pattern":"S","legs":"X"},"correct":true,"bonus":0.9800000000000012},{"rt":15523.700000047684,"response":{"Q1":"No.","Q2":"Based on the four features of the bee.","Q3":"You do not learn if it was friendly or dangerous, and do not alter your bonus."},"question_order":[0,1,2],"trial_type":"survey-multi-choice","trial_index":5,"time_elapsed":108842,"internal_node_id":"0.0-3.0-2.0","subject_id":"60e5e13a4702f70b2ac0c0a7","study_id":"6197b3f67c2b5cd3b6d9596a","session_id":"6197b89383e4d0d52fe3e769","condition":"contingent","relevant_dimensions":["wings","pattern"],"bee_group":{"antennae":"X","wings":"2","pattern":"S","legs":"X"},"correct":true,"bonus":0.9800000000000012},{"rt":1867.1999999284744,"stimulus":"<p>Congrats, you got everything right<br>When you're ready, click the button below to continue to the experiment.</p>","response":0,"trial_type":"html-button-response","trial_index":6,"time_elapsed":110712,"internal_node_id":"0.0-3.0-3.0","subject_id":"60e5e13a4702f70b2ac0c0a7","study_id":"6197b3f67c2b5cd3b6d9596a","session_id":"6197b89383e4d0d52fe3e769","condition":"contingent","relevant_dimensions":["wings","pattern"],"bee_group":{"antennae":"X","wings":"2","pattern":"S","legs":"X"},"bonus":0.9800000000000012},{"rt":2891.7000000476837,"stimulus":"bees-with-color/bee-B1SM.svg","response":0,"trial_type":"image-button-response","trial_index":7,"time_elapsed":113608,"internal_node_id":"0.0-4.0-0.0","subject_id":"60e5e13a4702f70b2ac0c0a7","study_id":"6197b3f67c2b5cd3b6d9596a","session_id":"6197b89383e4d0d52fe3e769","condition":"contingent","relevant_dimensions":["wings","pattern"],"bee_group":{"antennae":"X","wings":"2","pattern":"S","legs":"X"},"action":"harvest","summary":"good-harvest","bonus":0.9800000000000012},{"rt":6248.199999928474,"stimulus":"\n                    <p><b>Action: <em>harvest</em></b></p>\n                    <p>This is the bee that you just saw.</p>\n                    <img src=\"bees-with-color/bee-B1SM.svg\" width=\"200\">\n                    <p><span class=\"greenText\"><b>Successful harvest!</b></span><br>Your pay has increased by $0.02. Your bonus pay is now $0.56.</p>\n            ","response":0,"trial_type":"html-button-response","trial_index":8,"time_elapsed":119860,"internal_node_id":"0.0-4.0-1.0","subject_id":"60e5e13a4702f70b2ac0c0a7","study_id":"6197b3f67c2b5cd3b6d9596a","session_id":"6197b89383e4d0d52fe3e769","condition":"contingent","relevant_dimensions":["wings","pattern"],"bee_group":{"antennae":"X","wings":"2","pattern":"S","legs":"X"},"bonus":0.9800000000000012},{"rt":1489.7000000476837,"stimulus":"bees-with-color/bee-B2DF.svg","response":1,"trial_type":"image-button-response","trial_index":9,"time_elapsed":121354,"internal_node_id":"0.0-4.0-0.1","subject_id":"60e5e13a4702f70b2ac0c0a7","study_id":"6197b3f67c2b5cd3b6d9596a","session_id":"6197b89383e4d0d52fe3e769","condition":"contingent","relevant_dimensions":["wings","pattern"],"bee_group":{"antennae":"X","wings":"2","pattern":"S","legs":"X"},"action":"avoid","summary":"bad-avoid","bonus":0.9800000000000012},{"rt":4412.899999976158,"stimulus":"\n                    <p><b>Action: <em>avoid</em></b></p>\n                    <p>This is the bee that you just saw.</p>\n                    <img src=\"bees-with-color/bee-B2DF.svg\" width=\"200\">\n                    <p><br>Your bonus pay is unchanged, and remains at $0.56.</p>\n            ","response":0,"trial_type":"html-button-response","trial_index":10,"time_elapsed":125772,"internal_node_id":"0.0-4.0-1.1","subject_id":"60e5e13a4702f70b2ac0c0a7","study_id":"6197b3f67c2b5cd3b6d9596a","session_id":"6197b89383e4d0d52fe3e769","condition":"contingent","relevant_dimensions":["wings","pattern"],"bee_group":{"antennae":"X","wings":"2","pattern":"S","legs":"X"},"bonus":0.9800000000000012},{"rt":1930.6000000238419,"stimulus":"bees-with-color/bee-B1SF.svg","response":0,"trial_type":"image-button-response","trial_index":11,"time_elapsed":127708,"internal_node_id":"0.0-4.0-0.2","subject_id":"60e5e13a4702f70b2ac0c0a7","study_id":"6197b3f67c2b5cd3b6d9596a","session_id":"6197b89383e4d0d52fe3e769","condition":"contingent","relevant_dimensions":["wings","pattern"],"bee_group":{"antennae":"X","wings":"2","pattern":"S","legs":"X"},"action":"harvest","summary":"good-harvest","bonus":0.9800000000000012},{"rt":1880.1999999284744,"stimulus":"\n                    <p><b>Action: <em>harvest</em></b></p>\n                    <p>This is the bee that you just saw.</p>\n                    <img src=\"bees-with-color/bee-B1SF.svg\" width=\"200\">\n                    <p><span class=\"greenText\"><b>Successful harvest!</b></span><br>Your pay has increased by $0.02. Your bonus pay is now $0.58.</p>\n            ","response":0,"trial_type":"html-button-response","trial_index":12,"time_elapsed":129591,"internal_node_id":"0.0-4.0-1.2","subject_id":"60e5e13a4702f70b2ac0c0a7","study_id":"6197b3f67c2b5cd3b6d9596a","session_id":"6197b89383e4d0d52fe3e769","condition":"contingent","relevant_dimensions":["wings","pattern"],"bee_group":{"antennae":"X","wings":"2","pattern":"S","legs":"X"},"bonus":0.9800000000000012},{"rt":1149.1999999284744,"stimulus":"bees-with-color/bee-B2DM.svg","response":0,"trial_type":"image-button-response","trial_index":13,"time_elapsed":130743,"internal_node_id":"0.0-4.0-0.3","subject_id":"60e5e13a4702f70b2ac0c0a7","study_id":"6197b3f67c2b5cd3b6d9596a","session_id":"6197b89383e4d0d52fe3e769","condition":"contingent","relevant_dimensions":["wings","pattern"],"bee_group":{"antennae":"X","wings":"2","pattern":"S","legs":"X"},"action":"harvest","summary":"good-harvest","bonus":0.9800000000000012},{"rt":2449.5,"stimulus":"\n                    <p><b>Action: <em>harvest</em></b></p>\n                    <p>This is the bee that you just saw.</p>\n                    <img src=\"bees-with-color/bee-B2DM.svg\" width=\"200\">\n                    <p><span class=\"greenText\"><b>Successful harvest!</b></span><br>Your pay has increased by $0.02. Your bonus pay is now $0.60.</p>\n            ","response":0,"trial_type":"html-button-response","trial_index":14,"time_elapsed":133196,"internal_node_id":"0.0-4.0-1.3","subject_id":"60e5e13a4702f70b2ac0c0a7","study_id":"6197b3f67c2b5cd3b6d9596a","session_id":"6197b89383e4d0d52fe3e769","condition":"contingent","relevant_dimensions":["wings","pattern"],"bee_group":{"antennae":"X","wings":"2","pattern":"S","legs":"X"},"bonus":0.9800000000000012},{"rt":1841.1999999284744,"stimulus":"bees-with-color/bee-A2DM.svg","response":0,"trial_type":"image-button-response","trial_index":15,"time_elapsed":135039,"internal_node_id":"0.0-4.0-0.4","subject_id":"60e5e13a4702f70b2ac0c0a7","study_id":"6197b3f67c2b5cd3b6d9596a","session_id":"6197b89383e4d0d52fe3e769","condition":"contingent","relevant_dimensions":["wings","pattern"],"bee_group":{"antennae":"X","wings":"2","pattern":"S","legs":"X"},"action":"harvest","summary":"good-harvest","bonus":0.9800000000000012},{"rt":1437.8999999761581,"stimulus":"\n                    <p><b>Action: <em>harvest</em></b></p>\n                    <p>This is the bee that you just saw.</p>\n                    <img src=\"bees-with-color/bee-A2DM.svg\" width=\"200\">\n                    <p><span class=\"greenText\"><b>Successful harvest!</b></span><br>Your pay has increased by $0.02. Your bonus pay is now $0.62.</p>\n            ","response":0,"trial_type":"html-button-response","trial_index":16,"time_elapsed":136479,"internal_node_id":"0.0-4.0-1.4","subject_id":"60e5e13a4702f70b2ac0c0a7","study_id":"6197b3f67c2b5cd3b6d9596a","session_id":"6197b89383e4d0d52fe3e769","condition":"contingent","relevant_dimensions":["wings","pattern"],"bee_group":{"antennae":"X","wings":"2","pattern":"S","legs":"X"},"bonus":0.9800000000000012},{"rt":2225.8000000715256,"stimulus":"bees-with-color/bee-A1SF.svg","response":0,"trial_type":"image-button-response","trial_index":17,"time_elapsed":138707,"internal_node_id":"0.0-4.0-0.5","subject_id":"60e5e13a4702f70b2ac0c0a7","study_id":"6197b3f67c2b5cd3b6d9596a","session_id":"6197b89383e4d0d52fe3e769","condition":"contingent","relevant_dimensions":["wings","pattern"],"bee_group":{"antennae":"X","wings":"2","pattern":"S","legs":"X"},"action":"harvest","summary":"good-harvest","bonus":0.9800000000000012},{"rt":1585.6999999284744,"stimulus":"\n                    <p><b>Action: <em>harvest</em></b></p>\n                    <p>This is the bee that you just saw.</p>\n                    <img src=\"bees-with-color/bee-A1SF.svg\" width=\"200\">\n                    <p><span class=\"greenText\"><b>Successful harvest!</b></span><br>Your pay has increased by $0.02. Your bonus pay is now $0.64.</p>\n            ","response":0,"trial_type":"html-button-response","trial_index":18,"time_elapsed":140295,"internal_node_id":"0.0-4.0-1.5","subject_id":"60e5e13a4702f70b2ac0c0a7","study_id":"6197b3f67c2b5cd3b6d9596a","session_id":"6197b89383e4d0d52fe3e769","condition":"contingent","relevant_dimensions":["wings","pattern"],"bee_group":{"antennae":"X","wings":"2","pattern":"S","legs":"X"},"bonus":0.9800000000000012},{"rt":1640.6000000238419,"stimulus":"bees-with-color/bee-A2SM.svg","response":0,"trial_type":"image-button-response","trial_index":19,"time_elapsed":141939,"internal_node_id":"0.0-4.0-0.6","subject_id":"60e5e13a4702f70b2ac0c0a7","study_id":"6197b3f67c2b5cd3b6d9596a","session_id":"6197b89383e4d0d52fe3e769","condition":"contingent","relevant_dimensions":["wings","pattern"],"bee_group":{"antennae":"X","wings":"2","pattern":"S","legs":"X"},"action":"harvest","summary":"bad-harvest","bonus":0.9800000000000012},{"rt":5832.700000047684,"stimulus":"\n                    <p><b>Action: <em>harvest</em></b></p>\n                    <p>This is the bee that you just saw.</p>\n                    <img src=\"bees-with-color/bee-A2SM.svg\" width=\"200\">\n                    <p><span class=\"redText\">Bad choice, the bee was angry.</span><br><b>You have been stung!</b><br>Your pay has been decreased by $0.10. Your bonus pay is now $0.54.</p>\n            ","response":0,"trial_type":"html-button-response","trial_index":20,"time_elapsed":147774,"internal_node_id":"0.0-4.0-1.6","subject_id":"60e5e13a4702f70b2ac0c0a7","study_id":"6197b3f67c2b5cd3b6d9596a","session_id":"6197b89383e4d0d52fe3e769","condition":"contingent","relevant_dimensions":["wings","pattern"],"bee_group":{"antennae":"X","wings":"2","pattern":"S","legs":"X"},"bonus":0.9800000000000012},{"rt":3654.399999976158,"stimulus":"bees-with-color/bee-B2SF.svg","response":0,"trial_type":"image-button-response","trial_index":21,"time_elapsed":151437,"internal_node_id":"0.0-4.0-0.7","subject_id":"60e5e13a4702f70b2ac0c0a7","study_id":"6197b3f67c2b5cd3b6d9596a","session_id":"6197b89383e4d0d52fe3e769","condition":"contingent","relevant_dimensions":["wings","pattern"],"bee_group":{"antennae":"X","wings":"2","pattern":"S","legs":"X"},"action":"harvest","summary":"bad-harvest","bonus":0.9800000000000012},{"rt":1655.6999999284744,"stimulus":"\n                    <p><b>Action: <em>harvest</em></b></p>\n                    <p>This is the bee that you just saw.</p>\n                    <img src=\"bees-with-color/bee-B2SF.svg\" width=\"200\">\n                    <p><span class=\"redText\">Bad choice, the bee was angry.</span><br><b>You have been stung!</b><br>Your pay has been decreased by $0.10. Your bonus pay is now $0.44.</p>\n            ","response":0,"trial_type":"html-button-response","trial_index":22,"time_elapsed":153095,"internal_node_id":"0.0-4.0-1.7","subject_id":"60e5e13a4702f70b2ac0c0a7","study_id":"6197b3f67c2b5cd3b6d9596a","session_id":"6197b89383e4d0d52fe3e769","condition":"contingent","relevant_dimensions":["wings","pattern"],"bee_group":{"antennae":"X","wings":"2","pattern":"S","legs":"X"},"bonus":0.9800000000000012},{"rt":2395.399999976158,"stimulus":"bees-with-color/bee-A1DF.svg","response":1,"trial_type":"image-button-response","trial_index":23,"time_elapsed":155495,"internal_node_id":"0.0-4.0-0.8","subject_id":"60e5e13a4702f70b2ac0c0a7","study_id":"6197b3f67c2b5cd3b6d9596a","session_id":"6197b89383e4d0d52fe3e769","condition":"contingent","relevant_dimensions":["wings","pattern"],"bee_group":{"antennae":"X","wings":"2","pattern":"S","legs":"X"},"action":"avoid","summary":"bad-avoid","bonus":0.9800000000000012},{"rt":1975.8999999761581,"stimulus":"\n                    <p><b>Action: <em>avoid</em></b></p>\n                    <p>This is the bee that you just saw.</p>\n                    <img src=\"bees-with-color/bee-A1DF.svg\" width=\"200\">\n                    <p><br>Your bonus pay is unchanged, and remains at $0.44.</p>\n            ","response":0,"trial_type":"html-button-response","trial_index":24,"time_elapsed":157475,"internal_node_id":"0.0-4.0-1.8","subject_id":"60e5e13a4702f70b2ac0c0a7","study_id":"6197b3f67c2b5cd3b6d9596a","session_id":"6197b89383e4d0d52fe3e769","condition":"contingent","relevant_dimensions":["wings","pattern"],"bee_group":{"antennae":"X","wings":"2","pattern":"S","legs":"X"},"bonus":0.9800000000000012},{"rt":2381.399999976158,"stimulus":"bees-with-color/bee-B2SM.svg","response":1,"trial_type":"image-button-response","trial_index":25,"time_elapsed":159859,"internal_node_id":"0.0-4.0-0.9","subject_id":"60e5e13a4702f70b2ac0c0a7","study_id":"6197b3f67c2b5cd3b6d9596a","session_id":"6197b89383e4d0d52fe3e769","condition":"contingent","relevant_dimensions":["wings","pattern"],"bee_group":{"antennae":"X","wings":"2","pattern":"S","legs":"X"},"action":"avoid","summary":"good-avoid","bonus":0.9800000000000012},{"rt":1129.6000000238419,"stimulus":"\n                    <p><b>Action: <em>avoid</em></b></p>\n                    <p>This is the bee that you just saw.</p>\n                    <img src=\"bees-with-color/bee-B2SM.svg\" width=\"200\">\n                    <p><br>Your bonus pay is unchanged, and remains at $0.44.</p>\n            ","response":0,"trial_type":"html-button-response","trial_index":26,"time_elapsed":160992,"internal_node_id":"0.0-4.0-1.9","subject_id":"60e5e13a4702f70b2ac0c0a7","study_id":"6197b3f67c2b5cd3b6d9596a","session_id":"6197b89383e4d0d52fe3e769","condition":"contingent","relevant_dimensions":["wings","pattern"],"bee_group":{"antennae":"X","wings":"2","pattern":"S","legs":"X"},"bonus":0.9800000000000012},{"rt":1444.1999999284744,"stimulus":"bees-with-color/bee-B1DM.svg","response":0,"trial_type":"image-button-response","trial_index":27,"time_elapsed":162440,"internal_node_id":"0.0-4.0-0.10","subject_id":"60e5e13a4702f70b2ac0c0a7","study_id":"6197b3f67c2b5cd3b6d9596a","session_id":"6197b89383e4d0d52fe3e769","condition":"contingent","relevant_dimensions":["wings","pattern"],"bee_group":{"antennae":"X","wings":"2","pattern":"S","legs":"X"},"action":"harvest","summary":"good-harvest","bonus":0.9800000000000012},{"rt":760.3000000715256,"stimulus":"\n                    <p><b>Action: <em>harvest</em></b></p>\n                    <p>This is the bee that you just saw.</p>\n                    <img src=\"bees-with-color/bee-B1DM.svg\" width=\"200\">\n                    <p><span class=\"greenText\"><b>Successful harvest!</b></span><br>Your pay has increased by $0.02. Your bonus pay is now $0.46.</p>\n            ","response":0,"trial_type":"html-button-response","trial_index":28,"time_elapsed":163204,"internal_node_id":"0.0-4.0-1.10","subject_id":"60e5e13a4702f70b2ac0c0a7","study_id":"6197b3f67c2b5cd3b6d9596a","session_id":"6197b89383e4d0d52fe3e769","condition":"contingent","relevant_dimensions":["wings","pattern"],"bee_group":{"antennae":"X","wings":"2","pattern":"S","legs":"X"},"bonus":0.9800000000000012},{"rt":1589.2999999523163,"stimulus":"bees-with-color/bee-A1SM.svg","response":0,"trial_type":"image-button-response","trial_index":29,"time_elapsed":164795,"internal_node_id":"0.0-4.0-0.11","subject_id":"60e5e13a4702f70b2ac0c0a7","study_id":"6197b3f67c2b5cd3b6d9596a","session_id":"6197b89383e4d0d52fe3e769","condition":"contingent","relevant_dimensions":["wings","pattern"],"bee_group":{"antennae":"X","wings":"2","pattern":"S","legs":"X"},"action":"harvest","summary":"good-harvest","bonus":0.9800000000000012},{"rt":796,"stimulus":"\n                    <p><b>Action: <em>harvest</em></b></p>\n                    <p>This is the bee that you just saw.</p>\n                    <img src=\"bees-with-color/bee-A1SM.svg\" width=\"200\">\n                    <p><span class=\"greenText\"><b>Successful harvest!</b></span><br>Your pay has increased by $0.02. Your bonus pay is now $0.48.</p>\n            ","response":0,"trial_type":"html-button-response","trial_index":30,"time_elapsed":165595,"internal_node_id":"0.0-4.0-1.11","subject_id":"60e5e13a4702f70b2ac0c0a7","study_id":"6197b3f67c2b5cd3b6d9596a","session_id":"6197b89383e4d0d52fe3e769","condition":"contingent","relevant_dimensions":["wings","pattern"],"bee_group":{"antennae":"X","wings":"2","pattern":"S","legs":"X"},"bonus":0.9800000000000012},{"rt":1695.0999999046326,"stimulus":"bees-with-color/bee-B1DF.svg","response":0,"trial_type":"image-button-response","trial_index":31,"time_elapsed":167295,"internal_node_id":"0.0-4.0-0.12","subject_id":"60e5e13a4702f70b2ac0c0a7","study_id":"6197b3f67c2b5cd3b6d9596a","session_id":"6197b89383e4d0d52fe3e769","condition":"contingent","relevant_dimensions":["wings","pattern"],"bee_group":{"antennae":"X","wings":"2","pattern":"S","legs":"X"},"action":"harvest","summary":"good-harvest","bonus":0.9800000000000012},{"rt":840.2999999523163,"stimulus":"\n                    <p><b>Action: <em>harvest</em></b></p>\n                    <p>This is the bee that you just saw.</p>\n                    <img src=\"bees-with-color/bee-B1DF.svg\" width=\"200\">\n                    <p><span class=\"greenText\"><b>Successful harvest!</b></span><br>Your pay has increased by $0.02. Your bonus pay is now $0.50.</p>\n            ","response":0,"trial_type":"html-button-response","trial_index":32,"time_elapsed":168143,"internal_node_id":"0.0-4.0-1.12","subject_id":"60e5e13a4702f70b2ac0c0a7","study_id":"6197b3f67c2b5cd3b6d9596a","session_id":"6197b89383e4d0d52fe3e769","condition":"contingent","relevant_dimensions":["wings","pattern"],"bee_group":{"antennae":"X","wings":"2","pattern":"S","legs":"X"},"bonus":0.9800000000000012},{"rt":2409.899999976158,"stimulus":"bees-with-color/bee-A1DM.svg","response":1,"trial_type":"image-button-response","trial_index":33,"time_elapsed":170556,"internal_node_id":"0.0-4.0-0.13","subject_id":"60e5e13a4702f70b2ac0c0a7","study_id":"6197b3f67c2b5cd3b6d9596a","session_id":"6197b89383e4d0d52fe3e769","condition":"contingent","relevant_dimensions":["wings","pattern"],"bee_group":{"antennae":"X","wings":"2","pattern":"S","legs":"X"},"action":"avoid","summary":"bad-avoid","bonus":0.9800000000000012},{"rt":755.7999999523163,"stimulus":"\n                    <p><b>Action: <em>avoid</em></b></p>\n                    <p>This is the bee that you just saw.</p>\n                    <img src=\"bees-with-color/bee-A1DM.svg\" width=\"200\">\n                    <p><br>Your bonus pay is unchanged, and remains at $0.50.</p>\n            ","response":0,"trial_type":"html-button-response","trial_index":34,"time_elapsed":171315,"internal_node_id":"0.0-4.0-1.13","subject_id":"60e5e13a4702f70b2ac0c0a7","study_id":"6197b3f67c2b5cd3b6d9596a","session_id":"6197b89383e4d0d52fe3e769","condition":"contingent","relevant_dimensions":["wings","pattern"],"bee_group":{"antennae":"X","wings":"2","pattern":"S","legs":"X"},"bonus":0.9800000000000012},{"rt":2317,"stimulus":"bees-with-color/bee-A2SF.svg","response":0,"trial_type":"image-button-response","trial_index":35,"time_elapsed":173635,"internal_node_id":"0.0-4.0-0.14","subject_id":"60e5e13a4702f70b2ac0c0a7","study_id":"6197b3f67c2b5cd3b6d9596a","session_id":"6197b89383e4d0d52fe3e769","condition":"contingent","relevant_dimensions":["wings","pattern"],"bee_group":{"antennae":"X","wings":"2","pattern":"S","legs":"X"},"action":"harvest","summary":"bad-harvest","bonus":0.9800000000000012},{"rt":666.3999999761581,"stimulus":"\n                    <p><b>Action: <em>harvest</em></b></p>\n                    <p>This is the bee that you just saw.</p>\n                    <img src=\"bees-with-color/bee-A2SF.svg\" width=\"200\">\n                    <p><span class=\"redText\">Bad choice, the bee was angry.</span><br><b>You have been stung!</b><br>Your pay has been decreased by $0.10. Your bonus pay is now $0.40.</p>\n            ","response":0,"trial_type":"html-button-response","trial_index":36,"time_elapsed":174303,"internal_node_id":"0.0-4.0-1.14","subject_id":"60e5e13a4702f70b2ac0c0a7","study_id":"6197b3f67c2b5cd3b6d9596a","session_id":"6197b89383e4d0d52fe3e769","condition":"contingent","relevant_dimensions":["wings","pattern"],"bee_group":{"antennae":"X","wings":"2","pattern":"S","legs":"X"},"bonus":0.9800000000000012},{"rt":1360.2000000476837,"stimulus":"bees-with-color/bee-A2DF.svg","response":0,"trial_type":"image-button-response","trial_index":37,"time_elapsed":175666,"internal_node_id":"0.0-4.0-0.15","subject_id":"60e5e13a4702f70b2ac0c0a7","study_id":"6197b3f67c2b5cd3b6d9596a","session_id":"6197b89383e4d0d52fe3e769","condition":"contingent","relevant_dimensions":["wings","pattern"],"bee_group":{"antennae":"X","wings":"2","pattern":"S","legs":"X"},"action":"harvest","summary":"good-harvest","bonus":0.9800000000000012},{"rt":646.0999999046326,"stimulus":"\n                    <p><b>Action: <em>harvest</em></b></p>\n                    <p>This is the bee that you just saw.</p>\n                    <img src=\"bees-with-color/bee-A2DF.svg\" width=\"200\">\n                    <p><span class=\"greenText\"><b>Successful harvest!</b></span><br>Your pay has increased by $0.02. Your bonus pay is now $0.42.</p>\n            ","response":0,"trial_type":"html-button-response","trial_index":38,"time_elapsed":176315,"internal_node_id":"0.0-4.0-1.15","subject_id":"60e5e13a4702f70b2ac0c0a7","study_id":"6197b3f67c2b5cd3b6d9596a","session_id":"6197b89383e4d0d52fe3e769","condition":"contingent","relevant_dimensions":["wings","pattern"],"bee_group":{"antennae":"X","wings":"2","pattern":"S","legs":"X"},"bonus":0.9800000000000012},{"rt":1206.6000000238419,"stimulus":"bees-with-color/bee-A2DM.svg","response":0,"trial_type":"image-button-response","trial_index":39,"time_elapsed":177524,"internal_node_id":"0.0-4.0-0.16","subject_id":"60e5e13a4702f70b2ac0c0a7","study_id":"6197b3f67c2b5cd3b6d9596a","session_id":"6197b89383e4d0d52fe3e769","condition":"contingent","relevant_dimensions":["wings","pattern"],"bee_group":{"antennae":"X","wings":"2","pattern":"S","legs":"X"},"action":"harvest","summary":"good-harvest","bonus":0.9800000000000012},{"rt":885.6000000238419,"stimulus":"\n                    <p><b>Action: <em>harvest</em></b></p>\n                    <p>This is the bee that you just saw.</p>\n                    <img src=\"bees-with-color/bee-A2DM.svg\" width=\"200\">\n                    <p><span class=\"greenText\"><b>Successful harvest!</b></span><br>Your pay has increased by $0.02. Your bonus pay is now $0.44.</p>\n            ","response":0,"trial_type":"html-button-response","trial_index":40,"time_elapsed":178411,"internal_node_id":"0.0-4.0-1.16","subject_id":"60e5e13a4702f70b2ac0c0a7","study_id":"6197b3f67c2b5cd3b6d9596a","session_id":"6197b89383e4d0d52fe3e769","condition":"contingent","relevant_dimensions":["wings","pattern"],"bee_group":{"antennae":"X","wings":"2","pattern":"S","legs":"X"},"bonus":0.9800000000000012},{"rt":1132.5,"stimulus":"bees-with-color/bee-B2DF.svg","response":0,"trial_type":"image-button-response","trial_index":41,"time_elapsed":179548,"internal_node_id":"0.0-4.0-0.17","subject_id":"60e5e13a4702f70b2ac0c0a7","study_id":"6197b3f67c2b5cd3b6d9596a","session_id":"6197b89383e4d0d52fe3e769","condition":"contingent","relevant_dimensions":["wings","pattern"],"bee_group":{"antennae":"X","wings":"2","pattern":"S","legs":"X"},"action":"harvest","summary":"good-harvest","bonus":0.9800000000000012},{"rt":965.6999999284744,"stimulus":"\n                    <p><b>Action: <em>harvest</em></b></p>\n                    <p>This is the bee that you just saw.</p>\n                    <img src=\"bees-with-color/bee-B2DF.svg\" width=\"200\">\n                    <p><span class=\"greenText\"><b>Successful harvest!</b></span><br>Your pay has increased by $0.02. Your bonus pay is now $0.46.</p>\n            ","response":0,"trial_type":"html-button-response","trial_index":42,"time_elapsed":180515,"internal_node_id":"0.0-4.0-1.17","subject_id":"60e5e13a4702f70b2ac0c0a7","study_id":"6197b3f67c2b5cd3b6d9596a","session_id":"6197b89383e4d0d52fe3e769","condition":"contingent","relevant_dimensions":["wings","pattern"],"bee_group":{"antennae":"X","wings":"2","pattern":"S","legs":"X"},"bonus":0.9800000000000012},{"rt":1450.3999999761581,"stimulus":"bees-with-color/bee-B1SF.svg","response":0,"trial_type":"image-button-response","trial_index":43,"time_elapsed":181968,"internal_node_id":"0.0-4.0-0.18","subject_id":"60e5e13a4702f70b2ac0c0a7","study_id":"6197b3f67c2b5cd3b6d9596a","session_id":"6197b89383e4d0d52fe3e769","condition":"contingent","relevant_dimensions":["wings","pattern"],"bee_group":{"antennae":"X","wings":"2","pattern":"S","legs":"X"},"action":"harvest","summary":"good-harvest","bonus":0.9800000000000012},{"rt":862.6999999284744,"stimulus":"\n                    <p><b>Action: <em>harvest</em></b></p>\n                    <p>This is the bee that you just saw.</p>\n                    <img src=\"bees-with-color/bee-B1SF.svg\" width=\"200\">\n                    <p><span class=\"greenText\"><b>Successful harvest!</b></span><br>Your pay has increased by $0.02. Your bonus pay is now $0.48.</p>\n            ","response":0,"trial_type":"html-button-response","trial_index":44,"time_elapsed":182835,"internal_node_id":"0.0-4.0-1.18","subject_id":"60e5e13a4702f70b2ac0c0a7","study_id":"6197b3f67c2b5cd3b6d9596a","session_id":"6197b89383e4d0d52fe3e769","condition":"contingent","relevant_dimensions":["wings","pattern"],"bee_group":{"antennae":"X","wings":"2","pattern":"S","legs":"X"},"bonus":0.9800000000000012},{"rt":2462.7000000476837,"stimulus":"bees-with-color/bee-A1DM.svg","response":1,"trial_type":"image-button-response","trial_index":45,"time_elapsed":185300,"internal_node_id":"0.0-4.0-0.19","subject_id":"60e5e13a4702f70b2ac0c0a7","study_id":"6197b3f67c2b5cd3b6d9596a","session_id":"6197b89383e4d0d52fe3e769","condition":"contingent","relevant_dimensions":["wings","pattern"],"bee_group":{"antennae":"X","wings":"2","pattern":"S","legs":"X"},"action":"avoid","summary":"bad-avoid","bonus":0.9800000000000012},{"rt":549.7000000476837,"stimulus":"\n                    <p><b>Action: <em>avoid</em></b></p>\n                    <p>This is the bee that you just saw.</p>\n                    <img src=\"bees-with-color/bee-A1DM.svg\" width=\"200\">\n                    <p><br>Your bonus pay is unchanged, and remains at $0.48.</p>\n            ","response":0,"trial_type":"html-button-response","trial_index":46,"time_elapsed":185851,"internal_node_id":"0.0-4.0-1.19","subject_id":"60e5e13a4702f70b2ac0c0a7","study_id":"6197b3f67c2b5cd3b6d9596a","session_id":"6197b89383e4d0d52fe3e769","condition":"contingent","relevant_dimensions":["wings","pattern"],"bee_group":{"antennae":"X","wings":"2","pattern":"S","legs":"X"},"bonus":0.9800000000000012},{"rt":1146.5,"stimulus":"bees-with-color/bee-B1DF.svg","response":0,"trial_type":"image-button-response","trial_index":47,"time_elapsed":187000,"internal_node_id":"0.0-4.0-0.20","subject_id":"60e5e13a4702f70b2ac0c0a7","study_id":"6197b3f67c2b5cd3b6d9596a","session_id":"6197b89383e4d0d52fe3e769","condition":"contingent","relevant_dimensions":["wings","pattern"],"bee_group":{"antennae":"X","wings":"2","pattern":"S","legs":"X"},"action":"harvest","summary":"good-harvest","bonus":0.9800000000000012},{"rt":866.6999999284744,"stimulus":"\n                    <p><b>Action: <em>harvest</em></b></p>\n                    <p>This is the bee that you just saw.</p>\n                    <img src=\"bees-with-color/bee-B1DF.svg\" width=\"200\">\n                    <p><span class=\"greenText\"><b>Successful harvest!</b></span><br>Your pay has increased by $0.02. Your bonus pay is now $0.50.</p>\n            ","response":0,"trial_type":"html-button-response","trial_index":48,"time_elapsed":187869,"internal_node_id":"0.0-4.0-1.20","subject_id":"60e5e13a4702f70b2ac0c0a7","study_id":"6197b3f67c2b5cd3b6d9596a","session_id":"6197b89383e4d0d52fe3e769","condition":"contingent","relevant_dimensions":["wings","pattern"],"bee_group":{"antennae":"X","wings":"2","pattern":"S","legs":"X"},"bonus":0.9800000000000012},{"rt":1365.5,"stimulus":"bees-with-color/bee-A1SF.svg","response":0,"trial_type":"image-button-response","trial_index":49,"time_elapsed":189236,"internal_node_id":"0.0-4.0-0.21","subject_id":"60e5e13a4702f70b2ac0c0a7","study_id":"6197b3f67c2b5cd3b6d9596a","session_id":"6197b89383e4d0d52fe3e769","condition":"contingent","relevant_dimensions":["wings","pattern"],"bee_group":{"antennae":"X","wings":"2","pattern":"S","legs":"X"},"action":"harvest","summary":"good-harvest","bonus":0.9800000000000012},{"rt":663.3999999761581,"stimulus":"\n                    <p><b>Action: <em>harvest</em></b></p>\n                    <p>This is the bee that you just saw.</p>\n                    <img src=\"bees-with-color/bee-A1SF.svg\" width=\"200\">\n                    <p><span class=\"greenText\"><b>Successful harvest!</b></span><br>Your pay has increased by $0.02. Your bonus pay is now $0.52.</p>\n            ","response":0,"trial_type":"html-button-response","trial_index":50,"time_elapsed":189902,"internal_node_id":"0.0-4.0-1.21","subject_id":"60e5e13a4702f70b2ac0c0a7","study_id":"6197b3f67c2b5cd3b6d9596a","session_id":"6197b89383e4d0d52fe3e769","condition":"contingent","relevant_dimensions":["wings","pattern"],"bee_group":{"antennae":"X","wings":"2","pattern":"S","legs":"X"},"bonus":0.9800000000000012},{"rt":2235.7000000476837,"stimulus":"bees-with-color/bee-A2SM.svg","response":1,"trial_type":"image-button-response","trial_index":51,"time_elapsed":192139,"internal_node_id":"0.0-4.0-0.22","subject_id":"60e5e13a4702f70b2ac0c0a7","study_id":"6197b3f67c2b5cd3b6d9596a","session_id":"6197b89383e4d0d52fe3e769","condition":"contingent","relevant_dimensions":["wings","pattern"],"bee_group":{"antennae":"X","wings":"2","pattern":"S","legs":"X"},"action":"avoid","summary":"good-avoid","bonus":0.9800000000000012},{"rt":566.8000000715256,"stimulus":"\n                    <p><b>Action: <em>avoid</em></b></p>\n                    <p>This is the bee that you just saw.</p>\n                    <img src=\"bees-with-color/bee-A2SM.svg\" width=\"200\">\n                    <p><br>Your bonus pay is unchanged, and remains at $0.52.</p>\n            ","response":0,"trial_type":"html-button-response","trial_index":52,"time_elapsed":192709,"internal_node_id":"0.0-4.0-1.22","subject_id":"60e5e13a4702f70b2ac0c0a7","study_id":"6197b3f67c2b5cd3b6d9596a","session_id":"6197b89383e4d0d52fe3e769","condition":"contingent","relevant_dimensions":["wings","pattern"],"bee_group":{"antennae":"X","wings":"2","pattern":"S","legs":"X"},"bonus":0.9800000000000012},{"rt":1139.6999999284744,"stimulus":"bees-with-color/bee-B2SF.svg","response":0,"trial_type":"image-button-response","trial_index":53,"time_elapsed":193852,"internal_node_id":"0.0-4.0-0.23","subject_id":"60e5e13a4702f70b2ac0c0a7","study_id":"6197b3f67c2b5cd3b6d9596a","session_id":"6197b89383e4d0d52fe3e769","condition":"contingent","relevant_dimensions":["wings","pattern"],"bee_group":{"antennae":"X","wings":"2","pattern":"S","legs":"X"},"action":"harvest","summary":"bad-harvest","bonus":0.9800000000000012},{"rt":1277.7000000476837,"stimulus":"\n                    <p><b>Action: <em>harvest</em></b></p>\n                    <p>This is the bee that you just saw.</p>\n                    <img src=\"bees-with-color/bee-B2SF.svg\" width=\"200\">\n                    <p><span class=\"redText\">Bad choice, the bee was angry.</span><br><b>You have been stung!</b><br>Your pay has been decreased by $0.10. Your bonus pay is now $0.42.</p>\n            ","response":0,"trial_type":"html-button-response","trial_index":54,"time_elapsed":195132,"internal_node_id":"0.0-4.0-1.23","subject_id":"60e5e13a4702f70b2ac0c0a7","study_id":"6197b3f67c2b5cd3b6d9596a","session_id":"6197b89383e4d0d52fe3e769","condition":"contingent","relevant_dimensions":["wings","pattern"],"bee_group":{"antennae":"X","wings":"2","pattern":"S","legs":"X"},"bonus":0.9800000000000012},{"rt":2461.6999999284744,"stimulus":"bees-with-color/bee-A1SM.svg","response":1,"trial_type":"image-button-response","trial_index":55,"time_elapsed":197597,"internal_node_id":"0.0-4.0-0.24","subject_id":"60e5e13a4702f70b2ac0c0a7","study_id":"6197b3f67c2b5cd3b6d9596a","session_id":"6197b89383e4d0d52fe3e769","condition":"contingent","relevant_dimensions":["wings","pattern"],"bee_group":{"antennae":"X","wings":"2","pattern":"S","legs":"X"},"action":"avoid","summary":"bad-avoid","bonus":0.9800000000000012},{"rt":917.1000000238419,"stimulus":"\n                    <p><b>Action: <em>avoid</em></b></p>\n                    <p>This is the bee that you just saw.</p>\n                    <img src=\"bees-with-color/bee-A1SM.svg\" width=\"200\">\n                    <p><br>Your bonus pay is unchanged, and remains at $0.42.</p>\n            ","response":0,"trial_type":"html-button-response","trial_index":56,"time_elapsed":198516,"internal_node_id":"0.0-4.0-1.24","subject_id":"60e5e13a4702f70b2ac0c0a7","study_id":"6197b3f67c2b5cd3b6d9596a","session_id":"6197b89383e4d0d52fe3e769","condition":"contingent","relevant_dimensions":["wings","pattern"],"bee_group":{"antennae":"X","wings":"2","pattern":"S","legs":"X"},"bonus":0.9800000000000012},{"rt":933.3999999761581,"stimulus":"bees-with-color/bee-B1SM.svg","response":0,"trial_type":"image-button-response","trial_index":57,"time_elapsed":199453,"internal_node_id":"0.0-4.0-0.25","subject_id":"60e5e13a4702f70b2ac0c0a7","study_id":"6197b3f67c2b5cd3b6d9596a","session_id":"6197b89383e4d0d52fe3e769","condition":"contingent","relevant_dimensions":["wings","pattern"],"bee_group":{"antennae":"X","wings":"2","pattern":"S","legs":"X"},"action":"harvest","summary":"good-harvest","bonus":0.9800000000000012},{"rt":600.0999999046326,"stimulus":"\n                    <p><b>Action: <em>harvest</em></b></p>\n                    <p>This is the bee that you just saw.</p>\n                    <img src=\"bees-with-color/bee-B1SM.svg\" width=\"200\">\n                    <p><span class=\"greenText\"><b>Successful harvest!</b></span><br>Your pay has increased by $0.02. Your bonus pay is now $0.44.</p>\n            ","response":0,"trial_type":"html-button-response","trial_index":58,"time_elapsed":200056,"internal_node_id":"0.0-4.0-1.25","subject_id":"60e5e13a4702f70b2ac0c0a7","study_id":"6197b3f67c2b5cd3b6d9596a","session_id":"6197b89383e4d0d52fe3e769","condition":"contingent","relevant_dimensions":["wings","pattern"],"bee_group":{"antennae":"X","wings":"2","pattern":"S","legs":"X"},"bonus":0.9800000000000012},{"rt":785.8999999761581,"stimulus":"bees-with-color/bee-B1DM.svg","response":0,"trial_type":"image-button-response","trial_index":59,"time_elapsed":200845,"internal_node_id":"0.0-4.0-0.26","subject_id":"60e5e13a4702f70b2ac0c0a7","study_id":"6197b3f67c2b5cd3b6d9596a","session_id":"6197b89383e4d0d52fe3e769","condition":"contingent","relevant_dimensions":["wings","pattern"],"bee_group":{"antennae":"X","wings":"2","pattern":"S","legs":"X"},"action":"harvest","summary":"good-harvest","bonus":0.9800000000000012},{"rt":906.7999999523163,"stimulus":"\n                    <p><b>Action: <em>harvest</em></b></p>\n                    <p>This is the bee that you just saw.</p>\n                    <img src=\"bees-with-color/bee-B1DM.svg\" width=\"200\">\n                    <p><span class=\"greenText\"><b>Successful harvest!</b></span><br>Your pay has increased by $0.02. Your bonus pay is now $0.46.</p>\n            ","response":0,"trial_type":"html-button-response","trial_index":60,"time_elapsed":201756,"internal_node_id":"0.0-4.0-1.26","subject_id":"60e5e13a4702f70b2ac0c0a7","study_id":"6197b3f67c2b5cd3b6d9596a","session_id":"6197b89383e4d0d52fe3e769","condition":"contingent","relevant_dimensions":["wings","pattern"],"bee_group":{"antennae":"X","wings":"2","pattern":"S","legs":"X"},"bonus":0.9800000000000012},{"rt":708.2999999523163,"stimulus":"bees-with-color/bee-A2DF.svg","response":0,"trial_type":"image-button-response","trial_index":61,"time_elapsed":202468,"internal_node_id":"0.0-4.0-0.27","subject_id":"60e5e13a4702f70b2ac0c0a7","study_id":"6197b3f67c2b5cd3b6d9596a","session_id":"6197b89383e4d0d52fe3e769","condition":"contingent","relevant_dimensions":["wings","pattern"],"bee_group":{"antennae":"X","wings":"2","pattern":"S","legs":"X"},"action":"harvest","summary":"good-harvest","bonus":0.9800000000000012},{"rt":734.3999999761581,"stimulus":"\n                    <p><b>Action: <em>harvest</em></b></p>\n                    <p>This is the bee that you just saw.</p>\n                    <img src=\"bees-with-color/bee-A2DF.svg\" width=\"200\">\n                    <p><span class=\"greenText\"><b>Successful harvest!</b></span><br>Your pay has increased by $0.02. Your bonus pay is now $0.48.</p>\n            ","response":0,"trial_type":"html-button-response","trial_index":62,"time_elapsed":203204,"internal_node_id":"0.0-4.0-1.27","subject_id":"60e5e13a4702f70b2ac0c0a7","study_id":"6197b3f67c2b5cd3b6d9596a","session_id":"6197b89383e4d0d52fe3e769","condition":"contingent","relevant_dimensions":["wings","pattern"],"bee_group":{"antennae":"X","wings":"2","pattern":"S","legs":"X"},"bonus":0.9800000000000012},{"rt":1392.8999999761581,"stimulus":"bees-with-color/bee-A2SF.svg","response":0,"trial_type":"image-button-response","trial_index":63,"time_elapsed":204600,"internal_node_id":"0.0-4.0-0.28","subject_id":"60e5e13a4702f70b2ac0c0a7","study_id":"6197b3f67c2b5cd3b6d9596a","session_id":"6197b89383e4d0d52fe3e769","condition":"contingent","relevant_dimensions":["wings","pattern"],"bee_group":{"antennae":"X","wings":"2","pattern":"S","legs":"X"},"action":"harvest","summary":"bad-harvest","bonus":0.9800000000000012},{"rt":1041,"stimulus":"\n                    <p><b>Action: <em>harvest</em></b></p>\n                    <p>This is the bee that you just saw.</p>\n                    <img src=\"bees-with-color/bee-A2SF.svg\" width=\"200\">\n                    <p><span class=\"redText\">Bad choice, the bee was angry.</span><br><b>You have been stung!</b><br>Your pay has been decreased by $0.10. Your bonus pay is now $0.38.</p>\n            ","response":0,"trial_type":"html-button-response","trial_index":64,"time_elapsed":205645,"internal_node_id":"0.0-4.0-1.28","subject_id":"60e5e13a4702f70b2ac0c0a7","study_id":"6197b3f67c2b5cd3b6d9596a","session_id":"6197b89383e4d0d52fe3e769","condition":"contingent","relevant_dimensions":["wings","pattern"],"bee_group":{"antennae":"X","wings":"2","pattern":"S","legs":"X"},"bonus":0.9800000000000012},{"rt":3533.5,"stimulus":"bees-with-color/bee-A1DF.svg","response":0,"trial_type":"image-button-response","trial_index":65,"time_elapsed":209180,"internal_node_id":"0.0-4.0-0.29","subject_id":"60e5e13a4702f70b2ac0c0a7","study_id":"6197b3f67c2b5cd3b6d9596a","session_id":"6197b89383e4d0d52fe3e769","condition":"contingent","relevant_dimensions":["wings","pattern"],"bee_group":{"antennae":"X","wings":"2","pattern":"S","legs":"X"},"action":"harvest","summary":"good-harvest","bonus":0.9800000000000012},{"rt":684.8999999761581,"stimulus":"\n                    <p><b>Action: <em>harvest</em></b></p>\n                    <p>This is the bee that you just saw.</p>\n                    <img src=\"bees-with-color/bee-A1DF.svg\" width=\"200\">\n                    <p><span class=\"greenText\"><b>Successful harvest!</b></span><br>Your pay has increased by $0.02. Your bonus pay is now $0.40.</p>\n            ","response":0,"trial_type":"html-button-response","trial_index":66,"time_elapsed":209868,"internal_node_id":"0.0-4.0-1.29","subject_id":"60e5e13a4702f70b2ac0c0a7","study_id":"6197b3f67c2b5cd3b6d9596a","session_id":"6197b89383e4d0d52fe3e769","condition":"contingent","relevant_dimensions":["wings","pattern"],"bee_group":{"antennae":"X","wings":"2","pattern":"S","legs":"X"},"bonus":0.9800000000000012},{"rt":1207.1999999284744,"stimulus":"bees-with-color/bee-B2SM.svg","response":0,"trial_type":"image-button-response","trial_index":67,"time_elapsed":211079,"internal_node_id":"0.0-4.0-0.30","subject_id":"60e5e13a4702f70b2ac0c0a7","study_id":"6197b3f67c2b5cd3b6d9596a","session_id":"6197b89383e4d0d52fe3e769","condition":"contingent","relevant_dimensions":["wings","pattern"],"bee_group":{"antennae":"X","wings":"2","pattern":"S","legs":"X"},"action":"harvest","summary":"bad-harvest","bonus":0.9800000000000012},{"rt":787.2000000476837,"stimulus":"\n                    <p><b>Action: <em>harvest</em></b></p>\n                    <p>This is the bee that you just saw.</p>\n                    <img src=\"bees-with-color/bee-B2SM.svg\" width=\"200\">\n                    <p><span class=\"redText\">Bad choice, the bee was angry.</span><br><b>You have been stung!</b><br>Your pay has been decreased by $0.10. Your bonus pay is now $0.30.</p>\n            ","response":0,"trial_type":"html-button-response","trial_index":68,"time_elapsed":211869,"internal_node_id":"0.0-4.0-1.30","subject_id":"60e5e13a4702f70b2ac0c0a7","study_id":"6197b3f67c2b5cd3b6d9596a","session_id":"6197b89383e4d0d52fe3e769","condition":"contingent","relevant_dimensions":["wings","pattern"],"bee_group":{"antennae":"X","wings":"2","pattern":"S","legs":"X"},"bonus":0.9800000000000012},{"rt":1429.6999999284744,"stimulus":"bees-with-color/bee-B2DM.svg","response":0,"trial_type":"image-button-response","trial_index":69,"time_elapsed":213301,"internal_node_id":"0.0-4.0-0.31","subject_id":"60e5e13a4702f70b2ac0c0a7","study_id":"6197b3f67c2b5cd3b6d9596a","session_id":"6197b89383e4d0d52fe3e769","condition":"contingent","relevant_dimensions":["wings","pattern"],"bee_group":{"antennae":"X","wings":"2","pattern":"S","legs":"X"},"action":"harvest","summary":"good-harvest","bonus":0.9800000000000012},{"rt":716.2999999523163,"stimulus":"\n                    <p><b>Action: <em>harvest</em></b></p>\n                    <p>This is the bee that you just saw.</p>\n                    <img src=\"bees-with-color/bee-B2DM.svg\" width=\"200\">\n                    <p><span class=\"greenText\"><b>Successful harvest!</b></span><br>Your pay has increased by $0.02. Your bonus pay is now $0.32.</p>\n            ","response":0,"trial_type":"html-button-response","trial_index":70,"time_elapsed":214020,"internal_node_id":"0.0-4.0-1.31","subject_id":"60e5e13a4702f70b2ac0c0a7","study_id":"6197b3f67c2b5cd3b6d9596a","session_id":"6197b89383e4d0d52fe3e769","condition":"contingent","relevant_dimensions":["wings","pattern"],"bee_group":{"antennae":"X","wings":"2","pattern":"S","legs":"X"},"bonus":0.9800000000000012},{"rt":918.2999999523163,"stimulus":"bees-with-color/bee-A2DF.svg","response":0,"trial_type":"image-button-response","trial_index":71,"time_elapsed":214940,"internal_node_id":"0.0-4.0-0.32","subject_id":"60e5e13a4702f70b2ac0c0a7","study_id":"6197b3f67c2b5cd3b6d9596a","session_id":"6197b89383e4d0d52fe3e769","condition":"contingent","relevant_dimensions":["wings","pattern"],"bee_group":{"antennae":"X","wings":"2","pattern":"S","legs":"X"},"action":"harvest","summary":"good-harvest","bonus":0.9800000000000012},{"rt":614,"stimulus":"\n                    <p><b>Action: <em>harvest</em></b></p>\n                    <p>This is the bee that you just saw.</p>\n                    <img src=\"bees-with-color/bee-A2DF.svg\" width=\"200\">\n                    <p><span class=\"greenText\"><b>Successful harvest!</b></span><br>Your pay has increased by $0.02. Your bonus pay is now $0.34.</p>\n            ","response":0,"trial_type":"html-button-response","trial_index":72,"time_elapsed":215555,"internal_node_id":"0.0-4.0-1.32","subject_id":"60e5e13a4702f70b2ac0c0a7","study_id":"6197b3f67c2b5cd3b6d9596a","session_id":"6197b89383e4d0d52fe3e769","condition":"contingent","relevant_dimensions":["wings","pattern"],"bee_group":{"antennae":"X","wings":"2","pattern":"S","legs":"X"},"bonus":0.9800000000000012},{"rt":2345.0999999046326,"stimulus":"bees-with-color/bee-B1SF.svg","response":0,"trial_type":"image-button-response","trial_index":73,"time_elapsed":217903,"internal_node_id":"0.0-4.0-0.33","subject_id":"60e5e13a4702f70b2ac0c0a7","study_id":"6197b3f67c2b5cd3b6d9596a","session_id":"6197b89383e4d0d52fe3e769","condition":"contingent","relevant_dimensions":["wings","pattern"],"bee_group":{"antennae":"X","wings":"2","pattern":"S","legs":"X"},"action":"harvest","summary":"good-harvest","bonus":0.9800000000000012},{"rt":747,"stimulus":"\n                    <p><b>Action: <em>harvest</em></b></p>\n                    <p>This is the bee that you just saw.</p>\n                    <img src=\"bees-with-color/bee-B1SF.svg\" width=\"200\">\n                    <p><span class=\"greenText\"><b>Successful harvest!</b></span><br>Your pay has increased by $0.02. Your bonus pay is now $0.36.</p>\n            ","response":0,"trial_type":"html-button-response","trial_index":74,"time_elapsed":218653,"internal_node_id":"0.0-4.0-1.33","subject_id":"60e5e13a4702f70b2ac0c0a7","study_id":"6197b3f67c2b5cd3b6d9596a","session_id":"6197b89383e4d0d52fe3e769","condition":"contingent","relevant_dimensions":["wings","pattern"],"bee_group":{"antennae":"X","wings":"2","pattern":"S","legs":"X"},"bonus":0.9800000000000012},{"rt":2417,"stimulus":"bees-with-color/bee-A2DM.svg","response":0,"trial_type":"image-button-response","trial_index":75,"time_elapsed":221072,"internal_node_id":"0.0-4.0-0.34","subject_id":"60e5e13a4702f70b2ac0c0a7","study_id":"6197b3f67c2b5cd3b6d9596a","session_id":"6197b89383e4d0d52fe3e769","condition":"contingent","relevant_dimensions":["wings","pattern"],"bee_group":{"antennae":"X","wings":"2","pattern":"S","legs":"X"},"action":"harvest","summary":"good-harvest","bonus":0.9800000000000012},{"rt":728.7000000476837,"stimulus":"\n                    <p><b>Action: <em>harvest</em></b></p>\n                    <p>This is the bee that you just saw.</p>\n                    <img src=\"bees-with-color/bee-A2DM.svg\" width=\"200\">\n                    <p><span class=\"greenText\"><b>Successful harvest!</b></span><br>Your pay has increased by $0.02. Your bonus pay is now $0.38.</p>\n            ","response":0,"trial_type":"html-button-response","trial_index":76,"time_elapsed":221803,"internal_node_id":"0.0-4.0-1.34","subject_id":"60e5e13a4702f70b2ac0c0a7","study_id":"6197b3f67c2b5cd3b6d9596a","session_id":"6197b89383e4d0d52fe3e769","condition":"contingent","relevant_dimensions":["wings","pattern"],"bee_group":{"antennae":"X","wings":"2","pattern":"S","legs":"X"},"bonus":0.9800000000000012},{"rt":877.8000000715256,"stimulus":"bees-with-color/bee-A1DM.svg","response":0,"trial_type":"image-button-response","trial_index":77,"time_elapsed":222683,"internal_node_id":"0.0-4.0-0.35","subject_id":"60e5e13a4702f70b2ac0c0a7","study_id":"6197b3f67c2b5cd3b6d9596a","session_id":"6197b89383e4d0d52fe3e769","condition":"contingent","relevant_dimensions":["wings","pattern"],"bee_group":{"antennae":"X","wings":"2","pattern":"S","legs":"X"},"action":"harvest","summary":"good-harvest","bonus":0.9800000000000012},{"rt":766.2999999523163,"stimulus":"\n                    <p><b>Action: <em>harvest</em></b></p>\n                    <p>This is the bee that you just saw.</p>\n                    <img src=\"bees-with-color/bee-A1DM.svg\" width=\"200\">\n                    <p><span class=\"greenText\"><b>Successful harvest!</b></span><br>Your pay has increased by $0.02. Your bonus pay is now $0.40.</p>\n            ","response":0,"trial_type":"html-button-response","trial_index":78,"time_elapsed":223452,"internal_node_id":"0.0-4.0-1.35","subject_id":"60e5e13a4702f70b2ac0c0a7","study_id":"6197b3f67c2b5cd3b6d9596a","session_id":"6197b89383e4d0d52fe3e769","condition":"contingent","relevant_dimensions":["wings","pattern"],"bee_group":{"antennae":"X","wings":"2","pattern":"S","legs":"X"},"bonus":0.9800000000000012},{"rt":1244.6999999284744,"stimulus":"bees-with-color/bee-A2SF.svg","response":1,"trial_type":"image-button-response","trial_index":79,"time_elapsed":224701,"internal_node_id":"0.0-4.0-0.36","subject_id":"60e5e13a4702f70b2ac0c0a7","study_id":"6197b3f67c2b5cd3b6d9596a","session_id":"6197b89383e4d0d52fe3e769","condition":"contingent","relevant_dimensions":["wings","pattern"],"bee_group":{"antennae":"X","wings":"2","pattern":"S","legs":"X"},"action":"avoid","summary":"good-avoid","bonus":0.9800000000000012},{"rt":588.8999999761581,"stimulus":"\n                    <p><b>Action: <em>avoid</em></b></p>\n                    <p>This is the bee that you just saw.</p>\n                    <img src=\"bees-with-color/bee-A2SF.svg\" width=\"200\">\n                    <p><br>Your bonus pay is unchanged, and remains at $0.40.</p>\n            ","response":0,"trial_type":"html-button-response","trial_index":80,"time_elapsed":225293,"internal_node_id":"0.0-4.0-1.36","subject_id":"60e5e13a4702f70b2ac0c0a7","study_id":"6197b3f67c2b5cd3b6d9596a","session_id":"6197b89383e4d0d52fe3e769","condition":"contingent","relevant_dimensions":["wings","pattern"],"bee_group":{"antennae":"X","wings":"2","pattern":"S","legs":"X"},"bonus":0.9800000000000012},{"rt":1350.0999999046326,"stimulus":"bees-with-color/bee-B1DF.svg","response":0,"trial_type":"image-button-response","trial_index":81,"time_elapsed":226646,"internal_node_id":"0.0-4.0-0.37","subject_id":"60e5e13a4702f70b2ac0c0a7","study_id":"6197b3f67c2b5cd3b6d9596a","session_id":"6197b89383e4d0d52fe3e769","condition":"contingent","relevant_dimensions":["wings","pattern"],"bee_group":{"antennae":"X","wings":"2","pattern":"S","legs":"X"},"action":"harvest","summary":"good-harvest","bonus":0.9800000000000012},{"rt":573.6999999284744,"stimulus":"\n                    <p><b>Action: <em>harvest</em></b></p>\n                    <p>This is the bee that you just saw.</p>\n                    <img src=\"bees-with-color/bee-B1DF.svg\" width=\"200\">\n                    <p><span class=\"greenText\"><b>Successful harvest!</b></span><br>Your pay has increased by $0.02. Your bonus pay is now $0.42.</p>\n            ","response":0,"trial_type":"html-button-response","trial_index":82,"time_elapsed":227223,"internal_node_id":"0.0-4.0-1.37","subject_id":"60e5e13a4702f70b2ac0c0a7","study_id":"6197b3f67c2b5cd3b6d9596a","session_id":"6197b89383e4d0d52fe3e769","condition":"contingent","relevant_dimensions":["wings","pattern"],"bee_group":{"antennae":"X","wings":"2","pattern":"S","legs":"X"},"bonus":0.9800000000000012},{"rt":1820.5,"stimulus":"bees-with-color/bee-A1SM.svg","response":1,"trial_type":"image-button-response","trial_index":83,"time_elapsed":229048,"internal_node_id":"0.0-4.0-0.38","subject_id":"60e5e13a4702f70b2ac0c0a7","study_id":"6197b3f67c2b5cd3b6d9596a","session_id":"6197b89383e4d0d52fe3e769","condition":"contingent","relevant_dimensions":["wings","pattern"],"bee_group":{"antennae":"X","wings":"2","pattern":"S","legs":"X"},"action":"avoid","summary":"bad-avoid","bonus":0.9800000000000012},{"rt":1213.6000000238419,"stimulus":"\n                    <p><b>Action: <em>avoid</em></b></p>\n                    <p>This is the bee that you just saw.</p>\n                    <img src=\"bees-with-color/bee-A1SM.svg\" width=\"200\">\n                    <p><br>Your bonus pay is unchanged, and remains at $0.42.</p>\n            ","response":0,"trial_type":"html-button-response","trial_index":84,"time_elapsed":230264,"internal_node_id":"0.0-4.0-1.38","subject_id":"60e5e13a4702f70b2ac0c0a7","study_id":"6197b3f67c2b5cd3b6d9596a","session_id":"6197b89383e4d0d52fe3e769","condition":"contingent","relevant_dimensions":["wings","pattern"],"bee_group":{"antennae":"X","wings":"2","pattern":"S","legs":"X"},"bonus":0.9800000000000012},{"rt":2026.5999999046326,"stimulus":"bees-with-color/bee-B2SF.svg","response":1,"trial_type":"image-button-response","trial_index":85,"time_elapsed":232292,"internal_node_id":"0.0-4.0-0.39","subject_id":"60e5e13a4702f70b2ac0c0a7","study_id":"6197b3f67c2b5cd3b6d9596a","session_id":"6197b89383e4d0d52fe3e769","condition":"contingent","relevant_dimensions":["wings","pattern"],"bee_group":{"antennae":"X","wings":"2","pattern":"S","legs":"X"},"action":"avoid","summary":"good-avoid","bonus":0.9800000000000012},{"rt":602.8999999761581,"stimulus":"\n                    <p><b>Action: <em>avoid</em></b></p>\n                    <p>This is the bee that you just saw.</p>\n                    <img src=\"bees-with-color/bee-B2SF.svg\" width=\"200\">\n                    <p><br>Your bonus pay is unchanged, and remains at $0.42.</p>\n            ","response":0,"trial_type":"html-button-response","trial_index":86,"time_elapsed":232898,"internal_node_id":"0.0-4.0-1.39","subject_id":"60e5e13a4702f70b2ac0c0a7","study_id":"6197b3f67c2b5cd3b6d9596a","session_id":"6197b89383e4d0d52fe3e769","condition":"contingent","relevant_dimensions":["wings","pattern"],"bee_group":{"antennae":"X","wings":"2","pattern":"S","legs":"X"},"bonus":0.9800000000000012},{"rt":955.2000000476837,"stimulus":"bees-with-color/bee-A1DF.svg","response":0,"trial_type":"image-button-response","trial_index":87,"time_elapsed":233855,"internal_node_id":"0.0-4.0-0.40","subject_id":"60e5e13a4702f70b2ac0c0a7","study_id":"6197b3f67c2b5cd3b6d9596a","session_id":"6197b89383e4d0d52fe3e769","condition":"contingent","relevant_dimensions":["wings","pattern"],"bee_group":{"antennae":"X","wings":"2","pattern":"S","legs":"X"},"action":"harvest","summary":"good-harvest","bonus":0.9800000000000012},{"rt":590.6000000238419,"stimulus":"\n                    <p><b>Action: <em>harvest</em></b></p>\n                    <p>This is the bee that you just saw.</p>\n                    <img src=\"bees-with-color/bee-A1DF.svg\" width=\"200\">\n                    <p><span class=\"greenText\"><b>Successful harvest!</b></span><br>Your pay has increased by $0.02. Your bonus pay is now $0.44.</p>\n            ","response":0,"trial_type":"html-button-response","trial_index":88,"time_elapsed":234449,"internal_node_id":"0.0-4.0-1.40","subject_id":"60e5e13a4702f70b2ac0c0a7","study_id":"6197b3f67c2b5cd3b6d9596a","session_id":"6197b89383e4d0d52fe3e769","condition":"contingent","relevant_dimensions":["wings","pattern"],"bee_group":{"antennae":"X","wings":"2","pattern":"S","legs":"X"},"bonus":0.9800000000000012},{"rt":965.6000000238419,"stimulus":"bees-with-color/bee-B1DM.svg","response":0,"trial_type":"image-button-response","trial_index":89,"time_elapsed":235417,"internal_node_id":"0.0-4.0-0.41","subject_id":"60e5e13a4702f70b2ac0c0a7","study_id":"6197b3f67c2b5cd3b6d9596a","session_id":"6197b89383e4d0d52fe3e769","condition":"contingent","relevant_dimensions":["wings","pattern"],"bee_group":{"antennae":"X","wings":"2","pattern":"S","legs":"X"},"action":"harvest","summary":"good-harvest","bonus":0.9800000000000012},{"rt":789.1999999284744,"stimulus":"\n                    <p><b>Action: <em>harvest</em></b></p>\n                    <p>This is the bee that you just saw.</p>\n                    <img src=\"bees-with-color/bee-B1DM.svg\" width=\"200\">\n                    <p><span class=\"greenText\"><b>Successful harvest!</b></span><br>Your pay has increased by $0.02. Your bonus pay is now $0.46.</p>\n            ","response":0,"trial_type":"html-button-response","trial_index":90,"time_elapsed":236209,"internal_node_id":"0.0-4.0-1.41","subject_id":"60e5e13a4702f70b2ac0c0a7","study_id":"6197b3f67c2b5cd3b6d9596a","session_id":"6197b89383e4d0d52fe3e769","condition":"contingent","relevant_dimensions":["wings","pattern"],"bee_group":{"antennae":"X","wings":"2","pattern":"S","legs":"X"},"bonus":0.9800000000000012},{"rt":1516.7000000476837,"stimulus":"bees-with-color/bee-B1SM.svg","response":1,"trial_type":"image-button-response","trial_index":91,"time_elapsed":237728,"internal_node_id":"0.0-4.0-0.42","subject_id":"60e5e13a4702f70b2ac0c0a7","study_id":"6197b3f67c2b5cd3b6d9596a","session_id":"6197b89383e4d0d52fe3e769","condition":"contingent","relevant_dimensions":["wings","pattern"],"bee_group":{"antennae":"X","wings":"2","pattern":"S","legs":"X"},"action":"avoid","summary":"bad-avoid","bonus":0.9800000000000012},{"rt":648.7000000476837,"stimulus":"\n                    <p><b>Action: <em>avoid</em></b></p>\n                    <p>This is the bee that you just saw.</p>\n                    <img src=\"bees-with-color/bee-B1SM.svg\" width=\"200\">\n                    <p><br>Your bonus pay is unchanged, and remains at $0.46.</p>\n            ","response":0,"trial_type":"html-button-response","trial_index":92,"time_elapsed":238379,"internal_node_id":"0.0-4.0-1.42","subject_id":"60e5e13a4702f70b2ac0c0a7","study_id":"6197b3f67c2b5cd3b6d9596a","session_id":"6197b89383e4d0d52fe3e769","condition":"contingent","relevant_dimensions":["wings","pattern"],"bee_group":{"antennae":"X","wings":"2","pattern":"S","legs":"X"},"bonus":0.9800000000000012},{"rt":1234.3000000715256,"stimulus":"bees-with-color/bee-B2DM.svg","response":0,"trial_type":"image-button-response","trial_index":93,"time_elapsed":239616,"internal_node_id":"0.0-4.0-0.43","subject_id":"60e5e13a4702f70b2ac0c0a7","study_id":"6197b3f67c2b5cd3b6d9596a","session_id":"6197b89383e4d0d52fe3e769","condition":"contingent","relevant_dimensions":["wings","pattern"],"bee_group":{"antennae":"X","wings":"2","pattern":"S","legs":"X"},"action":"harvest","summary":"good-harvest","bonus":0.9800000000000012},{"rt":605.0999999046326,"stimulus":"\n                    <p><b>Action: <em>harvest</em></b></p>\n                    <p>This is the bee that you just saw.</p>\n                    <img src=\"bees-with-color/bee-B2DM.svg\" width=\"200\">\n                    <p><span class=\"greenText\"><b>Successful harvest!</b></span><br>Your pay has increased by $0.02. Your bonus pay is now $0.48.</p>\n            ","response":0,"trial_type":"html-button-response","trial_index":94,"time_elapsed":240224,"internal_node_id":"0.0-4.0-1.43","subject_id":"60e5e13a4702f70b2ac0c0a7","study_id":"6197b3f67c2b5cd3b6d9596a","session_id":"6197b89383e4d0d52fe3e769","condition":"contingent","relevant_dimensions":["wings","pattern"],"bee_group":{"antennae":"X","wings":"2","pattern":"S","legs":"X"},"bonus":0.9800000000000012},{"rt":1272,"stimulus":"bees-with-color/bee-B2DF.svg","response":0,"trial_type":"image-button-response","trial_index":95,"time_elapsed":241499,"internal_node_id":"0.0-4.0-0.44","subject_id":"60e5e13a4702f70b2ac0c0a7","study_id":"6197b3f67c2b5cd3b6d9596a","session_id":"6197b89383e4d0d52fe3e769","condition":"contingent","relevant_dimensions":["wings","pattern"],"bee_group":{"antennae":"X","wings":"2","pattern":"S","legs":"X"},"action":"harvest","summary":"good-harvest","bonus":0.9800000000000012},{"rt":737,"stimulus":"\n                    <p><b>Action: <em>harvest</em></b></p>\n                    <p>This is the bee that you just saw.</p>\n                    <img src=\"bees-with-color/bee-B2DF.svg\" width=\"200\">\n                    <p><span class=\"greenText\"><b>Successful harvest!</b></span><br>Your pay has increased by $0.02. Your bonus pay is now $0.50.</p>\n            ","response":0,"trial_type":"html-button-response","trial_index":96,"time_elapsed":242240,"internal_node_id":"0.0-4.0-1.44","subject_id":"60e5e13a4702f70b2ac0c0a7","study_id":"6197b3f67c2b5cd3b6d9596a","session_id":"6197b89383e4d0d52fe3e769","condition":"contingent","relevant_dimensions":["wings","pattern"],"bee_group":{"antennae":"X","wings":"2","pattern":"S","legs":"X"},"bonus":0.9800000000000012},{"rt":1572.7000000476837,"stimulus":"bees-with-color/bee-A1SF.svg","response":0,"trial_type":"image-button-response","trial_index":97,"time_elapsed":243815,"internal_node_id":"0.0-4.0-0.45","subject_id":"60e5e13a4702f70b2ac0c0a7","study_id":"6197b3f67c2b5cd3b6d9596a","session_id":"6197b89383e4d0d52fe3e769","condition":"contingent","relevant_dimensions":["wings","pattern"],"bee_group":{"antennae":"X","wings":"2","pattern":"S","legs":"X"},"action":"harvest","summary":"good-harvest","bonus":0.9800000000000012},{"rt":649.7999999523163,"stimulus":"\n                    <p><b>Action: <em>harvest</em></b></p>\n                    <p>This is the bee that you just saw.</p>\n                    <img src=\"bees-with-color/bee-A1SF.svg\" width=\"200\">\n                    <p><span class=\"greenText\"><b>Successful harvest!</b></span><br>Your pay has increased by $0.02. Your bonus pay is now $0.52.</p>\n            ","response":0,"trial_type":"html-button-response","trial_index":98,"time_elapsed":244467,"internal_node_id":"0.0-4.0-1.45","subject_id":"60e5e13a4702f70b2ac0c0a7","study_id":"6197b3f67c2b5cd3b6d9596a","session_id":"6197b89383e4d0d52fe3e769","condition":"contingent","relevant_dimensions":["wings","pattern"],"bee_group":{"antennae":"X","wings":"2","pattern":"S","legs":"X"},"bonus":0.9800000000000012},{"rt":1997.5,"stimulus":"bees-with-color/bee-A2SM.svg","response":1,"trial_type":"image-button-response","trial_index":99,"time_elapsed":246468,"internal_node_id":"0.0-4.0-0.46","subject_id":"60e5e13a4702f70b2ac0c0a7","study_id":"6197b3f67c2b5cd3b6d9596a","session_id":"6197b89383e4d0d52fe3e769","condition":"contingent","relevant_dimensions":["wings","pattern"],"bee_group":{"antennae":"X","wings":"2","pattern":"S","legs":"X"},"action":"avoid","summary":"good-avoid","bonus":0.9800000000000012},{"rt":642,"stimulus":"\n                    <p><b>Action: <em>avoid</em></b></p>\n                    <p>This is the bee that you just saw.</p>\n                    <img src=\"bees-with-color/bee-A2SM.svg\" width=\"200\">\n                    <p><br>Your bonus pay is unchanged, and remains at $0.52.</p>\n            ","response":0,"trial_type":"html-button-response","trial_index":100,"time_elapsed":247114,"internal_node_id":"0.0-4.0-1.46","subject_id":"60e5e13a4702f70b2ac0c0a7","study_id":"6197b3f67c2b5cd3b6d9596a","session_id":"6197b89383e4d0d52fe3e769","condition":"contingent","relevant_dimensions":["wings","pattern"],"bee_group":{"antennae":"X","wings":"2","pattern":"S","legs":"X"},"bonus":0.9800000000000012},{"rt":2114.1999999284744,"stimulus":"bees-with-color/bee-B2SM.svg","response":1,"trial_type":"image-button-response","trial_index":101,"time_elapsed":249231,"internal_node_id":"0.0-4.0-0.47","subject_id":"60e5e13a4702f70b2ac0c0a7","study_id":"6197b3f67c2b5cd3b6d9596a","session_id":"6197b89383e4d0d52fe3e769","condition":"contingent","relevant_dimensions":["wings","pattern"],"bee_group":{"antennae":"X","wings":"2","pattern":"S","legs":"X"},"action":"avoid","summary":"good-avoid","bonus":0.9800000000000012},{"rt":541.2000000476837,"stimulus":"\n                    <p><b>Action: <em>avoid</em></b></p>\n                    <p>This is the bee that you just saw.</p>\n                    <img src=\"bees-with-color/bee-B2SM.svg\" width=\"200\">\n                    <p><br>Your bonus pay is unchanged, and remains at $0.52.</p>\n            ","response":0,"trial_type":"html-button-response","trial_index":102,"time_elapsed":249775,"internal_node_id":"0.0-4.0-1.47","subject_id":"60e5e13a4702f70b2ac0c0a7","study_id":"6197b3f67c2b5cd3b6d9596a","session_id":"6197b89383e4d0d52fe3e769","condition":"contingent","relevant_dimensions":["wings","pattern"],"bee_group":{"antennae":"X","wings":"2","pattern":"S","legs":"X"},"bonus":0.9800000000000012},{"rt":1477.5,"stimulus":"bees-with-color/bee-B2SM.svg","response":1,"trial_type":"image-button-response","trial_index":103,"time_elapsed":251257,"internal_node_id":"0.0-4.0-0.48","subject_id":"60e5e13a4702f70b2ac0c0a7","study_id":"6197b3f67c2b5cd3b6d9596a","session_id":"6197b89383e4d0d52fe3e769","condition":"contingent","relevant_dimensions":["wings","pattern"],"bee_group":{"antennae":"X","wings":"2","pattern":"S","legs":"X"},"action":"avoid","summary":"good-avoid","bonus":0.9800000000000012},{"rt":649.8999999761581,"stimulus":"\n                    <p><b>Action: <em>avoid</em></b></p>\n                    <p>This is the bee that you just saw.</p>\n                    <img src=\"bees-with-color/bee-B2SM.svg\" width=\"200\">\n                    <p><br>Your bonus pay is unchanged, and remains at $0.52.</p>\n            ","response":0,"trial_type":"html-button-response","trial_index":104,"time_elapsed":251912,"internal_node_id":"0.0-4.0-1.48","subject_id":"60e5e13a4702f70b2ac0c0a7","study_id":"6197b3f67c2b5cd3b6d9596a","session_id":"6197b89383e4d0d52fe3e769","condition":"contingent","relevant_dimensions":["wings","pattern"],"bee_group":{"antennae":"X","wings":"2","pattern":"S","legs":"X"},"bonus":0.9800000000000012},{"rt":933,"stimulus":"bees-with-color/bee-B1DM.svg","response":0,"trial_type":"image-button-response","trial_index":105,"time_elapsed":252847,"internal_node_id":"0.0-4.0-0.49","subject_id":"60e5e13a4702f70b2ac0c0a7","study_id":"6197b3f67c2b5cd3b6d9596a","session_id":"6197b89383e4d0d52fe3e769","condition":"contingent","relevant_dimensions":["wings","pattern"],"bee_group":{"antennae":"X","wings":"2","pattern":"S","legs":"X"},"action":"harvest","summary":"good-harvest","bonus":0.9800000000000012},{"rt":613.7000000476837,"stimulus":"\n                    <p><b>Action: <em>harvest</em></b></p>\n                    <p>This is the bee that you just saw.</p>\n                    <img src=\"bees-with-color/bee-B1DM.svg\" width=\"200\">\n                    <p><span class=\"greenText\"><b>Successful harvest!</b></span><br>Your pay has increased by $0.02. Your bonus pay is now $0.54.</p>\n            ","response":0,"trial_type":"html-button-response","trial_index":106,"time_elapsed":253463,"internal_node_id":"0.0-4.0-1.49","subject_id":"60e5e13a4702f70b2ac0c0a7","study_id":"6197b3f67c2b5cd3b6d9596a","session_id":"6197b89383e4d0d52fe3e769","condition":"contingent","relevant_dimensions":["wings","pattern"],"bee_group":{"antennae":"X","wings":"2","pattern":"S","legs":"X"},"bonus":0.9800000000000012},{"rt":927.8000000715256,"stimulus":"bees-with-color/bee-A1DF.svg","response":0,"trial_type":"image-button-response","trial_index":107,"time_elapsed":254396,"internal_node_id":"0.0-4.0-0.50","subject_id":"60e5e13a4702f70b2ac0c0a7","study_id":"6197b3f67c2b5cd3b6d9596a","session_id":"6197b89383e4d0d52fe3e769","condition":"contingent","relevant_dimensions":["wings","pattern"],"bee_group":{"antennae":"X","wings":"2","pattern":"S","legs":"X"},"action":"harvest","summary":"good-harvest","bonus":0.9800000000000012},{"rt":625.6000000238419,"stimulus":"\n                    <p><b>Action: <em>harvest</em></b></p>\n                    <p>This is the bee that you just saw.</p>\n                    <img src=\"bees-with-color/bee-A1DF.svg\" width=\"200\">\n                    <p><span class=\"greenText\"><b>Successful harvest!</b></span><br>Your pay has increased by $0.02. Your bonus pay is now $0.56.</p>\n            ","response":0,"trial_type":"html-button-response","trial_index":108,"time_elapsed":255024,"internal_node_id":"0.0-4.0-1.50","subject_id":"60e5e13a4702f70b2ac0c0a7","study_id":"6197b3f67c2b5cd3b6d9596a","session_id":"6197b89383e4d0d52fe3e769","condition":"contingent","relevant_dimensions":["wings","pattern"],"bee_group":{"antennae":"X","wings":"2","pattern":"S","legs":"X"},"bonus":0.9800000000000012},{"rt":1069.9000000953674,"stimulus":"bees-with-color/bee-A2DF.svg","response":0,"trial_type":"image-button-response","trial_index":109,"time_elapsed":256096,"internal_node_id":"0.0-4.0-0.51","subject_id":"60e5e13a4702f70b2ac0c0a7","study_id":"6197b3f67c2b5cd3b6d9596a","session_id":"6197b89383e4d0d52fe3e769","condition":"contingent","relevant_dimensions":["wings","pattern"],"bee_group":{"antennae":"X","wings":"2","pattern":"S","legs":"X"},"action":"harvest","summary":"good-harvest","bonus":0.9800000000000012},{"rt":601.1999999284744,"stimulus":"\n                    <p><b>Action: <em>harvest</em></b></p>\n                    <p>This is the bee that you just saw.</p>\n                    <img src=\"bees-with-color/bee-A2DF.svg\" width=\"200\">\n                    <p><span class=\"greenText\"><b>Successful harvest!</b></span><br>Your pay has increased by $0.02. Your bonus pay is now $0.58.</p>\n            ","response":0,"trial_type":"html-button-response","trial_index":110,"time_elapsed":256699,"internal_node_id":"0.0-4.0-1.51","subject_id":"60e5e13a4702f70b2ac0c0a7","study_id":"6197b3f67c2b5cd3b6d9596a","session_id":"6197b89383e4d0d52fe3e769","condition":"contingent","relevant_dimensions":["wings","pattern"],"bee_group":{"antennae":"X","wings":"2","pattern":"S","legs":"X"},"bonus":0.9800000000000012},{"rt":1017.2999999523163,"stimulus":"bees-with-color/bee-A1DM.svg","response":0,"trial_type":"image-button-response","trial_index":111,"time_elapsed":257719,"internal_node_id":"0.0-4.0-0.52","subject_id":"60e5e13a4702f70b2ac0c0a7","study_id":"6197b3f67c2b5cd3b6d9596a","session_id":"6197b89383e4d0d52fe3e769","condition":"contingent","relevant_dimensions":["wings","pattern"],"bee_group":{"antennae":"X","wings":"2","pattern":"S","legs":"X"},"action":"harvest","summary":"good-harvest","bonus":0.9800000000000012},{"rt":606.1000000238419,"stimulus":"\n                    <p><b>Action: <em>harvest</em></b></p>\n                    <p>This is the bee that you just saw.</p>\n                    <img src=\"bees-with-color/bee-A1DM.svg\" width=\"200\">\n                    <p><span class=\"greenText\"><b>Successful harvest!</b></span><br>Your pay has increased by $0.02. Your bonus pay is now $0.60.</p>\n            ","response":0,"trial_type":"html-button-response","trial_index":112,"time_elapsed":258327,"internal_node_id":"0.0-4.0-1.52","subject_id":"60e5e13a4702f70b2ac0c0a7","study_id":"6197b3f67c2b5cd3b6d9596a","session_id":"6197b89383e4d0d52fe3e769","condition":"contingent","relevant_dimensions":["wings","pattern"],"bee_group":{"antennae":"X","wings":"2","pattern":"S","legs":"X"},"bonus":0.9800000000000012},{"rt":1142.6000000238419,"stimulus":"bees-with-color/bee-A2DM.svg","response":0,"trial_type":"image-button-response","trial_index":113,"time_elapsed":259473,"internal_node_id":"0.0-4.0-0.53","subject_id":"60e5e13a4702f70b2ac0c0a7","study_id":"6197b3f67c2b5cd3b6d9596a","session_id":"6197b89383e4d0d52fe3e769","condition":"contingent","relevant_dimensions":["wings","pattern"],"bee_group":{"antennae":"X","wings":"2","pattern":"S","legs":"X"},"action":"harvest","summary":"good-harvest","bonus":0.9800000000000012},{"rt":984.7999999523163,"stimulus":"\n                    <p><b>Action: <em>harvest</em></b></p>\n                    <p>This is the bee that you just saw.</p>\n                    <img src=\"bees-with-color/bee-A2DM.svg\" width=\"200\">\n                    <p><span class=\"greenText\"><b>Successful harvest!</b></span><br>Your pay has increased by $0.02. Your bonus pay is now $0.62.</p>\n            ","response":0,"trial_type":"html-button-response","trial_index":114,"time_elapsed":260463,"internal_node_id":"0.0-4.0-1.53","subject_id":"60e5e13a4702f70b2ac0c0a7","study_id":"6197b3f67c2b5cd3b6d9596a","session_id":"6197b89383e4d0d52fe3e769","condition":"contingent","relevant_dimensions":["wings","pattern"],"bee_group":{"antennae":"X","wings":"2","pattern":"S","legs":"X"},"bonus":0.9800000000000012},{"rt":1661.3999999761581,"stimulus":"bees-with-color/bee-B2SF.svg","response":1,"trial_type":"image-button-response","trial_index":115,"time_elapsed":262127,"internal_node_id":"0.0-4.0-0.54","subject_id":"60e5e13a4702f70b2ac0c0a7","study_id":"6197b3f67c2b5cd3b6d9596a","session_id":"6197b89383e4d0d52fe3e769","condition":"contingent","relevant_dimensions":["wings","pattern"],"bee_group":{"antennae":"X","wings":"2","pattern":"S","legs":"X"},"action":"avoid","summary":"good-avoid","bonus":0.9800000000000012},{"rt":501.5,"stimulus":"\n                    <p><b>Action: <em>avoid</em></b></p>\n                    <p>This is the bee that you just saw.</p>\n                    <img src=\"bees-with-color/bee-B2SF.svg\" width=\"200\">\n                    <p><br>Your bonus pay is unchanged, and remains at $0.62.</p>\n            ","response":0,"trial_type":"html-button-response","trial_index":116,"time_elapsed":262631,"internal_node_id":"0.0-4.0-1.54","subject_id":"60e5e13a4702f70b2ac0c0a7","study_id":"6197b3f67c2b5cd3b6d9596a","session_id":"6197b89383e4d0d52fe3e769","condition":"contingent","relevant_dimensions":["wings","pattern"],"bee_group":{"antennae":"X","wings":"2","pattern":"S","legs":"X"},"bonus":0.9800000000000012},{"rt":926.1999999284744,"stimulus":"bees-with-color/bee-B2DM.svg","response":0,"trial_type":"image-button-response","trial_index":117,"time_elapsed":263559,"internal_node_id":"0.0-4.0-0.55","subject_id":"60e5e13a4702f70b2ac0c0a7","study_id":"6197b3f67c2b5cd3b6d9596a","session_id":"6197b89383e4d0d52fe3e769","condition":"contingent","relevant_dimensions":["wings","pattern"],"bee_group":{"antennae":"X","wings":"2","pattern":"S","legs":"X"},"action":"harvest","summary":"good-harvest","bonus":0.9800000000000012},{"rt":517.7000000476837,"stimulus":"\n                    <p><b>Action: <em>harvest</em></b></p>\n                    <p>This is the bee that you just saw.</p>\n                    <img src=\"bees-with-color/bee-B2DM.svg\" width=\"200\">\n                    <p><span class=\"greenText\"><b>Successful harvest!</b></span><br>Your pay has increased by $0.02. Your bonus pay is now $0.64.</p>\n            ","response":0,"trial_type":"html-button-response","trial_index":118,"time_elapsed":264080,"internal_node_id":"0.0-4.0-1.55","subject_id":"60e5e13a4702f70b2ac0c0a7","study_id":"6197b3f67c2b5cd3b6d9596a","session_id":"6197b89383e4d0d52fe3e769","condition":"contingent","relevant_dimensions":["wings","pattern"],"bee_group":{"antennae":"X","wings":"2","pattern":"S","legs":"X"},"bonus":0.9800000000000012},{"rt":1100.4000000953674,"stimulus":"bees-with-color/bee-B1SF.svg","response":0,"trial_type":"image-button-response","trial_index":119,"time_elapsed":265183,"internal_node_id":"0.0-4.0-0.56","subject_id":"60e5e13a4702f70b2ac0c0a7","study_id":"6197b3f67c2b5cd3b6d9596a","session_id":"6197b89383e4d0d52fe3e769","condition":"contingent","relevant_dimensions":["wings","pattern"],"bee_group":{"antennae":"X","wings":"2","pattern":"S","legs":"X"},"action":"harvest","summary":"good-harvest","bonus":0.9800000000000012},{"rt":518,"stimulus":"\n                    <p><b>Action: <em>harvest</em></b></p>\n                    <p>This is the bee that you just saw.</p>\n                    <img src=\"bees-with-color/bee-B1SF.svg\" width=\"200\">\n                    <p><span class=\"greenText\"><b>Successful harvest!</b></span><br>Your pay has increased by $0.02. Your bonus pay is now $0.66.</p>\n            ","response":0,"trial_type":"html-button-response","trial_index":120,"time_elapsed":265703,"internal_node_id":"0.0-4.0-1.56","subject_id":"60e5e13a4702f70b2ac0c0a7","study_id":"6197b3f67c2b5cd3b6d9596a","session_id":"6197b89383e4d0d52fe3e769","condition":"contingent","relevant_dimensions":["wings","pattern"],"bee_group":{"antennae":"X","wings":"2","pattern":"S","legs":"X"},"bonus":0.9800000000000012},{"rt":1327.5,"stimulus":"bees-with-color/bee-A1SM.svg","response":1,"trial_type":"image-button-response","trial_index":121,"time_elapsed":267039,"internal_node_id":"0.0-4.0-0.57","subject_id":"60e5e13a4702f70b2ac0c0a7","study_id":"6197b3f67c2b5cd3b6d9596a","session_id":"6197b89383e4d0d52fe3e769","condition":"contingent","relevant_dimensions":["wings","pattern"],"bee_group":{"antennae":"X","wings":"2","pattern":"S","legs":"X"},"action":"avoid","summary":"bad-avoid","bonus":0.9800000000000012},{"rt":542.2999999523163,"stimulus":"\n                    <p><b>Action: <em>avoid</em></b></p>\n                    <p>This is the bee that you just saw.</p>\n                    <img src=\"bees-with-color/bee-A1SM.svg\" width=\"200\">\n                    <p><br>Your bonus pay is unchanged, and remains at $0.66.</p>\n            ","response":0,"trial_type":"html-button-response","trial_index":122,"time_elapsed":267583,"internal_node_id":"0.0-4.0-1.57","subject_id":"60e5e13a4702f70b2ac0c0a7","study_id":"6197b3f67c2b5cd3b6d9596a","session_id":"6197b89383e4d0d52fe3e769","condition":"contingent","relevant_dimensions":["wings","pattern"],"bee_group":{"antennae":"X","wings":"2","pattern":"S","legs":"X"},"bonus":0.9800000000000012},{"rt":1150.6000000238419,"stimulus":"bees-with-color/bee-A2SM.svg","response":1,"trial_type":"image-button-response","trial_index":123,"time_elapsed":268736,"internal_node_id":"0.0-4.0-0.58","subject_id":"60e5e13a4702f70b2ac0c0a7","study_id":"6197b3f67c2b5cd3b6d9596a","session_id":"6197b89383e4d0d52fe3e769","condition":"contingent","relevant_dimensions":["wings","pattern"],"bee_group":{"antennae":"X","wings":"2","pattern":"S","legs":"X"},"action":"avoid","summary":"good-avoid","bonus":0.9800000000000012},{"rt":485.60000002384186,"stimulus":"\n                    <p><b>Action: <em>avoid</em></b></p>\n                    <p>This is the bee that you just saw.</p>\n                    <img src=\"bees-with-color/bee-A2SM.svg\" width=\"200\">\n                    <p><br>Your bonus pay is unchanged, and remains at $0.66.</p>\n            ","response":0,"trial_type":"html-button-response","trial_index":124,"time_elapsed":269231,"internal_node_id":"0.0-4.0-1.58","subject_id":"60e5e13a4702f70b2ac0c0a7","study_id":"6197b3f67c2b5cd3b6d9596a","session_id":"6197b89383e4d0d52fe3e769","condition":"contingent","relevant_dimensions":["wings","pattern"],"bee_group":{"antennae":"X","wings":"2","pattern":"S","legs":"X"},"bonus":0.9800000000000012},{"rt":817.6999999284744,"stimulus":"bees-with-color/bee-B1DF.svg","response":0,"trial_type":"image-button-response","trial_index":125,"time_elapsed":270051,"internal_node_id":"0.0-4.0-0.59","subject_id":"60e5e13a4702f70b2ac0c0a7","study_id":"6197b3f67c2b5cd3b6d9596a","session_id":"6197b89383e4d0d52fe3e769","condition":"contingent","relevant_dimensions":["wings","pattern"],"bee_group":{"antennae":"X","wings":"2","pattern":"S","legs":"X"},"action":"harvest","summary":"good-harvest","bonus":0.9800000000000012},{"rt":545.6000000238419,"stimulus":"\n                    <p><b>Action: <em>harvest</em></b></p>\n                    <p>This is the bee that you just saw.</p>\n                    <img src=\"bees-with-color/bee-B1DF.svg\" width=\"200\">\n                    <p><span class=\"greenText\"><b>Successful harvest!</b></span><br>Your pay has increased by $0.02. Your bonus pay is now $0.68.</p>\n            ","response":0,"trial_type":"html-button-response","trial_index":126,"time_elapsed":270599,"internal_node_id":"0.0-4.0-1.59","subject_id":"60e5e13a4702f70b2ac0c0a7","study_id":"6197b3f67c2b5cd3b6d9596a","session_id":"6197b89383e4d0d52fe3e769","condition":"contingent","relevant_dimensions":["wings","pattern"],"bee_group":{"antennae":"X","wings":"2","pattern":"S","legs":"X"},"bonus":0.9800000000000012},{"rt":1134.3999999761581,"stimulus":"bees-with-color/bee-B2DF.svg","response":0,"trial_type":"image-button-response","trial_index":127,"time_elapsed":271735,"internal_node_id":"0.0-4.0-0.60","subject_id":"60e5e13a4702f70b2ac0c0a7","study_id":"6197b3f67c2b5cd3b6d9596a","session_id":"6197b89383e4d0d52fe3e769","condition":"contingent","relevant_dimensions":["wings","pattern"],"bee_group":{"antennae":"X","wings":"2","pattern":"S","legs":"X"},"action":"harvest","summary":"good-harvest","bonus":0.9800000000000012},{"rt":1820.5,"stimulus":"\n                    <p><b>Action: <em>harvest</em></b></p>\n                    <p>This is the bee that you just saw.</p>\n                    <img src=\"bees-with-color/bee-B2DF.svg\" width=\"200\">\n                    <p><span class=\"greenText\"><b>Successful harvest!</b></span><br>Your pay has increased by $0.02. Your bonus pay is now $0.70.</p>\n            ","response":0,"trial_type":"html-button-response","trial_index":128,"time_elapsed":273559,"internal_node_id":"0.0-4.0-1.60","subject_id":"60e5e13a4702f70b2ac0c0a7","study_id":"6197b3f67c2b5cd3b6d9596a","session_id":"6197b89383e4d0d52fe3e769","condition":"contingent","relevant_dimensions":["wings","pattern"],"bee_group":{"antennae":"X","wings":"2","pattern":"S","legs":"X"},"bonus":0.9800000000000012},{"rt":1484.2000000476837,"stimulus":"bees-with-color/bee-A1SF.svg","response":1,"trial_type":"image-button-response","trial_index":129,"time_elapsed":275048,"internal_node_id":"0.0-4.0-0.61","subject_id":"60e5e13a4702f70b2ac0c0a7","study_id":"6197b3f67c2b5cd3b6d9596a","session_id":"6197b89383e4d0d52fe3e769","condition":"contingent","relevant_dimensions":["wings","pattern"],"bee_group":{"antennae":"X","wings":"2","pattern":"S","legs":"X"},"action":"avoid","summary":"bad-avoid","bonus":0.9800000000000012},{"rt":709,"stimulus":"\n                    <p><b>Action: <em>avoid</em></b></p>\n                    <p>This is the bee that you just saw.</p>\n                    <img src=\"bees-with-color/bee-A1SF.svg\" width=\"200\">\n                    <p><br>Your bonus pay is unchanged, and remains at $0.70.</p>\n            ","response":0,"trial_type":"html-button-response","trial_index":130,"time_elapsed":275760,"internal_node_id":"0.0-4.0-1.61","subject_id":"60e5e13a4702f70b2ac0c0a7","study_id":"6197b3f67c2b5cd3b6d9596a","session_id":"6197b89383e4d0d52fe3e769","condition":"contingent","relevant_dimensions":["wings","pattern"],"bee_group":{"antennae":"X","wings":"2","pattern":"S","legs":"X"},"bonus":0.9800000000000012},{"rt":1109.2999999523163,"stimulus":"bees-with-color/bee-B1SM.svg","response":1,"trial_type":"image-button-response","trial_index":131,"time_elapsed":276876,"internal_node_id":"0.0-4.0-0.62","subject_id":"60e5e13a4702f70b2ac0c0a7","study_id":"6197b3f67c2b5cd3b6d9596a","session_id":"6197b89383e4d0d52fe3e769","condition":"contingent","relevant_dimensions":["wings","pattern"],"bee_group":{"antennae":"X","wings":"2","pattern":"S","legs":"X"},"action":"avoid","summary":"bad-avoid","bonus":0.9800000000000012},{"rt":617.1999999284744,"stimulus":"\n                    <p><b>Action: <em>avoid</em></b></p>\n                    <p>This is the bee that you just saw.</p>\n                    <img src=\"bees-with-color/bee-B1SM.svg\" width=\"200\">\n                    <p><br>Your bonus pay is unchanged, and remains at $0.70.</p>\n            ","response":0,"trial_type":"html-button-response","trial_index":132,"time_elapsed":277497,"internal_node_id":"0.0-4.0-1.62","subject_id":"60e5e13a4702f70b2ac0c0a7","study_id":"6197b3f67c2b5cd3b6d9596a","session_id":"6197b89383e4d0d52fe3e769","condition":"contingent","relevant_dimensions":["wings","pattern"],"bee_group":{"antennae":"X","wings":"2","pattern":"S","legs":"X"},"bonus":0.9800000000000012},{"rt":2500.5,"stimulus":"bees-with-color/bee-A2SF.svg","response":1,"trial_type":"image-button-response","trial_index":133,"time_elapsed":279999,"internal_node_id":"0.0-4.0-0.63","subject_id":"60e5e13a4702f70b2ac0c0a7","study_id":"6197b3f67c2b5cd3b6d9596a","session_id":"6197b89383e4d0d52fe3e769","condition":"contingent","relevant_dimensions":["wings","pattern"],"bee_group":{"antennae":"X","wings":"2","pattern":"S","legs":"X"},"action":"avoid","summary":"good-avoid","bonus":0.9800000000000012},{"rt":809.3000000715256,"stimulus":"\n                    <p><b>Action: <em>avoid</em></b></p>\n                    <p>This is the bee that you just saw.</p>\n                    <img src=\"bees-with-color/bee-A2SF.svg\" width=\"200\">\n                    <p><br>Your bonus pay is unchanged, and remains at $0.70.</p>\n            ","response":0,"trial_type":"html-button-response","trial_index":134,"time_elapsed":280811,"internal_node_id":"0.0-4.0-1.63","subject_id":"60e5e13a4702f70b2ac0c0a7","study_id":"6197b3f67c2b5cd3b6d9596a","session_id":"6197b89383e4d0d52fe3e769","condition":"contingent","relevant_dimensions":["wings","pattern"],"bee_group":{"antennae":"X","wings":"2","pattern":"S","legs":"X"},"bonus":0.9800000000000012},{"rt":13566.5,"stimulus":"You have completed the first part of this experiment.<br><br>You will now begin a shorter second part, in which you will receive no feedback.<br>The same rules regarding bonus pay apply.<br><br>Press any key to begin.","response":" ","trial_type":"html-keyboard-response","trial_index":135,"time_elapsed":294380,"internal_node_id":"0.0-5.0","subject_id":"60e5e13a4702f70b2ac0c0a7","study_id":"6197b3f67c2b5cd3b6d9596a","session_id":"6197b89383e4d0d52fe3e769","condition":"contingent","relevant_dimensions":["wings","pattern"],"bee_group":{"antennae":"X","wings":"2","pattern":"S","legs":"X"},"bonus":0.9800000000000012},{"rt":2257.7999999523163,"stimulus":"bees-with-color/bee-A2SF.svg","response":0,"trial_type":"image-button-response","trial_index":136,"time_elapsed":296668,"internal_node_id":"0.0-6.0-0.0","subject_id":"60e5e13a4702f70b2ac0c0a7","study_id":"6197b3f67c2b5cd3b6d9596a","session_id":"6197b89383e4d0d52fe3e769","condition":"contingent","relevant_dimensions":["wings","pattern"],"bee_group":{"antennae":"X","wings":"2","pattern":"S","legs":"X"},"bonus":0.9800000000000012},{"rt":4475,"stimulus":"bees-with-color/bee-B1SF.svg","response":0,"trial_type":"image-button-response","trial_index":137,"time_elapsed":301148,"internal_node_id":"0.0-6.0-0.1","subject_id":"60e5e13a4702f70b2ac0c0a7","study_id":"6197b3f67c2b5cd3b6d9596a","session_id":"6197b89383e4d0d52fe3e769","condition":"contingent","relevant_dimensions":["wings","pattern"],"bee_group":{"antennae":"X","wings":"2","pattern":"S","legs":"X"},"bonus":0.9800000000000012},{"rt":2448.899999976158,"stimulus":"bees-with-color/bee-B2SF.svg","response":1,"trial_type":"image-button-response","trial_index":138,"time_elapsed":303600,"internal_node_id":"0.0-6.0-0.2","subject_id":"60e5e13a4702f70b2ac0c0a7","study_id":"6197b3f67c2b5cd3b6d9596a","session_id":"6197b89383e4d0d52fe3e769","condition":"contingent","relevant_dimensions":["wings","pattern"],"bee_group":{"antennae":"X","wings":"2","pattern":"S","legs":"X"},"bonus":0.9800000000000012},{"rt":816.5,"stimulus":"bees-with-color/bee-B1DF.svg","response":0,"trial_type":"image-button-response","trial_index":139,"time_elapsed":304421,"internal_node_id":"0.0-6.0-0.3","subject_id":"60e5e13a4702f70b2ac0c0a7","study_id":"6197b3f67c2b5cd3b6d9596a","session_id":"6197b89383e4d0d52fe3e769","condition":"contingent","relevant_dimensions":["wings","pattern"],"bee_group":{"antennae":"X","wings":"2","pattern":"S","legs":"X"},"bonus":0.9800000000000012},{"rt":706.8999999761581,"stimulus":"bees-with-color/bee-A2DF.svg","response":0,"trial_type":"image-button-response","trial_index":140,"time_elapsed":305131,"internal_node_id":"0.0-6.0-0.4","subject_id":"60e5e13a4702f70b2ac0c0a7","study_id":"6197b3f67c2b5cd3b6d9596a","session_id":"6197b89383e4d0d52fe3e769","condition":"contingent","relevant_dimensions":["wings","pattern"],"bee_group":{"antennae":"X","wings":"2","pattern":"S","legs":"X"},"bonus":0.9800000000000012},{"rt":1630.2000000476837,"stimulus":"bees-with-color/bee-A1SM.svg","response":1,"trial_type":"image-button-response","trial_index":141,"time_elapsed":306769,"internal_node_id":"0.0-6.0-0.5","subject_id":"60e5e13a4702f70b2ac0c0a7","study_id":"6197b3f67c2b5cd3b6d9596a","session_id":"6197b89383e4d0d52fe3e769","condition":"contingent","relevant_dimensions":["wings","pattern"],"bee_group":{"antennae":"X","wings":"2","pattern":"S","legs":"X"},"bonus":0.9800000000000012},{"rt":896.6999999284744,"stimulus":"bees-with-color/bee-B2DM.svg","response":0,"trial_type":"image-button-response","trial_index":142,"time_elapsed":307669,"internal_node_id":"0.0-6.0-0.6","subject_id":"60e5e13a4702f70b2ac0c0a7","study_id":"6197b3f67c2b5cd3b6d9596a","session_id":"6197b89383e4d0d52fe3e769","condition":"contingent","relevant_dimensions":["wings","pattern"],"bee_group":{"antennae":"X","wings":"2","pattern":"S","legs":"X"},"bonus":0.9800000000000012},{"rt":1155.1000000238419,"stimulus":"bees-with-color/bee-A1SF.svg","response":0,"trial_type":"image-button-response","trial_index":143,"time_elapsed":308827,"internal_node_id":"0.0-6.0-0.7","subject_id":"60e5e13a4702f70b2ac0c0a7","study_id":"6197b3f67c2b5cd3b6d9596a","session_id":"6197b89383e4d0d52fe3e769","condition":"contingent","relevant_dimensions":["wings","pattern"],"bee_group":{"antennae":"X","wings":"2","pattern":"S","legs":"X"},"bonus":0.9800000000000012},{"rt":957.1000000238419,"stimulus":"bees-with-color/bee-B2DF.svg","response":0,"trial_type":"image-button-response","trial_index":144,"time_elapsed":309787,"internal_node_id":"0.0-6.0-0.8","subject_id":"60e5e13a4702f70b2ac0c0a7","study_id":"6197b3f67c2b5cd3b6d9596a","session_id":"6197b89383e4d0d52fe3e769","condition":"contingent","relevant_dimensions":["wings","pattern"],"bee_group":{"antennae":"X","wings":"2","pattern":"S","legs":"X"},"bonus":0.9800000000000012},{"rt":841.3000000715256,"stimulus":"bees-with-color/bee-A2DM.svg","response":0,"trial_type":"image-button-response","trial_index":145,"time_elapsed":310632,"internal_node_id":"0.0-6.0-0.9","subject_id":"60e5e13a4702f70b2ac0c0a7","study_id":"6197b3f67c2b5cd3b6d9596a","session_id":"6197b89383e4d0d52fe3e769","condition":"contingent","relevant_dimensions":["wings","pattern"],"bee_group":{"antennae":"X","wings":"2","pattern":"S","legs":"X"},"bonus":0.9800000000000012},{"rt":1347.6999999284744,"stimulus":"bees-with-color/bee-B2SM.svg","response":1,"trial_type":"image-button-response","trial_index":146,"time_elapsed":311985,"internal_node_id":"0.0-6.0-0.10","subject_id":"60e5e13a4702f70b2ac0c0a7","study_id":"6197b3f67c2b5cd3b6d9596a","session_id":"6197b89383e4d0d52fe3e769","condition":"contingent","relevant_dimensions":["wings","pattern"],"bee_group":{"antennae":"X","wings":"2","pattern":"S","legs":"X"},"bonus":0.9800000000000012},{"rt":900.2999999523163,"stimulus":"bees-with-color/bee-A2SM.svg","response":1,"trial_type":"image-button-response","trial_index":147,"time_elapsed":312893,"internal_node_id":"0.0-6.0-0.11","subject_id":"60e5e13a4702f70b2ac0c0a7","study_id":"6197b3f67c2b5cd3b6d9596a","session_id":"6197b89383e4d0d52fe3e769","condition":"contingent","relevant_dimensions":["wings","pattern"],"bee_group":{"antennae":"X","wings":"2","pattern":"S","legs":"X"},"bonus":0.9800000000000012},{"rt":847.8000000715256,"stimulus":"bees-with-color/bee-B1DM.svg","response":0,"trial_type":"image-button-response","trial_index":148,"time_elapsed":313743,"internal_node_id":"0.0-6.0-0.12","subject_id":"60e5e13a4702f70b2ac0c0a7","study_id":"6197b3f67c2b5cd3b6d9596a","session_id":"6197b89383e4d0d52fe3e769","condition":"contingent","relevant_dimensions":["wings","pattern"],"bee_group":{"antennae":"X","wings":"2","pattern":"S","legs":"X"},"bonus":0.9800000000000012},{"rt":777.3999999761581,"stimulus":"bees-with-color/bee-A1DF.svg","response":0,"trial_type":"image-button-response","trial_index":149,"time_elapsed":314524,"internal_node_id":"0.0-6.0-0.13","subject_id":"60e5e13a4702f70b2ac0c0a7","study_id":"6197b3f67c2b5cd3b6d9596a","session_id":"6197b89383e4d0d52fe3e769","condition":"contingent","relevant_dimensions":["wings","pattern"],"bee_group":{"antennae":"X","wings":"2","pattern":"S","legs":"X"},"bonus":0.9800000000000012},{"rt":3396.100000023842,"stimulus":"bees-with-color/bee-B1SM.svg","response":1,"trial_type":"image-button-response","trial_index":150,"time_elapsed":317923,"internal_node_id":"0.0-6.0-0.14","subject_id":"60e5e13a4702f70b2ac0c0a7","study_id":"6197b3f67c2b5cd3b6d9596a","session_id":"6197b89383e4d0d52fe3e769","condition":"contingent","relevant_dimensions":["wings","pattern"],"bee_group":{"antennae":"X","wings":"2","pattern":"S","legs":"X"},"bonus":0.9800000000000012},{"rt":863.1000000238419,"stimulus":"bees-with-color/bee-A1DM.svg","response":0,"trial_type":"image-button-response","trial_index":151,"time_elapsed":318790,"internal_node_id":"0.0-6.0-0.15","subject_id":"60e5e13a4702f70b2ac0c0a7","study_id":"6197b3f67c2b5cd3b6d9596a","session_id":"6197b89383e4d0d52fe3e769","condition":"contingent","relevant_dimensions":["wings","pattern"],"bee_group":{"antennae":"X","wings":"2","pattern":"S","legs":"X"},"bonus":0.9800000000000012},{"rt":1450.8999999761581,"stimulus":"bees-with-color/bee-B1SF.svg","response":1,"trial_type":"image-button-response","trial_index":152,"time_elapsed":320244,"internal_node_id":"0.0-6.0-0.16","subject_id":"60e5e13a4702f70b2ac0c0a7","study_id":"6197b3f67c2b5cd3b6d9596a","session_id":"6197b89383e4d0d52fe3e769","condition":"contingent","relevant_dimensions":["wings","pattern"],"bee_group":{"antennae":"X","wings":"2","pattern":"S","legs":"X"},"bonus":0.9800000000000012},{"rt":987.8000000715256,"stimulus":"bees-with-color/bee-B1SM.svg","response":1,"trial_type":"image-button-response","trial_index":153,"time_elapsed":321236,"internal_node_id":"0.0-6.0-0.17","subject_id":"60e5e13a4702f70b2ac0c0a7","study_id":"6197b3f67c2b5cd3b6d9596a","session_id":"6197b89383e4d0d52fe3e769","condition":"contingent","relevant_dimensions":["wings","pattern"],"bee_group":{"antennae":"X","wings":"2","pattern":"S","legs":"X"},"bonus":0.9800000000000012},{"rt":1045.1999999284744,"stimulus":"bees-with-color/bee-B2DM.svg","response":0,"trial_type":"image-button-response","trial_index":154,"time_elapsed":322290,"internal_node_id":"0.0-6.0-0.18","subject_id":"60e5e13a4702f70b2ac0c0a7","study_id":"6197b3f67c2b5cd3b6d9596a","session_id":"6197b89383e4d0d52fe3e769","condition":"contingent","relevant_dimensions":["wings","pattern"],"bee_group":{"antennae":"X","wings":"2","pattern":"S","legs":"X"},"bonus":0.9800000000000012},{"rt":2575,"stimulus":"bees-with-color/bee-A1SF.svg","response":0,"trial_type":"image-button-response","trial_index":155,"time_elapsed":324868,"internal_node_id":"0.0-6.0-0.19","subject_id":"60e5e13a4702f70b2ac0c0a7","study_id":"6197b3f67c2b5cd3b6d9596a","session_id":"6197b89383e4d0d52fe3e769","condition":"contingent","relevant_dimensions":["wings","pattern"],"bee_group":{"antennae":"X","wings":"2","pattern":"S","legs":"X"},"bonus":0.9800000000000012},{"rt":924.2999999523163,"stimulus":"bees-with-color/bee-A1DM.svg","response":0,"trial_type":"image-button-response","trial_index":156,"time_elapsed":325795,"internal_node_id":"0.0-6.0-0.20","subject_id":"60e5e13a4702f70b2ac0c0a7","study_id":"6197b3f67c2b5cd3b6d9596a","session_id":"6197b89383e4d0d52fe3e769","condition":"contingent","relevant_dimensions":["wings","pattern"],"bee_group":{"antennae":"X","wings":"2","pattern":"S","legs":"X"},"bonus":0.9800000000000012},{"rt":653.3000000715256,"stimulus":"bees-with-color/bee-B1DM.svg","response":0,"trial_type":"image-button-response","trial_index":157,"time_elapsed":326451,"internal_node_id":"0.0-6.0-0.21","subject_id":"60e5e13a4702f70b2ac0c0a7","study_id":"6197b3f67c2b5cd3b6d9596a","session_id":"6197b89383e4d0d52fe3e769","condition":"contingent","relevant_dimensions":["wings","pattern"],"bee_group":{"antennae":"X","wings":"2","pattern":"S","legs":"X"},"bonus":0.9800000000000012},{"rt":1009.5999999046326,"stimulus":"bees-with-color/bee-B2SF.svg","response":1,"trial_type":"image-button-response","trial_index":158,"time_elapsed":327464,"internal_node_id":"0.0-6.0-0.22","subject_id":"60e5e13a4702f70b2ac0c0a7","study_id":"6197b3f67c2b5cd3b6d9596a","session_id":"6197b89383e4d0d52fe3e769","condition":"contingent","relevant_dimensions":["wings","pattern"],"bee_group":{"antennae":"X","wings":"2","pattern":"S","legs":"X"},"bonus":0.9800000000000012},{"rt":1196.6999999284744,"stimulus":"bees-with-color/bee-A2SF.svg","response":1,"trial_type":"image-button-response","trial_index":159,"time_elapsed":328664,"internal_node_id":"0.0-6.0-0.23","subject_id":"60e5e13a4702f70b2ac0c0a7","study_id":"6197b3f67c2b5cd3b6d9596a","session_id":"6197b89383e4d0d52fe3e769","condition":"contingent","relevant_dimensions":["wings","pattern"],"bee_group":{"antennae":"X","wings":"2","pattern":"S","legs":"X"},"bonus":0.9800000000000012},{"rt":838.6999999284744,"stimulus":"bees-with-color/bee-B2DF.svg","response":0,"trial_type":"image-button-response","trial_index":160,"time_elapsed":329508,"internal_node_id":"0.0-6.0-0.24","subject_id":"60e5e13a4702f70b2ac0c0a7","study_id":"6197b3f67c2b5cd3b6d9596a","session_id":"6197b89383e4d0d52fe3e769","condition":"contingent","relevant_dimensions":["wings","pattern"],"bee_group":{"antennae":"X","wings":"2","pattern":"S","legs":"X"},"bonus":0.9800000000000012},{"rt":949.2000000476837,"stimulus":"bees-with-color/bee-A2DM.svg","response":0,"trial_type":"image-button-response","trial_index":161,"time_elapsed":330460,"internal_node_id":"0.0-6.0-0.25","subject_id":"60e5e13a4702f70b2ac0c0a7","study_id":"6197b3f67c2b5cd3b6d9596a","session_id":"6197b89383e4d0d52fe3e769","condition":"contingent","relevant_dimensions":["wings","pattern"],"bee_group":{"antennae":"X","wings":"2","pattern":"S","legs":"X"},"bonus":0.9800000000000012},{"rt":578.6000000238419,"stimulus":"bees-with-color/bee-A2DF.svg","response":0,"trial_type":"image-button-response","trial_index":162,"time_elapsed":