[{"success":true,"trial_type":"fullscreen","trial_index":0,"time_elapsed":4081,"internal_node_id":"0.0-0.0","subject_id":"5f35782429beab53ef93cc2d","study_id":"6197b3f67c2b5cd3b6d9596a","session_id":"6197b5712039319c60dadc2d","condition":"full-information","relevant_dimensions":["antennae","pattern"],"bee_group":{"antennae":"A","wings":"X","pattern":"D","legs":"X"},"bonus":0.6000000000000012},{"success":true,"timeout":false,"failed_images":[],"failed_audio":[],"failed_video":[],"trial_type":"preload","trial_index":1,"time_elapsed":6312,"internal_node_id":"0.0-1.0","subject_id":"5f35782429beab53ef93cc2d","study_id":"6197b3f67c2b5cd3b6d9596a","session_id":"6197b5712039319c60dadc2d","condition":"full-information","relevant_dimensions":["antennae","pattern"],"bee_group":{"antennae":"A","wings":"X","pattern":"D","legs":"X"},"bonus":0.6000000000000012},{"rt":2099.399999976158,"stimulus":"Welcome! Press any key to begin.","response":" ","trial_type":"html-keyboard-response","trial_index":2,"time_elapsed":8413,"internal_node_id":"0.0-2.0","subject_id":"5f35782429beab53ef93cc2d","study_id":"6197b3f67c2b5cd3b6d9596a","session_id":"6197b5712039319c60dadc2d","condition":"full-information","relevant_dimensions":["antennae","pattern"],"bee_group":{"antennae":"A","wings":"X","pattern":"D","legs":"X"},"bonus":0.6000000000000012},{"view_history":[{"page_index":0,"viewing_time":3550.399999976158},{"page_index":1,"viewing_time":14312.300000011921},{"page_index":2,"viewing_time":10047.899999976158},{"page_index":3,"viewing_time":14120.200000047684},{"page_index":4,"viewing_time":13544.099999964237},{"page_index":5,"viewing_time":5183.800000011921},{"page_index":6,"viewing_time":9528.100000023842},{"page_index":7,"viewing_time":11039.899999976158},{"page_index":8,"viewing_time":1551.8999999761581},{"page_index":7,"viewing_time":1288.2000000476837},{"page_index":8,"viewing_time":4273.199999988079},{"page_index":9,"viewing_time":2902.699999988079},{"page_index":10,"viewing_time":2431.800000011921},{"page_index":11,"viewing_time":8072.599999964237},{"page_index":12,"viewing_time":20047.700000047684},{"page_index":13,"viewing_time":1343.7999999523163},{"page_index":14,"viewing_time":2376.400000035763}],"rt":125615.30000001192,"trial_type":"instructions","trial_index":3,"time_elapsed":134030,"internal_node_id":"0.0-3.0-0.0","subject_id":"5f35782429beab53ef93cc2d","study_id":"6197b3f67c2b5cd3b6d9596a","session_id":"6197b5712039319c60dadc2d","condition":"full-information","relevant_dimensions":["antennae","pattern"],"bee_group":{"antennae":"A","wings":"X","pattern":"D","legs":"X"},"bonus":0.6000000000000012},{"rt":13244.799999952316,"response":{"Q0":["Two or six legs","Stripes or spots on body","Single or double wings","Antennae or no antennae"]},"question_order":[0],"trial_type":"survey-multi-select","trial_index":4,"time_elapsed":147278,"internal_node_id":"0.0-3.0-1.0","subject_id":"5f35782429beab53ef93cc2d","study_id":"6197b3f67c2b5cd3b6d9596a","session_id":"6197b5712039319c60dadc2d","condition":"full-information","relevant_dimensions":["antennae","pattern"],"bee_group":{"antennae":"A","wings":"X","pattern":"D","legs":"X"},"correct":true,"bonus":0.6000000000000012},{"rt":26180.80000001192,"response":{"Q1":"No.","Q2":"Based on the four features of the bee.","Q3":"You do not learn if it was friendly or dangerous, and do not alter your bonus."},"question_order":[0,1,2],"trial_type":"survey-multi-choice","trial_index":5,"time_elapsed":173462,"internal_node_id":"0.0-3.0-2.0","subject_id":"5f35782429beab53ef93cc2d","study_id":"6197b3f67c2b5cd3b6d9596a","session_id":"6197b5712039319c60dadc2d","condition":"full-information","relevant_dimensions":["antennae","pattern"],"bee_group":{"antennae":"A","wings":"X","pattern":"D","legs":"X"},"correct":false,"bonus":0.6000000000000012},{"rt":3109.800000011921,"stimulus":"<p>You did not answer all comprehension questions correctly.<br>Press <b>continue</b> to review the instructions again.</p>","response":0,"trial_type":"html-button-response","trial_index":6,"time_elapsed":176574,"internal_node_id":"0.0-3.0-3.0","subject_id":"5f35782429beab53ef93cc2d","study_id":"6197b3f67c2b5cd3b6d9596a","session_id":"6197b5712039319c60dadc2d","condition":"full-information","relevant_dimensions":["antennae","pattern"],"bee_group":{"antennae":"A","wings":"X","pattern":"D","legs":"X"},"bonus":0.6000000000000012},{"view_history":[{"page_index":0,"viewing_time":1710},{"page_index":1,"viewing_time":2088.300000011921},{"page_index":2,"viewing_time":1375.8999999761581},{"page_index":3,"viewing_time":6088.100000023842},{"page_index":4,"viewing_time":5519.899999976158},{"page_index":5,"viewing_time":960.1000000238419},{"page_index":6,"viewing_time":1080.1000000238419},{"page_index":7,"viewing_time":1199.699999988079},{"page_index":8,"viewing_time":1704.0999999642372},{"page_index":9,"viewing_time":552.2000000476837},{"page_index":10,"viewing_time":856},{"page_index":11,"viewing_time":2671.7999999523163},{"page_index":12,"viewing_time":1551.800000011921},{"page_index":13,"viewing_time":1040.300000011921},{"page_index":14,"viewing_time":1031.800000011921}],"rt":29430.400000035763,"trial_type":"instructions","trial_index":7,"time_elapsed":206006,"internal_node_id":"0.0-3.0-4.0-0.0","subject_id":"5f35782429beab53ef93cc2d","study_id":"6197b3f67c2b5cd3b6d9596a","session_id":"6197b5712039319c60dadc2d","condition":"full-information","relevant_dimensions":["antennae","pattern"],"bee_group":{"antennae":"A","wings":"X","pattern":"D","legs":"X"},"bonus":0.6000000000000012},{"rt":6461.300000011921,"response":{"Q0":["Two or six legs","Stripes or spots on body","Single or double wings","Antennae or no antennae"]},"question_order":[0],"trial_type":"survey-multi-select","trial_index":8,"time_elapsed":212470,"internal_node_id":"0.0-3.0-4.0-1.0","subject_id":"5f35782429beab53ef93cc2d","study_id":"6197b3f67c2b5cd3b6d9596a","session_id":"6197b5712039319c60dadc2d","condition":"full-information","relevant_dimensions":["antennae","pattern"],"bee_group":{"antennae":"A","wings":"X","pattern":"D","legs":"X"},"correct":true,"bonus":0.6000000000000012},{"rt":10550.400000035763,"response":{"Q1":"No.","Q2":"Based on the four features of the bee.","Q3":"You learn if it was friendly or dangerous, but do not alter your bonus."},"question_order":[0,1,2],"trial_type":"survey-multi-choice","trial_index":9,"time_elapsed":223023,"internal_node_id":"0.0-3.0-4.0-2.0","subject_id":"5f35782429beab53ef93cc2d","study_id":"6197b3f67c2b5cd3b6d9596a","session_id":"6197b5712039319c60dadc2d","condition":"full-information","relevant_dimensions":["antennae","pattern"],"bee_group":{"antennae":"A","wings":"X","pattern":"D","legs":"X"},"correct":true,"bonus":0.6000000000000012},{"rt":1158.300000011921,"stimulus":"<p>Congrats, you got everything right<br>When you're ready, click the button below to continue to the experiment.</p>","response":0,"trial_type":"html-button-response","trial_index":10,"time_elapsed":224182,"internal_node_id":"0.0-3.0-4.0-3.0","subject_id":"5f35782429beab53ef93cc2d","study_id":"6197b3f67c2b5cd3b6d9596a","session_id":"6197b5712039319c60dadc2d","condition":"full-information","relevant_dimensions":["antennae","pattern"],"bee_group":{"antennae":"A","wings":"X","pattern":"D","legs":"X"},"bonus":0.6000000000000012},{"rt":11197.200000047684,"stimulus":"bees-with-color/bee-B1DM.svg","response":0,"trial_type":"image-button-response","trial_index":11,"time_elapsed":235382,"internal_node_id":"0.0-4.0-0.0","subject_id":"5f35782429beab53ef93cc2d","study_id":"6197b3f67c2b5cd3b6d9596a","session_id":"6197b5712039319c60dadc2d","condition":"full-information","relevant_dimensions":["antennae","pattern"],"bee_group":{"antennae":"A","wings":"X","pattern":"D","legs":"X"},"action":"harvest","summary":"good-harvest","bonus":0.6000000000000012},{"rt":58509.10000002384,"stimulus":"\n                    <p><b>Action: <em>harvest</em></b></p>\n                    <p>This is the bee that you just saw.</p>\n                    <img src=\"bees-with-color/bee-B1DM.svg\" width=\"200\">\n                    <p><span class=\"greenText\"><b>Successful harvest!</b></span><br>Your pay has increased by $0.02. Your bonus pay is now $0.56.</p>\n            ","response":0,"trial_type":"html-button-response","trial_index":12,"time_elapsed":293894,"internal_node_id":"0.0-4.0-1.0","subject_id":"5f35782429beab53ef93cc2d","study_id":"6197b3f67c2b5cd3b6d9596a","session_id":"6197b5712039319c60dadc2d","condition":"full-information","relevant_dimensions":["antennae","pattern"],"bee_group":{"antennae":"A","wings":"X","pattern":"D","legs":"X"},"bonus":0.6000000000000012},{"rt":2460.099999964237,"stimulus":"bees-with-color/bee-A2DF.svg","response":1,"trial_type":"image-button-response","trial_index":13,"time_elapsed":296359,"internal_node_id":"0.0-4.0-0.1","subject_id":"5f35782429beab53ef93cc2d","study_id":"6197b3f67c2b5cd3b6d9596a","session_id":"6197b5712039319c60dadc2d","condition":"full-information","relevant_dimensions":["antennae","pattern"],"bee_group":{"antennae":"A","wings":"X","pattern":"D","legs":"X"},"action":"avoid","summary":"good-avoid","bonus":0.6000000000000012},{"rt":44749.69999998808,"stimulus":"\n                    <p><b>Action: <em>avoid</em></b></p>\n                    <p>This is the bee that you just saw.</p>\n                    <img src=\"bees-with-color/bee-A2DF.svg\" width=\"200\">\n                    <p><span class=\"greenText\">Good choice!</span>  This bee would have stung you.<br>Your bonus pay is unchanged, and remains at $0.56.</p>\n            ","response":0,"trial_type":"html-button-response","trial_index":14,"time_elapsed":341110,"internal_node_id":"0.0-4.0-1.1","subject_id":"5f35782429beab53ef93cc2d","study_id":"6197b3f67c2b5cd3b6d9596a","session_id":"6197b5712039319c60dadc2d","condition":"full-information","relevant_dimensions":["antennae","pattern"],"bee_group":{"antennae":"A","wings":"X","pattern":"D","legs":"X"},"bonus":0.6000000000000012},{"rt":5868.799999952316,"stimulus":"bees-with-color/bee-A2SM.svg","response":1,"trial_type":"image-button-response","trial_index":15,"time_elapsed":346982,"internal_node_id":"0.0-4.0-0.2","subject_id":"5f35782429beab53ef93cc2d","study_id":"6197b3f67c2b5cd3b6d9596a","session_id":"6197b5712039319c60dadc2d","condition":"full-information","relevant_dimensions":["antennae","pattern"],"bee_group":{"antennae":"A","wings":"X","pattern":"D","legs":"X"},"action":"avoid","summary":"bad-avoid","bonus":0.6000000000000012},{"rt":33159.5,"stimulus":"\n                    <p><b>Action: <em>avoid</em></b></p>\n                    <p>This is the bee that you just saw.</p>\n                    <img src=\"bees-with-color/bee-A2SM.svg\" width=\"200\">\n                    <p><span class=\"redText\">Bad choice,</span> the bee was friendly.<br>Your bonus pay is unchanged, and remains at $0.56.</p>\n            ","response":0,"trial_type":"html-button-response","trial_index":16,"time_elapsed":380143,"internal_node_id":"0.0-4.0-1.2","subject_id":"5f35782429beab53ef93cc2d","study_id":"6197b3f67c2b5cd3b6d9596a","session_id":"6197b5712039319c60dadc2d","condition":"full-information","relevant_dimensions":["antennae","pattern"],"bee_group":{"antennae":"A","wings":"X","pattern":"D","legs":"X"},"bonus":0.6000000000000012},{"rt":10052,"stimulus":"bees-with-color/bee-A1DF.svg","response":1,"trial_type":"image-button-response","trial_index":17,"time_elapsed":390197,"internal_node_id":"0.0-4.0-0.3","subject_id":"5f35782429beab53ef93cc2d","study_id":"6197b3f67c2b5cd3b6d9596a","session_id":"6197b5712039319c60dadc2d","condition":"full-information","relevant_dimensions":["antennae","pattern"],"bee_group":{"antennae":"A","wings":"X","pattern":"D","legs":"X"},"action":"avoid","summary":"good-avoid","bonus":0.6000000000000012},{"rt":24558.80000001192,"stimulus":"\n                    <p><b>Action: <em>avoid</em></b></p>\n                    <p>This is the bee that you just saw.</p>\n                    <img src=\"bees-with-color/bee-A1DF.svg\" width=\"200\">\n                    <p><span class=\"greenText\">Good choice!</span>  This bee would have stung you.<br>Your bonus pay is unchanged, and remains at $0.56.</p>\n            ","response":0,"trial_type":"html-button-response","trial_index":18,"time_elapsed":414757,"internal_node_id":"0.0-4.0-1.3","subject_id":"5f35782429beab53ef93cc2d","study_id":"6197b3f67c2b5cd3b6d9596a","session_id":"6197b5712039319c60dadc2d","condition":"full-information","relevant_dimensions":["antennae","pattern"],"bee_group":{"antennae":"A","wings":"X","pattern":"D","legs":"X"},"bonus":0.6000000000000012},{"rt":7597.100000023842,"stimulus":"bees-with-color/bee-B1SF.svg","response":0,"trial_type":"image-button-response","trial_index":19,"time_elapsed":422358,"internal_node_id":"0.0-4.0-0.4","subject_id":"5f35782429beab53ef93cc2d","study_id":"6197b3f67c2b5cd3b6d9596a","session_id":"6197b5712039319c60dadc2d","condition":"full-information","relevant_dimensions":["antennae","pattern"],"bee_group":{"antennae":"A","wings":"X","pattern":"D","legs":"X"},"action":"harvest","summary":"good-harvest","bonus":0.6000000000000012},{"rt":20133.899999976158,"stimulus":"\n                    <p><b>Action: <em>harvest</em></b></p>\n                    <p>This is the bee that you just saw.</p>\n                    <img src=\"bees-with-color/bee-B1SF.svg\" width=\"200\">\n                    <p><span class=\"greenText\"><b>Successful harvest!</b></span><br>Your pay has increased by $0.02. Your bonus pay is now $0.58.</p>\n            ","response":0,"trial_type":"html-button-response","trial_index":20,"time_elapsed":442494,"internal_node_id":"0.0-4.0-1.4","subject_id":"5f35782429beab53ef93cc2d","study_id":"6197b3f67c2b5cd3b6d9596a","session_id":"6197b5712039319c60dadc2d","condition":"full-information","relevant_dimensions":["antennae","pattern"],"bee_group":{"antennae":"A","wings":"X","pattern":"D","legs":"X"},"bonus":0.6000000000000012},{"rt":14726.100000023842,"stimulus":"bees-with-color/bee-B1SM.svg","response":1,"trial_type":"image-button-response","trial_index":21,"time_elapsed":457223,"internal_node_id":"0.0-4.0-0.5","subject_id":"5f35782429beab53ef93cc2d","study_id":"6197b3f67c2b5cd3b6d9596a","session_id":"6197b5712039319c60dadc2d","condition":"full-information","relevant_dimensions":["antennae","pattern"],"bee_group":{"antennae":"A","wings":"X","pattern":"D","legs":"X"},"action":"avoid","summary":"bad-avoid","bonus":0.6000000000000012},{"rt":23437.100000023842,"stimulus":"\n                    <p><b>Action: <em>avoid</em></b></p>\n                    <p>This is the bee that you just saw.</p>\n                    <img src=\"bees-with-color/bee-B1SM.svg\" width=\"200\">\n                    <p><span class=\"redText\">Bad choice,</span> the bee was friendly.<br>Your bonus pay is unchanged, and remains at $0.58.</p>\n            ","response":0,"trial_type":"html-button-response","trial_index":22,"time_elapsed":480662,"internal_node_id":"0.0-4.0-1.5","subject_id":"5f35782429beab53ef93cc2d","study_id":"6197b3f67c2b5cd3b6d9596a","session_id":"6197b5712039319c60dadc2d","condition":"full-information","relevant_dimensions":["antennae","pattern"],"bee_group":{"antennae":"A","wings":"X","pattern":"D","legs":"X"},"bonus":0.6000000000000012},{"rt":12748.600000023842,"stimulus":"bees-with-color/bee-A2SF.svg","response":0,"trial_type":"image-button-response","trial_index":23,"time_elapsed":493414,"internal_node_id":"0.0-4.0-0.6","subject_id":"5f35782429beab53ef93cc2d","study_id":"6197b3f67c2b5cd3b6d9596a","session_id":"6197b5712039319c60dadc2d","condition":"full-information","relevant_dimensions":["antennae","pattern"],"bee_group":{"antennae":"A","wings":"X","pattern":"D","legs":"X"},"action":"harvest","summary":"good-harvest","bonus":0.6000000000000012},{"rt":26830.100000023842,"stimulus":"\n                    <p><b>Action: <em>harvest</em></b></p>\n                    <p>This is the bee that you just saw.</p>\n                    <img src=\"bees-with-color/bee-A2SF.svg\" width=\"200\">\n                    <p><span class=\"greenText\"><b>Successful harvest!</b></span><br>Your pay has increased by $0.02. Your bonus pay is now $0.60.</p>\n            ","response":0,"trial_type":"html-button-response","trial_index":24,"time_elapsed":520246,"internal_node_id":"0.0-4.0-1.6","subject_id":"5f35782429beab53ef93cc2d","study_id":"6197b3f67c2b5cd3b6d9596a","session_id":"6197b5712039319c60dadc2d","condition":"full-information","relevant_dimensions":["antennae","pattern"],"bee_group":{"antennae":"A","wings":"X","pattern":"D","legs":"X"},"bonus":0.6000000000000012},{"rt":2429.5,"stimulus":"bees-with-color/bee-B2SF.svg","response":0,"trial_type":"image-button-response","trial_index":25,"time_elapsed":522678,"internal_node_id":"0.0-4.0-0.7","subject_id":"5f35782429beab53ef93cc2d","study_id":"6197b3f67c2b5cd3b6d9596a","session_id":"6197b5712039319c60dadc2d","condition":"full-information","relevant_dimensions":["antennae","pattern"],"bee_group":{"antennae":"A","wings":"X","pattern":"D","legs":"X"},"action":"harvest","summary":"good-harvest","bonus":0.6000000000000012},{"rt":1966.300000011921,"stimulus":"\n                    <p><b>Action: <em>harvest</em></b></p>\n                    <p>This is the bee that you just saw.</p>\n                    <img src=\"bees-with-color/bee-B2SF.svg\" width=\"200\">\n                    <p><span class=\"greenText\"><b>Successful harvest!</b></span><br>Your pay has increased by $0.02. Your bonus pay is now $0.62.</p>\n            ","response":0,"trial_type":"html-button-response","trial_index":26,"time_elapsed":524646,"internal_node_id":"0.0-4.0-1.7","subject_id":"5f35782429beab53ef93cc2d","study_id":"6197b3f67c2b5cd3b6d9596a","session_id":"6197b5712039319c60dadc2d","condition":"full-information","relevant_dimensions":["antennae","pattern"],"bee_group":{"antennae":"A","wings":"X","pattern":"D","legs":"X"},"bonus":0.6000000000000012},{"rt":6638,"stimulus":"bees-with-color/bee-A1DM.svg","response":0,"trial_type":"image-button-response","trial_index":27,"time_elapsed":531286,"internal_node_id":"0.0-4.0-0.8","subject_id":"5f35782429beab53ef93cc2d","study_id":"6197b3f67c2b5cd3b6d9596a","session_id":"6197b5712039319c60dadc2d","condition":"full-information","relevant_dimensions":["antennae","pattern"],"bee_group":{"antennae":"A","wings":"X","pattern":"D","legs":"X"},"action":"harvest","summary":"bad-harvest","bonus":0.6000000000000012},{"rt":16917.299999952316,"stimulus":"\n                    <p><b>Action: <em>harvest</em></b></p>\n                    <p>This is the bee that you just saw.</p>\n                    <img src=\"bees-with-color/bee-A1DM.svg\" width=\"200\">\n                    <p><span class=\"redText\">Bad choice, the bee was angry.</span><br><b>You have been stung!</b><br>Your pay has been decreased by $0.10. Your bonus pay is now $0.52.</p>\n            ","response":0,"trial_type":"html-button-response","trial_index":28,"time_elapsed":548205,"internal_node_id":"0.0-4.0-1.8","subject_id":"5f35782429beab53ef93cc2d","study_id":"6197b3f67c2b5cd3b6d9596a","session_id":"6197b5712039319c60dadc2d","condition":"full-information","relevant_dimensions":["antennae","pattern"],"bee_group":{"antennae":"A","wings":"X","pattern":"D","legs":"X"},"bonus":0.6000000000000012},{"rt":23517.400000035763,"stimulus":"bees-with-color/bee-A2DM.svg","response":0,"trial_type":"image-button-response","trial_index":29,"time_elapsed":571726,"internal_node_id":"0.0-4.0-0.9","subject_id":"5f35782429beab53ef93cc2d","study_id":"6197b3f67c2b5cd3b6d9596a","session_id":"6197b5712039319c60dadc2d","condition":"full-information","relevant_dimensions":["antennae","pattern"],"bee_group":{"antennae":"A","wings":"X","pattern":"D","legs":"X"},"action":"harvest","summary":"bad-harvest","bonus":0.6000000000000012},{"rt":19670.400000035763,"stimulus":"\n                    <p><b>Action: <em>harvest</em></b></p>\n                    <p>This is the bee that you just saw.</p>\n                    <img src=\"bees-with-color/bee-A2DM.svg\" width=\"200\">\n                    <p><span class=\"redText\">Bad choice, the bee was angry.</span><br><b>You have been stung!</b><br>Your pay has been decreased by $0.10. Your bonus pay is now $0.42.</p>\n            ","response":0,"trial_type":"html-button-response","trial_index":30,"time_elapsed":591398,"internal_node_id":"0.0-4.0-1.9","subject_id":"5f35782429beab53ef93cc2d","study_id":"6197b3f67c2b5cd3b6d9596a","session_id":"6197b5712039319c60dadc2d","condition":"full-information","relevant_dimensions":["antennae","pattern"],"bee_group":{"antennae":"A","wings":"X","pattern":"D","legs":"X"},"bonus":0.6000000000000012},{"rt":9982.199999988079,"stimulus":"bees-with-color/bee-B1DF.svg","response":1,"trial_type":"image-button-response","trial_index":31,"time_elapsed":601382,"internal_node_id":"0.0-4.0-0.10","subject_id":"5f35782429beab53ef93cc2d","study_id":"6197b3f67c2b5cd3b6d9596a","session_id":"6197b5712039319c60dadc2d","condition":"full-information","relevant_dimensions":["antennae","pattern"],"bee_group":{"antennae":"A","wings":"X","pattern":"D","legs":"X"},"action":"avoid","summary":"bad-avoid","bonus":0.6000000000000012},{"rt":20830.399999976158,"stimulus":"\n                    <p><b>Action: <em>avoid</em></b></p>\n                    <p>This is the bee that you just saw.</p>\n                    <img src=\"bees-with-color/bee-B1DF.svg\" width=\"200\">\n                    <p><span class=\"redText\">Bad choice,</span> the bee was friendly.<br>Your bonus pay is unchanged, and remains at $0.42.</p>\n            ","response":0,"trial_type":"html-button-response","trial_index":32,"time_elapsed":622214,"internal_node_id":"0.0-4.0-1.10","subject_id":"5f35782429beab53ef93cc2d","study_id":"6197b3f67c2b5cd3b6d9596a","session_id":"6197b5712039319c60dadc2d","condition":"full-information","relevant_dimensions":["antennae","pattern"],"bee_group":{"antennae":"A","wings":"X","pattern":"D","legs":"X"},"bonus":0.6000000000000012},{"rt":7605.800000011921,"stimulus":"bees-with-color/bee-B2SM.svg","response":0,"trial_type":"image-button-response","trial_index":33,"time_elapsed":629822,"internal_node_id":"0.0-4.0-0.11","subject_id":"5f35782429beab53ef93cc2d","study_id":"6197b3f67c2b5cd3b6d9596a","session_id":"6197b5712039319c60dadc2d","condition":"full-information","relevant_dimensions":["antennae","pattern"],"bee_group":{"antennae":"A","wings":"X","pattern":"D","legs":"X"},"action":"harvest","summary":"good-harvest","bonus":0.6000000000000012},{"rt":1478.3999999761581,"stimulus":"\n                    <p><b>Action: <em>harvest</em></b></p>\n                    <p>This is the bee that you just saw.</p>\n                    <img src=\"bees-with-color/bee-B2SM.svg\" width=\"200\">\n                    <p><span class=\"greenText\"><b>Successful harvest!</b></span><br>Your pay has increased by $0.02. Your bonus pay is now $0.44.</p>\n            ","response":0,"trial_type":"html-button-response","trial_index":34,"time_elapsed":631302,"internal_node_id":"0.0-4.0-1.11","subject_id":"5f35782429beab53ef93cc2d","study_id":"6197b3f67c2b5cd3b6d9596a","session_id":"6197b5712039319c60dadc2d","condition":"full-information","relevant_dimensions":["antennae","pattern"],"bee_group":{"antennae":"A","wings":"X","pattern":"D","legs":"X"},"bonus":0.6000000000000012},{"rt":7789.899999976158,"stimulus":"bees-with-color/bee-B2DF.svg","response":1,"trial_type":"image-button-response","trial_index":35,"time_elapsed":639094,"internal_node_id":"0.0-4.0-0.12","subject_id":"5f35782429beab53ef93cc2d","study_id":"6197b3f67c2b5cd3b6d9596a","session_id":"6197b5712039319c60dadc2d","condition":"full-information","relevant_dimensions":["antennae","pattern"],"bee_group":{"antennae":"A","wings":"X","pattern":"D","legs":"X"},"action":"avoid","summary":"bad-avoid","bonus":0.6000000000000012},{"rt":3302.2999999523163,"stimulus":"\n                    <p><b>Action: <em>avoid</em></b></p>\n                    <p>This is the bee that you just saw.</p>\n                    <img src=\"bees-with-color/bee-B2DF.svg\" width=\"200\">\n                    <p><span class=\"redText\">Bad choice,</span> the bee was friendly.<br>Your bonus pay is unchanged, and remains at $0.44.</p>\n            ","response":0,"trial_type":"html-button-response","trial_index":36,"time_elapsed":642398,"internal_node_id":"0.0-4.0-1.12","subject_id":"5f35782429beab53ef93cc2d","study_id":"6197b3f67c2b5cd3b6d9596a","session_id":"6197b5712039319c60dadc2d","condition":"full-information","relevant_dimensions":["antennae","pattern"],"bee_group":{"antennae":"A","wings":"X","pattern":"D","legs":"X"},"bonus":0.6000000000000012},{"rt":16142.300000011921,"stimulus":"bees-with-color/bee-A1SM.svg","response":0,"trial_type":"image-button-response","trial_index":37,"time_elapsed":658542,"internal_node_id":"0.0-4.0-0.13","subject_id":"5f35782429beab53ef93cc2d","study_id":"6197b3f67c2b5cd3b6d9596a","session_id":"6197b5712039319c60dadc2d","condition":"full-information","relevant_dimensions":["antennae","pattern"],"bee_group":{"antennae":"A","wings":"X","pattern":"D","legs":"X"},"action":"harvest","summary":"good-harvest","bonus":0.6000000000000012},{"rt":1309.800000011921,"stimulus":"\n                    <p><b>Action: <em>harvest</em></b></p>\n                    <p>This is the bee that you just saw.</p>\n                    <img src=\"bees-with-color/bee-A1SM.svg\" width=\"200\">\n                    <p><span class=\"greenText\"><b>Successful harvest!</b></span><br>Your pay has increased by $0.02. Your bonus pay is now $0.46.</p>\n            ","response":0,"trial_type":"html-button-response","trial_index":38,"time_elapsed":659854,"internal_node_id":"0.0-4.0-1.13","subject_id":"5f35782429beab53ef93cc2d","study_id":"6197b3f67c2b5cd3b6d9596a","session_id":"6197b5712039319c60dadc2d","condition":"full-information","relevant_dimensions":["antennae","pattern"],"bee_group":{"antennae":"A","wings":"X","pattern":"D","legs":"X"},"bonus":0.6000000000000012},{"rt":6886.300000011921,"stimulus":"bees-with-color/bee-A1SF.svg","response":0,"trial_type":"image-button-response","trial_index":39,"time_elapsed":666742,"internal_node_id":"0.0-4.0-0.14","subject_id":"5f35782429beab53ef93cc2d","study_id":"6197b3f67c2b5cd3b6d9596a","session_id":"6197b5712039319c60dadc2d","condition":"full-information","relevant_dimensions":["antennae","pattern"],"bee_group":{"antennae":"A","wings":"X","pattern":"D","legs":"X"},"action":"harvest","summary":"good-harvest","bonus":0.6000000000000012},{"rt":1277.699999988079,"stimulus":"\n                    <p><b>Action: <em>harvest</em></b></p>\n                    <p>This is the bee that you just saw.</p>\n                    <img src=\"bees-with-color/bee-A1SF.svg\" width=\"200\">\n                    <p><span class=\"greenText\"><b>Successful harvest!</b></span><br>Your pay has increased by $0.02. Your bonus pay is now $0.48.</p>\n            ","response":0,"trial_type":"html-button-response","trial_index":40,"time_elapsed":668022,"internal_node_id":"0.0-4.0-1.14","subject_id":"5f35782429beab53ef93cc2d","study_id":"6197b3f67c2b5cd3b6d9596a","session_id":"6197b5712039319c60dadc2d","condition":"full-information","relevant_dimensions":["antennae","pattern"],"bee_group":{"antennae":"A","wings":"X","pattern":"D","legs":"X"},"bonus":0.6000000000000012},{"rt":8726.199999988079,"stimulus":"bees-with-color/bee-B2DM.svg","response":0,"trial_type":"image-button-response","trial_index":41,"time_elapsed":676750,"internal_node_id":"0.0-4.0-0.15","subject_id":"5f35782429beab53ef93cc2d","study_id":"6197b3f67c2b5cd3b6d9596a","session_id":"6197b5712039319c60dadc2d","condition":"full-information","relevant_dimensions":["antennae","pattern"],"bee_group":{"antennae":"A","wings":"X","pattern":"D","legs":"X"},"action":"harvest","summary":"good-harvest","bonus":0.6000000000000012},{"rt":7838.100000023842,"stimulus":"\n                    <p><b>Action: <em>harvest</em></b></p>\n                    <p>This is the bee that you just saw.</p>\n                    <img src=\"bees-with-color/bee-B2DM.svg\" width=\"200\">\n                    <p><span class=\"greenText\"><b>Successful harvest!</b></span><br>Your pay has increased by $0.02. Your bonus pay is now $0.50.</p>\n            ","response":0,"trial_type":"html-button-response","trial_index":42,"time_elapsed":684590,"internal_node_id":"0.0-4.0-1.15","subject_id":"5f35782429beab53ef93cc2d","study_id":"6197b3f67c2b5cd3b6d9596a","session_id":"6197b5712039319c60dadc2d","condition":"full-information","relevant_dimensions":["antennae","pattern"],"bee_group":{"antennae":"A","wings":"X","pattern":"D","legs":"X"},"bonus":0.6000000000000012},{"rt":7398.099999964237,"stimulus":"bees-with-color/bee-A1SM.svg","response":0,"trial_type":"image-button-response","trial_index":43,"time_elapsed":691990,"internal_node_id":"0.0-4.0-0.16","subject_id":"5f35782429beab53ef93cc2d","study_id":"6197b3f67c2b5cd3b6d9596a","session_id":"6197b5712039319c60dadc2d","condition":"full-information","relevant_dimensions":["antennae","pattern"],"bee_group":{"antennae":"A","wings":"X","pattern":"D","legs":"X"},"action":"harvest","summary":"good-harvest","bonus":0.6000000000000012},{"rt":1213.800000011921,"stimulus":"\n                    <p><b>Action: <em>harvest</em></b></p>\n                    <p>This is the bee that you just saw.</p>\n                    <img src=\"bees-with-color/bee-A1SM.svg\" width=\"200\">\n                    <p><span class=\"greenText\"><b>Successful harvest!</b></span><br>Your pay has increased by $0.02. Your bonus pay is now $0.52.</p>\n            ","response":0,"trial_type":"html-button-response","trial_index":44,"time_elapsed":693205,"internal_node_id":"0.0-4.0-1.16","subject_id":"5f35782429beab53ef93cc2d","study_id":"6197b3f67c2b5cd3b6d9596a","session_id":"6197b5712039319c60dadc2d","condition":"full-information","relevant_dimensions":["antennae","pattern"],"bee_group":{"antennae":"A","wings":"X","pattern":"D","legs":"X"},"bonus":0.6000000000000012},{"rt":22598.19999998808,"stimulus":"bees-with-color/bee-A2DM.svg","response":1,"trial_type":"image-button-response","trial_index":45,"time_elapsed":715805,"internal_node_id":"0.0-4.0-0.17","subject_id":"5f35782429beab53ef93cc2d","study_id":"6197b3f67c2b5cd3b6d9596a","session_id":"6197b5712039319c60dadc2d","condition":"full-information","relevant_dimensions":["antennae","pattern"],"bee_group":{"antennae":"A","wings":"X","pattern":"D","legs":"X"},"action":"avoid","summary":"good-avoid","bonus":0.6000000000000012},{"rt":18246.600000023842,"stimulus":"\n                    <p><b>Action: <em>avoid</em></b></p>\n                    <p>This is the bee that you just saw.</p>\n                    <img src=\"bees-with-color/bee-A2DM.svg\" width=\"200\">\n                    <p><span class=\"greenText\">Good choice!</span>  This bee would have stung you.<br>Your bonus pay is unchanged, and remains at $0.52.</p>\n            ","response":0,"trial_type":"html-button-response","trial_index":46,"time_elapsed":734053,"internal_node_id":"0.0-4.0-1.17","subject_id":"5f35782429beab53ef93cc2d","study_id":"6197b3f67c2b5cd3b6d9596a","session_id":"6197b5712039319c60dadc2d","condition":"full-information","relevant_dimensions":["antennae","pattern"],"bee_group":{"antennae":"A","wings":"X","pattern":"D","legs":"X"},"bonus":0.6000000000000012},{"rt":7565.5,"stimulus":"bees-with-color/bee-A2SF.svg","response":0,"trial_type":"image-button-response","trial_index":47,"time_elapsed":741621,"internal_node_id":"0.0-4.0-0.18","subject_id":"5f35782429beab53ef93cc2d","study_id":"6197b3f67c2b5cd3b6d9596a","session_id":"6197b5712039319c60dadc2d","condition":"full-information","relevant_dimensions":["antennae","pattern"],"bee_group":{"antennae":"A","wings":"X","pattern":"D","legs":"X"},"action":"harvest","summary":"good-harvest","bonus":0.6000000000000012},{"rt":1950.699999988079,"stimulus":"\n                    <p><b>Action: <em>harvest</em></b></p>\n                    <p>This is the bee that you just saw.</p>\n                    <img src=\"bees-with-color/bee-A2SF.svg\" width=\"200\">\n                    <p><span class=\"greenText\"><b>Successful harvest!</b></span><br>Your pay has increased by $0.02. Your bonus pay is now $0.54.</p>\n            ","response":0,"trial_type":"html-button-response","trial_index":48,"time_elapsed":743573,"internal_node_id":"0.0-4.0-1.18","subject_id":"5f35782429beab53ef93cc2d","study_id":"6197b3f67c2b5cd3b6d9596a","session_id":"6197b5712039319c60dadc2d","condition":"full-information","relevant_dimensions":["antennae","pattern"],"bee_group":{"antennae":"A","wings":"X","pattern":"D","legs":"X"},"bonus":0.6000000000000012},{"rt":11622.200000047684,"stimulus":"bees-with-color/bee-A2DF.svg","response":1,"trial_type":"image-button-response","trial_index":49,"time_elapsed":755198,"internal_node_id":"0.0-4.0-0.19","subject_id":"5f35782429beab53ef93cc2d","study_id":"6197b3f67c2b5cd3b6d9596a","session_id":"6197b5712039319c60dadc2d","condition":"full-information","relevant_dimensions":["antennae","pattern"],"bee_group":{"antennae":"A","wings":"X","pattern":"D","legs":"X"},"action":"avoid","summary":"good-avoid","bonus":0.6000000000000012},{"rt":2343.199999988079,"stimulus":"\n                    <p><b>Action: <em>avoid</em></b></p>\n                    <p>This is the bee that you just saw.</p>\n                    <img src=\"bees-with-color/bee-A2DF.svg\" width=\"200\">\n                    <p><span class=\"greenText\">Good choice!</span>  This bee would have stung you.<br>Your bonus pay is unchanged, and remains at $0.54.</p>\n            ","response":0,"trial_type":"html-button-response","trial_index":50,"time_elapsed":757542,"internal_node_id":"0.0-4.0-1.19","subject_id":"5f35782429beab53ef93cc2d","study_id":"6197b3f67c2b5cd3b6d9596a","session_id":"6197b5712039319c60dadc2d","condition":"full-information","relevant_dimensions":["antennae","pattern"],"bee_group":{"antennae":"A","wings":"X","pattern":"D","legs":"X"},"bonus":0.6000000000000012},{"rt":16925.100000023842,"stimulus":"bees-with-color/bee-B2SF.svg","response":0,"trial_type":"image-button-response","trial_index":51,"time_elapsed":774469,"internal_node_id":"0.0-4.0-0.20","subject_id":"5f35782429beab53ef93cc2d","study_id":"6197b3f67c2b5cd3b6d9596a","session_id":"6197b5712039319c60dadc2d","condition":"full-information","relevant_dimensions":["antennae","pattern"],"bee_group":{"antennae":"A","wings":"X","pattern":"D","legs":"X"},"action":"harvest","summary":"good-harvest","bonus":0.6000000000000012},{"rt":10150.600000023842,"stimulus":"\n                    <p><b>Action: <em>harvest</em></b></p>\n                    <p>This is the bee that you just saw.</p>\n                    <img src=\"bees-with-color/bee-B2SF.svg\" width=\"200\">\n                    <p><span class=\"greenText\"><b>Successful harvest!</b></span><br>Your pay has increased by $0.02. Your bonus pay is now $0.56.</p>\n            ","response":0,"trial_type":"html-button-response","trial_index":52,"time_elapsed":784621,"internal_node_id":"0.0-4.0-1.20","subject_id":"5f35782429beab53ef93cc2d","study_id":"6197b3f67c2b5cd3b6d9596a","session_id":"6197b5712039319c60dadc2d","condition":"full-information","relevant_dimensions":["antennae","pattern"],"bee_group":{"antennae":"A","wings":"X","pattern":"D","legs":"X"},"bonus":0.6000000000000012},{"rt":6734.399999976158,"stimulus":"bees-with-color/bee-B2DF.svg","response":1,"trial_type":"image-button-response","trial_index":53,"time_elapsed":791357,"internal_node_id":"0.0-4.0-0.21","subject_id":"5f35782429beab53ef93cc2d","study_id":"6197b3f67c2b5cd3b6d9596a","session_id":"6197b5712039319c60dadc2d","condition":"full-information","relevant_dimensions":["antennae","pattern"],"bee_group":{"antennae":"A","wings":"X","pattern":"D","legs":"X"},"action":"avoid","summary":"bad-avoid","bonus":0.6000000000000012},{"rt":13757.600000023842,"stimulus":"\n                    <p><b>Action: <em>avoid</em></b></p>\n                    <p>This is the bee that you just saw.</p>\n                    <img src=\"bees-with-color/bee-B2DF.svg\" width=\"200\">\n                    <p><span class=\"redText\">Bad choice,</span> the bee was friendly.<br>Your bonus pay is unchanged, and remains at $0.56.</p>\n            ","response":0,"trial_type":"html-button-response","trial_index":54,"time_elapsed":805116,"internal_node_id":"0.0-4.0-1.21","subject_id":"5f35782429beab53ef93cc2d","study_id":"6197b3f67c2b5cd3b6d9596a","session_id":"6197b5712039319c60dadc2d","condition":"full-information","relevant_dimensions":["antennae","pattern"],"bee_group":{"antennae":"A","wings":"X","pattern":"D","legs":"X"},"bonus":0.6000000000000012},{"rt":13054.800000011921,"stimulus":"bees-with-color/bee-B1SM.svg","response":0,"trial_type":"image-button-response","trial_index":55,"time_elapsed":818173,"internal_node_id":"0.0-4.0-0.22","subject_id":"5f35782429beab53ef93cc2d","study_id":"6197b3f67c2b5cd3b6d9596a","session_id":"6197b5712039319c60dadc2d","condition":"full-information","relevant_dimensions":["antennae","pattern"],"bee_group":{"antennae":"A","wings":"X","pattern":"D","legs":"X"},"action":"harvest","summary":"good-harvest","bonus":0.6000000000000012},{"rt":1014.3000000119209,"stimulus":"\n                    <p><b>Action: <em>harvest</em></b></p>\n                    <p>This is the bee that you just saw.</p>\n                    <img src=\"bees-with-color/bee-B1SM.svg\" width=\"200\">\n                    <p><span class=\"greenText\"><b>Successful harvest!</b></span><br>Your pay has increased by $0.02. Your bonus pay is now $0.58.</p>\n            ","response":0,"trial_type":"html-button-response","trial_index":56,"time_elapsed":819189,"internal_node_id":"0.0-4.0-1.22","subject_id":"5f35782429beab53ef93cc2d","study_id":"6197b3f67c2b5cd3b6d9596a","session_id":"6197b5712039319c60dadc2d","condition":"full-information","relevant_dimensions":["antennae","pattern"],"bee_group":{"antennae":"A","wings":"X","pattern":"D","legs":"X"},"bonus":0.6000000000000012},{"rt":10765.800000011921,"stimulus":"bees-with-color/bee-B2SM.svg","response":0,"trial_type":"image-button-response","trial_index":57,"time_elapsed":829957,"internal_node_id":"0.0-4.0-0.23","subject_id":"5f35782429beab53ef93cc2d","study_id":"6197b3f67c2b5cd3b6d9596a","session_id":"6197b5712039319c60dadc2d","condition":"full-information","relevant_dimensions":["antennae","pattern"],"bee_group":{"antennae":"A","wings":"X","pattern":"D","legs":"X"},"action":"harvest","summary":"good-harvest","bonus":0.6000000000000012},{"rt":1406.7000000476837,"stimulus":"\n                    <p><b>Action: <em>harvest</em></b></p>\n                    <p>This is the bee that you just saw.</p>\n                    <img src=\"bees-with-color/bee-B2SM.svg\" width=\"200\">\n                    <p><span class=\"greenText\"><b>Successful harvest!</b></span><br>Your pay has increased by $0.02. Your bonus pay is now $0.60.</p>\n            ","response":0,"trial_type":"html-button-response","trial_index":58,"time_elapsed":831366,"internal_node_id":"0.0-4.0-1.23","subject_id":"5f35782429beab53ef93cc2d","study_id":"6197b3f67c2b5cd3b6d9596a","session_id":"6197b5712039319c60dadc2d","condition":"full-information","relevant_dimensions":["antennae","pattern"],"bee_group":{"antennae":"A","wings":"X","pattern":"D","legs":"X"},"bonus":0.6000000000000012},{"rt":12469.699999988079,"stimulus":"bees-with-color/bee-A1DM.svg","response":1,"trial_type":"image-button-response","trial_index":59,"time_elapsed":843838,"internal_node_id":"0.0-4.0-0.24","subject_id":"5f35782429beab53ef93cc2d","study_id":"6197b3f67c2b5cd3b6d9596a","session_id":"6197b5712039319c60dadc2d","condition":"full-information","relevant_dimensions":["antennae","pattern"],"bee_group":{"antennae":"A","wings":"X","pattern":"D","legs":"X"},"action":"avoid","summary":"good-avoid","bonus":0.6000000000000012},{"rt":1605.800000011921,"stimulus":"\n                    <p><b>Action: <em>avoid</em></b></p>\n                    <p>This is the bee that you just saw.</p>\n                    <img src=\"bees-with-color/bee-A1DM.svg\" width=\"200\">\n                    <p><span class=\"greenText\">Good choice!</span>  This bee would have stung you.<br>Your bonus pay is unchanged, and remains at $0.60.</p>\n            ","response":0,"trial_type":"html-button-response","trial_index":60,"time_elapsed":845445,"internal_node_id":"0.0-4.0-1.24","subject_id":"5f35782429beab53ef93cc2d","study_id":"6197b3f67c2b5cd3b6d9596a","session_id":"6197b5712039319c60dadc2d","condition":"full-information","relevant_dimensions":["antennae","pattern"],"bee_group":{"antennae":"A","wings":"X","pattern":"D","legs":"X"},"bonus":0.6000000000000012},{"rt":9934.300000011921,"stimulus":"bees-with-color/bee-A1DF.svg","response":0,"trial_type":"image-button-response","trial_index":61,"time_elapsed":855381,"internal_node_id":"0.0-4.0-0.25","subject_id":"5f35782429beab53ef93cc2d","study_id":"6197b3f67c2b5cd3b6d9596a","session_id":"6197b5712039319c60dadc2d","condition":"full-information","relevant_dimensions":["antennae","pattern"],"bee_group":{"antennae":"A","wings":"X","pattern":"D","legs":"X"},"action":"harvest","summary":"bad-harvest","bonus":0.6000000000000012},{"rt":14462.199999988079,"stimulus":"\n                    <p><b>Action: <em>harvest</em></b></p>\n                    <p>This is the bee that you just saw.</p>\n                    <img src=\"bees-with-color/bee-A1DF.svg\" width=\"200\">\n                    <p><span class=\"redText\">Bad choice, the bee was angry.</span><br><b>You have been stung!</b><br>Your pay has been decreased by $0.10. Your bonus pay is now $0.50.</p>\n            ","response":0,"trial_type":"html-button-response","trial_index":62,"time_elapsed":869845,"internal_node_id":"0.0-4.0-1.25","subject_id":"5f35782429beab53ef93cc2d","study_id":"6197b3f67c2b5cd3b6d9596a","session_id":"6197b5712039319c60dadc2d","condition":"full-information","relevant_dimensions":["antennae","pattern"],"bee_group":{"antennae":"A","wings":"X","pattern":"D","legs":"X"},"bonus":0.6000000000000012},{"rt":17078.900000035763,"stimulus":"bees-with-color/bee-B2DM.svg","response":1,"trial_type":"image-button-response","trial_index":63,"time_elapsed":886926,"internal_node_id":"0.0-4.0-0.26","subject_id":"5f35782429beab53ef93cc2d","study_id":"6197b3f67c2b5cd3b6d9596a","session_id":"6197b5712039319c60dadc2d","condition":"full-information","relevant_dimensions":["antennae","pattern"],"bee_group":{"antennae":"A","wings":"X","pattern":"D","legs":"X"},"action":"avoid","summary":"bad-avoid","bonus":0.6000000000000012},{"rt":5820.600000023842,"stimulus":"\n                    <p><b>Action: <em>avoid</em></b></p>\n                    <p>This is the bee that you just saw.</p>\n                    <img src=\"bees-with-color/bee-B2DM.svg\" width=\"200\">\n                    <p><span class=\"redText\">Bad choice,</span> the bee was friendly.<br>Your bonus pay is unchanged, and remains at $0.50.</p>\n            ","response":0,"trial_type":"html-button-response","trial_index":64,"time_elapsed":892749,"internal_node_id":"0.0-4.0-1.26","subject_id":"5f35782429beab53ef93cc2d","study_id":"6197b3f67c2b5cd3b6d9596a","session_id":"6197b5712039319c60dadc2d","condition":"full-information","relevant_dimensions":["antennae","pattern"],"bee_group":{"antennae":"A","wings":"X","pattern":"D","legs":"X"},"bonus":0.6000000000000012},{"rt":8758,"stimulus":"bees-with-color/bee-A2SM.svg","response":0,"trial_type":"image-button-response","trial_index":65,"time_elapsed":901509,"internal_node_id":"0.0-4.0-0.27","subject_id":"5f35782429beab53ef93cc2d","study_id":"6197b3f67c2b5cd3b6d9596a","session_id":"6197b5712039319c60dadc2d","condition":"full-information","relevant_dimensions":["antennae","pattern"],"bee_group":{"antennae":"A","wings":"X","pattern":"D","legs":"X"},"action":"harvest","summary":"good-harvest","bonus":0.6000000000000012},{"rt":1038.800000011921,"stimulus":"\n                    <p><b>Action: <em>harvest</em></b></p>\n                    <p>This is the bee that you just saw.</p>\n                    <img src=\"bees-with-color/bee-A2SM.svg\" width=\"200\">\n                    <p><span class=\"greenText\"><b>Successful harvest!</b></span><br>Your pay has increased by $0.02. Your bonus pay is now $0.52.</p>\n            ","response":0,"trial_type":"html-button-response","trial_index":66,"time_elapsed":902549,"internal_node_id":"0.0-4.0-1.27","subject_id":"5f35782429beab53ef93cc2d","study_id":"6197b3f67c2b5cd3b6d9596a","session_id":"6197b5712039319c60dadc2d","condition":"full-information","relevant_dimensions":["antennae","pattern"],"bee_group":{"antennae":"A","wings":"X","pattern":"D","legs":"X"},"bonus":0.6000000000000012},{"rt":11774,"stimulus":"bees-with-color/bee-B1DF.svg","response":1,"trial_type":"image-button-response","trial_index":67,"time_elapsed":914325,"internal_node_id":"0.0-4.0-0.28","subject_id":"5f35782429beab53ef93cc2d","study_id":"6197b3f67c2b5cd3b6d9596a","session_id":"6197b5712039319c60dadc2d","condition":"full-information","relevant_dimensions":["antennae","pattern"],"bee_group":{"antennae":"A","wings":"X","pattern":"D","legs":"X"},"action":"avoid","summary":"bad-avoid","bonus":0.6000000000000012},{"rt":1895,"stimulus":"\n                    <p><b>Action: <em>avoid</em></b></p>\n                    <p>This is the bee that you just saw.</p>\n                    <img src=\"bees-with-color/bee-B1DF.svg\" width=\"200\">\n                    <p><span class=\"redText\">Bad choice,</span> the bee was friendly.<br>Your bonus pay is unchanged, and remains at $0.52.</p>\n            ","response":0,"trial_type":"html-button-response","trial_index":68,"time_elapsed":916221,"internal_node_id":"0.0-4.0-1.28","subject_id":"5f35782429beab53ef93cc2d","study_id":"6197b3f67c2b5cd3b6d9596a","session_id":"6197b5712039319c60dadc2d","condition":"full-information","relevant_dimensions":["antennae","pattern"],"bee_group":{"antennae":"A","wings":"X","pattern":"D","legs":"X"},"bonus":0.6000000000000012},{"rt":10166.300000011921,"stimulus":"bees-with-color/bee-A1SF.svg","response":0,"trial_type":"image-button-response","trial_index":69,"time_elapsed":926389,"internal_node_id":"0.0-4.0-0.29","subject_id":"5f35782429beab53ef93cc2d","study_id":"6197b3f67c2b5cd3b6d9596a","session_id":"6197b5712039319c60dadc2d","condition":"full-information","relevant_dimensions":["antennae","pattern"],"bee_group":{"antennae":"A","wings":"X","pattern":"D","legs":"X"},"action":"harvest","summary":"good-harvest","bonus":0.6000000000000012},{"rt":925.8000000119209,"stimulus":"\n                    <p><b>Action: <em>harvest</em></b></p>\n                    <p>This is the bee that you just saw.</p>\n                    <img src=\"bees-with-color/bee-A1SF.svg\" width=\"200\">\n                    <p><span class=\"greenText\"><b>Successful harvest!</b></span><br>Your pay has increased by $0.02. Your bonus pay is now $0.54.</p>\n            ","response":0,"trial_type":"html-button-response","trial_index":70,"time_elapsed":927317,"internal_node_id":"0.0-4.0-1.29","subject_id":"5f35782429beab53ef93cc2d","study_id":"6197b3f67c2b5cd3b6d9596a","session_id":"6197b5712039319c60dadc2d","condition":"full-information","relevant_dimensions":["antennae","pattern"],"bee_group":{"antennae":"A","wings":"X","pattern":"D","legs":"X"},"bonus":0.6000000000000012},{"rt":3653.899999976158,"stimulus":"bees-with-color/bee-B1SF.svg","response":0,"trial_type":"image-button-response","trial_index":71,"time_elapsed":930973,"internal_node_id":"0.0-4.0-0.30","subject_id":"5f35782429beab53ef93cc2d","study_id":"6197b3f67c2b5cd3b6d9596a","session_id":"6197b5712039319c60dadc2d","condition":"full-information","relevant_dimensions":["antennae","pattern"],"bee_group":{"antennae":"A","wings":"X","pattern":"D","legs":"X"},"action":"harvest","summary":"good-harvest","bonus":0.6000000000000012},{"rt":870,"stimulus":"\n                    <p><b>Action: <em>harvest</em></b></p>\n                    <p>This is the bee that you just saw.</p>\n                    <img src=\"bees-with-color/bee-B1SF.svg\" width=\"200\">\n                    <p><span class=\"greenText\"><b>Successful harvest!</b></span><br>Your pay has increased by $0.02. Your bonus pay is now $0.56.</p>\n            ","response":0,"trial_type":"html-button-response","trial_index":72,"time_elapsed":931845,"internal_node_id":"0.0-4.0-1.30","subject_id":"5f35782429beab53ef93cc2d","study_id":"6197b3f67c2b5cd3b6d9596a","session_id":"6197b5712039319c60dadc2d","condition":"full-information","relevant_dimensions":["antennae","pattern"],"bee_group":{"antennae":"A","wings":"X","pattern":"D","legs":"X"},"bonus":0.6000000000000012},{"rt":11558.699999988079,"stimulus":"bees-with-color/bee-B1DM.svg","response":1,"trial_type":"image-button-response","trial_index":73,"time_elapsed":943405,"internal_node_id":"0.0-4.0-0.31","subject_id":"5f35782429beab53ef93cc2d","study_id":"6197b3f67c2b5cd3b6d9596a","session_id":"6197b5712039319c60dadc2d","condition":"full-information","relevant_dimensions":["antennae","pattern"],"bee_group":{"antennae":"A","wings":"X","pattern":"D","legs":"X"},"action":"avoid","summary":"bad-avoid","bonus":0.6000000000000012},{"rt":1902.3999999761581,"stimulus":"\n                    <p><b>Action: <em>avoid</em></b></p>\n                    <p>This is the bee that you just saw.</p>\n                    <img src=\"bees-with-color/bee-B1DM.svg\" width=\"200\">\n                    <p><span class=\"redText\">Bad choice,</span> the bee was friendly.<br>Your bonus pay is unchanged, and remains at $0.56.</p>\n            ","response":0,"trial_type":"html-button-response","trial_index":74,"time_elapsed":945309,"internal_node_id":"0.0-4.0-1.31","subject_id":"5f35782429beab53ef93cc2d","study_id":"6197b3f67c2b5cd3b6d9596a","session_id":"6197b5712039319c60dadc2d","condition":"full-information","relevant_dimensions":["antennae","pattern"],"bee_group":{"antennae":"A","wings":"X","pattern":"D","legs":"X"},"bonus":0.6000000000000012},{"rt":10694.300000011921,"stimulus":"bees-with-color/bee-A2SF.svg","response":0,"trial_type":"image-button-response","trial_index":75,"time_elapsed":956005,"internal_node_id":"0.0-4.0-0.32","subject_id":"5f35782429beab53ef93cc2d","study_id":"6197b3f67c2b5cd3b6d9596a","session_id":"6197b5712039319c60dadc2d","condition":"full-information","relevant_dimensions":["antennae","pattern"],"bee_group":{"antennae":"A","wings":"X","pattern":"D","legs":"X"},"action":"harvest","summary":"good-harvest","bonus":0.6000000000000012},{"rt":1237.800000011921,"stimulus":"\n                    <p><b>Action: <em>harvest</em></b></p>\n                    <p>This is the bee that you just saw.</p>\n                    <img src=\"bees-with-color/bee-A2SF.svg\" width=\"200\">\n                    <p><span class=\"greenText\"><b>Successful harvest!</b></span><br>Your pay has increased by $0.02. Your bonus pay is now $0.58.</p>\n            ","response":0,"trial_type":"html-button-response","trial_index":76,"time_elapsed":957245,"internal_node_id":"0.0-4.0-1.32","subject_id":"5f35782429beab53ef93cc2d","study_id":"6197b3f67c2b5cd3b6d9596a","session_id":"6197b5712039319c60dadc2d","condition":"full-information","relevant_dimensions":["antennae","pattern"],"bee_group":{"antennae":"A","wings":"X","pattern":"D","legs":"X"},"bonus":0.6000000000000012},{"rt":6454.399999976158,"stimulus":"bees-with-color/bee-B2DF.svg","response":0,"trial_type":"image-button-response","trial_index":77,"time_elapsed":963701,"internal_node_id":"0.0-4.0-0.33","subject_id":"5f35782429beab53ef93cc2d","study_id":"6197b3f67c2b5cd3b6d9596a","session_id":"6197b5712039319c60dadc2d","condition":"full-information","relevant_dimensions":["antennae","pattern"],"bee_group":{"antennae":"A","wings":"X","pattern":"D","legs":"X"},"action":"harvest","summary":"good-harvest","bonus":0.6000000000000012},{"rt":1062.0999999642372,"stimulus":"\n                    <p><b>Action: <em>harvest</em></b></p>\n                    <p>This is the bee that you just saw.</p>\n                    <img src=\"bees-with-color/bee-B2DF.svg\" width=\"200\">\n                    <p><span class=\"greenText\"><b>Successful harvest!</b></span><br>Your pay has increased by $0.02. Your bonus pay is now $0.60.</p>\n            ","response":0,"trial_type":"html-button-response","trial_index":78,"time_elapsed":964765,"internal_node_id":"0.0-4.0-1.33","subject_id":"5f35782429beab53ef93cc2d","study_id":"6197b3f67c2b5cd3b6d9596a","session_id":"6197b5712039319c60dadc2d","condition":"full-information","relevant_dimensions":["antennae","pattern"],"bee_group":{"antennae":"A","wings":"X","pattern":"D","legs":"X"},"bonus":0.6000000000000012},{"rt":10838.299999952316,"stimulus":"bees-with-color/bee-B1DM.svg","response":0,"trial_type":"image-button-response","trial_index":79,"time_elapsed":975605,"internal_node_id":"0.0-4.0-0.34","subject_id":"5f35782429beab53ef93cc2d","study_id":"6197b3f67c2b5cd3b6d9596a","session_id":"6197b5712039319c60dadc2d","condition":"full-information","relevant_dimensions":["antennae","pattern"],"bee_group":{"antennae":"A","wings":"X","pattern":"D","legs":"X"},"action":"harvest","summary":"good-harvest","bonus":0.6000000000000012},{"rt":13254.5,"stimulus":"\n                    <p><b>Action: <em>harvest</em></b></p>\n                    <p>This is the bee that you just saw.</p>\n                    <img src=\"bees-with-color/bee-B1DM.svg\" width=\"200\">\n                    <p><span class=\"greenText\"><b>Successful harvest!</b></span><br>Your pay has increased by $0.02. Your bonus pay is now $0.62.</p>\n            ","response":0,"trial_type":"html-button-response","trial_index":80,"time_elapsed":988862,"internal_node_id":"0.0-4.0-1.34","subject_id":"5f35782429beab53ef93cc2d","study_id":"6197b3f67c2b5cd3b6d9596a","session_id":"6197b5712039319c60dadc2d","condition":"full-information","relevant_dimensions":["antennae","pattern"],"bee_group":{"antennae":"A","wings":"X","pattern":"D","legs":"X"},"bonus":0.6000000000000012},{"rt":5477.5,"stimulus":"bees-with-color/bee-A2DF.svg","response":0,"trial_type":"image-button-response","trial_index":81,"time_elapsed":994341,"internal_node_id":"0.0-4.0-0.35","subject_id":"5f35782429beab53ef93cc2d","study_id":"6197b3f67c2b5cd3b6d9596a","session_id":"6197b5712039319c60dadc2d","condition":"full-information","relevant_dimensions":["antennae","pattern"],"bee_group":{"antennae":"A","wings":"X","pattern":"D","legs":"X"},"action":"harvest","summary":"bad-harvest","bonus":0.6000000000000012},{"rt":1526.6000000238419,"stimulus":"\n                    <p><b>Action: <em>harvest</em></b></p>\n                    <p>This is the bee that you just saw.</p>\n                    <img src=\"bees-with-color/bee-A2DF.svg\" width=\"200\">\n                    <p><span class=\"redText\">Bad choice, the bee was angry.</span><br><b>You have been stung!</b><br>Your pay has been decreased by $0.10. Your bonus pay is now $0.52.</p>\n            ","response":0,"trial_type":"html-button-response","trial_index":82,"time_elapsed":995870,"internal_node_id":"0.0-4.0-1.35","subject_id":"5f35782429beab53ef93cc2d","study_id":"6197b3f67c2b5cd3b6d9596a","session_id":"6197b5712039319c60dadc2d","condition":"full-information","relevant_dimensions":["antennae","pattern"],"bee_group":{"antennae":"A","wings":"X","pattern":"D","legs":"X"},"bonus":0.6000000000000012},{"rt":6270,"stimulus":"bees-with-color/bee-B1SM.svg","response":0,"trial_type":"image-button-response","trial_index":83,"time_elapsed":1002141,"internal_node_id":"0.0-4.0-0.36","subject_id":"5f35782429beab53ef93cc2d","study_id":"6197b3f67c2b5cd3b6d9596a","session_id":"6197b5712039319c60dadc2d","condition":"full-information","relevant_dimensions":["antennae","pattern"],"bee_group":{"antennae":"A","wings":"X","pattern":"D","legs":"X"},"action":"harvest","summary":"good-harvest","bonus":0.6000000000000012},{"rt":934.1999999880791,"stimulus":"\n                    <p><b>Action: <em>harvest</em></b></p>\n                    <p>This is the bee that you just saw.</p>\n                    <img src=\"bees-with-color/bee-B1SM.svg\" width=\"200\">\n                    <p><span class=\"greenText\"><b>Successful harvest!</b></span><br>Your pay has increased by $0.02. Your bonus pay is now $0.54.</p>\n            ","response":0,"trial_type":"html-button-response","trial_index":84,"time_elapsed":1003078,"internal_node_id":"0.0-4.0-1.36","subject_id":"5f35782429beab53ef93cc2d","study_id":"6197b3f67c2b5cd3b6d9596a","session_id":"6197b5712039319c60dadc2d","condition":"full-information","relevant_dimensions":["antennae","pattern"],"bee_group":{"antennae":"A","wings":"X","pattern":"D","legs":"X"},"bonus":0.6000000000000012},{"rt":16333.699999988079,"stimulus":"bees-with-color/bee-B2DM.svg","response":1,"trial_type":"image-button-response","trial_index":85,"time_elapsed":1019415,"internal_node_id":"0.0-4.0-0.37","subject_id":"5f35782429beab53ef93cc2d","study_id":"6197b3f67c2b5cd3b6d9596a","session_id":"6197b5712039319c60dadc2d","condition":"full-information","relevant_dimensions":["antennae","pattern"],"bee_group":{"antennae":"A","wings":"X","pattern":"D","legs":"X"},"action":"avoid","summary":"bad-avoid","bonus":0.6000000000000012},{"rt":1868.4000000357628,"stimulus":"\n                    <p><b>Action: <em>avoid</em></b></p>\n                    <p>This is the bee that you just saw.</p>\n                    <img src=\"bees-with-color/bee-B2DM.svg\" width=\"200\">\n                    <p><span class=\"redText\">Bad choice,</span> the bee was friendly.<br>Your bonus pay is unchanged, and remains at $0.54.</p>\n            ","response":0,"trial_type":"html-button-response","trial_index":86,"time_elapsed":1021286,"internal_node_id":"0.0-4.0-1.37","subject_id":"5f35782429beab53ef93cc2d","study_id":"6197b3f67c2b5cd3b6d9596a","session_id":"6197b5712039319c60dadc2d","condition":"full-information","relevant_dimensions":["antennae","pattern"],"bee_group":{"antennae":"A","wings":"X","pattern":"D","legs":"X"},"bonus":0.6000000000000012},{"rt":5821.599999964237,"stimulus":"bees-with-color/bee-B2SF.svg","response":0,"trial_type":"image-button-response","trial_index":87,"time_elapsed":1027109,"internal_node_id":"0.0-4.0-0.38","subject_id":"5f35782429beab53ef93cc2d","study_id":"6197b3f67c2b5cd3b6d9596a","session_id":"6197b5712039319c60dadc2d","condition":"full-information","relevant_dimensions":["antennae","pattern"],"bee_group":{"antennae":"A","wings":"X","pattern":"D","legs":"X"},"action":"harvest","summary":"good-harvest","bonus":0.6000000000000012},{"rt":966.9000000357628,"stimulus":"\n                    <p><b>Action: <em>harvest</em></b></p>\n                    <p>This is the bee that you just saw.</p>\n                    <img src=\"bees-with-color/bee-B2SF.svg\" width=\"200\">\n                    <p><span class=\"greenText\"><b>Successful harvest!</b></span><br>Your pay has increased by $0.02. Your bonus pay is now $0.56.</p>\n            ","response":0,"trial_type":"html-button-response","trial_index":88,"time_elapsed":1028077,"internal_node_id":"0.0-4.0-1.38","subject_id":"5f35782429beab53ef93cc2d","study_id":"6197b3f67c2b5cd3b6d9596a","session_id":"6197b5712039319c60dadc2d","condition":"full-information","relevant_dimensions":["antennae","pattern"],"bee_group":{"antennae":"A","wings":"X","pattern":"D","legs":"X"},"bonus":0.6000000000000012},{"rt":6558.5,"stimulus":"bees-with-color/bee-A2DM.svg","response":0,"trial_type":"image-button-response","trial_index":89,"time_elapsed":1034637,"internal_node_id":"0.0-4.0-0.39","subject_id":"5f35782429beab53ef93cc2d","study_id":"6197b3f67c2b5cd3b6d9596a","session_id":"6197b5712039319c60dadc2d","condition":"full-information","relevant_dimensions":["antennae","pattern"],"bee_group":{"antennae":"A","wings":"X","pattern":"D","legs":"X"},"action":"harvest","summary":"bad-harvest","bonus":0.6000000000000012},{"rt":1566.5,"stimulus":"\n                    <p><b>Action: <em>harvest</em></b></p>\n                    <p>This is the bee that you just saw.</p>\n                    <img src=\"bees-with-color/bee-A2DM.svg\" width=\"200\">\n                    <p><span class=\"redText\">Bad choice, the bee was angry.</span><br><b>You have been stung!</b><br>Your pay has been decreased by $0.10. Your bonus pay is now $0.46.</p>\n            ","response":0,"trial_type":"html-button-response","trial_index":90,"time_elapsed":1036205,"internal_node_id":"0.0-4.0-1.39","subject_id":"5f35782429beab53ef93cc2d","study_id":"6197b3f67c2b5cd3b6d9596a","session_id":"6197b5712039319c60dadc2d","condition":"full-information","relevant_dimensions":["antennae","pattern"],"bee_group":{"antennae":"A","wings":"X","pattern":"D","legs":"X"},"bonus":0.6000000000000012},{"rt":6326.300000011921,"stimulus":"bees-with-color/bee-B2SM.svg","response":0,"trial_type":"image-button-response","trial_index":91,"time_elapsed":1042533,"internal_node_id":"0.0-4.0-0.40","subject_id":"5f35782429beab53ef93cc2d","study_id":"6197b3f67c2b5cd3b6d9596a","session_id":"6197b5712039319c60dadc2d","condition":"full-information","relevant_dimensions":["antennae","pattern"],"bee_group":{"antennae":"A","wings":"X","pattern":"D","legs":"X"},"action":"harvest","summary":"good-harvest","bonus":0.6000000000000012},{"rt":926.5,"stimulus":"\n                    <p><b>Action: <em>harvest</em></b></p>\n                    <p>This is the bee that you just saw.</p>\n                    <img src=\"bees-with-color/bee-B2SM.svg\" width=\"200\">\n                    <p><span class=\"greenText\"><b>Successful harvest!</b></span><br>Your pay has increased by $0.02. Your bonus pay is now $0.48.</p>\n            ","response":0,"trial_type":"html-button-response","trial_index":92,"time_elapsed":1043461,"internal_node_id":"0.0-4.0-1.40","subject_id":"5f35782429beab53ef93cc2d","study_id":"6197b3f67c2b5cd3b6d9596a","session_id":"6197b5712039319c60dadc2d","condition":"full-information","relevant_dimensions":["antennae","pattern"],"bee_group":{"antennae":"A","wings":"X","pattern":"D","legs":"X"},"bonus":0.6000000000000012},{"rt":13694.800000011921,"stimulus":"bees-with-color/bee-B1DF.svg","response":0,"trial_type":"image-button-response","trial_index":93,"time_elapsed":1057158,"internal_node_id":"0.0-4.0-0.41","subject_id":"5f35782429beab53ef93cc2d","study_id":"6197b3f67c2b5cd3b6d9596a","session_id":"6197b5712039319c60dadc2d","condition":"full-information","relevant_dimensions":["antennae","pattern"],"bee_group":{"antennae":"A","wings":"X","pattern":"D","legs":"X"},"action":"harvest","summary":"good-harvest","bonus":0.6000000000000012},{"rt":1191.1000000238419,"stimulus":"\n                    <p><b>Action: <em>harvest</em></b></p>\n                    <p>This is the bee that you just saw.</p>\n                    <img src=\"bees-with-color/bee-B1DF.svg\" width=\"200\">\n                    <p><span class=\"greenText\"><b>Successful harvest!</b></span><br>Your pay has increased by $0.02. Your bonus pay is now $0.50.</p>\n            ","response":0,"trial_type":"html-button-response","trial_index":94,"time_elapsed":1058351,"internal_node_id":"0.0-4.0-1.41","subject_id":"5f35782429beab53ef93cc2d","study_id":"6197b3f67c2b5cd3b6d9596a","session_id":"6197b5712039319c60dadc2d","condition":"full-information","relevant_dimensions":["antennae","pattern"],"bee_group":{"antennae":"A","wings":"X","pattern":"D","legs":"X"},"bonus":0.6000000000000012},{"rt":13357,"stimulus":"bees-with-color/bee-A1SM.svg","response":0,"trial_type":"image-button-response","trial_index":95,"time_elapsed":1071710,"internal_node_id":"0.0-4.0-0.42","subject_id":"5f35782429beab53ef93cc2d","study_id":"6197b3f67c2b5cd3b6d9596a","session_id":"6197b5712039319c60dadc2d","condition":"full-information","relevant_dimensions":["antennae","pattern"],"bee_group":{"antennae":"A","wings":"X","pattern":"D","legs":"X"},"action":"harvest","summary":"good-harvest","bonus":0.6000000000000012},{"rt":926.3999999761581,"stimulus":"\n                    <p><b>Action: <em>harvest</em></b></p>\n                    <p>This is the bee that you just saw.</p>\n                    <img src=\"bees-with-color/bee-A1SM.svg\" width=\"200\">\n                    <p><span class=\"greenText\"><b>Successful harvest!</b></span><br>Your pay has increased by $0.02. Your bonus pay is now $0.52.</p>\n            ","response":0,"trial_type":"html-button-response","trial_index":96,"time_elapsed":1072638,"internal_node_id":"0.0-4.0-1.42","subject_id":"5f35782429beab53ef93cc2d","study_id":"6197b3f67c2b5cd3b6d9596a","session_id":"6197b5712039319c60dadc2d","condition":"full-information","relevant_dimensions":["antennae","pattern"],"bee_group":{"antennae":"A","wings":"X","pattern":"D","legs":"X"},"bonus":0.6000000000000012},{"rt":12886.099999964237,"stimulus":"bees-with-color/bee-A1DM.svg","response":0,"trial_type":"image-button-response","trial_index":97,"time_elapsed":1085526,"internal_node_id":"0.0-4.0-0.43","subject_id":"5f35782429beab53ef93cc2d","study_id":"6197b3f67c2b5cd3b6d9596a","session_id":"6197b5712039319c60dadc2d","condition":"full-information","relevant_dimensions":["antennae","pattern"],"bee_group":{"antennae":"A","wings":"X","pattern":"D","legs":"X"},"action":"harvest","summary":"bad-harvest","bonus":0.6000000000000012},{"rt":1270.8999999761581,"stimulus":"\n                    <p><b>Action: <em>harvest</em></b></p>\n                    <p>This is the bee that you just saw.</p>\n                    <img src=\"bees-with-color/bee-A1DM.svg\" width=\"200\">\n                    <p><span class=\"redText\">Bad choice, the bee was angry.</span><br><b>You have been stung!</b><br>Your pay has been decreased by $0.10. Your bonus pay is now $0.42.</p>\n            ","response":0,"trial_type":"html-button-response","trial_index":98,"time_elapsed":1086798,"internal_node_id":"0.0-4.0-1.43","subject_id":"5f35782429beab53ef93cc2d","study_id":"6197b3f67c2b5cd3b6d9596a","session_id":"6197b5712039319c60dadc2d","condition":"full-information","relevant_dimensions":["antennae","pattern"],"bee_group":{"antennae":"A","wings":"X","pattern":"D","legs":"X"},"bonus":0.6000000000000012},{"rt":2766,"stimulus":"bees-with-color/bee-A1SF.svg","response":0,"trial_type":"image-button-response","trial_index":99,"time_elapsed":1089566,"internal_node_id":"0.0-4.0-0.44","subject_id":"5f35782429beab53ef93cc2d","study_id":"6197b3f67c2b5cd3b6d9596a","session_id":"6197b5712039319c60dadc2d","condition":"full-information","relevant_dimensions":["antennae","pattern"],"bee_group":{"antennae":"A","wings":"X","pattern":"D","legs":"X"},"action":"harvest","summary":"good-harvest","bonus":0.6000000000000012},{"rt":989.6999999880791,"stimulus":"\n                    <p><b>Action: <em>harvest</em></b></p>\n                    <p>This is the bee that you just saw.</p>\n                    <img src=\"bees-with-color/bee-A1SF.svg\" width=\"200\">\n                    <p><span class=\"greenText\"><b>Successful harvest!</b></span><br>Your pay has increased by $0.02. Your bonus pay is now $0.44.</p>\n            ","response":0,"trial_type":"html-button-response","trial_index":100,"time_elapsed":1090557,"internal_node_id":"0.0-4.0-1.44","subject_id":"5f35782429beab53ef93cc2d","study_id":"6197b3f67c2b5cd3b6d9596a","session_id":"6197b5712039319c60dadc2d","condition":"full-information","relevant_dimensions":["antennae","pattern"],"bee_group":{"antennae":"A","wings":"X","pattern":"D","legs":"X"},"bonus":0.6000000000000012},{"rt":6998.699999988079,"stimulus":"bees-with-color/bee-A2SM.svg","response":0,"trial_type":"image-button-response","trial_index":101,"time_elapsed":1097558,"internal_node_id":"0.0-4.0-0.45","subject_id":"5f35782429beab53ef93cc2d","study_id":"6197b3f67c2b5cd3b6d9596a","session_id":"6197b5712039319c60dadc2d","condition":"full-information","relevant_dimensions":["antennae","pattern"],"bee_group":{"antennae":"A","wings":"X","pattern":"D","legs":"X"},"action":"harvest","summary":"good-harvest","bonus":0.6000000000000012},{"rt":814.3000000119209,"stimulus":"\n                    <p><b>Action: <em>harvest</em></b></p>\n                    <p>This is the bee that you just saw.</p>\n                    <img src=\"bees-with-color/bee-A2SM.svg\" width=\"200\">\n                    <p><span class=\"greenText\"><b>Successful harvest!</b></span><br>Your pay has increased by $0.02. Your bonus pay is now $0.46.</p>\n            ","response":0,"trial_type":"html-button-response","trial_index":102,"time_elapsed":1098373,"internal_node_id":"0.0-4.0-1.45","subject_id":"5f35782429beab53ef93cc2d","study_id":"6197b3f67c2b5cd3b6d9596a","session_id":"6197b5712039319c60dadc2d","condition":"full-information","relevant_dimensions":["antennae","pattern"],"bee_group":{"antennae":"A","wings":"X","pattern":"D","legs":"X"},"bonus":0.6000000000000012},{"rt":21677.900000035763,"stimulus":"bees-with-color/bee-A1DF.svg","response":1,"trial_type":"image-button-response","trial_index":103,"time_elapsed":1120053,"internal_node_id":"0.0-4.0-0.46","subject_id":"5f35782429beab53ef93cc2d","study_id":"6197b3f67c2b5cd3b6d9596a","session_id":"6197b5712039319c60dadc2d","condition":"full-information","relevant_dimensions":["antennae","pattern"],"bee_group":{"antennae":"A","wings":"X","pattern":"D","legs":"X"},"action":"avoid","summary":"good-avoid","bonus":0.6000000000000012},{"rt":5206.199999988079,"stimulus":"\n                    <p><b>Action: <em>avoid</em></b></p>\n                    <p>This is the bee that you just saw.</p>\n                    <img src=\"bees-with-color/bee-A1DF.svg\" width=\"200\">\n                    <p><span class=\"greenText\">Good choice!</span>  This bee would have stung you.<br>Your bonus pay is unchanged, and remains at $0.46.</p>\n            ","response":0,"trial_type":"html-button-response","trial_index":104,"time_elapsed":1125262,"internal_node_id":"0.0-4.0-1.46","subject_id":"5f35782429beab53ef93cc2d","study_id":"6197b3f67c2b5cd3b6d9596a","session_id":"6197b5712039319c60dadc2d","condition":"full-information","relevant_dimensions":["antennae","pattern"],"bee_group":{"antennae":"A","wings":"X","pattern":"D","legs":"X"},"bonus":0.6000000000000012},{"rt":4805.300000011921,"stimulus":"bees-with-color/bee-B1SF.svg","response":0,"trial_type":"image-button-response","trial_index":105,"time_elapsed":1130070,"internal_node_id":"0.0-4.0-0.47","subject_id":"5f35782429beab53ef93cc2d","study_id":"6197b3f67c2b5cd3b6d9596a","session_id":"6197b5712039319c60dadc2d","condition":"full-information","relevant_dimensions":["antennae","pattern"],"bee_group":{"antennae":"A","wings":"X","pattern":"D","legs":"X"},"action":"harvest","summary":"good-harvest","bonus":0.6000000000000012},{"rt":1260.699999988079,"stimulus":"\n                    <p><b>Action: <em>harvest</em></b></p>\n                    <p>This is the bee that you just saw.</p>\n                    <img src=\"bees-with-color/bee-B1SF.svg\" width=\"200\">\n                    <p><span class=\"greenText\"><b>Successful harvest!</b></span><br>Your pay has increased by $0.02. Your bonus pay is now $0.48.</p>\n            ","response":0,"trial_type":"html-button-response","trial_index":106,"time_elapsed":1131333,"internal_node_id":"0.0-4.0-1.47","subject_id":"5f35782429beab53ef93cc2d","study_id":"6197b3f67c2b5cd3b6d9596a","session_id":"6197b5712039319c60dadc2d","condition":"full-information","relevant_dimensions":["antennae","pattern"],"bee_group":{"antennae":"A","wings":"X","pattern":"D","legs":"X"},"bonus":0.6000000000000012},{"rt":3478.099999964237,"stimulus":"bees-with-color/bee-B2SF.svg","response":0,"trial_type":"image-button-response","trial_index":107,"time_elapsed":1134814,"internal_node_id":"0.0-4.0-0.48","subject_id":"5f35782429beab53ef93cc2d","study_id":"6197b3f67c2b5cd3b6d9596a","session_id":"6197b5712039319c60dadc2d","condition":"full-information","relevant_dimensions":["antennae","pattern"],"bee_group":{"antennae":"A","wings":"X","pattern":"D","legs":"X"},"action":"harvest","summary":"good-harvest","bonus":0.6000000000000012},{"rt":734.0999999642372,"stimulus":"\n                    <p><b>Action: <em>harvest</em></b></p>\n                    <p>This is the bee that you just saw.</p>\n                    <img src=\"bees-with-color/bee-B2SF.svg\" width=\"200\">\n                    <p><span class=\"greenText\"><b>Successful harvest!</b></span><br>Your pay has increased by $0.02. Your bonus pay is now $0.50.</p>\n            ","response":0,"trial_type":"html-button-response","trial_index":108,"time_elapsed":1135550,"internal_node_id":"0.0-4.0-1.48","subject_id":"5f35782429beab53ef93cc2d","study_id":"6197b3f67c2b5cd3b6d9596a","session_id":"6197b5712039319c60dadc2d","condition":"full-information","relevant_dimensions":["antennae","pattern"],"bee_group":{"antennae":"A","wings":"X","pattern":"D","legs":"X"},"bonus":0.6000000000000012},{"rt":7357.699999988079,"stimulus":"bees-with-color/bee-B2SM.svg","response":0,"trial_type":"image-button-response","trial_index":109,"time_elapsed":1142909,"internal_node_id":"0.0-4.0-0.49","subject_id":"5f35782429beab53ef93cc2d","study_id":"6197b3f67c2b5cd3b6d9596a","session_id":"6197b5712039319c60dadc2d","condition":"full-information","relevant_dimensions":["antennae","pattern"],"bee_group":{"antennae":"A","wings":"X","pattern":"D","legs":"X"},"action":"harvest","summary":"good-harvest","bonus":0.6000000000000012},{"rt":966.3000000119209,"stimulus":"\n                    <p><b>Action: <em>harvest</em></b></p>\n                    <p>This is the bee that you just saw.</p>\n                    <img src=\"bees-with-color/bee-B2SM.svg\" width=\"200\">\n                    <p><span class=\"greenText\"><b>Successful harvest!</b></span><br>Your pay has increased by $0.02. Your bonus pay is now $0.52.</p>\n            ","response":0,"trial_type":"html-button-response","trial_index":110,"time_elapsed":1143877,"internal_node_id":"0.0-4.0-1.49","subject_id":"5f35782429beab53ef93cc2d","study_id":"6197b3f67c2b5cd3b6d9596a","session_id":"6197b5712039319c60dadc2d","condition":"full-information","relevant_dimensions":["antennae","pattern"],"bee_group":{"antennae":"A","wings":"X","pattern":"D","legs":"X"},"bonus":0.6000000000000012},{"rt":15526.599999964237,"stimulus":"bees-with-color/bee-A2DM.svg","response":0,"trial_type":"image-button-response","trial_index":111,"time_elapsed":1159405,"internal_node_id":"0.0-4.0-0.50","subject_id":"5f35782429beab53ef93cc2d","study_id":"6197b3f67c2b5cd3b6d9596a","session_id":"6197b5712039319c60dadc2d","condition":"full-information","relevant_dimensions":["antennae","pattern"],"bee_group":{"antennae":"A","wings":"X","pattern":"D","legs":"X"},"action":"harvest","summary":"bad-harvest","bonus":0.6000000000000012},{"rt":1230.2999999523163,"stimulus":"\n                    <p><b>Action: <em>harvest</em></b></p>\n                    <p>This is the bee that you just saw.</p>\n                    <img src=\"bees-with-color/bee-A2DM.svg\" width=\"200\">\n                    <p><span class=\"redText\">Bad choice, the bee was angry.</span><br><b>You have been stung!</b><br>Your pay has been decreased by $0.10. Your bonus pay is now $0.42.</p>\n            ","response":0,"trial_type":"html-button-response","trial_index":112,"time_elapsed":1160637,"internal_node_id":"0.0-4.0-1.50","subject_id":"5f35782429beab53ef93cc2d","study_id":"6197b3f67c2b5cd3b6d9596a","session_id":"6197b5712039319c60dadc2d","condition":"full-information","relevant_dimensions":["antennae","pattern"],"bee_group":{"antennae":"A","wings":"X","pattern":"D","legs":"X"},"bonus":0.6000000000000012},{"rt":14421.899999976158,"stimulus":"bees-with-color/bee-A2SF.svg","response":0,"trial_type":"image-button-response","trial_index":113,"time_elapsed":1175061,"internal_node_id":"0.0-4.0-0.51","subject_id":"5f35782429beab53ef93cc2d","study_id":"6197b3f67c2b5cd3b6d9596a","session_id":"6197b5712039319c60dadc2d","condition":"full-information","relevant_dimensions":["antennae","pattern"],"bee_group":{"antennae":"A","wings":"X","pattern":"D","legs":"X"},"action":"harvest","summary":"good-harvest","bonus":0.6000000000000012},{"rt":1262.7000000476837,"stimulus":"\n                    <p><b>Action: <em>harvest</em></b></p>\n                    <p>This is the bee that you just saw.</p>\n                    <img src=\"bees-with-color/bee-A2SF.svg\" width=\"200\">\n                    <p><span class=\"greenText\"><b>Successful harvest!</b></span><br>Your pay has increased by $0.02. Your bonus pay is now $0.44.</p>\n            ","response":0,"trial_type":"html-button-response","trial_index":114,"time_elapsed":1176325,"internal_node_id":"0.0-4.0-1.51","subject_id":"5f35782429beab53ef93cc2d","study_id":"6197b3f67c2b5cd3b6d9596a","session_id":"6197b5712039319c60dadc2d","condition":"full-information","relevant_dimensions":["antennae","pattern"],"bee_group":{"antennae":"A","wings":"X","pattern":"D","legs":"X"},"bonus":0.6000000000000012},{"rt":10214,"stimulus":"bees-with-color/bee-A1SM.svg","response":0,"trial_type":"image-button-response","trial_index":115,"time_elapsed":1186541,"internal_node_id":"0.0-4.0-0.52","subject_id":"5f35782429beab53ef93cc2d","study_id":"6197b3f67c2b5cd3b6d9596a","session_id":"6197b5712039319c60dadc2d","condition":"full-information","relevant_dimensions":["antennae","pattern"],"bee_group":{"antennae":"A","wings":"X","pattern":"D","legs":"X"},"action":"harvest","summary":"good-harvest","bonus":0.6000000000000012},{"rt":998.5,"stimulus":"\n                    <p><b>Action: <em>harvest</em></b></p>\n                    <p>This is the bee that you just saw.</p>\n                    <img src=\"bees-with-color/bee-A1SM.svg\" width=\"200\">\n                    <p><span class=\"greenText\"><b>Successful harvest!</b></span><br>Your pay has increased by $0.02. Your bonus pay is now $0.46.</p>\n            ","response":0,"trial_type":"html-button-response","trial_index":116,"time_elapsed":1187541,"internal_node_id":"0.0-4.0-1.52","subject_id":"5f35782429beab53ef93cc2d","study_id":"6197b3f67c2b5cd3b6d9596a","session_id":"6197b5712039319c60dadc2d","condition":"full-information","relevant_dimensions":["antennae","pattern"],"bee_group":{"antennae":"A","wings":"X","pattern":"D","legs":"X"},"bonus":0.6000000000000012},{"rt":15017.800000011921,"stimulus":"bees-with-color/bee-B1SF.svg","response":0,"trial_type":"image-button-response","trial_index":117,"time_elapsed":1202560,"internal_node_id":"0.0-4.0-0.53","subject_id":"5f35782429beab53ef93cc2d","study_id":"6197b3f67c2b5cd3b6d9596a","session_id":"6197b5712039319c60dadc2d","condition":"full-information","relevant_dimensions":["antennae","pattern"],"bee_group":{"antennae":"A","wings":"X","pattern":"D","legs":"X"},"action":"harvest","summary":"good-harvest","bonus":0.6000000000000012},{"rt":1395.300000011921,"stimulus":"\n                    <p><b>Action: <em>harvest</em></b></p>\n                    <p>This is the bee that you just saw.</p>\n                    <img src=\"bees-with-color/bee-B1SF.svg\" width=\"200\">\n                    <p><span class=\"greenText\"><b>Successful harvest!</b></span><br>Your pay has increased by $0.02. Your bonus pay is now $0.48.</p>\n            ","response":0,"trial_type":"html-button-response","trial_index":118,"time_elapsed":1203958,"internal_node_id":"0.0-4.0-1.53","subject_id":"5f35782429beab53ef93cc2d","study_id":"6197b3f67c2b5cd3b6d9596a","session_id":"6197b5712039319c60dadc2d","condition":"full-information","relevant_dimensions":["antennae","pattern"],"bee_group":{"antennae":"A","wings":"X","pattern":"D","legs":"X"},"bonus":0.6000000000000012},{"rt":7437.800000011921,"stimulus":"bees-with-color/bee-B2DF.svg","response":1,"trial_type":"image-button-response","trial_index":119,"time_elapsed":1211397,"internal_node_id":"0.0-4.0-0.54","subject_id":"5f35782429beab53ef93cc2d","study_id":"6197b3f67c2b5cd3b6d9596a","session_id":"6197b5712039319c60dadc2d","condition":"full-information","relevant_dimensions":["antennae","pattern"],"bee_group":{"antennae":"A","wings":"X","pattern":"D","legs":"X"},"action":"avoid","summary":"bad-avoid","bonus":0.6000000000000012},{"rt":2430.5,"stimulus":"\n                    <p><b>Action: <em>avoid</em></b></p>\n                    <p>This is the bee that you just saw.</p>\n                    <img src=\"bees-with-color/bee-B2DF.svg\" width=\"200\">\n                    <p><span class=\"redText\">Bad choice,</span> the bee was friendly.<br>Your bonus pay is unchanged, and remains at $0.48.</p>\n            ","response":0,"trial_type":"html-button-response","trial_index":120,"time_elapsed":1213829,"internal_node_id":"0.0-4.0-1.54","subject_id":"5f35782429beab53ef93cc2d","study_id":"6197b3f67c2b5cd3b6d9596a","session_id":"6197b5712039319c60dadc2d","condition":"full-information","relevant_dimensions":["antennae","pattern"],"bee_group":{"antennae":"A","wings":"X","pattern":"D","legs":"X"},"bonus":0.6000000000000012},{"rt":9645.900000035763,"stimulus":"bees-with-color/bee-A1DF.svg","response":1,"trial_type":"image-button-response","trial_index":121,"time_elapsed":1223477,"internal_node_id":"0.0-4.0-0.55","subject_id":"5f35782429beab53ef93cc2d","study_id":"6197b3f67c2b5cd3b6d9596a","session_id":"6197b5712039319c60dadc2d","condition":"full-information","relevant_dimensions":["antennae","pattern"],"bee_group":{"antennae":"A","wings":"X","pattern":"D","legs":"X"},"action":"avoid","summary":"good-avoid","bonus":0.6000000000000012},{"rt":1318.300000011921,"stimulus":"\n                    <p><b>Action: <em>avoid</em></b></p>\n                    <p>This is the bee that you just saw.</p>\n                    <img src=\"bees-with-color/bee-A1DF.svg\" width=\"200\">\n                    <p><span class=\"greenText\">Good choice!</span>  This bee would have stung you.<br>Your bonus pay is unchanged, and remains at $0.48.</p>\n            ","response":0,"trial_type":"html-button-response","trial_index":122,"time_elapsed":1224797,"internal_node_id":"0.0-4.0-1.55","subject_id":"5f35782429beab53ef93cc2d","study_id":"6197b3f67c2b5cd3b6d9596a","session_id":"6197b5712039319c60dadc2d","condition":"full-information","relevant_dimensions":["antennae","pattern"],"bee_group":{"antennae":"A","wings":"X","pattern":"D","legs":"X"},"bonus":0.6000000000000012},{"rt":5558.699999988079,"stimulus":"bees-with-color/bee-B1DM.svg","response":1,"trial_type":"image-button-response","trial_index":123,"time_elapsed":1230358,"internal_node_id":"0.0-4.0-0.56","subject_id":"5f35782429beab53ef93cc2d","study_id":"6197b3f67c2b5cd3b6d9596a","session_id":"6197b5712039319c60dadc2d","condition":"full-information","relevant_dimensions":["antennae","pattern"],"bee_group":{"antennae":"A","wings":"X","pattern":"D","legs":"X"},"action":"avoid","summary":"bad-avoid","bonus":0.6000000000000012},{"rt":1293.800000011921,"stimulus":"\n                    <p><b>Action: <em>avoid</em></b></p>\n                    <p>This is the bee that you just saw.</p>\n                    <img src=\"bees-with-color/bee-B1DM.svg\" width=\"200\">\n                    <p><span class=\"redText\">Bad choice,</span> the bee was friendly.<br>Your bonus pay is unchanged, and remains at $0.48.</p>\n            ","response":0,"trial_type":"html-button-response","trial_index":124,"time_elapsed":1231653,"internal_node_id":"0.0-4.0-1.56","subject_id":"5f35782429beab53ef93cc2d","study_id":"6197b3f67c2b5cd3b6d9596a","session_id":"6197b5712039319c60dadc2d","condition":"full-information","relevant_dimensions":["antennae","pattern"],"bee_group":{"antennae":"A","wings":"X","pattern":"D","legs":"X"},"bonus":0.6000000000000012},{"rt":13878.099999964237,"stimulus":"bees-with-color/bee-A2SM.svg","response":0,"trial_type":"image-button-response","trial_index":125,"time_elapsed":1245533,"internal_node_id":"0.0-4.0-0.57","subject_id":"5f35782429beab53ef93cc2d","study_id":"6197b3f67c2b5cd3b6d9596a","session_id":"6197b5712039319c60dadc2d","condition":"full-information","relevant_dimensions":["antennae","pattern"],"bee_group":{"antennae":"A","wings":"X","pattern":"D","legs":"X"},"action":"harvest","summary":"good-harvest","bonus":0.6000000000000012},{"rt":1774.5,"stimulus":"\n                    <p><b>Action: <em>harvest</em></b></p>\n                    <p>This is the bee that you just saw.</p>\n                    <img src=\"bees-with-color/bee-A2SM.svg\" width=\"200\">\n                    <p><span class=\"greenText\"><b>Successful harvest!</b></span><br>Your pay has increased by $0.02. Your bonus pay is now $0.50.</p>\n            ","response":0,"trial_type":"html-button-response","trial_index":126,"time_elapsed":1247310,"internal_node_id":"0.0-4.0-1.57","subject_id":"5f35782429beab53ef93cc2d","study_id":"6197b3f67c2b5cd3b6d9596a","session_id":"6197b5712039319c60dadc2d","condition":"full-information","relevant_dimensions":["antennae","pattern"],"bee_group":{"antennae":"A","wings":"X","pattern":"D","legs":"X"},"bonus":0.6000000000000012},{"rt":5781.899999976158,"stimulus":"bees-with-color/bee-B1DF.svg","response":1,"trial_type":"image-button-response","trial_index":127,"time_elapsed":1253093,"internal_node_id":"0.0-4.0-0.58","subject_id":"5f35782429beab53ef93cc2d","study_id":"6197b3f67c2b5cd3b6d9596a","session_id":"6197b5712039319c60dadc2d","condition":"full-information","relevant_dimensions":["antennae","pattern"],"bee_group":{"antennae":"A","wings":"X","pattern":"D","legs":"X"},"action":"avoid","summary":"bad-avoid","bonus":0.6000000000000012},{"rt":1277.699999988079,"stimulus":"\n                    <p><b>Action: <em>avoid</em></b></p>\n                    <p>This is the bee that you just saw.</p>\n                    <img src=\"bees-with-color/bee-B1DF.svg\" width=\"200\">\n                    <p><span class=\"redText\">Bad choice,</span> the bee was friendly.<br>Your bonus pay is unchanged, and remains at $0.50.</p>\n            ","response":0,"trial_type":"html-button-response","trial_index":128,"time_elapsed":1254373,"internal_node_id":"0.0-4.0-1.58","subject_id":"5f35782429beab53ef93cc2d","study_id":"6197b3f67c2b5cd3b6d9596a","session_id":"6197b5712039319c60dadc2d","condition":"full-information","relevant_dimensions":["antennae","pattern"],"bee_group":{"antennae":"A","wings":"X","pattern":"D","legs":"X"},"bonus":0.6000000000000012},{"rt":4677.800000011921,"stimulus":"bees-with-color/bee-A2DF.svg","response":1,"trial_type":"image-button-response","trial_index":129,"time_elapsed":1259053,"internal_node_id":"0.0-4.0-0.59","subject_id":"5f35782429beab53ef93cc2d","study_id":"6197b3f67c2b5cd3b6d9596a","session_id":"6197b5712039319c60dadc2d","condition":"full-information","relevant_dimensions":["antennae","pattern"],"bee_group":{"antennae":"A","wings":"X","pattern":"D","legs":"X"},"action":"avoid","summary":"good-avoid","bonus":0.6000000000000012},{"rt":1318.199999988079,"stimulus":"\n                    <p><b>Action: <em>avoid</em></b></p>\n                    <p>This is the bee that you just saw.</p>\n                    <img src=\"bees-with-color/bee-A2DF.svg\" width=\"200\">\n                    <p><span class=\"greenText\">Good choice!</span>  This bee would have stung you.<br>Your bonus pay is unchanged, and remains at $0.50.</p>\n            ","response":0,"trial_type":"html-button-response","trial_index":130,"time_elapsed":1260373,"internal_node_id":"0.0-4.0-1.59","subject_id":"5f35782429beab53ef93cc2d","study_id":"6197b3f67c2b5cd3b6d9596a","session_id":"6197b5712039319c60dadc2d","condition":"full-information","relevant_dimensions":["antennae","pattern"],"bee_group":{"antennae":"A","wings":"X","pattern":"D","legs":"X"},"bonus":0.6000000000000012},{"rt":6173.899999976158,"stimulus":"bees-with-color/bee-A1SF.svg","response":0,"trial_type":"image-button-response","trial_index":131,"time_elapsed":1266549,"internal_node_id":"0.0-4.0-0.60","subject_id":"5f35782429beab53ef93cc2d","study_id":"6197b3f67c2b5cd3b6d9596a","session_id":"6197b5712039319c60dadc2d","condition":"full-information","relevant_dimensions":["antennae","pattern"],"bee_group":{"antennae":"A","wings":"X","pattern":"D","legs":"X"},"action":"harvest","summary":"good-harvest","bonus":0.6000000000000012},{"rt":1078,"stimulus":"\n                    <p><b>Action: <em>harvest</em></b></p>\n                    <p>This is the bee that you just saw.</p>\n                    <img src=\"bees-with-color/bee-A1SF.svg\" width=\"200\">\n                    <p><span class=\"greenText\"><b>Successful harvest!</b></span><br>Your pay has increased by $0.02. Your bonus pay is now $0.52.</p>\n            ","response":0,"trial_type":"html-button-response","trial_index":132,"time_elapsed":1267629,"internal_node_id":"0.0-4.0-1.60","subject_id":"5f35782429beab53ef93cc2d","study_id":"6197b3f67c2b5cd3b6d9596a","session_id":"6197b5712039319c60dadc2d","condition":"full-information","relevant_dimensions":["antennae","pattern"],"bee_group":{"antennae":"A","wings":"X","pattern":"D","legs":"X"},"bonus":0.6000000000000012},{"rt":6797.600000023842,"stimulus":"bees-with-color/bee-B2DM.svg","response":1,"trial_type":"image-button-response","trial_index":133,"time_elapsed":1274429,"internal_node_id":"0.0-4.0-0.61","subject_id":"5f35782429beab53ef93cc2d","study_id":"6197b3f67c2b5cd3b6d9596a","session_id":"6197b5712039319c60dadc2d","condition":"full-information","relevant_dimensions":["antennae","pattern"],"bee_group":{"antennae":"A","wings":"X","pattern":"D","legs":"X"},"action":"avoid","summary":"bad-avoid","bonus":0.6000000000000012},{"rt":1614.5999999642372,"stimulus":"\n                    <p><b>Action: <em>avoid</em></b></p>\n                    <p>This is the bee that you just saw.</p>\n                    <img src=\"bees-with-color/bee-B2DM.svg\" width=\"200\">\n                    <p><span class=\"redText\">Bad choice,</span> the bee was friendly.<br>Your bonus pay is unchanged, and remains at $0.52.</p>\n            ","response":0,"trial_type":"html-button-response","trial_index":134,"time_elapsed":1276045,"internal_node_id":"0.0-4.0-1.61","subject_id":"5f35782429beab53ef93cc2d","study_id":"6197b3f67c2b5cd3b6d9596a","session_id":"6197b5712039319c60dadc2d","condition":"full-information","relevant_dimensions":["antennae","pattern"],"bee_group":{"antennae":"A","wings":"X","pattern":"D","legs":"X"},"bonus":0.6000000000000012},{"rt":55006.39999997616,"stimulus":"bees-with-color/bee-A1DM.svg","response":0,"trial_type":"image-button-response","trial_index":135,"time_elapsed":1331053,"internal_node_id":"0.0-4.0-0.62","subject_id":"5f35782429beab53ef93cc2d","study_id":"6197b3f67c2b5cd3b6d9596a","session_id":"6197b5712039319c60dadc2d","condition":"full-information","relevant_dimensions":["antennae","pattern"],"bee_group":{"antennae":"A","wings":"X","pattern":"D","legs":"X"},"action":"harvest","summary":"bad-harvest","bonus":0.6000000000000012},{"rt":9941.900000035763,"stimulus":"\n                    <p><b>Action: <em>harvest</em></b></p>\n                    <p>This is the bee that you just saw.</p>\n                    <img src=\"bees-with-color/bee-A1DM.svg\" width=\"200\">\n                    <p><span class=\"redText\">Bad choice, the bee was angry.</span><br><b>You have been stung!</b><br>Your pay has been decreased by $0.10. Your bonus pay is now $0.42.</p>\n            ","response":0,"trial_type":"html-button-response","trial_index":136,"time_elapsed":1340996,"internal_node_id":"0.0-4.0-1.62","subject_id":"5f35782429beab53ef93cc2d","study_id":"6197b3f67c2b5cd3b6d9596a","session_id":"6197b5712039319c60dadc2d","condition":"full-information","relevant_dimensions":["antennae","pattern"],"bee_group":{"antennae":"A","wings":"X","pattern":"D","legs":"X"},"bonus":0.6000000000000012},{"rt":16239.199999988079,"stimulus":"bees-with-color/bee-B1SM.svg","response":0,"trial_type":"image-button-response","trial_index":137,"time_elapsed":1357237,"internal_node_id":"0.0-4.0-0.63","subject_id":"5f35782429beab53ef93cc2d","study_id":"6197b3f67c2b5cd3b6d9596a","session_id":"6197b5712039319c60dadc2d","condition":"full-information","relevant_dimensions":["antennae","pattern"],"bee_group":{"antennae":"A","wings":"X","pattern":"D","legs":"X"},"action":"harvest","summary":"good-harvest","bonus":0.6000000000000012},{"rt":1134.4000000357628,"stimulus":"\n                    <p><b>Action: <em>harvest</em></b></p>\n                    <p>This is the bee that you just saw.</p>\n                    <img src=\"bees-with-color/bee-B1SM.svg\" width=\"200\">\n                    <p><span class=\"greenText\"><b>Successful harvest!</b></span><br>Your pay has increased by $0.02. Your bonus pay is now $0.44.</p>\n            ","response":0,"trial_type":"html-button-response","trial_index":138,"time_elapsed":1358373,"internal_node_id":"0.0-4.0-1.63","subject_id":"5f35782429beab53ef93cc2d","study_id":"6197b3f67c2b5cd3b6d9596a","session_id":"6197b5712039319c60dadc2d","condition":"full-information","relevant_dimensions":["antennae","pattern"],"bee_group":{"antennae":"A","wings":"X","pattern":"D","legs":"X"},"bonus":0.6000000000000012},{"rt":6336.899999976158,"stimulus":"You have completed the first part of this experiment.<br><br>You will now begin a shorter second part, in which you will receive no feedback.<br>The same rules regarding bonus pay apply.<br><br>Press any key to begin.","response":"j","trial_type":"html-keyboard-response","trial_index":139,"time_elapsed":1364712,"internal_node_id":"0.0-5.0","subject_id":"5f35782429beab53ef93cc2d","study_id":"6197b3f67c2b5cd3b6d9596a","session_id":"6197b5712039319c60dadc2d","condition":"full-information","relevant_dimensions":["antennae","pattern"],"bee_group":{"antennae":"A","wings":"X","pattern":"D","legs":"X"},"bonus":0.6000000000000012},{"rt":21372.700000047684,"stimulus":"bees-with-color/bee-B2DM.svg","response":1,"trial_type":"image-button-response","trial_index":140,"time_elapsed":1386093,"internal_node_id":"0.0-6.0-0.0","subject_id":"5f35782429beab53ef93cc2d","study_id":"6197b3f67c2b5cd3b6d9596a","session_id":"6197b5712039319c60dadc2d","condition":"full-information","relevant_dimensions":["antennae","pattern"],"bee_group":{"antennae":"A","wings":"X","pattern":"D","legs":"X"},"bonus":0.6000000000000012},{"rt":7267,"stimulus":"bees-with-color/bee-A2DM.svg","response":0,"trial_type":"image-button-response","trial_index":141,"time_elapsed":1393365,"internal_node_id":"0.0-6.0-0.1","subject_id":"5f35782429beab53ef93cc2d","study_id":"6197b3f67c2b5cd3b6d9596a","session_id":"6197b5712039319c60dadc2d","condition":"full-information","relevant_dimensions":["antennae","pattern"],"bee_group":{"antennae":"A","wings":"X","pattern":"D","legs":"X"},"bonus":0.6000000000000012},{"rt":8477.199999988079,"stimulus":"bees-with-color/bee-B1SF.svg","response":0,"trial_type":"image-button-response","trial_index":142,"time_elapsed":1401845,"internal_node_id":"0.0-6.0-0.2","subject_id":"5f35782429beab53ef93cc2d","study_id":"6197b3f67c2b5cd3b6d9596a","session_id":"6197b5712039319c60dadc2d","condition":"full-information","relevant_dimensions":["antennae","pattern"],"bee_group":{"antennae":"A","wings":"X","pattern":"D","legs":"X"},"bonus":0.6000000000000012},{"rt":5765.300000011921,"stimulus":"bees-with-color/bee-B1DF.svg","response":1,"trial_type":"image-button-response","trial_index":143,"time_elapsed":1407613,"internal_node_id":"0.0-6.0-0.3","subject_id":"5f35782429beab53ef93cc2d","study_id":"6197b3f67c2b5cd3b6d9596a","session_id":"6197b5712039319c60dadc2d","condition":"full-information","relevant_dimensions":["antennae","pattern"],"bee_group":{"antennae":"A","wings":"X","pattern":"D","legs":"X"},"bonus":0.6000000000000012},{"rt":21869.19999998808,"stimulus":"bees-with-color/bee-A1DF.svg","response":0,"trial_type":"image-button-response","trial_index":144,"time_elapsed":1429485,"internal_node_id":"0.0-6.0-0.4","subject_id":"5f35782429beab53ef93cc2d","study_id":"6197b3f67c2b5cd3b6d9596a","session_id":"6197b5712039319c60dadc2d","condition":"full-information","relevant_dimensions":["antennae","pattern"],"bee_group":{"antennae":"A","wings":"X","pattern":"D","legs":"X"},"bonus":0.6000000000000012},{"rt":18050.399999976158,"stimulus":"bees-with-color/bee-B1DM.svg","response":0,"trial_type":"image-button-response","trial_index":145,"time_elapsed":1447540,"internal_node_id":"0.0-6.0-0.5","subject_id":"5f35782429beab53ef93cc2d","study_id":"6197b3f67c2b5cd3b6d9596a","session_id":"6197b5712039319c60dadc2d","condition":"full-information","relevant_dimensions":["antennae","pattern"],"bee_group":{"antennae":"A","wings":"X","pattern":"D","legs":"X"},"bonus":0.6000000000000012},{"rt":11988.5,"stimulus":"bees-with-color/bee-A2SF.svg","response":0,"trial_type":"image-button-response","trial_index":146,"time_elapsed":1459533,"internal_node_id":"0.0-6.0-0.6","subject_id":"5f35782429beab53ef93cc2d","study_id":"6197b3f67c2b5cd3b6d9596a","session_id":"6197b5712039319c60dadc2d","condition":"full-information","relevant_dimensions":["antennae","pattern"],"bee_group":{"antennae":"A","wings":"X","pattern":"D","legs":"X"},"bonus":0.6000000000000012},{"rt":15796.799999952316,"stimulus":"bees-with-color/bee-A2SM.svg","response":0,"trial_type":"image-button-response","trial_index":147,"time_elapsed":1475332,"internal_node_id":"0.0-6.0-0.7","subject_id":"5f35782429beab53ef93cc2d","study_id":"6197b3f67c2b5cd3b6d9596a","session_id":"6197b5712039319c60dadc2d","condition":"full-information","relevant_dimensions":["antennae","pattern"],"bee_group":{"antennae":"A","wings":"X","pattern":"D","legs":"X"},"bonus":0.6000000000000012},{"rt":2045.199999988079,"stimulus":"bees-with-color/bee-B2SM.svg","response":0,"trial_type":"image-button-response","trial_index":148,"time_elapsed":1477381,"internal_node_id":"0.0-6.0-0.8","subject_id":"5f35782429beab53ef93cc2d","study_id":"6197b3f67c2b5cd3b6d9596a","session_id":"6197b5712039319c60dadc2d","condition":"full-information","relevant_dimensions":["antennae","pattern"],"bee_group":{"antennae":"A","wings":"X","pattern":"D","legs":"X"},"bonus":0.6000000000000012},{"rt":11269.5,"stimulus":"bees-with-color/bee-B1SM.svg","response":0,"trial_type":"image-button-response","trial_index":149,"time_elapsed":1488652,"internal_node_id":"0.0-6.0-0.9","subject_id":"5f35782429beab53ef93cc2d","study_id":"6197b3f67c2b5cd3b6d9596a","session_id":"6197b5712039319c60dadc2d","condition":"full-information","relevant_dimensions":["antennae","pattern"],"bee_group":{"antennae":"A","wings":"X","pattern":"D","legs":"X"},"bonus":0.6000000000000012},{"rt":10694.5,"stimulus":"bees-with-color/bee-A2DF.svg","response":1,"trial_type":"image-button-response","trial_index":150,"time_elapsed":1499349,"internal_node_id":"0.0-6.0-0.10","subject_id":"5f35782429beab53ef93cc2d","study_id":"6197b3f67c2b5cd3b6d9596a","session_id":"6197b5712039319c60dadc2d","condition":"full-information","relevant_dimensions":["antennae","pattern"],"bee_group":{"antennae":"A","wings":"X","pattern":"D","legs":"X"},"bonus":0.6000000000000012},{"rt":8573.300000011921,"stimulus":"bees-with-color/bee-A1SF.svg","response":0,"trial_type":"image-button-response","trial_index":151,"time_elapsed":1507924,"internal_node_id":"0.0-6.0-0.11","subject_id":"5f35782429beab53ef93cc2d","study_id":"6197b3f67c2b5cd3b6d9596a","session_id":"6197b5712039319c60dadc2d","condition":"full-information","relevant_dimensions":["antennae","pattern"],"bee_group":{"antennae":"A","wings":"X","pattern":"D","legs":"X"},"bonus":0.6000000000000012},{"rt":7150.5,"stimulus":"bees-with-color/bee-B2SF.svg","response":0,"trial_type":"image-button-response","trial_index":152,"time_elapsed":1515076,"internal_node_id":"0.0-6.0-0.12","subject_id":"5f35782429beab53ef93cc2d","study_id":"6197b3f67c2b5cd3b6d9596a","session_id":"6197b5712039319c60dadc2d","condition":"full-information","relevant_dimensions":["antennae","pattern"],"bee_group":{"antennae":"A","wings":"X","pattern":"D","legs":"X"},"bonus":0.6000000000000012},{"rt":15366,"stimulus":"bees-with-color/bee-A1DM.svg","response":1,"trial_type":"image-button-response","trial_index":153,"time_elapsed":1530445,"internal_node_id":"0.0-6.0-0.13","subject_id":"5f35782429beab53ef93cc2d","study_id":"6197b3f67c2b5cd3b6d9596a","session_id":"6197b5712039319c60dadc2d","con