[{"success":true,"trial_type":"fullscreen","trial_index":0,"time_elapsed":39959,"internal_node_id":"0.0-0.0","subject_id":"602a92432b8e88094f75598b","study_id":"60edd13110225f80f9f3709b","session_id":"6196c4a400db091a6a5d36b3","condition":"contingent","relevant_dimensions":["antennae","pattern"],"bee_group":{"antennae":"A","wings":"X","pattern":"D","legs":"X"},"bonus":1.2000000000000006},{"success":true,"timeout":false,"failed_images":[],"failed_audio":[],"failed_video":[],"trial_type":"preload","trial_index":1,"time_elapsed":41391,"internal_node_id":"0.0-1.0","subject_id":"602a92432b8e88094f75598b","study_id":"60edd13110225f80f9f3709b","session_id":"6196c4a400db091a6a5d36b3","condition":"contingent","relevant_dimensions":["antennae","pattern"],"bee_group":{"antennae":"A","wings":"X","pattern":"D","legs":"X"},"bonus":1.2000000000000006},{"rt":1849,"stimulus":"Welcome! Press any key to begin.","response":"enter","trial_type":"html-keyboard-response","trial_index":2,"time_elapsed":43241,"internal_node_id":"0.0-2.0","subject_id":"602a92432b8e88094f75598b","study_id":"60edd13110225f80f9f3709b","session_id":"6196c4a400db091a6a5d36b3","condition":"contingent","relevant_dimensions":["antennae","pattern"],"bee_group":{"antennae":"A","wings":"X","pattern":"D","legs":"X"},"bonus":1.2000000000000006},{"view_history":[{"page_index":0,"viewing_time":3309},{"page_index":1,"viewing_time":22223},{"page_index":2,"viewing_time":16616},{"page_index":3,"viewing_time":11528},{"page_index":4,"viewing_time":5936},{"page_index":5,"viewing_time":6624},{"page_index":6,"viewing_time":8121},{"page_index":7,"viewing_time":7007},{"page_index":8,"viewing_time":4432},{"page_index":9,"viewing_time":3584},{"page_index":10,"viewing_time":3745},{"page_index":11,"viewing_time":8631},{"page_index":12,"viewing_time":5056},{"page_index":13,"viewing_time":1104},{"page_index":14,"viewing_time":944}],"rt":108860,"trial_type":"instructions","trial_index":3,"time_elapsed":152103,"internal_node_id":"0.0-3.0-0.0","subject_id":"602a92432b8e88094f75598b","study_id":"60edd13110225f80f9f3709b","session_id":"6196c4a400db091a6a5d36b3","condition":"contingent","relevant_dimensions":["antennae","pattern"],"bee_group":{"antennae":"A","wings":"X","pattern":"D","legs":"X"},"bonus":1.2000000000000006},{"rt":24874,"response":{"Q0":["Two or six legs","Stripes or spots on body","Single or double wings","Antennae or no antennae"]},"question_order":[0],"trial_type":"survey-multi-select","trial_index":4,"time_elapsed":176979,"internal_node_id":"0.0-3.0-1.0","subject_id":"602a92432b8e88094f75598b","study_id":"60edd13110225f80f9f3709b","session_id":"6196c4a400db091a6a5d36b3","condition":"contingent","relevant_dimensions":["antennae","pattern"],"bee_group":{"antennae":"A","wings":"X","pattern":"D","legs":"X"},"correct":true,"bonus":1.2000000000000006},{"rt":41129,"response":{"Q1":"No.","Q2":"Based on the four features of the bee.","Q3":"You do not learn if it was friendly or dangerous, and do not alter your bonus."},"question_order":[0,1,2],"trial_type":"survey-multi-choice","trial_index":5,"time_elapsed":218111,"internal_node_id":"0.0-3.0-2.0","subject_id":"602a92432b8e88094f75598b","study_id":"60edd13110225f80f9f3709b","session_id":"6196c4a400db091a6a5d36b3","condition":"contingent","relevant_dimensions":["antennae","pattern"],"bee_group":{"antennae":"A","wings":"X","pattern":"D","legs":"X"},"correct":true,"bonus":1.2000000000000006},{"rt":4319,"stimulus":"<p>Congrats, you got everything right<br>When you're ready, click the button below to continue to the experiment.</p>","response":0,"trial_type":"html-button-response","trial_index":6,"time_elapsed":222430,"internal_node_id":"0.0-3.0-3.0","subject_id":"602a92432b8e88094f75598b","study_id":"60edd13110225f80f9f3709b","session_id":"6196c4a400db091a6a5d36b3","condition":"contingent","relevant_dimensions":["antennae","pattern"],"bee_group":{"antennae":"A","wings":"X","pattern":"D","legs":"X"},"bonus":1.2000000000000006},{"rt":2118,"stimulus":"bees-with-color/bee-A1SM.svg","response":0,"trial_type":"image-button-response","trial_index":7,"time_elapsed":224550,"internal_node_id":"0.0-4.0-0.0","subject_id":"602a92432b8e88094f75598b","study_id":"60edd13110225f80f9f3709b","session_id":"6196c4a400db091a6a5d36b3","condition":"contingent","relevant_dimensions":["antennae","pattern"],"bee_group":{"antennae":"A","wings":"X","pattern":"D","legs":"X"},"action":"harvest","summary":"good-harvest","bonus":1.2000000000000006},{"rt":4068,"stimulus":"\n                    <p><b>Action: <em>harvest</em></b></p>\n                    <p>This is the bee that you just saw.</p>\n                    <img src=\"bees-with-color/bee-A1SM.svg\" width=\"200\">\n                    <p><span class=\"greenText\"><b>Successful harvest!</b></span><br>Your pay has increased by $0.02. Your bonus pay is now $0.56.</p>\n            ","response":0,"trial_type":"html-button-response","trial_index":8,"time_elapsed":228638,"internal_node_id":"0.0-4.0-1.0","subject_id":"602a92432b8e88094f75598b","study_id":"60edd13110225f80f9f3709b","session_id":"6196c4a400db091a6a5d36b3","condition":"contingent","relevant_dimensions":["antennae","pattern"],"bee_group":{"antennae":"A","wings":"X","pattern":"D","legs":"X"},"bonus":1.2000000000000006},{"rt":1758,"stimulus":"bees-with-color/bee-A1DM.svg","response":1,"trial_type":"image-button-response","trial_index":9,"time_elapsed":230398,"internal_node_id":"0.0-4.0-0.1","subject_id":"602a92432b8e88094f75598b","study_id":"60edd13110225f80f9f3709b","session_id":"6196c4a400db091a6a5d36b3","condition":"contingent","relevant_dimensions":["antennae","pattern"],"bee_group":{"antennae":"A","wings":"X","pattern":"D","legs":"X"},"action":"avoid","summary":"good-avoid","bonus":1.2000000000000006},{"rt":2981,"stimulus":"\n                    <p><b>Action: <em>avoid</em></b></p>\n                    <p>This is the bee that you just saw.</p>\n                    <img src=\"bees-with-color/bee-A1DM.svg\" width=\"200\">\n                    <p><br>Your bonus pay is unchanged, and remains at $0.56.</p>\n            ","response":0,"trial_type":"html-button-response","trial_index":10,"time_elapsed":233382,"internal_node_id":"0.0-4.0-1.1","subject_id":"602a92432b8e88094f75598b","study_id":"60edd13110225f80f9f3709b","session_id":"6196c4a400db091a6a5d36b3","condition":"contingent","relevant_dimensions":["antennae","pattern"],"bee_group":{"antennae":"A","wings":"X","pattern":"D","legs":"X"},"bonus":1.2000000000000006},{"rt":2199,"stimulus":"bees-with-color/bee-B1SM.svg","response":0,"trial_type":"image-button-response","trial_index":11,"time_elapsed":235582,"internal_node_id":"0.0-4.0-0.2","subject_id":"602a92432b8e88094f75598b","study_id":"60edd13110225f80f9f3709b","session_id":"6196c4a400db091a6a5d36b3","condition":"contingent","relevant_dimensions":["antennae","pattern"],"bee_group":{"antennae":"A","wings":"X","pattern":"D","legs":"X"},"action":"harvest","summary":"good-harvest","bonus":1.2000000000000006},{"rt":5463,"stimulus":"\n                    <p><b>Action: <em>harvest</em></b></p>\n                    <p>This is the bee that you just saw.</p>\n                    <img src=\"bees-with-color/bee-B1SM.svg\" width=\"200\">\n                    <p><span class=\"greenText\"><b>Successful harvest!</b></span><br>Your pay has increased by $0.02. Your bonus pay is now $0.58.</p>\n            ","response":0,"trial_type":"html-button-response","trial_index":12,"time_elapsed":241047,"internal_node_id":"0.0-4.0-1.2","subject_id":"602a92432b8e88094f75598b","study_id":"60edd13110225f80f9f3709b","session_id":"6196c4a400db091a6a5d36b3","condition":"contingent","relevant_dimensions":["antennae","pattern"],"bee_group":{"antennae":"A","wings":"X","pattern":"D","legs":"X"},"bonus":1.2000000000000006},{"rt":1359,"stimulus":"bees-with-color/bee-A2DF.svg","response":1,"trial_type":"image-button-response","trial_index":13,"time_elapsed":242408,"internal_node_id":"0.0-4.0-0.3","subject_id":"602a92432b8e88094f75598b","study_id":"60edd13110225f80f9f3709b","session_id":"6196c4a400db091a6a5d36b3","condition":"contingent","relevant_dimensions":["antennae","pattern"],"bee_group":{"antennae":"A","wings":"X","pattern":"D","legs":"X"},"action":"avoid","summary":"good-avoid","bonus":1.2000000000000006},{"rt":1527,"stimulus":"\n                    <p><b>Action: <em>avoid</em></b></p>\n                    <p>This is the bee that you just saw.</p>\n                    <img src=\"bees-with-color/bee-A2DF.svg\" width=\"200\">\n                    <p><br>Your bonus pay is unchanged, and remains at $0.58.</p>\n            ","response":0,"trial_type":"html-button-response","trial_index":14,"time_elapsed":243935,"internal_node_id":"0.0-4.0-1.3","subject_id":"602a92432b8e88094f75598b","study_id":"60edd13110225f80f9f3709b","session_id":"6196c4a400db091a6a5d36b3","condition":"contingent","relevant_dimensions":["antennae","pattern"],"bee_group":{"antennae":"A","wings":"X","pattern":"D","legs":"X"},"bonus":1.2000000000000006},{"rt":1335,"stimulus":"bees-with-color/bee-A2SM.svg","response":0,"trial_type":"image-button-response","trial_index":15,"time_elapsed":245270,"internal_node_id":"0.0-4.0-0.4","subject_id":"602a92432b8e88094f75598b","study_id":"60edd13110225f80f9f3709b","session_id":"6196c4a400db091a6a5d36b3","condition":"contingent","relevant_dimensions":["antennae","pattern"],"bee_group":{"antennae":"A","wings":"X","pattern":"D","legs":"X"},"action":"harvest","summary":"good-harvest","bonus":1.2000000000000006},{"rt":1551,"stimulus":"\n                    <p><b>Action: <em>harvest</em></b></p>\n                    <p>This is the bee that you just saw.</p>\n                    <img src=\"bees-with-color/bee-A2SM.svg\" width=\"200\">\n                    <p><span class=\"greenText\"><b>Successful harvest!</b></span><br>Your pay has increased by $0.02. Your bonus pay is now $0.60.</p>\n            ","response":0,"trial_type":"html-button-response","trial_index":16,"time_elapsed":246823,"internal_node_id":"0.0-4.0-1.4","subject_id":"602a92432b8e88094f75598b","study_id":"60edd13110225f80f9f3709b","session_id":"6196c4a400db091a6a5d36b3","condition":"contingent","relevant_dimensions":["antennae","pattern"],"bee_group":{"antennae":"A","wings":"X","pattern":"D","legs":"X"},"bonus":1.2000000000000006},{"rt":1456,"stimulus":"bees-with-color/bee-B1DF.svg","response":1,"trial_type":"image-button-response","trial_index":17,"time_elapsed":248278,"internal_node_id":"0.0-4.0-0.5","subject_id":"602a92432b8e88094f75598b","study_id":"60edd13110225f80f9f3709b","session_id":"6196c4a400db091a6a5d36b3","condition":"contingent","relevant_dimensions":["antennae","pattern"],"bee_group":{"antennae":"A","wings":"X","pattern":"D","legs":"X"},"action":"avoid","summary":"bad-avoid","bonus":1.2000000000000006},{"rt":1311,"stimulus":"\n                    <p><b>Action: <em>avoid</em></b></p>\n                    <p>This is the bee that you just saw.</p>\n                    <img src=\"bees-with-color/bee-B1DF.svg\" width=\"200\">\n                    <p><br>Your bonus pay is unchanged, and remains at $0.60.</p>\n            ","response":0,"trial_type":"html-button-response","trial_index":18,"time_elapsed":249590,"internal_node_id":"0.0-4.0-1.5","subject_id":"602a92432b8e88094f75598b","study_id":"60edd13110225f80f9f3709b","session_id":"6196c4a400db091a6a5d36b3","condition":"contingent","relevant_dimensions":["antennae","pattern"],"bee_group":{"antennae":"A","wings":"X","pattern":"D","legs":"X"},"bonus":1.2000000000000006},{"rt":1070,"stimulus":"bees-with-color/bee-A1SF.svg","response":0,"trial_type":"image-button-response","trial_index":19,"time_elapsed":250663,"internal_node_id":"0.0-4.0-0.6","subject_id":"602a92432b8e88094f75598b","study_id":"60edd13110225f80f9f3709b","session_id":"6196c4a400db091a6a5d36b3","condition":"contingent","relevant_dimensions":["antennae","pattern"],"bee_group":{"antennae":"A","wings":"X","pattern":"D","legs":"X"},"action":"harvest","summary":"good-harvest","bonus":1.2000000000000006},{"rt":1566,"stimulus":"\n                    <p><b>Action: <em>harvest</em></b></p>\n                    <p>This is the bee that you just saw.</p>\n                    <img src=\"bees-with-color/bee-A1SF.svg\" width=\"200\">\n                    <p><span class=\"greenText\"><b>Successful harvest!</b></span><br>Your pay has increased by $0.02. Your bonus pay is now $0.62.</p>\n            ","response":0,"trial_type":"html-button-response","trial_index":20,"time_elapsed":252230,"internal_node_id":"0.0-4.0-1.6","subject_id":"602a92432b8e88094f75598b","study_id":"60edd13110225f80f9f3709b","session_id":"6196c4a400db091a6a5d36b3","condition":"contingent","relevant_dimensions":["antennae","pattern"],"bee_group":{"antennae":"A","wings":"X","pattern":"D","legs":"X"},"bonus":1.2000000000000006},{"rt":1599,"stimulus":"bees-with-color/bee-B2SF.svg","response":0,"trial_type":"image-button-response","trial_index":21,"time_elapsed":253830,"internal_node_id":"0.0-4.0-0.7","subject_id":"602a92432b8e88094f75598b","study_id":"60edd13110225f80f9f3709b","session_id":"6196c4a400db091a6a5d36b3","condition":"contingent","relevant_dimensions":["antennae","pattern"],"bee_group":{"antennae":"A","wings":"X","pattern":"D","legs":"X"},"action":"harvest","summary":"good-harvest","bonus":1.2000000000000006},{"rt":1247,"stimulus":"\n                    <p><b>Action: <em>harvest</em></b></p>\n                    <p>This is the bee that you just saw.</p>\n                    <img src=\"bees-with-color/bee-B2SF.svg\" width=\"200\">\n                    <p><span class=\"greenText\"><b>Successful harvest!</b></span><br>Your pay has increased by $0.02. Your bonus pay is now $0.64.</p>\n            ","response":0,"trial_type":"html-button-response","trial_index":22,"time_elapsed":255078,"internal_node_id":"0.0-4.0-1.7","subject_id":"602a92432b8e88094f75598b","study_id":"60edd13110225f80f9f3709b","session_id":"6196c4a400db091a6a5d36b3","condition":"contingent","relevant_dimensions":["antennae","pattern"],"bee_group":{"antennae":"A","wings":"X","pattern":"D","legs":"X"},"bonus":1.2000000000000006},{"rt":2024,"stimulus":"bees-with-color/bee-B2SM.svg","response":0,"trial_type":"image-button-response","trial_index":23,"time_elapsed":257102,"internal_node_id":"0.0-4.0-0.8","subject_id":"602a92432b8e88094f75598b","study_id":"60edd13110225f80f9f3709b","session_id":"6196c4a400db091a6a5d36b3","condition":"contingent","relevant_dimensions":["antennae","pattern"],"bee_group":{"antennae":"A","wings":"X","pattern":"D","legs":"X"},"action":"harvest","summary":"good-harvest","bonus":1.2000000000000006},{"rt":1295,"stimulus":"\n                    <p><b>Action: <em>harvest</em></b></p>\n                    <p>This is the bee that you just saw.</p>\n                    <img src=\"bees-with-color/bee-B2SM.svg\" width=\"200\">\n                    <p><span class=\"greenText\"><b>Successful harvest!</b></span><br>Your pay has increased by $0.02. Your bonus pay is now $0.66.</p>\n            ","response":0,"trial_type":"html-button-response","trial_index":24,"time_elapsed":258398,"internal_node_id":"0.0-4.0-1.8","subject_id":"602a92432b8e88094f75598b","study_id":"60edd13110225f80f9f3709b","session_id":"6196c4a400db091a6a5d36b3","condition":"contingent","relevant_dimensions":["antennae","pattern"],"bee_group":{"antennae":"A","wings":"X","pattern":"D","legs":"X"},"bonus":1.2000000000000006},{"rt":974,"stimulus":"bees-with-color/bee-B2DF.svg","response":1,"trial_type":"image-button-response","trial_index":25,"time_elapsed":259375,"internal_node_id":"0.0-4.0-0.9","subject_id":"602a92432b8e88094f75598b","study_id":"60edd13110225f80f9f3709b","session_id":"6196c4a400db091a6a5d36b3","condition":"contingent","relevant_dimensions":["antennae","pattern"],"bee_group":{"antennae":"A","wings":"X","pattern":"D","legs":"X"},"action":"avoid","summary":"bad-avoid","bonus":1.2000000000000006},{"rt":799,"stimulus":"\n                    <p><b>Action: <em>avoid</em></b></p>\n                    <p>This is the bee that you just saw.</p>\n                    <img src=\"bees-with-color/bee-B2DF.svg\" width=\"200\">\n                    <p><br>Your bonus pay is unchanged, and remains at $0.66.</p>\n            ","response":0,"trial_type":"html-button-response","trial_index":26,"time_elapsed":260175,"internal_node_id":"0.0-4.0-1.9","subject_id":"602a92432b8e88094f75598b","study_id":"60edd13110225f80f9f3709b","session_id":"6196c4a400db091a6a5d36b3","condition":"contingent","relevant_dimensions":["antennae","pattern"],"bee_group":{"antennae":"A","wings":"X","pattern":"D","legs":"X"},"bonus":1.2000000000000006},{"rt":1293,"stimulus":"bees-with-color/bee-A2DM.svg","response":1,"trial_type":"image-button-response","trial_index":27,"time_elapsed":261471,"internal_node_id":"0.0-4.0-0.10","subject_id":"602a92432b8e88094f75598b","study_id":"60edd13110225f80f9f3709b","session_id":"6196c4a400db091a6a5d36b3","condition":"contingent","relevant_dimensions":["antennae","pattern"],"bee_group":{"antennae":"A","wings":"X","pattern":"D","legs":"X"},"action":"avoid","summary":"good-avoid","bonus":1.2000000000000006},{"rt":887,"stimulus":"\n                    <p><b>Action: <em>avoid</em></b></p>\n                    <p>This is the bee that you just saw.</p>\n                    <img src=\"bees-with-color/bee-A2DM.svg\" width=\"200\">\n                    <p><br>Your bonus pay is unchanged, and remains at $0.66.</p>\n            ","response":0,"trial_type":"html-button-response","trial_index":28,"time_elapsed":262359,"internal_node_id":"0.0-4.0-1.10","subject_id":"602a92432b8e88094f75598b","study_id":"60edd13110225f80f9f3709b","session_id":"6196c4a400db091a6a5d36b3","condition":"contingent","relevant_dimensions":["antennae","pattern"],"bee_group":{"antennae":"A","wings":"X","pattern":"D","legs":"X"},"bonus":1.2000000000000006},{"rt":887,"stimulus":"bees-with-color/bee-A2SF.svg","response":0,"trial_type":"image-button-response","trial_index":29,"time_elapsed":263247,"internal_node_id":"0.0-4.0-0.11","subject_id":"602a92432b8e88094f75598b","study_id":"60edd13110225f80f9f3709b","session_id":"6196c4a400db091a6a5d36b3","condition":"contingent","relevant_dimensions":["antennae","pattern"],"bee_group":{"antennae":"A","wings":"X","pattern":"D","legs":"X"},"action":"harvest","summary":"good-harvest","bonus":1.2000000000000006},{"rt":1094,"stimulus":"\n                    <p><b>Action: <em>harvest</em></b></p>\n                    <p>This is the bee that you just saw.</p>\n                    <img src=\"bees-with-color/bee-A2SF.svg\" width=\"200\">\n                    <p><span class=\"greenText\"><b>Successful harvest!</b></span><br>Your pay has increased by $0.02. Your bonus pay is now $0.68.</p>\n            ","response":0,"trial_type":"html-button-response","trial_index":30,"time_elapsed":264343,"internal_node_id":"0.0-4.0-1.11","subject_id":"602a92432b8e88094f75598b","study_id":"60edd13110225f80f9f3709b","session_id":"6196c4a400db091a6a5d36b3","condition":"contingent","relevant_dimensions":["antennae","pattern"],"bee_group":{"antennae":"A","wings":"X","pattern":"D","legs":"X"},"bonus":1.2000000000000006},{"rt":1048,"stimulus":"bees-with-color/bee-B1DM.svg","response":1,"trial_type":"image-button-response","trial_index":31,"time_elapsed":265391,"internal_node_id":"0.0-4.0-0.12","subject_id":"602a92432b8e88094f75598b","study_id":"60edd13110225f80f9f3709b","session_id":"6196c4a400db091a6a5d36b3","condition":"contingent","relevant_dimensions":["antennae","pattern"],"bee_group":{"antennae":"A","wings":"X","pattern":"D","legs":"X"},"action":"avoid","summary":"bad-avoid","bonus":1.2000000000000006},{"rt":759,"stimulus":"\n                    <p><b>Action: <em>avoid</em></b></p>\n                    <p>This is the bee that you just saw.</p>\n                    <img src=\"bees-with-color/bee-B1DM.svg\" width=\"200\">\n                    <p><br>Your bonus pay is unchanged, and remains at $0.68.</p>\n            ","response":0,"trial_type":"html-button-response","trial_index":32,"time_elapsed":266150,"internal_node_id":"0.0-4.0-1.12","subject_id":"602a92432b8e88094f75598b","study_id":"60edd13110225f80f9f3709b","session_id":"6196c4a400db091a6a5d36b3","condition":"contingent","relevant_dimensions":["antennae","pattern"],"bee_group":{"antennae":"A","wings":"X","pattern":"D","legs":"X"},"bonus":1.2000000000000006},{"rt":927,"stimulus":"bees-with-color/bee-A1DF.svg","response":1,"trial_type":"image-button-response","trial_index":33,"time_elapsed":267079,"internal_node_id":"0.0-4.0-0.13","subject_id":"602a92432b8e88094f75598b","study_id":"60edd13110225f80f9f3709b","session_id":"6196c4a400db091a6a5d36b3","condition":"contingent","relevant_dimensions":["antennae","pattern"],"bee_group":{"antennae":"A","wings":"X","pattern":"D","legs":"X"},"action":"avoid","summary":"good-avoid","bonus":1.2000000000000006},{"rt":743,"stimulus":"\n                    <p><b>Action: <em>avoid</em></b></p>\n                    <p>This is the bee that you just saw.</p>\n                    <img src=\"bees-with-color/bee-A1DF.svg\" width=\"200\">\n                    <p><br>Your bonus pay is unchanged, and remains at $0.68.</p>\n            ","response":0,"trial_type":"html-button-response","trial_index":34,"time_elapsed":267823,"internal_node_id":"0.0-4.0-1.13","subject_id":"602a92432b8e88094f75598b","study_id":"60edd13110225f80f9f3709b","session_id":"6196c4a400db091a6a5d36b3","condition":"contingent","relevant_dimensions":["antennae","pattern"],"bee_group":{"antennae":"A","wings":"X","pattern":"D","legs":"X"},"bonus":1.2000000000000006},{"rt":1013,"stimulus":"bees-with-color/bee-B1SF.svg","response":0,"trial_type":"image-button-response","trial_index":35,"time_elapsed":268838,"internal_node_id":"0.0-4.0-0.14","subject_id":"602a92432b8e88094f75598b","study_id":"60edd13110225f80f9f3709b","session_id":"6196c4a400db091a6a5d36b3","condition":"contingent","relevant_dimensions":["antennae","pattern"],"bee_group":{"antennae":"A","wings":"X","pattern":"D","legs":"X"},"action":"harvest","summary":"good-harvest","bonus":1.2000000000000006},{"rt":1102,"stimulus":"\n                    <p><b>Action: <em>harvest</em></b></p>\n                    <p>This is the bee that you just saw.</p>\n                    <img src=\"bees-with-color/bee-B1SF.svg\" width=\"200\">\n                    <p><span class=\"greenText\"><b>Successful harvest!</b></span><br>Your pay has increased by $0.02. Your bonus pay is now $0.70.</p>\n            ","response":0,"trial_type":"html-button-response","trial_index":36,"time_elapsed":269943,"internal_node_id":"0.0-4.0-1.14","subject_id":"602a92432b8e88094f75598b","study_id":"60edd13110225f80f9f3709b","session_id":"6196c4a400db091a6a5d36b3","condition":"contingent","relevant_dimensions":["antennae","pattern"],"bee_group":{"antennae":"A","wings":"X","pattern":"D","legs":"X"},"bonus":1.2000000000000006},{"rt":879,"stimulus":"bees-with-color/bee-B2DM.svg","response":1,"trial_type":"image-button-response","trial_index":37,"time_elapsed":270822,"internal_node_id":"0.0-4.0-0.15","subject_id":"602a92432b8e88094f75598b","study_id":"60edd13110225f80f9f3709b","session_id":"6196c4a400db091a6a5d36b3","condition":"contingent","relevant_dimensions":["antennae","pattern"],"bee_group":{"antennae":"A","wings":"X","pattern":"D","legs":"X"},"action":"avoid","summary":"bad-avoid","bonus":1.2000000000000006},{"rt":703,"stimulus":"\n                    <p><b>Action: <em>avoid</em></b></p>\n                    <p>This is the bee that you just saw.</p>\n                    <img src=\"bees-with-color/bee-B2DM.svg\" width=\"200\">\n                    <p><br>Your bonus pay is unchanged, and remains at $0.70.</p>\n            ","response":0,"trial_type":"html-button-response","trial_index":38,"time_elapsed":271526,"internal_node_id":"0.0-4.0-1.15","subject_id":"602a92432b8e88094f75598b","study_id":"60edd13110225f80f9f3709b","session_id":"6196c4a400db091a6a5d36b3","condition":"contingent","relevant_dimensions":["antennae","pattern"],"bee_group":{"antennae":"A","wings":"X","pattern":"D","legs":"X"},"bonus":1.2000000000000006},{"rt":1053,"stimulus":"bees-with-color/bee-A2DF.svg","response":1,"trial_type":"image-button-response","trial_index":39,"time_elapsed":272582,"internal_node_id":"0.0-4.0-0.16","subject_id":"602a92432b8e88094f75598b","study_id":"60edd13110225f80f9f3709b","session_id":"6196c4a400db091a6a5d36b3","condition":"contingent","relevant_dimensions":["antennae","pattern"],"bee_group":{"antennae":"A","wings":"X","pattern":"D","legs":"X"},"action":"avoid","summary":"good-avoid","bonus":1.2000000000000006},{"rt":782,"stimulus":"\n                    <p><b>Action: <em>avoid</em></b></p>\n                    <p>This is the bee that you just saw.</p>\n                    <img src=\"bees-with-color/bee-A2DF.svg\" width=\"200\">\n                    <p><br>Your bonus pay is unchanged, and remains at $0.70.</p>\n            ","response":0,"trial_type":"html-button-response","trial_index":40,"time_elapsed":273367,"internal_node_id":"0.0-4.0-1.16","subject_id":"602a92432b8e88094f75598b","study_id":"60edd13110225f80f9f3709b","session_id":"6196c4a400db091a6a5d36b3","condition":"contingent","relevant_dimensions":["antennae","pattern"],"bee_group":{"antennae":"A","wings":"X","pattern":"D","legs":"X"},"bonus":1.2000000000000006},{"rt":1014,"stimulus":"bees-with-color/bee-A1SM.svg","response":0,"trial_type":"image-button-response","trial_index":41,"time_elapsed":274383,"internal_node_id":"0.0-4.0-0.17","subject_id":"602a92432b8e88094f75598b","study_id":"60edd13110225f80f9f3709b","session_id":"6196c4a400db091a6a5d36b3","condition":"contingent","relevant_dimensions":["antennae","pattern"],"bee_group":{"antennae":"A","wings":"X","pattern":"D","legs":"X"},"action":"harvest","summary":"good-harvest","bonus":1.2000000000000006},{"rt":999,"stimulus":"\n                    <p><b>Action: <em>harvest</em></b></p>\n                    <p>This is the bee that you just saw.</p>\n                    <img src=\"bees-with-color/bee-A1SM.svg\" width=\"200\">\n                    <p><span class=\"greenText\"><b>Successful harvest!</b></span><br>Your pay has increased by $0.02. Your bonus pay is now $0.72.</p>\n            ","response":0,"trial_type":"html-button-response","trial_index":42,"time_elapsed":275382,"internal_node_id":"0.0-4.0-1.17","subject_id":"602a92432b8e88094f75598b","study_id":"60edd13110225f80f9f3709b","session_id":"6196c4a400db091a6a5d36b3","condition":"contingent","relevant_dimensions":["antennae","pattern"],"bee_group":{"antennae":"A","wings":"X","pattern":"D","legs":"X"},"bonus":1.2000000000000006},{"rt":1438,"stimulus":"bees-with-color/bee-B2SF.svg","response":0,"trial_type":"image-button-response","trial_index":43,"time_elapsed":276822,"internal_node_id":"0.0-4.0-0.18","subject_id":"602a92432b8e88094f75598b","study_id":"60edd13110225f80f9f3709b","session_id":"6196c4a400db091a6a5d36b3","condition":"contingent","relevant_dimensions":["antennae","pattern"],"bee_group":{"antennae":"A","wings":"X","pattern":"D","legs":"X"},"action":"harvest","summary":"good-harvest","bonus":1.2000000000000006},{"rt":1032,"stimulus":"\n                    <p><b>Action: <em>harvest</em></b></p>\n                    <p>This is the bee that you just saw.</p>\n                    <img src=\"bees-with-color/bee-B2SF.svg\" width=\"200\">\n                    <p><span class=\"greenText\"><b>Successful harvest!</b></span><br>Your pay has increased by $0.02. Your bonus pay is now $0.74.</p>\n            ","response":0,"trial_type":"html-button-response","trial_index":44,"time_elapsed":277855,"internal_node_id":"0.0-4.0-1.18","subject_id":"602a92432b8e88094f75598b","study_id":"60edd13110225f80f9f3709b","session_id":"6196c4a400db091a6a5d36b3","condition":"contingent","relevant_dimensions":["antennae","pattern"],"bee_group":{"antennae":"A","wings":"X","pattern":"D","legs":"X"},"bonus":1.2000000000000006},{"rt":888,"stimulus":"bees-with-color/bee-A1SF.svg","response":0,"trial_type":"image-button-response","trial_index":45,"time_elapsed":278743,"internal_node_id":"0.0-4.0-0.19","subject_id":"602a92432b8e88094f75598b","study_id":"60edd13110225f80f9f3709b","session_id":"6196c4a400db091a6a5d36b3","condition":"contingent","relevant_dimensions":["antennae","pattern"],"bee_group":{"antennae":"A","wings":"X","pattern":"D","legs":"X"},"action":"harvest","summary":"good-harvest","bonus":1.2000000000000006},{"rt":734,"stimulus":"\n                    <p><b>Action: <em>harvest</em></b></p>\n                    <p>This is the bee that you just saw.</p>\n                    <img src=\"bees-with-color/bee-A1SF.svg\" width=\"200\">\n                    <p><span class=\"greenText\"><b>Successful harvest!</b></span><br>Your pay has increased by $0.02. Your bonus pay is now $0.76.</p>\n            ","response":0,"trial_type":"html-button-response","trial_index":46,"time_elapsed":279479,"internal_node_id":"0.0-4.0-1.19","subject_id":"602a92432b8e88094f75598b","study_id":"60edd13110225f80f9f3709b","session_id":"6196c4a400db091a6a5d36b3","condition":"contingent","relevant_dimensions":["antennae","pattern"],"bee_group":{"antennae":"A","wings":"X","pattern":"D","legs":"X"},"bonus":1.2000000000000006},{"rt":808,"stimulus":"bees-with-color/bee-A2SF.svg","response":0,"trial_type":"image-button-response","trial_index":47,"time_elapsed":280287,"internal_node_id":"0.0-4.0-0.20","subject_id":"602a92432b8e88094f75598b","study_id":"60edd13110225f80f9f3709b","session_id":"6196c4a400db091a6a5d36b3","condition":"contingent","relevant_dimensions":["antennae","pattern"],"bee_group":{"antennae":"A","wings":"X","pattern":"D","legs":"X"},"action":"harvest","summary":"good-harvest","bonus":1.2000000000000006},{"rt":702,"stimulus":"\n                    <p><b>Action: <em>harvest</em></b></p>\n                    <p>This is the bee that you just saw.</p>\n                    <img src=\"bees-with-color/bee-A2SF.svg\" width=\"200\">\n                    <p><span class=\"greenText\"><b>Successful harvest!</b></span><br>Your pay has increased by $0.02. Your bonus pay is now $0.78.</p>\n            ","response":0,"trial_type":"html-button-response","trial_index":48,"time_elapsed":280990,"internal_node_id":"0.0-4.0-1.20","subject_id":"602a92432b8e88094f75598b","study_id":"60edd13110225f80f9f3709b","session_id":"6196c4a400db091a6a5d36b3","condition":"contingent","relevant_dimensions":["antennae","pattern"],"bee_group":{"antennae":"A","wings":"X","pattern":"D","legs":"X"},"bonus":1.2000000000000006},{"rt":823,"stimulus":"bees-with-color/bee-A2DM.svg","response":1,"trial_type":"image-button-response","trial_index":49,"time_elapsed":281814,"internal_node_id":"0.0-4.0-0.21","subject_id":"602a92432b8e88094f75598b","study_id":"60edd13110225f80f9f3709b","session_id":"6196c4a400db091a6a5d36b3","condition":"contingent","relevant_dimensions":["antennae","pattern"],"bee_group":{"antennae":"A","wings":"X","pattern":"D","legs":"X"},"action":"avoid","summary":"good-avoid","bonus":1.2000000000000006},{"rt":720,"stimulus":"\n                    <p><b>Action: <em>avoid</em></b></p>\n                    <p>This is the bee that you just saw.</p>\n                    <img src=\"bees-with-color/bee-A2DM.svg\" width=\"200\">\n                    <p><br>Your bonus pay is unchanged, and remains at $0.78.</p>\n            ","response":0,"trial_type":"html-button-response","trial_index":50,"time_elapsed":282534,"internal_node_id":"0.0-4.0-1.21","subject_id":"602a92432b8e88094f75598b","study_id":"60edd13110225f80f9f3709b","session_id":"6196c4a400db091a6a5d36b3","condition":"contingent","relevant_dimensions":["antennae","pattern"],"bee_group":{"antennae":"A","wings":"X","pattern":"D","legs":"X"},"bonus":1.2000000000000006},{"rt":734,"stimulus":"bees-with-color/bee-B1SM.svg","response":0,"trial_type":"image-button-response","trial_index":51,"time_elapsed":283270,"internal_node_id":"0.0-4.0-0.22","subject_id":"602a92432b8e88094f75598b","study_id":"60edd13110225f80f9f3709b","session_id":"6196c4a400db091a6a5d36b3","condition":"contingent","relevant_dimensions":["antennae","pattern"],"bee_group":{"antennae":"A","wings":"X","pattern":"D","legs":"X"},"action":"harvest","summary":"good-harvest","bonus":1.2000000000000006},{"rt":720,"stimulus":"\n                    <p><b>Action: <em>harvest</em></b></p>\n                    <p>This is the bee that you just saw.</p>\n                    <img src=\"bees-with-color/bee-B1SM.svg\" width=\"200\">\n                    <p><span class=\"greenText\"><b>Successful harvest!</b></span><br>Your pay has increased by $0.02. Your bonus pay is now $0.80.</p>\n            ","response":0,"trial_type":"html-button-response","trial_index":52,"time_elapsed":283991,"internal_node_id":"0.0-4.0-1.22","subject_id":"602a92432b8e88094f75598b","study_id":"60edd13110225f80f9f3709b","session_id":"6196c4a400db091a6a5d36b3","condition":"contingent","relevant_dimensions":["antennae","pattern"],"bee_group":{"antennae":"A","wings":"X","pattern":"D","legs":"X"},"bonus":1.2000000000000006},{"rt":743,"stimulus":"bees-with-color/bee-B1SF.svg","response":0,"trial_type":"image-button-response","trial_index":53,"time_elapsed":284735,"internal_node_id":"0.0-4.0-0.23","subject_id":"602a92432b8e88094f75598b","study_id":"60edd13110225f80f9f3709b","session_id":"6196c4a400db091a6a5d36b3","condition":"contingent","relevant_dimensions":["antennae","pattern"],"bee_group":{"antennae":"A","wings":"X","pattern":"D","legs":"X"},"action":"harvest","summary":"good-harvest","bonus":1.2000000000000006},{"rt":805,"stimulus":"\n                    <p><b>Action: <em>harvest</em></b></p>\n                    <p>This is the bee that you just saw.</p>\n                    <img src=\"bees-with-color/bee-B1SF.svg\" width=\"200\">\n                    <p><span class=\"greenText\"><b>Successful harvest!</b></span><br>Your pay has increased by $0.02. Your bonus pay is now $0.82.</p>\n            ","response":0,"trial_type":"html-button-response","trial_index":54,"time_elapsed":285543,"internal_node_id":"0.0-4.0-1.23","subject_id":"602a92432b8e88094f75598b","study_id":"60edd13110225f80f9f3709b","session_id":"6196c4a400db091a6a5d36b3","condition":"contingent","relevant_dimensions":["antennae","pattern"],"bee_group":{"antennae":"A","wings":"X","pattern":"D","legs":"X"},"bonus":1.2000000000000006},{"rt":1095,"stimulus":"bees-with-color/bee-B2SM.svg","response":0,"trial_type":"image-button-response","trial_index":55,"time_elapsed":286638,"internal_node_id":"0.0-4.0-0.24","subject_id":"602a92432b8e88094f75598b","study_id":"60edd13110225f80f9f3709b","session_id":"6196c4a400db091a6a5d36b3","condition":"contingent","relevant_dimensions":["antennae","pattern"],"bee_group":{"antennae":"A","wings":"X","pattern":"D","legs":"X"},"action":"harvest","summary":"good-harvest","bonus":1.2000000000000006},{"rt":1022,"stimulus":"\n                    <p><b>Action: <em>harvest</em></b></p>\n                    <p>This is the bee that you just saw.</p>\n                    <img src=\"bees-with-color/bee-B2SM.svg\" width=\"200\">\n                    <p><span class=\"greenText\"><b>Successful harvest!</b></span><br>Your pay has increased by $0.02. Your bonus pay is now $0.84.</p>\n            ","response":0,"trial_type":"html-button-response","trial_index":56,"time_elapsed":287663,"internal_node_id":"0.0-4.0-1.24","subject_id":"602a92432b8e88094f75598b","study_id":"60edd13110225f80f9f3709b","session_id":"6196c4a400db091a6a5d36b3","condition":"contingent","relevant_dimensions":["antennae","pattern"],"bee_group":{"antennae":"A","wings":"X","pattern":"D","legs":"X"},"bonus":1.2000000000000006},{"rt":912,"stimulus":"bees-with-color/bee-B2DM.svg","response":1,"trial_type":"image-button-response","trial_index":57,"time_elapsed":288574,"internal_node_id":"0.0-4.0-0.25","subject_id":"602a92432b8e88094f75598b","study_id":"60edd13110225f80f9f3709b","session_id":"6196c4a400db091a6a5d36b3","condition":"contingent","relevant_dimensions":["antennae","pattern"],"bee_group":{"antennae":"A","wings":"X","pattern":"D","legs":"X"},"action":"avoid","summary":"bad-avoid","bonus":1.2000000000000006},{"rt":670,"stimulus":"\n                    <p><b>Action: <em>avoid</em></b></p>\n                    <p>This is the bee that you just saw.</p>\n                    <img src=\"bees-with-color/bee-B2DM.svg\" width=\"200\">\n                    <p><br>Your bonus pay is unchanged, and remains at $0.84.</p>\n            ","response":0,"trial_type":"html-button-response","trial_index":58,"time_elapsed":289246,"internal_node_id":"0.0-4.0-1.25","subject_id":"602a92432b8e88094f75598b","study_id":"60edd13110225f80f9f3709b","session_id":"6196c4a400db091a6a5d36b3","condition":"contingent","relevant_dimensions":["antennae","pattern"],"bee_group":{"antennae":"A","wings":"X","pattern":"D","legs":"X"},"bonus":1.2000000000000006},{"rt":879,"stimulus":"bees-with-color/bee-B1DF.svg","response":1,"trial_type":"image-button-response","trial_index":59,"time_elapsed":290126,"internal_node_id":"0.0-4.0-0.26","subject_id":"602a92432b8e88094f75598b","study_id":"60edd13110225f80f9f3709b","session_id":"6196c4a400db091a6a5d36b3","condition":"contingent","relevant_dimensions":["antennae","pattern"],"bee_group":{"antennae":"A","wings":"X","pattern":"D","legs":"X"},"action":"avoid","summary":"bad-avoid","bonus":1.2000000000000006},{"rt":582,"stimulus":"\n                    <p><b>Action: <em>avoid</em></b></p>\n                    <p>This is the bee that you just saw.</p>\n                    <img src=\"bees-with-color/bee-B1DF.svg\" width=\"200\">\n                    <p><br>Your bonus pay is unchanged, and remains at $0.84.</p>\n            ","response":0,"trial_type":"html-button-response","trial_index":60,"time_elapsed":290710,"internal_node_id":"0.0-4.0-1.26","subject_id":"602a92432b8e88094f75598b","study_id":"60edd13110225f80f9f3709b","session_id":"6196c4a400db091a6a5d36b3","condition":"contingent","relevant_dimensions":["antennae","pattern"],"bee_group":{"antennae":"A","wings":"X","pattern":"D","legs":"X"},"bonus":1.2000000000000006},{"rt":2816,"stimulus":"bees-with-color/bee-B2DF.svg","response":1,"trial_type":"image-button-response","trial_index":61,"time_elapsed":293526,"internal_node_id":"0.0-4.0-0.27","subject_id":"602a92432b8e88094f75598b","study_id":"60edd13110225f80f9f3709b","session_id":"6196c4a400db091a6a5d36b3","condition":"contingent","relevant_dimensions":["antennae","pattern"],"bee_group":{"antennae":"A","wings":"X","pattern":"D","legs":"X"},"action":"avoid","summary":"bad-avoid","bonus":1.2000000000000006},{"rt":687,"stimulus":"\n                    <p><b>Action: <em>avoid</em></b></p>\n                    <p>This is the bee that you just saw.</p>\n                    <img src=\"bees-with-color/bee-B2DF.svg\" width=\"200\">\n                    <p><br>Your bonus pay is unchanged, and remains at $0.84.</p>\n            ","response":0,"trial_type":"html-button-response","trial_index":62,"time_elapsed":294214,"internal_node_id":"0.0-4.0-1.27","subject_id":"602a92432b8e88094f75598b","study_id":"60edd13110225f80f9f3709b","session_id":"6196c4a400db091a6a5d36b3","condition":"contingent","relevant_dimensions":["antennae","pattern"],"bee_group":{"antennae":"A","wings":"X","pattern":"D","legs":"X"},"bonus":1.2000000000000006},{"rt":718,"stimulus":"bees-with-color/bee-A1DF.svg","response":1,"trial_type":"image-button-response","trial_index":63,"time_elapsed":294934,"internal_node_id":"0.0-4.0-0.28","subject_id":"602a92432b8e88094f75598b","study_id":"60edd13110225f80f9f3709b","session_id":"6196c4a400db091a6a5d36b3","condition":"contingent","relevant_dimensions":["antennae","pattern"],"bee_group":{"antennae":"A","wings":"X","pattern":"D","legs":"X"},"action":"avoid","summary":"good-avoid","bonus":1.2000000000000006},{"rt":695,"stimulus":"\n                    <p><b>Action: <em>avoid</em></b></p>\n                    <p>This is the bee that you just saw.</p>\n                    <img src=\"bees-with-color/bee-A1DF.svg\" width=\"200\">\n                    <p><br>Your bonus pay is unchanged, and remains at $0.84.</p>\n            ","response":0,"trial_type":"html-button-response","trial_index":64,"time_elapsed":295630,"internal_node_id":"0.0-4.0-1.28","subject_id":"602a92432b8e88094f75598b","study_id":"60edd13110225f80f9f3709b","session_id":"6196c4a400db091a6a5d36b3","condition":"contingent","relevant_dimensions":["antennae","pattern"],"bee_group":{"antennae":"A","wings":"X","pattern":"D","legs":"X"},"bonus":1.2000000000000006},{"rt":759,"stimulus":"bees-with-color/bee-A2SM.svg","response":0,"trial_type":"image-button-response","trial_index":65,"time_elapsed":296391,"internal_node_id":"0.0-4.0-0.29","subject_id":"602a92432b8e88094f75598b","study_id":"60edd13110225f80f9f3709b","session_id":"6196c4a400db091a6a5d36b3","condition":"contingent","relevant_dimensions":["antennae","pattern"],"bee_group":{"antennae":"A","wings":"X","pattern":"D","legs":"X"},"action":"harvest","summary":"good-harvest","bonus":1.2000000000000006},{"rt":623,"stimulus":"\n                    <p><b>Action: <em>harvest</em></b></p>\n                    <p>This is the bee that you just saw.</p>\n                    <img src=\"bees-with-color/bee-A2SM.svg\" width=\"200\">\n                    <p><span class=\"greenText\"><b>Successful harvest!</b></span><br>Your pay has increased by $0.02. Your bonus pay is now $0.86.</p>\n            ","response":0,"trial_type":"html-button-response","trial_index":66,"time_elapsed":297014,"internal_node_id":"0.0-4.0-1.29","subject_id":"602a92432b8e88094f75598b","study_id":"60edd13110225f80f9f3709b","session_id":"6196c4a400db091a6a5d36b3","condition":"contingent","relevant_dimensions":["antennae","pattern"],"bee_group":{"antennae":"A","wings":"X","pattern":"D","legs":"X"},"bonus":1.2000000000000006},{"rt":927,"stimulus":"bees-with-color/bee-B1DM.svg","response":1,"trial_type":"image-button-response","trial_index":67,"time_elapsed":297942,"internal_node_id":"0.0-4.0-0.30","subject_id":"602a92432b8e88094f75598b","study_id":"60edd13110225f80f9f3709b","session_id":"6196c4a400db091a6a5d36b3","condition":"contingent","relevant_dimensions":["antennae","pattern"],"bee_group":{"antennae":"A","wings":"X","pattern":"D","legs":"X"},"action":"avoid","summary":"bad-avoid","bonus":1.2000000000000006},{"rt":831,"stimulus":"\n                    <p><b>Action: <em>avoid</em></b></p>\n                    <p>This is the bee that you just saw.</p>\n                    <img src=\"bees-with-color/bee-B1DM.svg\" width=\"200\">\n                    <p><br>Your bonus pay is unchanged, and remains at $0.86.</p>\n            ","response":0,"trial_type":"html-button-response","trial_index":68,"time_elapsed":298775,"internal_node_id":"0.0-4.0-1.30","subject_id":"602a92432b8e88094f75598b","study_id":"60edd13110225f80f9f3709b","session_id":"6196c4a400db091a6a5d36b3","condition":"contingent","relevant_dimensions":["antennae","pattern"],"bee_group":{"antennae":"A","wings":"X","pattern":"D","legs":"X"},"bonus":1.2000000000000006},{"rt":2687,"stimulus":"bees-with-color/bee-A1DM.svg","response":1,"trial_type":"image-button-response","trial_index":69,"time_elapsed":301462,"internal_node_id":"0.0-4.0-0.31","subject_id":"602a92432b8e88094f75598b","study_id":"60edd13110225f80f9f3709b","session_id":"6196c4a400db091a6a5d36b3","condition":"contingent","relevant_dimensions":["antennae","pattern"],"bee_group":{"antennae":"A","wings":"X","pattern":"D","legs":"X"},"action":"avoid","summary":"good-avoid","bonus":1.2000000000000006},{"rt":1277,"stimulus":"\n                    <p><b>Action: <em>avoid</em></b></p>\n                    <p>This is the bee that you just saw.</p>\n                    <img src=\"bees-with-color/bee-A1DM.svg\" width=\"200\">\n                    <p><br>Your bonus pay is unchanged, and remains at $0.86.</p>\n            ","response":0,"trial_type":"html-button-response","trial_index":70,"time_elapsed":302742,"internal_node_id":"0.0-4.0-1.31","subject_id":"602a92432b8e88094f75598b","study_id":"60edd13110225f80f9f3709b","session_id":"6196c4a400db091a6a5d36b3","condition":"contingent","relevant_dimensions":["antennae","pattern"],"bee_group":{"antennae":"A","wings":"X","pattern":"D","legs":"X"},"bonus":1.2000000000000006},{"rt":815,"stimulus":"bees-with-color/bee-B1SF.svg","response":0,"trial_type":"image-button-response","trial_index":71,"time_elapsed":303558,"internal_node_id":"0.0-4.0-0.32","subject_id":"602a92432b8e88094f75598b","study_id":"60edd13110225f80f9f3709b","session_id":"6196c4a400db091a6a5d36b3","condition":"contingent","relevant_dimensions":["antennae","pattern"],"bee_group":{"antennae":"A","wings":"X","pattern":"D","legs":"X"},"action":"harvest","summary":"good-harvest","bonus":1.2000000000000006},{"rt":1167,"stimulus":"\n                    <p><b>Action: <em>harvest</em></b></p>\n                    <p>This is the bee that you just saw.</p>\n                    <img src=\"bees-with-color/bee-B1SF.svg\" width=\"200\">\n                    <p><span class=\"greenText\"><b>Successful harvest!</b></span><br>Your pay has increased by $0.02. Your bonus pay is now $0.88.</p>\n            ","response":0,"trial_type":"html-button-response","trial_index":72,"time_elapsed":304727,"internal_node_id":"0.0-4.0-1.32","subject_id":"602a92432b8e88094f75598b","study_id":"60edd13110225f80f9f3709b","session_id":"6196c4a400db091a6a5d36b3","condition":"contingent","relevant_dimensions":["antennae","pattern"],"bee_group":{"antennae":"A","wings":"X","pattern":"D","legs":"X"},"bonus":1.2000000000000006},{"rt":935,"stimulus":"bees-with-color/bee-B2SF.svg","response":0,"trial_type":"image-button-response","trial_index":73,"time_elapsed":305662,"internal_node_id":"0.0-4.0-0.33","subject_id":"602a92432b8e88094f75598b","study_id":"60edd13110225f80f9f3709b","session_id":"6196c4a400db091a6a5d36b3","condition":"contingent","relevant_dimensions":["antennae","pattern"],"bee_group":{"antennae":"A","wings":"X","pattern":"D","legs":"X"},"action":"harvest","summary":"good-harvest","bonus":1.2000000000000006},{"rt":631,"stimulus":"\n                    <p><b>Action: <em>harvest</em></b></p>\n                    <p>This is the bee that you just saw.</p>\n                    <img src=\"bees-with-color/bee-B2SF.svg\" width=\"200\">\n                    <p><span class=\"greenText\"><b>Successful harvest!</b></span><br>Your pay has increased by $0.02. Your bonus pay is now $0.90.</p>\n            ","response":0,"trial_type":"html-button-response","trial_index":74,"time_elapsed":306295,"internal_node_id":"0.0-4.0-1.33","subject_id":"602a92432b8e88094f75598b","study_id":"60edd13110225f80f9f3709b","session_id":"6196c4a400db091a6a5d36b3","condition":"contingent","relevant_dimensions":["antennae","pattern"],"bee_group":{"antennae":"A","wings":"X","pattern":"D","legs":"X"},"bonus":1.2000000000000006},{"rt":782,"stimulus":"bees-with-color/bee-B1DM.svg","response":1,"trial_type":"image-button-response","trial_index":75,"time_elapsed":307078,"internal_node_id":"0.0-4.0-0.34","subject_id":"602a92432b8e88094f75598b","study_id":"60edd13110225f80f9f3709b","session_id":"6196c4a400db091a6a5d36b3","condition":"contingent","relevant_dimensions":["antennae","pattern"],"bee_group":{"antennae":"A","wings":"X","pattern":"D","legs":"X"},"action":"avoid","summary":"bad-avoid","bonus":1.2000000000000006},{"rt":688,"stimulus":"\n                    <p><b>Action: <em>avoid</em></b></p>\n                    <p>This is the bee that you just saw.</p>\n                    <img src=\"bees-with-color/bee-B1DM.svg\" width=\"200\">\n                    <p><br>Your bonus pay is unchanged, and remains at $0.90.</p>\n            ","response":0,"trial_type":"html-button-response","trial_index":76,"time_elapsed":307767,"internal_node_id":"0.0-4.0-1.34","subject_id":"602a92432b8e88094f75598b","study_id":"60edd13110225f80f9f3709b","session_id":"6196c4a400db091a6a5d36b3","condition":"contingent","relevant_dimensions":["antennae","pattern"],"bee_group":{"antennae":"A","wings":"X","pattern":"D","legs":"X"},"bonus":1.2000000000000006},{"rt":646,"stimulus":"bees-with-color/bee-B1SM.svg","response":0,"trial_type":"image-button-response","trial_index":77,"time_elapsed":308414,"internal_node_id":"0.0-4.0-0.35","subject_id":"602a92432b8e88094f75598b","study_id":"60edd13110225f80f9f3709b","session_id":"6196c4a400db091a6a5d36b3","condition":"contingent","relevant_dimensions":["antennae","pattern"],"bee_group":{"antennae":"A","wings":"X","pattern":"D","legs":"X"},"action":"harvest","summary":"good-harvest","bonus":1.2000000000000006},{"rt":639,"stimulus":"\n                    <p><b>Action: <em>harvest</em></b></p>\n                    <p>This is the bee that you just saw.</p>\n                    <img src=\"bees-with-color/bee-B1SM.svg\" width=\"200\">\n                    <p><span class=\"greenText\"><b>Successful harvest!</b></span><br>Your pay has increased by $0.02. Your bonus pay is now $0.92.</p>\n            ","response":0,"trial_type":"html-button-response","trial_index":78,"time_elapsed":309055,"internal_node_id":"0.0-4.0-1.35","subject_id":"602a92432b8e88094f75598b","study_id":"60edd13110225f80f9f3709b","session_id":"6196c4a400db091a6a5d36b3","condition":"contingent","relevant_dimensions":["antennae","pattern"],"bee_group":{"antennae":"A","wings":"X","pattern":"D","legs":"X"},"bonus":1.2000000000000006},{"rt":718,"stimulus":"bees-with-color/bee-A1DF.svg","response":1,"trial_type":"image-button-response","trial_index":79,"time_elapsed":309774,"internal_node_id":"0.0-4.0-0.36","subject_id":"602a92432b8e88094f75598b","study_id":"60edd13110225f80f9f3709b","session_id":"6196c4a400db091a6a5d36b3","condition":"contingent","relevant_dimensions":["antennae","pattern"],"bee_group":{"antennae":"A","wings":"X","pattern":"D","legs":"X"},"action":"avoid","summary":"good-avoid","bonus":1.2000000000000006},{"rt":615,"stimulus":"\n                    <p><b>Action: <em>avoid</em></b></p>\n                    <p>This is the bee that you just saw.</p>\n                    <img src=\"bees-with-color/bee-A1DF.svg\" width=\"200\">\n                    <p><br>Your bonus pay is unchanged, and remains at $0.92.</p>\n            ","response":0,"trial_type":"html-button-response","trial_index":80,"time_elapsed":310391,"internal_node_id":"0.0-4.0-1.36","subject_id":"602a92432b8e88094f75598b","study_id":"60edd13110225f80f9f3709b","session_id":"6196c4a400db091a6a5d36b3","condition":"contingent","relevant_dimensions":["antennae","pattern"],"bee_group":{"antennae":"A","wings":"X","pattern":"D","legs":"X"},"bonus":1.2000000000000006},{"rt":655,"stimulus":"bees-with-color/bee-A1SF.svg","response":0,"trial_type":"image-button-response","trial_index":81,"time_elapsed":311046,"internal_node_id":"0.0-4.0-0.37","subject_id":"602a92432b8e88094f75598b","study_id":"60edd13110225f80f9f3709b","session_id":"6196c4a400db091a6a5d36b3","condition":"contingent","relevant_dimensions":["antennae","pattern"],"bee_group":{"antennae":"A","wings":"X","pattern":"D","legs":"X"},"action":"harvest","summary":"good-harvest","bonus":1.2000000000000006},{"rt":935,"stimulus":"\n                    <p><b>Action: <em>harvest</em></b></p>\n                    <p>This is the bee that you just saw.</p>\n                    <img src=\"bees-with-color/bee-A1SF.svg\" width=\"200\">\n                    <p><span class=\"greenText\"><b>Successful harvest!</b></span><br>Your pay has increased by $0.02. Your bonus pay is now $0.94.</p>\n            ","response":0,"trial_type":"html-button-response","trial_index":82,"time_elapsed":311982,"internal_node_id":"0.0-4.0-1.37","subject_id":"602a92432b8e88094f75598b","study_id":"60edd13110225f80f9f3709b","session_id":"6196c4a400db091a6a5d36b3","condition":"contingent","relevant_dimensions":["antennae","pattern"],"bee_group":{"antennae":"A","wings":"X","pattern":"D","legs":"X"},"bonus":1.2000000000000006},{"rt":711,"stimulus":"bees-with-color/bee-A2DM.svg","response":1,"trial_type":"image-button-response","trial_index":83,"time_elapsed":312694,"internal_node_id":"0.0-4.0-0.38","subject_id":"602a92432b8e88094f75598b","study_id":"60edd13110225f80f9f3709b","session_id":"6196c4a400db091a6a5d36b3","condition":"contingent","relevant_dimensions":["antennae","pattern"],"bee_group":{"antennae":"A","wings":"X","pattern":"D","legs":"X"},"action":"avoid","summary":"good-avoid","bonus":1.2000000000000006},{"rt":752,"stimulus":"\n                    <p><b>Action: <em>avoid</em></b></p>\n                    <p>This is the bee that you just saw.</p>\n                    <img src=\"bees-with-color/bee-A2DM.svg\" width=\"200\">\n                    <p><br>Your bonus pay is unchanged, and remains at $0.94.</p>\n            ","response":0,"trial_type":"html-button-response","trial_index":84,"time_elapsed":313447,"internal_node_id":"0.0-4.0-1.38","subject_id":"602a92432b8e88094f75598b","study_id":"60edd13110225f80f9f3709b","session_id":"6196c4a400db091a6a5d36b3","condition":"contingent","relevant_dimensions":["antennae","pattern"],"bee_group":{"antennae":"A","wings":"X","pattern":"D","legs":"X"},"bonus":1.2000000000000006},{"rt":574,"stimulus":"bees-with-color/bee-B2SM.svg","response":0,"trial_type":"image-button-response","trial_index":85,"time_elapsed":314022,"internal_node_id":"0.0-4.0-0.39","subject_id":"602a92432b8e88094f75598b","study_id":"60edd13110225f80f9f3709b","session_id":"6196c4a400db091a6a5d36b3","condition":"contingent","relevant_dimensions":["antennae","pattern"],"bee_group":{"antennae":"A","wings":"X","pattern":"D","legs":"X"},"action":"harvest","summary":"good-harvest","bonus":1.2000000000000006},{"rt":599,"stimulus":"\n                    <p><b>Action: <em>harvest</em></b></p>\n                    <p>This is the bee that you just saw.</p>\n                    <img src=\"bees-with-color/bee-B2SM.svg\" width=\"200\">\n                    <p><span class=\"greenText\"><b>Successful harvest!</b></span><br>Your pay has increased by $0.02. Your bonus pay is now $0.96.</p>\n            ","response":0,"trial_type":"html-button-response","trial_index":86,"time_elapsed":314623,"internal_node_id":"0.0-4.0-1.39","subject_id":"602a92432b8e88094f75598b","study_id":"60edd13110225f80f9f3709b","session_id":"6196c4a400db091a6a5d36b3","condition":"contingent","relevant_dimensions":["antennae","pattern"],"bee_group":{"antennae":"A","wings":"X","pattern":"D","legs":"X"},"bonus":1.2000000000000006},{"rt":848,"stimulus":"bees-with-color/bee-A1SM.svg","response":0,"trial_type":"image-button-response","trial_index":87,"time_elapsed":315471,"internal_node_id":"0.0-4.0-0.40","subject_id":"602a92432b8e88094f75598b","study_id":"60edd13110225f80f9f3709b","session_id":"6196c4a400db091a6a5d36b3","condition":"contingent","relevant_dimensions":["antennae","pattern"],"bee_group":{"antennae":"A","wings":"X","pattern":"D","legs":"X"},"action":"harvest","summary":"good-harvest","bonus":1.2000000000000006},{"rt":557,"stimulus":"\n                    <p><b>Action: <em>harvest</em></b></p>\n                    <p>This is the bee that you just saw.</p>\n                    <img src=\"bees-with-color/bee-A1SM.svg\" width=\"200\">\n                    <p><span class=\"greenText\"><b>Successful harvest!</b></span><br>Your pay has increased by $0.02. Your bonus pay is now $0.98.</p>\n            ","response":0,"trial_type":"html-button-response","trial_index":88,"time_elapsed":316030,"internal_node_id":"0.0-4.0-1.40","subject_id":"602a92432b8e88094f75598b","study_id":"60edd13110225f80f9f3709b","session_id":"6196c4a400db091a6a5d36b3","condition":"contingent","relevant_dimensions":["antennae","pattern"],"bee_group":{"antennae":"A","wings":"X","pattern":"D","legs":"X"},"bonus":1.2000000000000006},{"rt":720,"stimulus":"bees-with-color/bee-A2SF.svg","response":0,"trial_type":"image-button-response","trial_index":89,"time_elapsed":316751,"internal_node_id":"0.0-4.0-0.41","subject_id":"602a92432b8e88094f75598b","study_id":"60edd13110225f80f9f3709b","session_id":"6196c4a400db091a6a5d36b3","condition":"contingent","relevant_dimensions":["antennae","pattern"],"bee_group":{"antennae":"A","wings":"X","pattern":"D","legs":"X"},"action":"harvest","summary":"good-harvest","bonus":1.2000000000000006},{"rt":647,"stimulus":"\n                    <p><b>Action: <em>harvest</em></b></p>\n                    <p>This is the bee that you just saw.</p>\n                    <img src=\"bees-with-color/bee-A2SF.svg\" width=\"200\">\n                    <p><span class=\"greenText\"><b>Successful harvest!</b></span><br>Your pay has increased by $0.02. Your bonus pay is now $1.00.</p>\n            ","response":0,"trial_type":"html-button-response","trial_index":90,"time_elapsed":317399,"internal_node_id":"0.0-4.0-1.41","subject_id":"602a92432b8e88094f75598b","study_id":"60edd13110225f80f9f3709b","session_id":"6196c4a400db091a6a5d36b3","condition":"contingent","relevant_dimensions":["antennae","pattern"],"bee_group":{"antennae":"A","wings":"X","pattern":"D","legs":"X"},"bonus":1.2000000000000006},{"rt":687,"stimulus":"bees-with-color/bee-B1DF.svg","response":1,"trial_type":"image-button-response","trial_index":91,"time_elapsed":318086,"internal_node_id":"0.0-4.0-0.42","subject_id":"602a92432b8e88094f75598b","study_id":"60edd13110225f80f9f3709b","session_id":"6196c4a400db091a6a5d36b3","condition":"contingent","relevant_dimensions":["antennae","pattern"],"bee_group":{"antennae":"A","wings":"X","pattern":"D","legs":"X"},"action":"avoid","summary":"bad-avoid","bonus":1.2000000000000006},{"rt":598,"stimulus":"\n                    <p><b>Action: <em>avoid</em></b></p>\n                    <p>This is the bee that you just saw.</p>\n                    <img src=\"bees-with-color/bee-B1DF.svg\" width=\"200\">\n                    <p><br>Your bonus pay is unchanged, and remains at $1.00.</p>\n            ","response":0,"trial_type":"html-button-response","trial_index":92,"time_elapsed":318686,"internal_node_id":"0.0-4.0-1.42","subject_id":"602a92432b8e88094f75598b","study_id":"60edd13110225f80f9f3709b","session_id":"6196c4a400db091a6a5d36b3","condition":"contingent","relevant_dimensions":["antennae","pattern"],"bee_group":{"antennae":"A","wings":"X","pattern":"D","legs":"X"},"bonus":1.2000000000000006},{"rt":801,"stimulus":"bees-with-color/bee-A2DF.svg","response":1,"trial_type":"image-button-response","trial_index":93,"time_elapsed":319488,"internal_node_id":"0.0-4.0-0.43","subject_id":"602a92432b8e88094f75598b","study_id":"60edd13110225f80f9f3709b","session_id":"6196c4a400db091a6a5d36b3","condition":"contingent","relevant_dimensions":["antennae","pattern"],"bee_group":{"antennae":"A","wings":"X","pattern":"D","legs":"X"},"action":"avoid","summary":"good-avoid","bonus":1.2000000000000006},{"rt":678,"stimulus":"\n                    <p><b>Action: <em>avoid</em></b></p>\n                    <p>This is the bee that you just saw.</p>\n                    <img src=\"bees-with-color/bee-A2DF.svg\" width=\"200\">\n                    <p><br>Your bonus pay is unchanged, and remains at $1.00.</p>\n            ","response":0,"trial_type":"html-button-response","trial_index":94,"time_elapsed":320167,"internal_node_id":"0.0-4.0-1.43","subject_id":"602a92432b8e88094f75598b","study_id":"60edd13110225f80f9f3709b","session_id":"6196c4a400db091a6a5d36b3","condition":"contingent","relevant_dimensions":["antennae","pattern"],"bee_group":{"antennae":"A","wings":"X","pattern":"D","legs":"X"},"bonus":1.2000000000000006},{"rt":694,"stimulus":"bees-with-color/bee-B2DF.svg","response":1,"trial_type":"image-button-response","trial_index":95,"time_elapsed":320862,"internal_node_id":"0.0-4.0-0.44","subject_id":"602a92432b8e88094f75598b","study_id":"60edd13110225f80f9f3709b","session_id":"6196c4a400db091a6a5d36b3","condition":"contingent","relevant_dimensions":["antennae","pattern"],"bee_group":{"antennae":"A","wings":"X","pattern":"D","legs":"X"},"action":"avoid","summary":"bad-avoid","bonus":1.2000000000000006},{"rt":592,"stimulus":"\n                    <p><b>Action: <em>avoid</em></b></p>\n                    <p>This is the bee that you just saw.</p>\n                    <img src=\"bees-with-color/bee-B2DF.svg\" width=\"200\">\n                    <p><br>Your bonus pay is unchanged, and remains at $1.00.</p>\n            ","response":0,"trial_type":"html-button-response","trial_index":96,"time_elapsed":321454,"internal_node_id":"0.0-4.0-1.44","subject_id":"602a92432b8e88094f75598b","study_id":"60edd13110225f80f9f3709b","session_id":"6196c4a400db091a6a5d36b3","condition":"contingent","relevant_dimensions":["antennae","pattern"],"bee_group":{"antennae":"A","wings":"X","pattern":"D","legs":"X"},"bonus":1.2000000000000006},{"rt":735,"stimulus":"bees-with-color/bee-A2SM.svg","response":0,"trial_type":"image-button-response","trial_index":97,"time_elapsed":322191,"internal_node_id":"0.0-4.0-0.45","subject_id":"602a92432b8e88094f75598b","study_id":"60edd13110225f80f9f3709b","session_id":"6196c4a400db091a6a5d36b3","condition":"contingent","relevant_dimensions":["antennae","pattern"],"bee_group":{"antennae":"A","wings":"X","pattern":"D","legs":"X"},"action":"harvest","summary":"good-harvest","bonus":1.2000000000000006},{"rt":551,"stimulus":"\n                    <p><b>Action: <em>harvest</em></b></p>\n                    <p>This is the bee that you just saw.</p>\n                    <img src=\"bees-with-color/bee-A2SM.svg\" width=\"200\">\n                    <p><span class=\"greenText\"><b>Successful harvest!</b></span><br>Your pay has increased by $0.02. Your bonus pay is now $1.02.</p>\n            ","response":0,"trial_type":"html-button-response","trial_index":98,"time_elapsed":322743,"internal_node_id":"0.0-4.0-1.45","subject_id":"602a92432b8e88094f75598b","study_id":"60edd13110225f80f9f3709b","session_id":"6196c4a400db091a6a5d36b3","condition":"contingent","relevant_dimensions":["antennae","pattern"],"bee_group":{"antennae":"A","wings":"X","pattern":"D","legs":"X"},"bonus":1.2000000000000006},{"rt":654,"stimulus":"bees-with-color/bee-B2DM.svg","response":1,"trial_type":"image-button-response","trial_index":99,"time_elapsed":323398,"internal_node_id":"0.0-4.0-0.46","subject_id":"602a92432b8e88094f75598b","study_id":"60edd13110225f80f9f3709b","session_id":"6196c4a400db091a6a5d36b3","condition":"contingent","relevant_dimensions":["antennae","pattern"],"bee_group":{"antennae":"A","wings":"X","pattern":"D","legs":"X"},"action":"avoid","summary":"bad-avoid","bonus":1.2000000000000006},{"rt":599,"stimulus":"\n                    <p><b>Action: <em>avoid</em></b></p>\n                    <p>This is the bee that you just saw.</p>\n                    <img src=\"bees-with-color/bee-B2DM.svg\" width=\"200\">\n                    <p><br>Your bonus pay is unchanged, and remains at $1.02.</p>\n            ","response":0,"trial_type":"html-button-response","trial_index":100,"time_elapsed":323999,"internal_node_id":"0.0-4.0-1.46","subject_id":"602a92432b8e88094f75598b","study_id":"60edd13110225f80f9f3709b","session_id":"6196c4a400db091a6a5d36b3","condition":"contingent","relevant_dimensions":["antennae","pattern"],"bee_group":{"antennae":"A","wings":"X","pattern":"D","legs":"X"},"bonus":1.2000000000000006},{"rt":679,"stimulus":"bees-with-color/bee-A1DM.svg","response":1,"trial_type":"image-button-response","trial_index":101,"time_elapsed":324678,"internal_node_id":"0.0-4.0-0.47","subject_id":"602a92432b8e88094f75598b","study_id":"60edd13110225f80f9f3709b","session_id":"6196c4a400db091a6a5d36b3","condition":"contingent","relevant_dimensions":["antennae","pattern"],"bee_group":{"antennae":"A","wings":"X","pattern":"D","legs":"X"},"action":"avoid","summary":"good-avoid","bonus":1.2000000000000006},{"rt":640,"stimulus":"\n                    <p><b>Action: <em>avoid</em></b></p>\n                    <p>This is the bee that you just saw.</p>\n                    <img src=\"bees-with-color/bee-A1DM.svg\" width=\"200\">\n                    <p><br>Your bonus pay is unchanged, and remains at $1.02.</p>\n            ","response":0,"trial_type":"html-button-response","trial_index":102,"time_elapsed":325318,"internal_node_id":"0.0-4.0-1.47","subject_id":"602a92432b8e88094f75598b","study_id":"60edd13110225f80f9f3709b","session_id":"6196c4a400db091a6a5d36b3","condition":"contingent","relevant_dimensions":["antennae","pattern"],"bee_group":{"antennae":"A","wings":"X","pattern":"D","legs":"X"},"bonus":1.2000000000000006},{"rt":863,"stimulus":"bees-with-color/bee-B2DM.svg","response":1,"trial_type":"image-button-response","trial_index":103,"time_elapsed":326183,"internal_node_id":"0.0-4.0-0.48","subject_id":"602a92432b8e88094f75598b","study_id":"60edd13110225f80f9f3709b","session_id":"6196c4a400db091a6a5d36b3","condition":"contingent","relevant_dimensions":["antennae","pattern"],"bee_group":{"antennae":"A","wings":"X","pattern":"D","legs":"X"},"action":"avoid","summary":"bad-avoid","bonus":1.2000000000000006},{"rt":622,"stimulus":"\n                    <p><b>Action: <em>avoid</em></b></p>\n                    <p>This is the bee that you just saw.</p>\n                    <img src=\"bees-with-color/bee-B2DM.svg\" width=\"200\">\n                    <p><br>Your bonus pay is unchanged, and remains at $1.02.</p>\n            ","response":0,"trial_type":"html-button-response","trial_index":104,"time_elapsed":326806,"internal_node_id":"0.0-4.0-1.48","subject_id":"602a92432b8e88094f75598b","study_id":"60edd13110225f80f9f3709b","session_id":"6196c4a400db091a6a5d36b3","condition":"contingent","relevant_dimensions":["antennae","pattern"],"bee_group":{"antennae":"A","wings":"X","pattern":"D","legs":"X"},"bonus":1.2000000000000006},{"rt":687,"stimulus":"bees-with-color/bee-A1DM.svg","response":1,"trial_type":"image-button-response","trial_index":105,"time_elapsed":327494,"internal_node_id":"0.0-4.0-0.49","subject_id":"602a92432b8e88094f75598b","study_id":"60edd13110225f80f9f3709b","session_id":"6196c4a400db091a6a5d36b3","condition":"contingent","relevant_dimensions":["antennae","pattern"],"bee_group":{"antennae":"A","wings":"X","pattern":"D","legs":"X"},"action":"avoid","summary":"good-avoid","bonus":1.2000000000000006},{"rt":552,"stimulus":"\n                    <p><b>Action: <em>avoid</em></b></p>\n                    <p>This is the bee that you just saw.</p>\n                    <img src=\"bees-with-color/bee-A1DM.svg\" width=\"200\">\n                    <p><br>Your bonus pay is unchanged, and remains at $1.02.</p>\n            ","response":0,"trial_type":"html-button-response","trial_index":106,"time_elapsed":328047,"internal_node_id":"0.0-4.0-1.49","subject_id":"602a92432b8e88094f75598b","study_id":"60edd13110225f80f9f3709b","session_id":"6196c4a400db091a6a5d36b3","condition":"contingent","relevant_dimensions":["antennae","pattern"],"bee_group":{"antennae":"A","wings":"X","pattern":"D","legs":"X"},"bonus":1.2000000000000006},{"rt":702,"stimulus":"bees-with-color/bee-A1DF.svg","response":1,"trial_type":"image-button-response","trial_index":107,"time_elapsed":328750,"internal_node_id":"0.0-4.0-0.50","subject_id":"602a92432b8e88094f75598b","study_id":"60edd13110225f80f9f3709b","session_id":"6196c4a400db091a6a5d36b3","condition":"contingent","relevant_dimensions":["antennae","pattern"],"bee_group":{"antennae":"A","wings":"X","pattern":"D","legs":"X"},"action":"avoid","summary":"good-avoid","bonus":1.2000000000000006},{"rt":600,"stimulus":"\n                    <p><b>Action: <em>avoid</em></b></p>\n                    <p>This is the bee that you just saw.</p>\n                    <img src=\"bees-with-color/bee-A1DF.svg\" width=\"200\">\n                    <p><br>Your bonus pay is unchanged, and remains at $1.02.</p>\n            ","response":0,"trial_type":"html-button-response","trial_index":108,"time_elapsed":329350,"internal_node_id":"0.0-4.0-1.50","subject_id":"602a92432b8e88094f75598b","study_id":"60edd13110225f80f9f3709b","session_id":"6196c4a400db091a6a5d36b3","condition":"contingent","relevant_dimensions":["antennae","pattern"],"bee_group":{"antennae":"A","wings":"X","pattern":"D","legs":"X"},"bonus":1.2000000000000006},{"rt":1183,"stimulus":"bees-with-color/bee-B1SF.svg","response":0,"trial_type":"image-button-response","trial_index":109,"time_elapsed":330534,"internal_node_id":"0.0-4.0-0.51","subject_id":"602a92432b8e88094f75598b","study_id":"60edd13110225f80f9f3709b","session_id":"6196c4a400db091a6a5d36b3","condition":"contingent","relevant_dimensions":["antennae","pattern"],"bee_group":{"antennae":"A","wings":"X","pattern":"D","legs":"X"},"action":"harvest","summary":"good-harvest","bonus":1.2000000000000006},{"rt":807,"stimulus":"\n                    <p><b>Action: <em>harvest</em></b></p>\n                    <p>This is the bee that you just saw.</p>\n                    <img src=\"bees-with-color/bee-B1SF.svg\" width=\"200\">\n                    <p><span class=\"greenText\"><b>Successful harvest!</b></span><br>Your pay has increased by $0.02. Your bonus pay is now $1.04.</p>\n            ","response":0,"trial_type":"html-button-response","trial_index":110,"time_elapsed":331343,"internal_node_id":"0.0-4.0-1.51","subject_id":"602a92432b8e88094f75598b","study_id":"60edd13110225f80f9f3709b","session_id":"6196c4a400db091a6a5d36b3","condition":"contingent","relevant_dimensions":["antennae","pattern"],"bee_group":{"antennae":"A","wings":"X","pattern":"D","legs":"X"},"bonus":1.2000000000000006},{"rt":679,"stimulus":"bees-with-color/bee-A2SM.svg","response":0,"trial_type":"image-button-response","trial_index":111,"time_elapsed":332022,"internal_node_id":"0.0-4.0-0.52","subject_id":"602a92432b8e88094f75598b","study_id":"60edd13110225f80f9f3709b","session_id":"6196c4a400db091a6a5d36b3","condition":"contingent","relevant_dimensions":["antennae","pattern"],"bee_group":{"antennae":"A","wings":"X","pattern":"D","legs":"X"},"action":"harvest","summary":"good-harvest","bonus":1.2000000000000006},{"rt":638,"stimulus":"\n                    <p><b>Action: <em>harvest</em></b></p>\n                    <p>This is the bee that you just saw.</p>\n                    <img src=\"bees-with-color/bee-A2SM.svg\" width=\"200\">\n                    <p><span class=\"greenText\"><b>Successful harvest!</b></span><br>Your pay has increased by $0.02. Your bonus pay is now $1.06.</p>\n            ","response":0,"trial_type":"html-button-response","trial_index":112,"time_elapsed":332662,"internal_node_id":"0.0-4.0-1.52","subject_id":"602a92432b8e88094f75598b","study_id":"60edd13110225f80f9f3709b","session_id":"6196c4a400db091a6a5d36b3","condition":"contingent","relevant_dimensions":["antennae","pattern"],"bee_group":{"antennae":"A","wings":"X","pattern":"D","legs":"X"},"bonus":1.2000000000000006},{"rt":688,"stimulus":"bees-with-color/bee-A1SF.svg","response":0,"trial_type":"image-button-response","trial_index":113,"time_elapsed":333350,"internal_node_id":"0.0-4.0-0.53","subject_id":"602a92432b8e88094f75598b","study_id":"60edd13110225f80f9f3709b","session_id":"6196c4a400db091a6a5d36b3","condition":"contingent","relevant_dimensions":["antennae","pattern"],"bee_group":{"antennae":"A","wings":"X","pattern":"D","legs":"X"},"action":"harvest","summary":"good-harvest","bonus":1.2000000000000006},{"rt":719,"stimulus":"\n                    <p><b>Action: <em>harvest</em></b></p>\n                    <p>This is the bee that you just saw.</p>\n                    <img src=\"bees-with-color/bee-A1SF.svg\" width=\"200\">\n                    <p><span class=\"greenText\"><b>Successful harvest!</b></span><br>Your pay has increased by $0.02. Your bonus pay is now $1.08.</p>\n            ","response":0,"trial_type":"html-button-response","trial_index":114,"time_elapsed":334070,"internal_node_id":"0.0-4.0-1.53","subject_id":"602a92432b8e88094f75598b","study_id":"60edd13110225f80f9f3709b","session_id":"6196c4a400db091a6a5d36b3","condition":"contingent","relevant_dimensions":["antennae","pattern"],"bee_group":{"antennae":"A","wings":"X","pattern":"D","legs":"X"},"bonus":1.2000000000000006},{"rt":639,"stimulus":"bees-with-color/bee-B2SF.svg","response":0,"trial_type":"image-button-response","trial_index":115,"time_elapsed":334710,"internal_node_id":"0.0-4.0-0.54","subject_id":"602a92432b8e88094f75598b","study_id":"60edd13110225f80f9f3709b","session_id":"6196c4a400db091a6a5d36b3","condition":"contingent","relevant_dimensions":["antennae","pattern"],"bee_group":{"antennae":"A","wings":"X","pattern":"D","legs":"X"},"action":"harvest","summary":"good-harvest","bonus":1.2000000000000006},{"rt":662,"stimulus":"\n                    <p><b>Action: <em>harvest</em></b></p>\n                    <p>This is the bee that you just saw.</p>\n                    <img src=\"bees-with-color/bee-B2SF.svg\" width=\"200\">\n                    <p><span class=\"greenText\"><b>Successful harvest!</b></span><br>Your pay has increased by $0.02. Your bonus pay is now $1.10.</p>\n            ","response":0,"trial_type":"html-button-response","trial_index":116,"time_elapsed":335375,"internal_node_id":"0.0-4.0-1.54","subject_id":"602a92432b8e88094f75598b","study_id":"60edd13110225f80f9f3709b","session_id":"6196c4a400db091a6a5d36b3","condition":"contingent","relevant_dimensions":["antennae","pattern"],"bee_group":{"antennae":"A","wings":"X","pattern":"D","legs":"X"},"bonus":1.2000000000000006},{"rt":551,"stimulus":"bees-with-color/bee-B1SM.svg","response":0,"trial_type":"image-button-response","trial_index":117,"time_elapsed":335927,"internal_node_id":"0.0-4.0-0.55","subject_id":"602a92432b8e88094f75598b","study_id":"60edd13110225f80f9f3709b","session_id":"6196c4a400db091a6a5d36b3","condition":"contingent","relevant_dimensions":["antennae","pattern"],"bee_group":{"antennae":"A","wings":"X","pattern":"D","legs":"X"},"action":"harvest","summary":"good-harvest","bonus":1.2000000000000006},{"rt":614,"stimulus":"\n                    <p><b>Action: <em>harvest</em></b></p>\n                    <p>This is the bee that you just saw.</p>\n                    <img src=\"bees-with-color/bee-B1SM.svg\" width=\"200\">\n                    <p><span class=\"greenText\"><b>Successful harvest!</b></span><br>Your pay has increased by $0.02. Your bonus pay is now $1.12.</p>\n            ","response":0,"trial_type":"html-button-response","trial_index":118,"time_elapsed":336542,"internal_node_id":"0.0-4.0-1.55","subject_id":"602a92432b8e88094f75598b","study_id":"60edd13110225f80f9f3709b","session_id":"6196c4a400db091a6a5d36b3","condition":"contingent","relevant_dimensions":["antennae","pattern"],"bee_group":{"antennae":"A","wings":"X","pattern":"D","legs":"X"},"bonus":1.2000000000000006},{"rt":1007,"stimulus":"bees-with-color/bee-A2DF.svg","response":1,"trial_type":"image-button-response","trial_index":119,"time_elapsed":337551,"internal_node_id":"0.0-4.0-0.56","subject_id":"602a92432b8e88094f75598b","study_id":"60edd13110225f80f9f3709b","session_id":"6196c4a400db091a6a5d36b3","condition":"contingent","relevant_dimensions":["antennae","pattern"],"bee_group":{"antennae":"A","wings":"X","pattern":"D","legs":"X"},"action":"avoid","summary":"good-avoid","bonus":1.2000000000000006},{"rt":551,"stimulus":"\n                    <p><b>Action: <em>avoid</em></b></p>\n                    <p>This is the bee that you just saw.</p>\n                    <img src=\"bees-with-color/bee-A2DF.svg\" width=\"200\">\n                    <p><br>Your bonus pay is unchanged, and remains at $1.12.</p>\n            ","response":0,"trial_type":"html-button-response","trial_index":120,"time_elapsed":338102,"internal_node_id":"0.0-4.0-1.56","subject_id":"602a92432b8e88094f75598b","study_id":"60edd13110225f80f9f3709b","session_id":"6196c4a400db091a6a5d36b3","condition":"contingent","relevant_dimensions":["antennae","pattern"],"bee_group":{"antennae":"A","wings":"X","pattern":"D","legs":"X"},"bonus":1.2000000000000006},{"rt":1079,"stimulus":"bees-with-color/bee-A2SF.svg","response":0,"trial_type":"image-button-response","trial_index":121,"time_elapsed":339183,"internal_node_id":"0.0-4.0-0.57","subject_id":"602a92432b8e88094f75598b","study_id":"60edd13110225f80f9f3709b","session_id":"6196c4a400db091a6a5d36b3","condition":"contingent","relevant_dimensions":["antennae","pattern"],"bee_group":{"antennae":"A","wings":"X","pattern":"D","legs":"X"},"action":"harvest","summary":"good-harvest","bonus":1.2000000000000006},{"rt":575,"stimulus":"\n                    <p><b>Action: <em>harvest</em></b></p>\n                    <p>This is the bee that you just saw.</p>\n                    <img src=\"bees-with-color/bee-A2SF.svg\" width=\"200\">\n                    <p><span class=\"greenText\"><b>Successful harvest!</b></span><br>Your pay has increased by $0.02. Your bonus pay is now $1.14.</p>\n            ","response":0,"trial_type":"html-button-response","trial_index":122,"time_elapsed":339759,"internal_node_id":"0.0-4.0-1.57","subject_id":"602a92432b8e88094f75598b","study_id":"60edd13110225f80f9f3709b","session_id":"6196c4a400db091a6a5d36b3","condition":"contingent","relevant_dimensions":["antennae","pattern"],"bee_group":{"antennae":"A","wings":"X","pattern":"D","legs":"X"},"bonus":1.2000000000000006},{"rt":631,"stimulus":"bees-with-color/bee-B1DF.svg","response":1,"trial_type":"image-button-response","trial_index":123,"time_elapsed":340391,"internal_node_id":"0.0-4.0-0.58","subject_id":"602a92432b8e88094f75598b","study_id":"60edd13110225f80f9f3709b","session_id":"6196c4a400db091a6a5d36b3","condition":"contingent","relevant_dimensions":["antennae","pattern"],"bee_group":{"antennae":"A","wings":"X","pattern":"D","legs":"X"},"action":"avoid","summary":"bad-avoid","bonus":1.2000000000000006},{"rt":791,"stimulus":"\n                    <p><b>Action: <em>avoid</em></b></p>\n                    <p>This is the bee that you just saw.</p>\n                    <img src=\"bees-with-color/bee-B1DF.svg\" width=\"200\">\n                    <p><br>Your bonus pay is unchanged, and remains at $1.14.</p>\n            ","response":0,"trial_type":"html-button-response","trial_index":124,"time_elapsed":341183,"internal_node_id":"0.0-4.0-1.58","subject_id":"602a92432b8e88094f75598b","study_id":"60edd13110225f80f9f3709b","session_id":"6196c4a400db091a6a5d36b3","condition":"contingent","relevant_dimensions":["antennae","pattern"],"bee_group":{"antennae":"A","wings":"X","pattern":"D","legs":"X"},"bonus":1.2000000000000006},{"rt":1029,"stimulus":"bees-with-color/bee-B1DM.svg","response":1,"trial_type":"image-button-response","trial_index":125,"time_elapsed":342214,"internal_node_id":"0.0-4.0-0.59","subject_id":"602a92432b8e88094f75598b","study_id":"60edd13110225f80f9f3709b","session_id":"6196c4a400db091a6a5d36b3","condition":"contingent","relevant_dimensions":["antennae","pattern"],"bee_group":{"antennae":"A","wings":"X","pattern":"D","legs":"X"},"action":"avoid","summary":"bad-avoid","bonus":1.2000000000000006},{"rt":919,"stimulus":"\n                    <p><b>Action: <em>avoid</em></b></p>\n                    <p>This is the bee that you just saw.</p>\n                    <img src=\"bees-with-color/bee-B1DM.svg\" width=\"200\">\n                    <p><br>Your bonus pay is unchanged, and remains at $1.14.</p>\n            ","response":0,"trial_type":"html-button-response","trial_index":126,"time_elapsed":343134,"internal_node_id":"0.0-4.0-1.59","subject_id":"602a92432b8e88094f75598b","study_id":"60edd13110225f80f9f3709b","session_id":"6196c4a400db091a6a5d36b3","condition":"contingent","relevant_dimensions":["antennae","pattern"],"bee_group":{"antennae":"A","wings":"X","pattern":"D","legs":"X"},"bonus":1.2000000000000006},{"rt":728,"stimulus":"bees-with-color/bee-A1SM.svg","response":0,"trial_type":"image-button-response","trial_index":127,"time_elapsed":343863,"internal_node_id":"0.0-4.0-0.60","subject_id":"602a92432b8e88094f75598b","study_id":"60edd13110225f80f9f3709b","session_id":"6196c4a400db091a6a5d36b3","condition":"contingent","relevant_dimensions":["antennae","pattern"],"bee_group":{"antennae":"A","wings":"X","pattern":"D","legs":"X"},"action":"harvest","summary":"good-harvest","bonus":1.2000000000000006},{"rt":598,"stimulus":"\n                    <p><b>Action: <em>harvest</em></b></p>\n                    <p>This is the bee that you just saw.</p>\n                    <img src=\"bees-with-color/bee-A1SM.svg\" width=\"200\">\n                    <p><span class=\"greenText\"><b>Successful harvest!</b></span><br>Your pay has increased by $0.02. Your bonus pay is now $1.16.</p>\n            ","response":0,"trial_type":"html-button-response","trial_index":128,"time_elapsed":344463,"internal_node_id":"0.0-4.0-1.60","subject_id":"602a92432b8e88094f75598b","study_id":"60edd13110225f80f9f3709b","session_id":"6196c4a400db091a6a5d36b3","condition":"contingent","relevant_dimensions":["antennae","pattern"],"bee_group":{"antennae":"A","wings":"X","pattern":"D","legs":"X"},"bonus":1.2000000000000006},{"rt":670,"stimulus":"bees-with-color/bee-B2DF.svg","response":1,"trial_type":"image-button-response","trial_index":129,"time_elapsed":345135,"internal_node_id":"0.0-4.0-0.61","subject_id":"602a92432b8e88094f75598b","study_id":"60edd13110225f80f9f3709b","session_id":"6196c4a400db091a6a5d36b3","condition":"contingent","relevant_dimensions":["antennae","pattern"],"bee_group":{"antennae":"A","wings":"X","pattern":"D","legs":"X"},"action":"avoid","summary":"bad-avoid","bonus":1.2000000000000006},{"rt":551,"stimulus":"\n                    <p><b>Action: <em>avoid</em></b></p>\n                    <p>This is the bee that you just saw.</p>\n                    <img src=\"bees-with-color/bee-B2DF.svg\" width=\"200\">\n                    <p><br>Your bonus pay is unchanged, and remains at $1.16.</p>\n            ","response":0,"trial_type":"html-button-response","trial_index":130,"time_elapsed":345687,"internal_node_id":"0.0-4.0-1.61","subject_id":"602a92432b8e88094f75598b","study_id":"60edd13110225f80f9f3709b","session_id":"6196c4a400db091a6a5d36b3","condition":"contingent","relevant_dimensions":["antennae","pattern"],"bee_group":{"antennae":"A","wings":"X","pattern":"D","legs":"X"},"bonus":1.2000000000000006},{"rt":918,"stimulus":"bees-with-color/bee-B2SM.svg","response":0,"trial_type":"image-button-response","trial_index":131,"time_elapsed":346607,"internal_node_id":"0.0-4.0-0.62","subject_id":"602a92432b8e88094f75598b","study_id":"60edd13110225f80f9f3709b","session_id":"6196c4a400db091a6a5d36b3","condition":"contingent","relevant_dimensions":["antennae","pattern"],"bee_group":{"antennae":"A","wings":"X","pattern":"D","legs":"X"},"action":"harvest","summary":"good-harvest","bonus":1.2000000000000006},{"rt":775,"stimulus":"\n                    <p><b>Action: <em>harvest</em></b></p>\n                    <p>This is the bee that you just saw.</p>\n                    <img src=\"bees-with-color/bee-B2SM.svg\" width=\"200\">\n                    <p><span class=\"greenText\"><b>Successful harvest!</b></span><br>Your pay has increased by $0.02. Your bonus pay is now $1.18.</p>\n            ","response":0,"trial_type":"html-button-response","trial_index":132,"time_elapsed":347383,"internal_node_id":"0.0-4.0-1.62","subject_id":"602a92432b8e88094f75598b","study_id":"60edd13110225f80f9f3709b","session_id":"6196c4a400db091a6a5d36b3","condition":"contingent","relevant_dimensions":["antennae","pattern"],"bee_group":{"antennae":"A","wings":"X","pattern":"D","legs":"X"},"bonus":1.2000000000000006},{"rt":711,"stimulus":"bees-with-color/bee-A2DM.svg","response":1,"trial_type":"image-button-response","trial_index":133,"time_elapsed":348095,"internal_node_id":"0.0-4.0-0.63","subject_id":"602a92432b8e88094f75598b","study_id":"60edd13110225f80f9f3709b","session_id":"6196c4a400db091a6a5d36b3","condition":"contingent","relevant_dimensions":["antennae","pattern"],"bee_group":{"antennae":"A","wings":"X","pattern":"D","legs":"X"},"action":"avoid","summary":"good-avoid","bonus":1.2000000000000006},{"rt":622,"stimulus":"\n                    <p><b>Action: <em>avoid</em></b></p>\n                    <p>This is the bee that you just saw.</p>\n                    <img src=\"bees-with-color/bee-A2DM.svg\" width=\"200\">\n                    <p><br>Your bonus pay is unchanged, and remains at $1.18.</p>\n            ","response":0,"trial_type":"html-button-response","trial_index":134,"time_elapsed":348718,"internal_node_id":"0.0-4.0-1.63","subject_id":"602a92432b8e88094f75598b","study_id":"60edd13110225f80f9f3709b","session_id":"6196c4a400db091a6a5d36b3","condition":"contingent","relevant_dimensions":["antennae","pattern"],"bee_group":{"antennae":"A","wings":"X","pattern":"D","legs":"X"},"bonus":1.2000000000000006},{"rt":4896,"stimulus":"You have completed the first part of this experiment.<br><br>You will now begin a shorter second part, in which you will receive no feedback.<br>The same rules regarding bonus pay apply.<br><br>Press any key to begin.","response":"enter","trial_type":"html-keyboard-response","trial_index":135,"time_elapsed":353615,"internal_node_id":"0.0-5.0","subject_id":"602a92432b8e88094f75598b","study_id":"60edd13110225f80f9f3709b","session_id":"6196c4a400db091a6a5d36b3","condition":"contingent","relevant_dimensions":["antennae","pattern"],"bee_group":{"antennae":"A","wings":"X","pattern":"D","legs":"X"},"bonus":1.2000000000000006},{"rt":2783,"stimulus":"bees-with-color/bee-A2SF.svg","response":1,"trial_type":"image-button-response","trial_index":136,"time_elapsed":356399,"internal_node_id":"0.0-6.0-0.0","subject_id":"602a92432b8e88094f75598b","study_id":"60edd13110225f80f9f3709b","session_id":"6196c4a400db091a6a5d36b3","condition":"contingent","relevant_dimensions":["antennae","pattern"],"bee_group":{"antennae":"A","wings":"X","pattern":"D","legs":"X"},"bonus":1.2000000000000006},{"rt":2943,"stimulus":"bees-with-color/bee-B2DF.svg","response":1,"trial_type":"image-button-response","trial_index":137,"time_elapsed":359343,"internal_node_id":"0.0-6.0-0.1","subject_id":"602a92432b8e88094f75598b","study_id":"60edd13110225f80f9f3709b","session_id":"6196c4a400db091a6a5d36b3","condition":"contingent","relevant_dimensions":["antennae","pattern"],"bee_group":{"antennae":"A","wings":"X","pattern":"D","legs":"X"},"bonus":1.2000000000000006},{"rt":1102,"stimulus":"bees-with-color/bee-B1SF.svg","response":1,"trial_type":"image-button-response","trial_index":138,"time_elapsed":360447,"internal_node_id":"0.0-6.0-0.2","subject_id":"602a92432b8e88094f75598b","study_id":"60edd13110225f80f9f3709b","session_id":"6196c4a400db091a6a5d36b3","condition":"contingent","relevant_dimensions":["antennae","pattern"],"bee_group":{"antennae":"A","wings":"X","pattern":"D","legs":"X"},"bonus":1.2000000000000006},{"rt":951,"stimulus":"bees-with-color/bee-A1DM.svg","response":1,"trial_type":"image-button-response","trial_index":139,"time_elapsed":361398,"internal_node_id":"0.0-6.0-0.3","subject_id":"602a92432b8e88094f75598b","study_id":"60edd13110225f80f9f3709b","session_id":"6196c4a400db091a6a5d36b3","condition":"contingent","relevant_dimensions":["antennae","pattern"],"bee_group":{"antennae":"A","wings":"X","pattern":"D","legs":"X"},"bonus":1.2000000000000006},{"rt":711,"stimulus":"bees-with-color/bee-B1SM.svg","response":0,"trial_type":"image-button-response","trial_index":140,"time_elapsed":362110,"internal_node_id":"0.0-6.0-0.4","subject_id":"602a92432b8e88094f75598b","study_id":"60edd13110225f80f9f3709b","session_id":"6196c4a400db091a6a5d36b3","condition":"contingent","relevant_dimensions":["antennae","pattern"],"bee_group":{"antennae":"A","wings":"X","pattern":"D","legs":"X"},"bonus":1.2000000000000006},{"rt":1119,"stimulus":"bees-with-color/bee-A1DF.svg","response":1,"trial_type":"image-button-response","trial_index":141,"time_elapsed":363231,"internal_node_id":"0.0-6.0-0.5","subject_id":"602a92432b8e88094f75598b","study_id":"60edd13110225f80f9f3709b","session_id":"6196c4a400db091a6a5d36b3","condition":"contingent","relevant_dimensions":["antennae","pattern"],"bee_group":{"antennae":"A","wings":"X","pattern":"D","legs":"X"},"bonus":1.2000000000000006},{"rt":1271,"stimulus":"bees-with-color/bee-B1DF.svg","response":1,"trial_type":"image-button-response","trial_index":142,"time_elapsed":364503,"internal_node_id":"0.0-6.0-0.6","subject_id":"602a92432b8e88094f75598b","study_id":"60edd13110225f80f9f3709b","session_id":"6196c4a400db091a6a5d36b3","condition":"contingent","relevant_dimensions":["antennae","pattern"],"bee_group":{"antennae":"A","wings":"X","pattern":"D","legs":"X"},"bonus":1.2000000000000006},{"rt":1175,"stimulus":"bees-with-color/bee-B2SM.svg","response":1,"trial_type":"image-button-response","trial_index":143,"time_elapsed":365678,"internal_node_id":"0.0-6.0-0.7","subject_id":"602a92432b8e88094f75598b","study_id":"60edd13110225f80f9f3709b","session_id":"6196c4a400db091a6a5d36b3","condition":"contingent","relevant_dimensions":["antennae","pattern"],"bee_group":{"antennae":"A","wings":"X","pattern":"D","legs":"X"},"bonus":1.2000000000000006},{"rt":423,"stimulus":"bees-with-color/bee-A2SM.svg","response":1,"trial_type":"image-button-response","trial_index":144,"time_elapsed":366103,"internal_node_id":"0.0-6.0-0.8","subject_id":"602a92432b8e88094f75598b","study_id":"60edd13110225f80f9f3709b","session_id":"6196c4a400db091a6a5d36b3","condition":"contingent","relevant_dimensions":["antennae","pattern"],"bee_group":{"antennae":"A","wings":"X","pattern":"D","legs":"X"},"bonus":1.2000000000000006},{"rt":471,"stimulus":"bees-with-color/bee-A2DF.svg","response":1,"trial_type":"image-button-response","trial_index":145,"time_elapsed":366575,"internal_node_id":"0.0-6.0-0.9","subject_id":"602a92432b8e88094f75598b","study_id":"60edd13110225f80f9f3709b","session_id":"6196c4a400db091a6a5d36b3","condition":"contingent","relevant_dimensions":["antennae","pattern"],"bee_group":{"antennae":"A","wings":"X","pattern":"D","legs":"X"},"bonus":1.2000000000000006},{"rt":439,"stimulus":"bees-with-color/bee-B2DM.svg","response":1,"trial_type":"image-button-response","trial_index":146,"time_elapsed":367014,"internal_node_id":"0.0-6.0-0.10","subject_id":"602a92432b8e88094f75598b","study_id":"60edd13110225f80f9f3709b","session_id":"6196c4a400db091a6a5d36b3","condition":"contingent","relevant_dimensions":["antennae","pattern"],"bee_group":{"antennae":"A","wings":"X","pattern":"D","legs":"X"},"bonus":1.2000000000000006},{"rt":295,"stimulus":"bees-with-color/bee-A1SF.svg","response":1,"trial_type":"image-button-response","trial_index":147,"time_elapsed":367311,"internal_node_id":"0.0-6.0-0.11","subject_id":"602a92432b8e88094f75598b","study_id":"60edd13110225f80f9f3709b","session_id":"6196c4a400db091a6a5d36b3","condition":"contingent","relevant_dimensions":["antennae","pattern"],"bee_group":{"antennae":"A","wings":"X","pattern":"D","legs":"X"},"bonus":1.2000000000000006},{"rt":198,"stimulus":"bees-with-color/bee-A2DM.svg","response":1,"trial_type":"image-button-response","trial_index":148,"time_elapsed":367511,"internal_node_id":"0.0-6.0-0.12","subject_id":"602a92432b8e88094f75598b","study_id":"60edd13110225f80f9f3709b","session_id":"6196c4a400db091a6a5d36b3","condition":"contingent","relevant_dimensions":["antennae","pattern"],"bee_group":{"antennae":"A","wings":"X","pattern":"D","legs":"X"},"bonus":1.2000000000000006},{"rt":207,"stimulus":"bees-with-color/bee-B1DM.svg","response":1,"trial_type":"image-button-response","trial_index":149,"time_elapsed":367718,"internal_node_id":"0.0-6.0-0.13","subject_id":"602a92432b8e88094f75598b","study_id":"60edd13110225f80f9f3709b","session_id":"6196c4a400db091a6a5d36b3","condition":"contingent","relevant_dimensions":["antennae","pattern"],"bee_group":{"antennae":"A","wings":"X","pattern":"D","legs":"X"},"bonus":1.2000000000000006},{"rt":222,"stimulus":"bees-with-color/bee-A1SM.svg","response":1,"trial_type":"image-button-response","trial_index":150,"time_elapsed":367942,"internal_node_id":"0.0-6.0-0.14","subject_id":"602a92432b8e88094f75598b","study_id":"60edd13110225f80f9f3709b","session_id":"6196c4a400db091a6a5d36b3","condition":"contingent","relevant_dimensions":["antennae","pattern"],"bee_group":{"antennae":"A","wings":"X","pattern":"D","legs":"X"},"bonus":1.2000000000000006},{"rt":215,"stimulus":"bees-with-color/bee-B2SF.svg","response":1,"trial_type":"image-button-response","trial_index":151,"time_elapsed":368158,"internal_node_id":"0.0-6.0-0.15","subject_id":"602a92432b8e88094f75598b","study_id":"60edd13110225f80f9f3709b","session_id":"6196c4a400db091a6a5d36b3","condition":"contingent","relevant_dimensions":["antennae","pattern"],"bee_group":{"antennae":"A","wings":"X","pattern":"D","legs":"X"},"bonus":1.2000000000000006},{"rt":207,"stimulus":"bees-with-color/bee-B1DF.svg","response":1,"trial_type":"image-button-response","trial_index":152,"time_elapsed":368367,"internal_node_id":"0.0-6.0-0.16","subject_id":"602a92432b8e88094f75598b","study_id":"60edd13110225f80f9f3709b","session_id":"6196c4a400db091a6a5d36b3","condition":"contingent","relevant_dimensions":["antennae","pattern"],"bee_group":{"antennae":"A","wings":"X","pattern":"D","legs":"X"},"bonus":1.2000000000000006},{"rt":206,"stimulus":"bees-with-color/bee-A1SM.svg","response":1,"trial_type":"image-button-response","trial_index":153,"time_elapsed":368574,"internal_node_id":"0.0-6.0-0.17","subject_id":"602a92432b8e88094f75598b","study_id":"60edd13110225f80f9f3709b","session_id":"6196c4a400db091a6a5d36b3","condition":"contingent","relevant_dimensions":["antennae","pattern"],"bee_group":{"antennae":"A","wings":"X","pattern":"D","legs":"X"},"bonus":1.2000000000000006},{"rt":232,"stimulus":"bees-with-color/bee-B2SF.svg","response":1,"trial_type":"image-button-response","trial_index":154,"time_elapsed":368807,"internal_node_id":"0.0-6.0-0.18","subject_id":"602a92432b8e88094f75598b","study_id":"60edd13110225f80f9f3709b","session_id":"6196c4a400db091a6a5d36b3","condition":"contingent","relevant_dimensions":["antennae","pattern"],"bee_group":{"antennae":"A","wings":"X","pattern":"D","legs":"X"},"bonus":1.2000000000000006},{"rt":222,"stimulus":"bees-with-color/bee-A1SF.svg","response":1,"trial_type":"image-button-response","trial_index":155,"time_elapsed":369031,"internal_node_id":"0.0-6.0-0.19","subject_id":"602a92432b8e88094f75598b","study_id":"60edd13110225f80f9f3709b","session_id":"6196c4a400db091a6a5d36b3","condition":"contingent","relevant_dimensions":["antennae","pattern"],"bee_group":{"antennae":"A","wings":"X","pattern":"D","legs":"X"},"bonus":1.2000000000000006},{"rt":215,"stimulus":"bees-with-color/bee-A1DF.svg","response":1,"trial_type":"image-button-response","trial_index":156,"time_elapsed":369247,"internal_node_id":"0.0-6.0-0.20","subject_id":"602a92432b8e88094f75598b","study_id":"60edd13110225f80f9f3709b","session_id":"6196c4a400db091a6a5d36b3","condition":"contingent","relevant_dimensions":["antennae","pattern"],"bee_group":{"antennae":"A","wings":"X","pattern":"D","legs":"X"},"bonus":1.2000000000000006},{"rt":215,"stimulus":"bees-with-color/bee-B2SM.svg","response":1,"trial_type":"image-button-response","trial_index":157,"time_elapsed":369462,"internal_node_id":"0.0-6.0-0.21","subject_id":"602a92432b8e88094f75598b","study_id":"60edd13110225f80f9f3709b","session_id":"6196c4a400db091a6a5d36b3","condition":"contingent","relevant_dimensions":["antennae","pattern"],"bee_group":{"antennae":"A","wings":"X","pattern":"D","legs":"X"},"bonus":1.2000000000000006},{"rt":230,"stimulus":"bees-with-color/bee-A2DM.svg","response":1,"trial_type":"image-button-response","trial_index":158,"time_elapsed":369695,"internal_node_id":"0.0-6.0-0.22","subject_id":"602a92432b8e88094f75598b","study_id":"60edd13110225f80f9f3709b","session_id":"6196c4a400db091a6a5d36b3","condition":"contingent","relevant_dimensions":["antennae","pattern"],"bee_group":{"antennae":"A","wings":"X","pattern":"D","legs":"X"},"bonus":1.2000000000000006},{"rt":222,"stimulus":"bees-with-color/bee-B2DF.svg","response":1,"trial_type":"image-button-response","trial_index":159,"time_elapsed":369918,"internal_node_id":"0.0-6.0-0.23","subject_id":"602a92432b8e88094f75598b","study_id":"60edd13110225f80f9f3709b","session_id":"6196c4a400db091a6a5d36b3","condition":"contingent","relevant_dimensions":["antennae","pattern"],"bee_group":{"antennae":"A","wings":"X","pattern":"D","legs":"X"},"bonus":1.2000000000000006},{"rt":224,"stimulus":"bees-with-color/bee-B1SF.svg","response":1,"trial_type":"image-button-response","trial_index":160,"time_elapsed":370142,"internal_node_id":"0.0-6.0-0.24","subject_id":"602a92432b8e88094f75598b","study_id":"60edd13110225f80f9f3709b","session_id":"6196c4a400db091a6a5d36b3","condition":"contingent","relevant_dimensions":["antennae","pattern"],"bee_group":{"antennae":"A","wings":"X","pattern":"D","legs":"X"},"bonus":1.2000000000000006},{"rt":208,"stimulus":"bees-with-color/bee-B2DM.svg","response":1,"trial_type":"image-button-response","trial_index":161,"time_elapsed":370351,"internal_node_id":"0.0-6.0-0.25","subject_id":"602a92432b8e88094f75598b","study_id":"60edd13110225f80f9f3709b","session_id":"6196c4a400db091a6a5d36b3","condition":"contingent","relevant_dimensions":["antennae","pattern"],"bee_group":{"antennae":"A","wings":"X","pattern":"D","legs":"X"},"bonus":1.2000000000000006},{"rt":207,"stimulus":"bees-with-color/bee-A2DF.svg","response":1,"trial_type":"image-button-response","trial_index":162,"time_elapsed":370558,"internal_node_id":"0.0-6.0-0.26","subject_id":"602a92432b8e88094f75598b","study_id":"60edd13110225f80f9f3709b","session_id":"6196c4a400db091a6a5d36b3","condition":"contingent","relevant_dimensions":["antennae","pattern"],"bee_group":{"antennae":"A","wings":"X","pattern":"D","legs":"X"},"bonus":1.2000000000000006},{"rt":207,"stimulus":"bees-with-color/bee-B1SM.svg","response":1,"trial_type":"image-button-response","trial_index":163,"time_elapsed":370767,"internal_node_id":"0.0-6.0-0.27","subject_id":"602a92432b8e88094f75598b","study_id":"60edd13110225f80f9f3709b","session_id":"6196c4a400db091a6a5d36b3","condition":"contingent","relevant_dimensions":["antennae","pattern"],"bee_group":{"antennae":"A","wings":"X","pattern":"D","legs":"X"},"bonus":1.2000000000000006},{"rt":215,"stimulus":"bees-with-color/bee-A1DM.svg","response":1,"trial_type":"image-button-response","trial_index":164,"time_elapsed":370983,"internal_node_id":"0.0-6.0-0.28","subject_id":"602a92432b8e88094f75598b","study_id":"60edd13110225f80f9f3709b","session_id":"6196c4a400db091a6a5d36b3","condition":"contingent","relevant_dimensions":["antennae","pattern"],"bee_group":{"antennae":"A","wings":"X","pattern":"D","legs":"X"},"bonus":1.2000000000000006},{"rt":414,"stimulus":"bees-with-color/bee-B1DM.svg","response":1,"trial_type":"image-button-response","trial_index":165,"time_elapsed":371399,"internal_node_id":"0.0-6.0-0.29","subject_id":"602a92432b8e88094f75598b","study_id":"60edd13110225f80f9f3709b","session_id":"6196c4a400db091a6a5d36b3","condition":"contingent","relevant_dimensions":["antennae","pattern"],"bee_group":{"antennae":"A","wings":"X","pattern":"D","legs":"X"},"bonus":1.2000000000000006},{"rt":392,"stimulus":"bees-with-color/bee-A2SM.svg","response":1,"trial_type":"image-button-response","trial_index":166,"time_elapsed":371791,"internal_node_id":"0.0-6.0-0.30","subject_id":"602a92432b8e88094f75598b","study_id":"60edd13110225f80f9f3709b","session_id":"6196c4a400db091a6a5d36b3","condition":"contingent","relevant_dimensions":["antennae","pattern"],"bee_group":{"antennae":"A","wings":"X","pattern":"D","legs":"X"},"bonus":1.2000000000000006},{"rt":558,"stimulus":"bees-with-color/bee-A2SF.svg","response":1,"trial_type":"image-button-response","trial_index":167,"time_elapsed":372350,"internal_node_id":"0.0-6.0-0.31","subject_id":"602a92432b8e88094f75598b","study_id":"60edd13110225f80f9f3709b","session_id":"6196c4a400db091a6a5d36b3","condition":"contingent","relevant_dimensions":["antennae","pattern"],"bee_group":{"antennae":"A","wings":"X","pattern":"D","legs":"X"},"bonus":1.2000000000000006},{"rt":3095,"stimulus":"You started with $2.50 of base pay.<br><br>\n            You made $1.20 in bonus pay,\n   