[{"success":true,"trial_type":"fullscreen","trial_index":0,"time_elapsed":6765,"internal_node_id":"0.0-0.0","subject_id":"60268e50f4883632efe2730b","study_id":"6197b3f67c2b5cd3b6d9596a","session_id":"619be31de338501adb282064","condition":"contingent","relevant_dimensions":["antennae","wings"],"bee_group":{"antennae":"B","wings":"2","pattern":"X","legs":"X"},"bonus":0},{"success":true,"timeout":false,"failed_images":[],"failed_audio":[],"failed_video":[],"trial_type":"preload","trial_index":1,"time_elapsed":8526,"internal_node_id":"0.0-1.0","subject_id":"60268e50f4883632efe2730b","study_id":"6197b3f67c2b5cd3b6d9596a","session_id":"619be31de338501adb282064","condition":"contingent","relevant_dimensions":["antennae","wings"],"bee_group":{"antennae":"B","wings":"2","pattern":"X","legs":"X"},"bonus":0},{"rt":1656.9000000953674,"stimulus":"Welcome! Press any key to begin.","response":" ","trial_type":"html-keyboard-response","trial_index":2,"time_elapsed":10183,"internal_node_id":"0.0-2.0","subject_id":"60268e50f4883632efe2730b","study_id":"6197b3f67c2b5cd3b6d9596a","session_id":"619be31de338501adb282064","condition":"contingent","relevant_dimensions":["antennae","wings"],"bee_group":{"antennae":"B","wings":"2","pattern":"X","legs":"X"},"bonus":0},{"view_history":[{"page_index":0,"viewing_time":2328.2000000476837},{"page_index":1,"viewing_time":4641.600000023842},{"page_index":2,"viewing_time":5026},{"page_index":3,"viewing_time":15341.899999976158},{"page_index":4,"viewing_time":4456.5},{"page_index":5,"viewing_time":4847.600000023842},{"page_index":6,"viewing_time":4066.2999999523163},{"page_index":7,"viewing_time":4763.700000047684},{"page_index":8,"viewing_time":2218},{"page_index":9,"viewing_time":1844},{"page_index":10,"viewing_time":2392.100000023842},{"page_index":11,"viewing_time":10324.099999904633},{"page_index":12,"viewing_time":5427.700000047684},{"page_index":13,"viewing_time":1108.2000000476837},{"page_index":14,"viewing_time":1339.8999999761581}],"rt":70126,"trial_type":"instructions","trial_index":3,"time_elapsed":80310,"internal_node_id":"0.0-3.0-0.0","subject_id":"60268e50f4883632efe2730b","study_id":"6197b3f67c2b5cd3b6d9596a","session_id":"619be31de338501adb282064","condition":"contingent","relevant_dimensions":["antennae","wings"],"bee_group":{"antennae":"B","wings":"2","pattern":"X","legs":"X"},"bonus":0},{"rt":13338.300000071526,"response":{"Q0":["Two or six legs","Stripes or spots on body","Single or double wings","Antennae or no antennae"]},"question_order":[0],"trial_type":"survey-multi-select","trial_index":4,"time_elapsed":93651,"internal_node_id":"0.0-3.0-1.0","subject_id":"60268e50f4883632efe2730b","study_id":"6197b3f67c2b5cd3b6d9596a","session_id":"619be31de338501adb282064","condition":"contingent","relevant_dimensions":["antennae","wings"],"bee_group":{"antennae":"B","wings":"2","pattern":"X","legs":"X"},"correct":true,"bonus":0},{"rt":16986.299999952316,"response":{"Q1":"No.","Q2":"Based on the four features of the bee.","Q3":"You do not learn if it was friendly or dangerous, and do not alter your bonus."},"question_order":[0,1,2],"trial_type":"survey-multi-choice","trial_index":5,"time_elapsed":110639,"internal_node_id":"0.0-3.0-2.0","subject_id":"60268e50f4883632efe2730b","study_id":"6197b3f67c2b5cd3b6d9596a","session_id":"619be31de338501adb282064","condition":"contingent","relevant_dimensions":["antennae","wings"],"bee_group":{"antennae":"B","wings":"2","pattern":"X","legs":"X"},"correct":true,"bonus":0},{"rt":2164.8000000715256,"stimulus":"<p>Congrats, you got everything right<br>When you're ready, click the button below to continue to the experiment.</p>","response":0,"trial_type":"html-button-response","trial_index":6,"time_elapsed":112805,"internal_node_id":"0.0-3.0-3.0","subject_id":"60268e50f4883632efe2730b","study_id":"6197b3f67c2b5cd3b6d9596a","session_id":"619be31de338501adb282064","condition":"contingent","relevant_dimensions":["antennae","wings"],"bee_group":{"antennae":"B","wings":"2","pattern":"X","legs":"X"},"bonus":0},{"rt":3958,"stimulus":"bees-with-color/bee-B1SF.svg","response":0,"trial_type":"image-button-response","trial_index":7,"time_elapsed":116764,"internal_node_id":"0.0-4.0-0.0","subject_id":"60268e50f4883632efe2730b","study_id":"6197b3f67c2b5cd3b6d9596a","session_id":"619be31de338501adb282064","condition":"contingent","relevant_dimensions":["antennae","wings"],"bee_group":{"antennae":"B","wings":"2","pattern":"X","legs":"X"},"action":"harvest","summary":"good-harvest","bonus":0},{"rt":6548.399999976158,"stimulus":"\n                    <p><b>Action: <em>harvest</em></b></p>\n                    <p>This is the bee that you just saw.</p>\n                    <img src=\"bees-with-color/bee-B1SF.svg\" width=\"200\">\n                    <p><span class=\"greenText\"><b>Successful harvest!</b></span><br>Your pay has increased by $0.02. Your bonus pay is now $0.56.</p>\n            ","response":0,"trial_type":"html-button-response","trial_index":8,"time_elapsed":123314,"internal_node_id":"0.0-4.0-1.0","subject_id":"60268e50f4883632efe2730b","study_id":"6197b3f67c2b5cd3b6d9596a","session_id":"619be31de338501adb282064","condition":"contingent","relevant_dimensions":["antennae","wings"],"bee_group":{"antennae":"B","wings":"2","pattern":"X","legs":"X"},"bonus":0},{"rt":4542.200000047684,"stimulus":"bees-with-color/bee-A1SF.svg","response":0,"trial_type":"image-button-response","trial_index":9,"time_elapsed":127858,"internal_node_id":"0.0-4.0-0.1","subject_id":"60268e50f4883632efe2730b","study_id":"6197b3f67c2b5cd3b6d9596a","session_id":"619be31de338501adb282064","condition":"contingent","relevant_dimensions":["antennae","wings"],"bee_group":{"antennae":"B","wings":"2","pattern":"X","legs":"X"},"action":"harvest","summary":"good-harvest","bonus":0},{"rt":8530.5,"stimulus":"\n                    <p><b>Action: <em>harvest</em></b></p>\n                    <p>This is the bee that you just saw.</p>\n                    <img src=\"bees-with-color/bee-A1SF.svg\" width=\"200\">\n                    <p><span class=\"greenText\"><b>Successful harvest!</b></span><br>Your pay has increased by $0.02. Your bonus pay is now $0.58.</p>\n            ","response":0,"trial_type":"html-button-response","trial_index":10,"time_elapsed":136390,"internal_node_id":"0.0-4.0-1.1","subject_id":"60268e50f4883632efe2730b","study_id":"6197b3f67c2b5cd3b6d9596a","session_id":"619be31de338501adb282064","condition":"contingent","relevant_dimensions":["antennae","wings"],"bee_group":{"antennae":"B","wings":"2","pattern":"X","legs":"X"},"bonus":0},{"rt":2350.2000000476837,"stimulus":"bees-with-color/bee-A2DM.svg","response":0,"trial_type":"image-button-response","trial_index":11,"time_elapsed":138742,"internal_node_id":"0.0-4.0-0.2","subject_id":"60268e50f4883632efe2730b","study_id":"6197b3f67c2b5cd3b6d9596a","session_id":"619be31de338501adb282064","condition":"contingent","relevant_dimensions":["antennae","wings"],"bee_group":{"antennae":"B","wings":"2","pattern":"X","legs":"X"},"action":"harvest","summary":"good-harvest","bonus":0},{"rt":4628.899999976158,"stimulus":"\n                    <p><b>Action: <em>harvest</em></b></p>\n                    <p>This is the bee that you just saw.</p>\n                    <img src=\"bees-with-color/bee-A2DM.svg\" width=\"200\">\n                    <p><span class=\"greenText\"><b>Successful harvest!</b></span><br>Your pay has increased by $0.02. Your bonus pay is now $0.60.</p>\n            ","response":0,"trial_type":"html-button-response","trial_index":12,"time_elapsed":143372,"internal_node_id":"0.0-4.0-1.2","subject_id":"60268e50f4883632efe2730b","study_id":"6197b3f67c2b5cd3b6d9596a","session_id":"619be31de338501adb282064","condition":"contingent","relevant_dimensions":["antennae","wings"],"bee_group":{"antennae":"B","wings":"2","pattern":"X","legs":"X"},"bonus":0},{"rt":2992.7999999523163,"stimulus":"bees-with-color/bee-B2DM.svg","response":0,"trial_type":"image-button-response","trial_index":13,"time_elapsed":146366,"internal_node_id":"0.0-4.0-0.3","subject_id":"60268e50f4883632efe2730b","study_id":"6197b3f67c2b5cd3b6d9596a","session_id":"619be31de338501adb282064","condition":"contingent","relevant_dimensions":["antennae","wings"],"bee_group":{"antennae":"B","wings":"2","pattern":"X","legs":"X"},"action":"harvest","summary":"bad-harvest","bonus":0},{"rt":6013,"stimulus":"\n                    <p><b>Action: <em>harvest</em></b></p>\n                    <p>This is the bee that you just saw.</p>\n                    <img src=\"bees-with-color/bee-B2DM.svg\" width=\"200\">\n                    <p><span class=\"redText\">Bad choice, the bee was angry.</span><br><b>You have been stung!</b><br>Your pay has been decreased by $0.10. Your bonus pay is now $0.50.</p>\n            ","response":0,"trial_type":"html-button-response","trial_index":14,"time_elapsed":152380,"internal_node_id":"0.0-4.0-1.3","subject_id":"60268e50f4883632efe2730b","study_id":"6197b3f67c2b5cd3b6d9596a","session_id":"619be31de338501adb282064","condition":"contingent","relevant_dimensions":["antennae","wings"],"bee_group":{"antennae":"B","wings":"2","pattern":"X","legs":"X"},"bonus":0},{"rt":5438.700000047684,"stimulus":"bees-with-color/bee-A1SM.svg","response":0,"trial_type":"image-button-response","trial_index":15,"time_elapsed":157820,"internal_node_id":"0.0-4.0-0.4","subject_id":"60268e50f4883632efe2730b","study_id":"6197b3f67c2b5cd3b6d9596a","session_id":"619be31de338501adb282064","condition":"contingent","relevant_dimensions":["antennae","wings"],"bee_group":{"antennae":"B","wings":"2","pattern":"X","legs":"X"},"action":"harvest","summary":"good-harvest","bonus":0},{"rt":2049.5,"stimulus":"\n                    <p><b>Action: <em>harvest</em></b></p>\n                    <p>This is the bee that you just saw.</p>\n                    <img src=\"bees-with-color/bee-A1SM.svg\" width=\"200\">\n                    <p><span class=\"greenText\"><b>Successful harvest!</b></span><br>Your pay has increased by $0.02. Your bonus pay is now $0.52.</p>\n            ","response":0,"trial_type":"html-button-response","trial_index":16,"time_elapsed":159871,"internal_node_id":"0.0-4.0-1.4","subject_id":"60268e50f4883632efe2730b","study_id":"6197b3f67c2b5cd3b6d9596a","session_id":"619be31de338501adb282064","condition":"contingent","relevant_dimensions":["antennae","wings"],"bee_group":{"antennae":"B","wings":"2","pattern":"X","legs":"X"},"bonus":0},{"rt":6470.5,"stimulus":"bees-with-color/bee-B2DF.svg","response":0,"trial_type":"image-button-response","trial_index":17,"time_elapsed":166343,"internal_node_id":"0.0-4.0-0.5","subject_id":"60268e50f4883632efe2730b","study_id":"6197b3f67c2b5cd3b6d9596a","session_id":"619be31de338501adb282064","condition":"contingent","relevant_dimensions":["antennae","wings"],"bee_group":{"antennae":"B","wings":"2","pattern":"X","legs":"X"},"action":"harvest","summary":"bad-harvest","bonus":0},{"rt":2562.5,"stimulus":"\n                    <p><b>Action: <em>harvest</em></b></p>\n                    <p>This is the bee that you just saw.</p>\n                    <img src=\"bees-with-color/bee-B2DF.svg\" width=\"200\">\n                    <p><span class=\"redText\">Bad choice, the bee was angry.</span><br><b>You have been stung!</b><br>Your pay has been decreased by $0.10. Your bonus pay is now $0.42.</p>\n            ","response":0,"trial_type":"html-button-response","trial_index":18,"time_elapsed":168906,"internal_node_id":"0.0-4.0-1.5","subject_id":"60268e50f4883632efe2730b","study_id":"6197b3f67c2b5cd3b6d9596a","session_id":"619be31de338501adb282064","condition":"contingent","relevant_dimensions":["antennae","wings"],"bee_group":{"antennae":"B","wings":"2","pattern":"X","legs":"X"},"bonus":0},{"rt":7400.5,"stimulus":"bees-with-color/bee-A2SM.svg","response":0,"trial_type":"image-button-response","trial_index":19,"time_elapsed":176308,"internal_node_id":"0.0-4.0-0.6","subject_id":"60268e50f4883632efe2730b","study_id":"6197b3f67c2b5cd3b6d9596a","session_id":"619be31de338501adb282064","condition":"contingent","relevant_dimensions":["antennae","wings"],"bee_group":{"antennae":"B","wings":"2","pattern":"X","legs":"X"},"action":"harvest","summary":"good-harvest","bonus":0},{"rt":1764.8000000715256,"stimulus":"\n                    <p><b>Action: <em>harvest</em></b></p>\n                    <p>This is the bee that you just saw.</p>\n                    <img src=\"bees-with-color/bee-A2SM.svg\" width=\"200\">\n                    <p><span class=\"greenText\"><b>Successful harvest!</b></span><br>Your pay has increased by $0.02. Your bonus pay is now $0.44.</p>\n            ","response":0,"trial_type":"html-button-response","trial_index":20,"time_elapsed":178075,"internal_node_id":"0.0-4.0-1.6","subject_id":"60268e50f4883632efe2730b","study_id":"6197b3f67c2b5cd3b6d9596a","session_id":"619be31de338501adb282064","condition":"contingent","relevant_dimensions":["antennae","wings"],"bee_group":{"antennae":"B","wings":"2","pattern":"X","legs":"X"},"bonus":0},{"rt":5698.5,"stimulus":"bees-with-color/bee-A1DM.svg","response":0,"trial_type":"image-button-response","trial_index":21,"time_elapsed":183774,"internal_node_id":"0.0-4.0-0.7","subject_id":"60268e50f4883632efe2730b","study_id":"6197b3f67c2b5cd3b6d9596a","session_id":"619be31de338501adb282064","condition":"contingent","relevant_dimensions":["antennae","wings"],"bee_group":{"antennae":"B","wings":"2","pattern":"X","legs":"X"},"action":"harvest","summary":"good-harvest","bonus":0},{"rt":789.2999999523163,"stimulus":"\n                    <p><b>Action: <em>harvest</em></b></p>\n                    <p>This is the bee that you just saw.</p>\n                    <img src=\"bees-with-color/bee-A1DM.svg\" width=\"200\">\n                    <p><span class=\"greenText\"><b>Successful harvest!</b></span><br>Your pay has increased by $0.02. Your bonus pay is now $0.46.</p>\n            ","response":0,"trial_type":"html-button-response","trial_index":22,"time_elapsed":184565,"internal_node_id":"0.0-4.0-1.7","subject_id":"60268e50f4883632efe2730b","study_id":"6197b3f67c2b5cd3b6d9596a","session_id":"619be31de338501adb282064","condition":"contingent","relevant_dimensions":["antennae","wings"],"bee_group":{"antennae":"B","wings":"2","pattern":"X","legs":"X"},"bonus":0},{"rt":6852.299999952316,"stimulus":"bees-with-color/bee-B2SM.svg","response":1,"trial_type":"image-button-response","trial_index":23,"time_elapsed":191419,"internal_node_id":"0.0-4.0-0.8","subject_id":"60268e50f4883632efe2730b","study_id":"6197b3f67c2b5cd3b6d9596a","session_id":"619be31de338501adb282064","condition":"contingent","relevant_dimensions":["antennae","wings"],"bee_group":{"antennae":"B","wings":"2","pattern":"X","legs":"X"},"action":"avoid","summary":"good-avoid","bonus":0},{"rt":1192.3000000715256,"stimulus":"\n                    <p><b>Action: <em>avoid</em></b></p>\n                    <p>This is the bee that you just saw.</p>\n                    <img src=\"bees-with-color/bee-B2SM.svg\" width=\"200\">\n                    <p><br>Your bonus pay is unchanged, and remains at $0.46.</p>\n            ","response":0,"trial_type":"html-button-response","trial_index":24,"time_elapsed":192612,"internal_node_id":"0.0-4.0-1.8","subject_id":"60268e50f4883632efe2730b","study_id":"6197b3f67c2b5cd3b6d9596a","session_id":"619be31de338501adb282064","condition":"contingent","relevant_dimensions":["antennae","wings"],"bee_group":{"antennae":"B","wings":"2","pattern":"X","legs":"X"},"bonus":0},{"rt":2540.7000000476837,"stimulus":"bees-with-color/bee-A2SF.svg","response":1,"trial_type":"image-button-response","trial_index":25,"time_elapsed":195154,"internal_node_id":"0.0-4.0-0.9","subject_id":"60268e50f4883632efe2730b","study_id":"6197b3f67c2b5cd3b6d9596a","session_id":"619be31de338501adb282064","condition":"contingent","relevant_dimensions":["antennae","wings"],"bee_group":{"antennae":"B","wings":"2","pattern":"X","legs":"X"},"action":"avoid","summary":"bad-avoid","bonus":0},{"rt":2366.899999976158,"stimulus":"\n                    <p><b>Action: <em>avoid</em></b></p>\n                    <p>This is the bee that you just saw.</p>\n                    <img src=\"bees-with-color/bee-A2SF.svg\" width=\"200\">\n                    <p><br>Your bonus pay is unchanged, and remains at $0.46.</p>\n            ","response":0,"trial_type":"html-button-response","trial_index":26,"time_elapsed":197522,"internal_node_id":"0.0-4.0-1.9","subject_id":"60268e50f4883632efe2730b","study_id":"6197b3f67c2b5cd3b6d9596a","session_id":"619be31de338501adb282064","condition":"contingent","relevant_dimensions":["antennae","wings"],"bee_group":{"antennae":"B","wings":"2","pattern":"X","legs":"X"},"bonus":0},{"rt":4326.899999976158,"stimulus":"bees-with-color/bee-B1SM.svg","response":0,"trial_type":"image-button-response","trial_index":27,"time_elapsed":201850,"internal_node_id":"0.0-4.0-0.10","subject_id":"60268e50f4883632efe2730b","study_id":"6197b3f67c2b5cd3b6d9596a","session_id":"619be31de338501adb282064","condition":"contingent","relevant_dimensions":["antennae","wings"],"bee_group":{"antennae":"B","wings":"2","pattern":"X","legs":"X"},"action":"harvest","summary":"good-harvest","bonus":0},{"rt":740.8999999761581,"stimulus":"\n                    <p><b>Action: <em>harvest</em></b></p>\n                    <p>This is the bee that you just saw.</p>\n                    <img src=\"bees-with-color/bee-B1SM.svg\" width=\"200\">\n                    <p><span class=\"greenText\"><b>Successful harvest!</b></span><br>Your pay has increased by $0.02. Your bonus pay is now $0.48.</p>\n            ","response":0,"trial_type":"html-button-response","trial_index":28,"time_elapsed":202592,"internal_node_id":"0.0-4.0-1.10","subject_id":"60268e50f4883632efe2730b","study_id":"6197b3f67c2b5cd3b6d9596a","session_id":"619be31de338501adb282064","condition":"contingent","relevant_dimensions":["antennae","wings"],"bee_group":{"antennae":"B","wings":"2","pattern":"X","legs":"X"},"bonus":0},{"rt":1423.6000000238419,"stimulus":"bees-with-color/bee-A2DF.svg","response":1,"trial_type":"image-button-response","trial_index":29,"time_elapsed":204017,"internal_node_id":"0.0-4.0-0.11","subject_id":"60268e50f4883632efe2730b","study_id":"6197b3f67c2b5cd3b6d9596a","session_id":"619be31de338501adb282064","condition":"contingent","relevant_dimensions":["antennae","wings"],"bee_group":{"antennae":"B","wings":"2","pattern":"X","legs":"X"},"action":"avoid","summary":"bad-avoid","bonus":0},{"rt":888.1000000238419,"stimulus":"\n                    <p><b>Action: <em>avoid</em></b></p>\n                    <p>This is the bee that you just saw.</p>\n                    <img src=\"bees-with-color/bee-A2DF.svg\" width=\"200\">\n                    <p><br>Your bonus pay is unchanged, and remains at $0.48.</p>\n            ","response":0,"trial_type":"html-button-response","trial_index":30,"time_elapsed":204906,"internal_node_id":"0.0-4.0-1.11","subject_id":"60268e50f4883632efe2730b","study_id":"6197b3f67c2b5cd3b6d9596a","session_id":"619be31de338501adb282064","condition":"contingent","relevant_dimensions":["antennae","wings"],"bee_group":{"antennae":"B","wings":"2","pattern":"X","legs":"X"},"bonus":0},{"rt":1779.1000000238419,"stimulus":"bees-with-color/bee-B1DF.svg","response":0,"trial_type":"image-button-response","trial_index":31,"time_elapsed":206686,"internal_node_id":"0.0-4.0-0.12","subject_id":"60268e50f4883632efe2730b","study_id":"6197b3f67c2b5cd3b6d9596a","session_id":"619be31de338501adb282064","condition":"contingent","relevant_dimensions":["antennae","wings"],"bee_group":{"antennae":"B","wings":"2","pattern":"X","legs":"X"},"action":"harvest","summary":"good-harvest","bonus":0},{"rt":797,"stimulus":"\n                    <p><b>Action: <em>harvest</em></b></p>\n                    <p>This is the bee that you just saw.</p>\n                    <img src=\"bees-with-color/bee-B1DF.svg\" width=\"200\">\n                    <p><span class=\"greenText\"><b>Successful harvest!</b></span><br>Your pay has increased by $0.02. Your bonus pay is now $0.50.</p>\n            ","response":0,"trial_type":"html-button-response","trial_index":32,"time_elapsed":207484,"internal_node_id":"0.0-4.0-1.12","subject_id":"60268e50f4883632efe2730b","study_id":"6197b3f67c2b5cd3b6d9596a","session_id":"619be31de338501adb282064","condition":"contingent","relevant_dimensions":["antennae","wings"],"bee_group":{"antennae":"B","wings":"2","pattern":"X","legs":"X"},"bonus":0},{"rt":2653,"stimulus":"bees-with-color/bee-A1DF.svg","response":0,"trial_type":"image-button-response","trial_index":33,"time_elapsed":210138,"internal_node_id":"0.0-4.0-0.13","subject_id":"60268e50f4883632efe2730b","study_id":"6197b3f67c2b5cd3b6d9596a","session_id":"619be31de338501adb282064","condition":"contingent","relevant_dimensions":["antennae","wings"],"bee_group":{"antennae":"B","wings":"2","pattern":"X","legs":"X"},"action":"harvest","summary":"good-harvest","bonus":0},{"rt":665.2000000476837,"stimulus":"\n                    <p><b>Action: <em>harvest</em></b></p>\n                    <p>This is the bee that you just saw.</p>\n                    <img src=\"bees-with-color/bee-A1DF.svg\" width=\"200\">\n                    <p><span class=\"greenText\"><b>Successful harvest!</b></span><br>Your pay has increased by $0.02. Your bonus pay is now $0.52.</p>\n            ","response":0,"trial_type":"html-button-response","trial_index":34,"time_elapsed":210804,"internal_node_id":"0.0-4.0-1.13","subject_id":"60268e50f4883632efe2730b","study_id":"6197b3f67c2b5cd3b6d9596a","session_id":"619be31de338501adb282064","condition":"contingent","relevant_dimensions":["antennae","wings"],"bee_group":{"antennae":"B","wings":"2","pattern":"X","legs":"X"},"bonus":0},{"rt":5158.899999976158,"stimulus":"bees-with-color/bee-B1DM.svg","response":1,"trial_type":"image-button-response","trial_index":35,"time_elapsed":215964,"internal_node_id":"0.0-4.0-0.14","subject_id":"60268e50f4883632efe2730b","study_id":"6197b3f67c2b5cd3b6d9596a","session_id":"619be31de338501adb282064","condition":"contingent","relevant_dimensions":["antennae","wings"],"bee_group":{"antennae":"B","wings":"2","pattern":"X","legs":"X"},"action":"avoid","summary":"bad-avoid","bonus":0},{"rt":639.1000000238419,"stimulus":"\n                    <p><b>Action: <em>avoid</em></b></p>\n                    <p>This is the bee that you just saw.</p>\n                    <img src=\"bees-with-color/bee-B1DM.svg\" width=\"200\">\n                    <p><br>Your bonus pay is unchanged, and remains at $0.52.</p>\n            ","response":0,"trial_type":"html-button-response","trial_index":36,"time_elapsed":216604,"internal_node_id":"0.0-4.0-1.14","subject_id":"60268e50f4883632efe2730b","study_id":"6197b3f67c2b5cd3b6d9596a","session_id":"619be31de338501adb282064","condition":"contingent","relevant_dimensions":["antennae","wings"],"bee_group":{"antennae":"B","wings":"2","pattern":"X","legs":"X"},"bonus":0},{"rt":4640.700000047684,"stimulus":"bees-with-color/bee-B2SF.svg","response":1,"trial_type":"image-button-response","trial_index":37,"time_elapsed":221246,"internal_node_id":"0.0-4.0-0.15","subject_id":"60268e50f4883632efe2730b","study_id":"6197b3f67c2b5cd3b6d9596a","session_id":"619be31de338501adb282064","condition":"contingent","relevant_dimensions":["antennae","wings"],"bee_group":{"antennae":"B","wings":"2","pattern":"X","legs":"X"},"action":"avoid","summary":"good-avoid","bonus":0},{"rt":554.7999999523163,"stimulus":"\n                    <p><b>Action: <em>avoid</em></b></p>\n                    <p>This is the bee that you just saw.</p>\n                    <img src=\"bees-with-color/bee-B2SF.svg\" width=\"200\">\n                    <p><br>Your bonus pay is unchanged, and remains at $0.52.</p>\n            ","response":0,"trial_type":"html-button-response","trial_index":38,"time_elapsed":221802,"internal_node_id":"0.0-4.0-1.15","subject_id":"60268e50f4883632efe2730b","study_id":"6197b3f67c2b5cd3b6d9596a","session_id":"619be31de338501adb282064","condition":"contingent","relevant_dimensions":["antennae","wings"],"bee_group":{"antennae":"B","wings":"2","pattern":"X","legs":"X"},"bonus":0},{"rt":4588.799999952316,"stimulus":"bees-with-color/bee-B1SM.svg","response":0,"trial_type":"image-button-response","trial_index":39,"time_elapsed":226392,"internal_node_id":"0.0-4.0-0.16","subject_id":"60268e50f4883632efe2730b","study_id":"6197b3f67c2b5cd3b6d9596a","session_id":"619be31de338501adb282064","condition":"contingent","relevant_dimensions":["antennae","wings"],"bee_group":{"antennae":"B","wings":"2","pattern":"X","legs":"X"},"action":"harvest","summary":"good-harvest","bonus":0},{"rt":632.8999999761581,"stimulus":"\n                    <p><b>Action: <em>harvest</em></b></p>\n                    <p>This is the bee that you just saw.</p>\n                    <img src=\"bees-with-color/bee-B1SM.svg\" width=\"200\">\n                    <p><span class=\"greenText\"><b>Successful harvest!</b></span><br>Your pay has increased by $0.02. Your bonus pay is now $0.54.</p>\n            ","response":0,"trial_type":"html-button-response","trial_index":40,"time_elapsed":227026,"internal_node_id":"0.0-4.0-1.16","subject_id":"60268e50f4883632efe2730b","study_id":"6197b3f67c2b5cd3b6d9596a","session_id":"619be31de338501adb282064","condition":"contingent","relevant_dimensions":["antennae","wings"],"bee_group":{"antennae":"B","wings":"2","pattern":"X","legs":"X"},"bonus":0},{"rt":2332.7000000476837,"stimulus":"bees-with-color/bee-B1DF.svg","response":1,"trial_type":"image-button-response","trial_index":41,"time_elapsed":229360,"internal_node_id":"0.0-4.0-0.17","subject_id":"60268e50f4883632efe2730b","study_id":"6197b3f67c2b5cd3b6d9596a","session_id":"619be31de338501adb282064","condition":"contingent","relevant_dimensions":["antennae","wings"],"bee_group":{"antennae":"B","wings":"2","pattern":"X","legs":"X"},"action":"avoid","summary":"bad-avoid","bonus":0},{"rt":483.2000000476837,"stimulus":"\n                    <p><b>Action: <em>avoid</em></b></p>\n                    <p>This is the bee that you just saw.</p>\n                    <img src=\"bees-with-color/bee-B1DF.svg\" width=\"200\">\n                    <p><br>Your bonus pay is unchanged, and remains at $0.54.</p>\n            ","response":0,"trial_type":"html-button-response","trial_index":42,"time_elapsed":229844,"internal_node_id":"0.0-4.0-1.17","subject_id":"60268e50f4883632efe2730b","study_id":"6197b3f67c2b5cd3b6d9596a","session_id":"619be31de338501adb282064","condition":"contingent","relevant_dimensions":["antennae","wings"],"bee_group":{"antennae":"B","wings":"2","pattern":"X","legs":"X"},"bonus":0},{"rt":2053.2000000476837,"stimulus":"bees-with-color/bee-A1DF.svg","response":1,"trial_type":"image-button-response","trial_index":43,"time_elapsed":231898,"internal_node_id":"0.0-4.0-0.18","subject_id":"60268e50f4883632efe2730b","study_id":"6197b3f67c2b5cd3b6d9596a","session_id":"619be31de338501adb282064","condition":"contingent","relevant_dimensions":["antennae","wings"],"bee_group":{"antennae":"B","wings":"2","pattern":"X","legs":"X"},"action":"avoid","summary":"bad-avoid","bonus":0},{"rt":370.89999997615814,"stimulus":"\n                    <p><b>Action: <em>avoid</em></b></p>\n                    <p>This is the bee that you just saw.</p>\n                    <img src=\"bees-with-color/bee-A1DF.svg\" width=\"200\">\n                    <p><br>Your bonus pay is unchanged, and remains at $0.54.</p>\n            ","response":0,"trial_type":"html-button-response","trial_index":44,"time_elapsed":232270,"internal_node_id":"0.0-4.0-1.18","subject_id":"60268e50f4883632efe2730b","study_id":"6197b3f67c2b5cd3b6d9596a","session_id":"619be31de338501adb282064","condition":"contingent","relevant_dimensions":["antennae","wings"],"bee_group":{"antennae":"B","wings":"2","pattern":"X","legs":"X"},"bonus":0},{"rt":1647.3999999761581,"stimulus":"bees-with-color/bee-A1SM.svg","response":0,"trial_type":"image-button-response","trial_index":45,"time_elapsed":233918,"internal_node_id":"0.0-4.0-0.19","subject_id":"60268e50f4883632efe2730b","study_id":"6197b3f67c2b5cd3b6d9596a","session_id":"619be31de338501adb282064","condition":"contingent","relevant_dimensions":["antennae","wings"],"bee_group":{"antennae":"B","wings":"2","pattern":"X","legs":"X"},"action":"harvest","summary":"good-harvest","bonus":0},{"rt":641,"stimulus":"\n                    <p><b>Action: <em>harvest</em></b></p>\n                    <p>This is the bee that you just saw.</p>\n                    <img src=\"bees-with-color/bee-A1SM.svg\" width=\"200\">\n                    <p><span class=\"greenText\"><b>Successful harvest!</b></span><br>Your pay has increased by $0.02. Your bonus pay is now $0.56.</p>\n            ","response":0,"trial_type":"html-button-response","trial_index":46,"time_elapsed":234560,"internal_node_id":"0.0-4.0-1.19","subject_id":"60268e50f4883632efe2730b","study_id":"6197b3f67c2b5cd3b6d9596a","session_id":"619be31de338501adb282064","condition":"contingent","relevant_dimensions":["antennae","wings"],"bee_group":{"antennae":"B","wings":"2","pattern":"X","legs":"X"},"bonus":0},{"rt":1561.1000000238419,"stimulus":"bees-with-color/bee-B2SM.svg","response":0,"trial_type":"image-button-response","trial_index":47,"time_elapsed":236122,"internal_node_id":"0.0-4.0-0.20","subject_id":"60268e50f4883632efe2730b","study_id":"6197b3f67c2b5cd3b6d9596a","session_id":"619be31de338501adb282064","condition":"contingent","relevant_dimensions":["antennae","wings"],"bee_group":{"antennae":"B","wings":"2","pattern":"X","legs":"X"},"action":"harvest","summary":"bad-harvest","bonus":0},{"rt":811.1000000238419,"stimulus":"\n                    <p><b>Action: <em>harvest</em></b></p>\n                    <p>This is the bee that you just saw.</p>\n                    <img src=\"bees-with-color/bee-B2SM.svg\" width=\"200\">\n                    <p><span class=\"redText\">Bad choice, the bee was angry.</span><br><b>You have been stung!</b><br>Your pay has been decreased by $0.10. Your bonus pay is now $0.46.</p>\n            ","response":0,"trial_type":"html-button-response","trial_index":48,"time_elapsed":236934,"internal_node_id":"0.0-4.0-1.20","subject_id":"60268e50f4883632efe2730b","study_id":"6197b3f67c2b5cd3b6d9596a","session_id":"619be31de338501adb282064","condition":"contingent","relevant_dimensions":["antennae","wings"],"bee_group":{"antennae":"B","wings":"2","pattern":"X","legs":"X"},"bonus":0},{"rt":1106.7999999523163,"stimulus":"bees-with-color/bee-B2DM.svg","response":0,"trial_type":"image-button-response","trial_index":49,"time_elapsed":238042,"internal_node_id":"0.0-4.0-0.21","subject_id":"60268e50f4883632efe2730b","study_id":"6197b3f67c2b5cd3b6d9596a","session_id":"619be31de338501adb282064","condition":"contingent","relevant_dimensions":["antennae","wings"],"bee_group":{"antennae":"B","wings":"2","pattern":"X","legs":"X"},"action":"harvest","summary":"bad-harvest","bonus":0},{"rt":912.7999999523163,"stimulus":"\n                    <p><b>Action: <em>harvest</em></b></p>\n                    <p>This is the bee that you just saw.</p>\n                    <img src=\"bees-with-color/bee-B2DM.svg\" width=\"200\">\n                    <p><span class=\"redText\">Bad choice, the bee was angry.</span><br><b>You have been stung!</b><br>Your pay has been decreased by $0.10. Your bonus pay is now $0.36.</p>\n            ","response":0,"trial_type":"html-button-response","trial_index":50,"time_elapsed":238956,"internal_node_id":"0.0-4.0-1.21","subject_id":"60268e50f4883632efe2730b","study_id":"6197b3f67c2b5cd3b6d9596a","session_id":"619be31de338501adb282064","condition":"contingent","relevant_dimensions":["antennae","wings"],"bee_group":{"antennae":"B","wings":"2","pattern":"X","legs":"X"},"bonus":0},{"rt":1259.2999999523163,"stimulus":"bees-with-color/bee-B1DM.svg","response":0,"trial_type":"image-button-response","trial_index":51,"time_elapsed":240216,"internal_node_id":"0.0-4.0-0.22","subject_id":"60268e50f4883632efe2730b","study_id":"6197b3f67c2b5cd3b6d9596a","session_id":"619be31de338501adb282064","condition":"contingent","relevant_dimensions":["antennae","wings"],"bee_group":{"antennae":"B","wings":"2","pattern":"X","legs":"X"},"action":"harvest","summary":"good-harvest","bonus":0},{"rt":586.6000000238419,"stimulus":"\n                    <p><b>Action: <em>harvest</em></b></p>\n                    <p>This is the bee that you just saw.</p>\n                    <img src=\"bees-with-color/bee-B1DM.svg\" width=\"200\">\n                    <p><span class=\"greenText\"><b>Successful harvest!</b></span><br>Your pay has increased by $0.02. Your bonus pay is now $0.38.</p>\n            ","response":0,"trial_type":"html-button-response","trial_index":52,"time_elapsed":240804,"internal_node_id":"0.0-4.0-1.22","subject_id":"60268e50f4883632efe2730b","study_id":"6197b3f67c2b5cd3b6d9596a","session_id":"619be31de338501adb282064","condition":"contingent","relevant_dimensions":["antennae","wings"],"bee_group":{"antennae":"B","wings":"2","pattern":"X","legs":"X"},"bonus":0},{"rt":2671,"stimulus":"bees-with-color/bee-A1SF.svg","response":0,"trial_type":"image-button-response","trial_index":53,"time_elapsed":243476,"internal_node_id":"0.0-4.0-0.23","subject_id":"60268e50f4883632efe2730b","study_id":"6197b3f67c2b5cd3b6d9596a","session_id":"619be31de338501adb282064","condition":"contingent","relevant_dimensions":["antennae","wings"],"bee_group":{"antennae":"B","wings":"2","pattern":"X","legs":"X"},"action":"harvest","summary":"good-harvest","bonus":0},{"rt":659.2000000476837,"stimulus":"\n                    <p><b>Action: <em>harvest</em></b></p>\n                    <p>This is the bee that you just saw.</p>\n                    <img src=\"bees-with-color/bee-A1SF.svg\" width=\"200\">\n                    <p><span class=\"greenText\"><b>Successful harvest!</b></span><br>Your pay has increased by $0.02. Your bonus pay is now $0.40.</p>\n            ","response":0,"trial_type":"html-button-response","trial_index":54,"time_elapsed":244136,"internal_node_id":"0.0-4.0-1.23","subject_id":"60268e50f4883632efe2730b","study_id":"6197b3f67c2b5cd3b6d9596a","session_id":"619be31de338501adb282064","condition":"contingent","relevant_dimensions":["antennae","wings"],"bee_group":{"antennae":"B","wings":"2","pattern":"X","legs":"X"},"bonus":0},{"rt":4573,"stimulus":"bees-with-color/bee-B2SF.svg","response":0,"trial_type":"image-button-response","trial_index":55,"time_elapsed":248710,"internal_node_id":"0.0-4.0-0.24","subject_id":"60268e50f4883632efe2730b","study_id":"6197b3f67c2b5cd3b6d9596a","session_id":"619be31de338501adb282064","condition":"contingent","relevant_dimensions":["antennae","wings"],"bee_group":{"antennae":"B","wings":"2","pattern":"X","legs":"X"},"action":"harvest","summary":"bad-harvest","bonus":0},{"rt":602.5,"stimulus":"\n                    <p><b>Action: <em>harvest</em></b></p>\n                    <p>This is the bee that you just saw.</p>\n                    <img src=\"bees-with-color/bee-B2SF.svg\" width=\"200\">\n                    <p><span class=\"redText\">Bad choice, the bee was angry.</span><br><b>You have been stung!</b><br>Your pay has been decreased by $0.10. Your bonus pay is now $0.30.</p>\n            ","response":0,"trial_type":"html-button-response","trial_index":56,"time_elapsed":249314,"internal_node_id":"0.0-4.0-1.24","subject_id":"60268e50f4883632efe2730b","study_id":"6197b3f67c2b5cd3b6d9596a","session_id":"619be31de338501adb282064","condition":"contingent","relevant_dimensions":["antennae","wings"],"bee_group":{"antennae":"B","wings":"2","pattern":"X","legs":"X"},"bonus":0},{"rt":2572.7000000476837,"stimulus":"bees-with-color/bee-A2DF.svg","response":0,"trial_type":"image-button-response","trial_index":57,"time_elapsed":251888,"internal_node_id":"0.0-4.0-0.25","subject_id":"60268e50f4883632efe2730b","study_id":"6197b3f67c2b5cd3b6d9596a","session_id":"619be31de338501adb282064","condition":"contingent","relevant_dimensions":["antennae","wings"],"bee_group":{"antennae":"B","wings":"2","pattern":"X","legs":"X"},"action":"harvest","summary":"good-harvest","bonus":0},{"rt":646.7999999523163,"stimulus":"\n                    <p><b>Action: <em>harvest</em></b></p>\n                    <p>This is the bee that you just saw.</p>\n                    <img src=\"bees-with-color/bee-A2DF.svg\" width=\"200\">\n                    <p><span class=\"greenText\"><b>Successful harvest!</b></span><br>Your pay has increased by $0.02. Your bonus pay is now $0.32.</p>\n            ","response":0,"trial_type":"html-button-response","trial_index":58,"time_elapsed":252536,"internal_node_id":"0.0-4.0-1.25","subject_id":"60268e50f4883632efe2730b","study_id":"6197b3f67c2b5cd3b6d9596a","session_id":"619be31de338501adb282064","condition":"contingent","relevant_dimensions":["antennae","wings"],"bee_group":{"antennae":"B","wings":"2","pattern":"X","legs":"X"},"bonus":0},{"rt":1479.1000000238419,"stimulus":"bees-with-color/bee-B2DF.svg","response":1,"trial_type":"image-button-response","trial_index":59,"time_elapsed":254016,"internal_node_id":"0.0-4.0-0.26","subject_id":"60268e50f4883632efe2730b","study_id":"6197b3f67c2b5cd3b6d9596a","session_id":"619be31de338501adb282064","condition":"contingent","relevant_dimensions":["antennae","wings"],"bee_group":{"antennae":"B","wings":"2","pattern":"X","legs":"X"},"action":"avoid","summary":"good-avoid","bonus":0},{"rt":623.1000000238419,"stimulus":"\n                    <p><b>Action: <em>avoid</em></b></p>\n                    <p>This is the bee that you just saw.</p>\n                    <img src=\"bees-with-color/bee-B2DF.svg\" width=\"200\">\n                    <p><br>Your bonus pay is unchanged, and remains at $0.32.</p>\n            ","response":0,"trial_type":"html-button-response","trial_index":60,"time_elapsed":254640,"internal_node_id":"0.0-4.0-1.26","subject_id":"60268e50f4883632efe2730b","study_id":"6197b3f67c2b5cd3b6d9596a","session_id":"619be31de338501adb282064","condition":"contingent","relevant_dimensions":["antennae","wings"],"bee_group":{"antennae":"B","wings":"2","pattern":"X","legs":"X"},"bonus":0},{"rt":2571.100000023842,"stimulus":"bees-with-color/bee-A2SM.svg","response":0,"trial_type":"image-button-response","trial_index":61,"time_elapsed":257212,"internal_node_id":"0.0-4.0-0.27","subject_id":"60268e50f4883632efe2730b","study_id":"6197b3f67c2b5cd3b6d9596a","session_id":"619be31de338501adb282064","condition":"contingent","relevant_dimensions":["antennae","wings"],"bee_group":{"antennae":"B","wings":"2","pattern":"X","legs":"X"},"action":"harvest","summary":"good-harvest","bonus":0},{"rt":565.1000000238419,"stimulus":"\n                    <p><b>Action: <em>harvest</em></b></p>\n                    <p>This is the bee that you just saw.</p>\n                    <img src=\"bees-with-color/bee-A2SM.svg\" width=\"200\">\n                    <p><span class=\"greenText\"><b>Successful harvest!</b></span><br>Your pay has increased by $0.02. Your bonus pay is now $0.34.</p>\n            ","response":0,"trial_type":"html-button-response","trial_index":62,"time_elapsed":257778,"internal_node_id":"0.0-4.0-1.27","subject_id":"60268e50f4883632efe2730b","study_id":"6197b3f67c2b5cd3b6d9596a","session_id":"619be31de338501adb282064","condition":"contingent","relevant_dimensions":["antennae","wings"],"bee_group":{"antennae":"B","wings":"2","pattern":"X","legs":"X"},"bonus":0},{"rt":2053,"stimulus":"bees-with-color/bee-B1SF.svg","response":0,"trial_type":"image-button-response","trial_index":63,"time_elapsed":259832,"internal_node_id":"0.0-4.0-0.28","subject_id":"60268e50f4883632efe2730b","study_id":"6197b3f67c2b5cd3b6d9596a","session_id":"619be31de338501adb282064","condition":"contingent","relevant_dimensions":["antennae","wings"],"bee_group":{"antennae":"B","wings":"2","pattern":"X","legs":"X"},"action":"harvest","summary":"good-harvest","bonus":0},{"rt":603.1000000238419,"stimulus":"\n                    <p><b>Action: <em>harvest</em></b></p>\n                    <p>This is the bee that you just saw.</p>\n                    <img src=\"bees-with-color/bee-B1SF.svg\" width=\"200\">\n                    <p><span class=\"greenText\"><b>Successful harvest!</b></span><br>Your pay has increased by $0.02. Your bonus pay is now $0.36.</p>\n            ","response":0,"trial_type":"html-button-response","trial_index":64,"time_elapsed":260436,"internal_node_id":"0.0-4.0-1.28","subject_id":"60268e50f4883632efe2730b","study_id":"6197b3f67c2b5cd3b6d9596a","session_id":"619be31de338501adb282064","condition":"contingent","relevant_dimensions":["antennae","wings"],"bee_group":{"antennae":"B","wings":"2","pattern":"X","legs":"X"},"bonus":0},{"rt":6967.300000071526,"stimulus":"bees-with-color/bee-A2DM.svg","response":1,"trial_type":"image-button-response","trial_index":65,"time_elapsed":267404,"internal_node_id":"0.0-4.0-0.29","subject_id":"60268e50f4883632efe2730b","study_id":"6197b3f67c2b5cd3b6d9596a","session_id":"619be31de338501adb282064","condition":"contingent","relevant_dimensions":["antennae","wings"],"bee_group":{"antennae":"B","wings":"2","pattern":"X","legs":"X"},"action":"avoid","summary":"bad-avoid","bonus":0},{"rt":458.60000002384186,"stimulus":"\n                    <p><b>Action: <em>avoid</em></b></p>\n                    <p>This is the bee that you just saw.</p>\n                    <img src=\"bees-with-color/bee-A2DM.svg\" width=\"200\">\n                    <p><br>Your bonus pay is unchanged, and remains at $0.36.</p>\n            ","response":0,"trial_type":"html-button-response","trial_index":66,"time_elapsed":267864,"internal_node_id":"0.0-4.0-1.29","subject_id":"60268e50f4883632efe2730b","study_id":"6197b3f67c2b5cd3b6d9596a","session_id":"619be31de338501adb282064","condition":"contingent","relevant_dimensions":["antennae","wings"],"bee_group":{"antennae":"B","wings":"2","pattern":"X","legs":"X"},"bonus":0},{"rt":1187.8999999761581,"stimulus":"bees-with-color/bee-A2SF.svg","response":0,"trial_type":"image-button-response","trial_index":67,"time_elapsed":269053,"internal_node_id":"0.0-4.0-0.30","subject_id":"60268e50f4883632efe2730b","study_id":"6197b3f67c2b5cd3b6d9596a","session_id":"619be31de338501adb282064","condition":"contingent","relevant_dimensions":["antennae","wings"],"bee_group":{"antennae":"B","wings":"2","pattern":"X","legs":"X"},"action":"harvest","summary":"good-harvest","bonus":0},{"rt":738.5,"stimulus":"\n                    <p><b>Action: <em>harvest</em></b></p>\n                    <p>This is the bee that you just saw.</p>\n                    <img src=\"bees-with-color/bee-A2SF.svg\" width=\"200\">\n                    <p><span class=\"greenText\"><b>Successful harvest!</b></span><br>Your pay has increased by $0.02. Your bonus pay is now $0.38.</p>\n            ","response":0,"trial_type":"html-button-response","trial_index":68,"time_elapsed":269792,"internal_node_id":"0.0-4.0-1.30","subject_id":"60268e50f4883632efe2730b","study_id":"6197b3f67c2b5cd3b6d9596a","session_id":"619be31de338501adb282064","condition":"contingent","relevant_dimensions":["antennae","wings"],"bee_group":{"antennae":"B","wings":"2","pattern":"X","legs":"X"},"bonus":0},{"rt":1578.7999999523163,"stimulus":"bees-with-color/bee-A1DM.svg","response":1,"trial_type":"image-button-response","trial_index":69,"time_elapsed":271372,"internal_node_id":"0.0-4.0-0.31","subject_id":"60268e50f4883632efe2730b","study_id":"6197b3f67c2b5cd3b6d9596a","session_id":"619be31de338501adb282064","condition":"contingent","relevant_dimensions":["antennae","wings"],"bee_group":{"antennae":"B","wings":"2","pattern":"X","legs":"X"},"action":"avoid","summary":"bad-avoid","bonus":0},{"rt":398.89999997615814,"stimulus":"\n                    <p><b>Action: <em>avoid</em></b></p>\n                    <p>This is the bee that you just saw.</p>\n                    <img src=\"bees-with-color/bee-A1DM.svg\" width=\"200\">\n                    <p><br>Your bonus pay is unchanged, and remains at $0.38.</p>\n            ","response":0,"trial_type":"html-button-response","trial_index":70,"time_elapsed":271772,"internal_node_id":"0.0-4.0-1.31","subject_id":"60268e50f4883632efe2730b","study_id":"6197b3f67c2b5cd3b6d9596a","session_id":"619be31de338501adb282064","condition":"contingent","relevant_dimensions":["antennae","wings"],"bee_group":{"antennae":"B","wings":"2","pattern":"X","legs":"X"},"bonus":0},{"rt":1945.1000000238419,"stimulus":"bees-with-color/bee-A1DF.svg","response":0,"trial_type":"image-button-response","trial_index":71,"time_elapsed":273718,"internal_node_id":"0.0-4.0-0.32","subject_id":"60268e50f4883632efe2730b","study_id":"6197b3f67c2b5cd3b6d9596a","session_id":"619be31de338501adb282064","condition":"contingent","relevant_dimensions":["antennae","wings"],"bee_group":{"antennae":"B","wings":"2","pattern":"X","legs":"X"},"action":"harvest","summary":"good-harvest","bonus":0},{"rt":541,"stimulus":"\n                    <p><b>Action: <em>harvest</em></b></p>\n                    <p>This is the bee that you just saw.</p>\n                    <img src=\"bees-with-color/bee-A1DF.svg\" width=\"200\">\n                    <p><span class=\"greenText\"><b>Successful harvest!</b></span><br>Your pay has increased by $0.02. Your bonus pay is now $0.40.</p>\n            ","response":0,"trial_type":"html-button-response","trial_index":72,"time_elapsed":274260,"internal_node_id":"0.0-4.0-1.32","subject_id":"60268e50f4883632efe2730b","study_id":"6197b3f67c2b5cd3b6d9596a","session_id":"619be31de338501adb282064","condition":"contingent","relevant_dimensions":["antennae","wings"],"bee_group":{"antennae":"B","wings":"2","pattern":"X","legs":"X"},"bonus":0},{"rt":1563.1000000238419,"stimulus":"bees-with-color/bee-A2SF.svg","response":1,"trial_type":"image-button-response","trial_index":73,"time_elapsed":275824,"internal_node_id":"0.0-4.0-0.33","subject_id":"60268e50f4883632efe2730b","study_id":"6197b3f67c2b5cd3b6d9596a","session_id":"619be31de338501adb282064","condition":"contingent","relevant_dimensions":["antennae","wings"],"bee_group":{"antennae":"B","wings":"2","pattern":"X","legs":"X"},"action":"avoid","summary":"bad-avoid","bonus":0},{"rt":396.89999997615814,"stimulus":"\n                    <p><b>Action: <em>avoid</em></b></p>\n                    <p>This is the bee that you just saw.</p>\n                    <img src=\"bees-with-color/bee-A2SF.svg\" width=\"200\">\n                    <p><br>Your bonus pay is unchanged, and remains at $0.40.</p>\n            ","response":0,"trial_type":"html-button-response","trial_index":74,"time_elapsed":276222,"internal_node_id":"0.0-4.0-1.33","subject_id":"60268e50f4883632efe2730b","study_id":"6197b3f67c2b5cd3b6d9596a","session_id":"619be31de338501adb282064","condition":"contingent","relevant_dimensions":["antennae","wings"],"bee_group":{"antennae":"B","wings":"2","pattern":"X","legs":"X"},"bonus":0},{"rt":1162.8999999761581,"stimulus":"bees-with-color/bee-A1SM.svg","response":0,"trial_type":"image-button-response","trial_index":75,"time_elapsed":277386,"internal_node_id":"0.0-4.0-0.34","subject_id":"60268e50f4883632efe2730b","study_id":"6197b3f67c2b5cd3b6d9596a","session_id":"619be31de338501adb282064","condition":"contingent","relevant_dimensions":["antennae","wings"],"bee_group":{"antennae":"B","wings":"2","pattern":"X","legs":"X"},"action":"harvest","summary":"good-harvest","bonus":0},{"rt":535.1000000238419,"stimulus":"\n                    <p><b>Action: <em>harvest</em></b></p>\n                    <p>This is the bee that you just saw.</p>\n                    <img src=\"bees-with-color/bee-A1SM.svg\" width=\"200\">\n                    <p><span class=\"greenText\"><b>Successful harvest!</b></span><br>Your pay has increased by $0.02. Your bonus pay is now $0.42.</p>\n            ","response":0,"trial_type":"html-button-response","trial_index":76,"time_elapsed":277922,"internal_node_id":"0.0-4.0-1.34","subject_id":"60268e50f4883632efe2730b","study_id":"6197b3f67c2b5cd3b6d9596a","session_id":"619be31de338501adb282064","condition":"contingent","relevant_dimensions":["antennae","wings"],"bee_group":{"antennae":"B","wings":"2","pattern":"X","legs":"X"},"bonus":0},{"rt":1026,"stimulus":"bees-with-color/bee-B1DF.svg","response":1,"trial_type":"image-button-response","trial_index":77,"time_elapsed":278949,"internal_node_id":"0.0-4.0-0.35","subject_id":"60268e50f4883632efe2730b","study_id":"6197b3f67c2b5cd3b6d9596a","session_id":"619be31de338501adb282064","condition":"contingent","relevant_dimensions":["antennae","wings"],"bee_group":{"antennae":"B","wings":"2","pattern":"X","legs":"X"},"action":"avoid","summary":"bad-avoid","bonus":0},{"rt":393,"stimulus":"\n                    <p><b>Action: <em>avoid</em></b></p>\n                    <p>This is the bee that you just saw.</p>\n                    <img src=\"bees-with-color/bee-B1DF.svg\" width=\"200\">\n                    <p><br>Your bonus pay is unchanged, and remains at $0.42.</p>\n            ","response":0,"trial_type":"html-button-response","trial_index":78,"time_elapsed":279343,"internal_node_id":"0.0-4.0-1.35","subject_id":"60268e50f4883632efe2730b","study_id":"6197b3f67c2b5cd3b6d9596a","session_id":"619be31de338501adb282064","condition":"contingent","relevant_dimensions":["antennae","wings"],"bee_group":{"antennae":"B","wings":"2","pattern":"X","legs":"X"},"bonus":0},{"rt":1798.1000000238419,"stimulus":"bees-with-color/bee-A2SM.svg","response":1,"trial_type":"image-button-response","trial_index":79,"time_elapsed":281142,"internal_node_id":"0.0-4.0-0.36","subject_id":"60268e50f4883632efe2730b","study_id":"6197b3f67c2b5cd3b6d9596a","session_id":"619be31de338501adb282064","condition":"contingent","relevant_dimensions":["antennae","wings"],"bee_group":{"antennae":"B","wings":"2","pattern":"X","legs":"X"},"action":"avoid","summary":"bad-avoid","bonus":0},{"rt":335.10000002384186,"stimulus":"\n                    <p><b>Action: <em>avoid</em></b></p>\n                    <p>This is the bee that you just saw.</p>\n                    <img src=\"bees-with-color/bee-A2SM.svg\" width=\"200\">\n                    <p><br>Your bonus pay is unchanged, and remains at $0.42.</p>\n            ","response":0,"trial_type":"html-button-response","trial_index":80,"time_elapsed":281478,"internal_node_id":"0.0-4.0-1.36","subject_id":"60268e50f4883632efe2730b","study_id":"6197b3f67c2b5cd3b6d9596a","session_id":"619be31de338501adb282064","condition":"contingent","relevant_dimensions":["antennae","wings"],"bee_group":{"antennae":"B","wings":"2","pattern":"X","legs":"X"},"bonus":0},{"rt":1024.8999999761581,"stimulus":"bees-with-color/bee-A2DM.svg","response":0,"trial_type":"image-button-response","trial_index":81,"time_elapsed":282504,"internal_node_id":"0.0-4.0-0.37","subject_id":"60268e50f4883632efe2730b","study_id":"6197b3f67c2b5cd3b6d9596a","session_id":"619be31de338501adb282064","condition":"contingent","relevant_dimensions":["antennae","wings"],"bee_group":{"antennae":"B","wings":"2","pattern":"X","legs":"X"},"action":"harvest","summary":"good-harvest","bonus":0},{"rt":631.2000000476837,"stimulus":"\n                    <p><b>Action: <em>harvest</em></b></p>\n                    <p>This is the bee that you just saw.</p>\n                    <img src=\"bees-with-color/bee-A2DM.svg\" width=\"200\">\n                    <p><span class=\"greenText\"><b>Successful harvest!</b></span><br>Your pay has increased by $0.02. Your bonus pay is now $0.44.</p>\n            ","response":0,"trial_type":"html-button-response","trial_index":82,"time_elapsed":283136,"internal_node_id":"0.0-4.0-1.37","subject_id":"60268e50f4883632efe2730b","study_id":"6197b3f67c2b5cd3b6d9596a","session_id":"619be31de338501adb282064","condition":"contingent","relevant_dimensions":["antennae","wings"],"bee_group":{"antennae":"B","wings":"2","pattern":"X","legs":"X"},"bonus":0},{"rt":1863.5,"stimulus":"bees-with-color/bee-B2SM.svg","response":1,"trial_type":"image-button-response","trial_index":83,"time_elapsed":285000,"internal_node_id":"0.0-4.0-0.38","subject_id":"60268e50f4883632efe2730b","study_id":"6197b3f67c2b5cd3b6d9596a","session_id":"619be31de338501adb282064","condition":"contingent","relevant_dimensions":["antennae","wings"],"bee_group":{"antennae":"B","wings":"2","pattern":"X","legs":"X"},"action":"avoid","summary":"good-avoid","bonus":0},{"rt":395,"stimulus":"\n                    <p><b>Action: <em>avoid</em></b></p>\n                    <p>This is the bee that you just saw.</p>\n                    <img src=\"bees-with-color/bee-B2SM.svg\" width=\"200\">\n                    <p><br>Your bonus pay is unchanged, and remains at $0.44.</p>\n            ","response":0,"trial_type":"html-button-response","trial_index":84,"time_elapsed":285396,"internal_node_id":"0.0-4.0-1.38","subject_id":"60268e50f4883632efe2730b","study_id":"6197b3f67c2b5cd3b6d9596a","session_id":"619be31de338501adb282064","condition":"contingent","relevant_dimensions":["antennae","wings"],"bee_group":{"antennae":"B","wings":"2","pattern":"X","legs":"X"},"bonus":0},{"rt":1320.7999999523163,"stimulus":"bees-with-color/bee-B2SF.svg","response":0,"trial_type":"image-button-response","trial_index":85,"time_elapsed":286718,"internal_node_id":"0.0-4.0-0.39","subject_id":"60268e50f4883632efe2730b","study_id":"6197b3f67c2b5cd3b6d9596a","session_id":"619be31de338501adb282064","condition":"contingent","relevant_dimensions":["antennae","wings"],"bee_group":{"antennae":"B","wings":"2","pattern":"X","legs":"X"},"action":"harvest","summary":"bad-harvest","bonus":0},{"rt":591.1000000238419,"stimulus":"\n                    <p><b>Action: <em>harvest</em></b></p>\n                    <p>This is the bee that you just saw.</p>\n                    <img src=\"bees-with-color/bee-B2SF.svg\" width=\"200\">\n                    <p><span class=\"redText\">Bad choice, the bee was angry.</span><br><b>You have been stung!</b><br>Your pay has been decreased by $0.10. Your bonus pay is now $0.34.</p>\n            ","response":0,"trial_type":"html-button-response","trial_index":86,"time_elapsed":287310,"internal_node_id":"0.0-4.0-1.39","subject_id":"60268e50f4883632efe2730b","study_id":"6197b3f67c2b5cd3b6d9596a","session_id":"619be31de338501adb282064","condition":"contingent","relevant_dimensions":["antennae","wings"],"bee_group":{"antennae":"B","wings":"2","pattern":"X","legs":"X"},"bonus":0},{"rt":1235.1000000238419,"stimulus":"bees-with-color/bee-B1DM.svg","response":0,"trial_type":"image-button-response","trial_index":87,"time_elapsed":288546,"internal_node_id":"0.0-4.0-0.40","subject_id":"60268e50f4883632efe2730b","study_id":"6197b3f67c2b5cd3b6d9596a","session_id":"619be31de338501adb282064","condition":"contingent","relevant_dimensions":["antennae","wings"],"bee_group":{"antennae":"B","wings":"2","pattern":"X","legs":"X"},"action":"harvest","summary":"good-harvest","bonus":0},{"rt":507,"stimulus":"\n                    <p><b>Action: <em>harvest</em></b></p>\n                    <p>This is the bee that you just saw.</p>\n                    <img src=\"bees-with-color/bee-B1DM.svg\" width=\"200\">\n                    <p><span class=\"greenText\"><b>Successful harvest!</b></span><br>Your pay has increased by $0.02. Your bonus pay is now $0.36.</p>\n            ","response":0,"trial_type":"html-button-response","trial_index":88,"time_elapsed":289054,"internal_node_id":"0.0-4.0-1.40","subject_id":"60268e50f4883632efe2730b","study_id":"6197b3f67c2b5cd3b6d9596a","session_id":"619be31de338501adb282064","condition":"contingent","relevant_dimensions":["antennae","wings"],"bee_group":{"antennae":"B","wings":"2","pattern":"X","legs":"X"},"bonus":0},{"rt":1451.2000000476837,"stimulus":"bees-with-color/bee-B2DM.svg","response":0,"trial_type":"image-button-response","trial_index":89,"time_elapsed":290506,"internal_node_id":"0.0-4.0-0.41","subject_id":"60268e50f4883632efe2730b","study_id":"6197b3f67c2b5cd3b6d9596a","session_id":"619be31de338501adb282064","condition":"contingent","relevant_dimensions":["antennae","wings"],"bee_group":{"antennae":"B","wings":"2","pattern":"X","legs":"X"},"action":"harvest","summary":"bad-harvest","bonus":0},{"rt":715,"stimulus":"\n                    <p><b>Action: <em>harvest</em></b></p>\n                    <p>This is the bee that you just saw.</p>\n                    <img src=\"bees-with-color/bee-B2DM.svg\" width=\"200\">\n                    <p><span class=\"redText\">Bad choice, the bee was angry.</span><br><b>You have been stung!</b><br>Your pay has been decreased by $0.10. Your bonus pay is now $0.26.</p>\n            ","response":0,"trial_type":"html-button-response","trial_index":90,"time_elapsed":291222,"internal_node_id":"0.0-4.0-1.41","subject_id":"60268e50f4883632efe2730b","study_id":"6197b3f67c2b5cd3b6d9596a","session_id":"619be31de338501adb282064","condition":"contingent","relevant_dimensions":["antennae","wings"],"bee_group":{"antennae":"B","wings":"2","pattern":"X","legs":"X"},"bonus":0},{"rt":1009,"stimulus":"bees-with-color/bee-B1SM.svg","response":0,"trial_type":"image-button-response","trial_index":91,"time_elapsed":292232,"internal_node_id":"0.0-4.0-0.42","subject_id":"60268e50f4883632efe2730b","study_id":"6197b3f67c2b5cd3b6d9596a","session_id":"619be31de338501adb282064","condition":"contingent","relevant_dimensions":["antennae","wings"],"bee_group":{"antennae":"B","wings":"2","pattern":"X","legs":"X"},"action":"harvest","summary":"good-harvest","bonus":0},{"rt":526.7999999523163,"stimulus":"\n                    <p><b>Action: <em>harvest</em></b></p>\n                    <p>This is the bee that you just saw.</p>\n                    <img src=\"bees-with-color/bee-B1SM.svg\" width=\"200\">\n                    <p><span class=\"greenText\"><b>Successful harvest!</b></span><br>Your pay has increased by $0.02. Your bonus pay is now $0.28.</p>\n            ","response":0,"trial_type":"html-button-response","trial_index":92,"time_elapsed":292760,"internal_node_id":"0.0-4.0-1.42","subject_id":"60268e50f4883632efe2730b","study_id":"6197b3f67c2b5cd3b6d9596a","session_id":"619be31de338501adb282064","condition":"contingent","relevant_dimensions":["antennae","wings"],"bee_group":{"antennae":"B","wings":"2","pattern":"X","legs":"X"},"bonus":0},{"rt":1623.2000000476837,"stimulus":"bees-with-color/bee-A2DF.svg","response":1,"trial_type":"image-button-response","trial_index":93,"time_elapsed":294384,"internal_node_id":"0.0-4.0-0.43","subject_id":"60268e50f4883632efe2730b","study_id":"6197b3f67c2b5cd3b6d9596a","session_id":"619be31de338501adb282064","condition":"contingent","relevant_dimensions":["antennae","wings"],"bee_group":{"antennae":"B","wings":"2","pattern":"X","legs":"X"},"action":"avoid","summary":"bad-avoid","bonus":0},{"rt":402.7999999523163,"stimulus":"\n                    <p><b>Action: <em>avoid</em></b></p>\n                    <p>This is the bee that you just saw.</p>\n                    <img src=\"bees-with-color/bee-A2DF.svg\" width=\"200\">\n                    <p><br>Your bonus pay is unchanged, and remains at $0.28.</p>\n            ","response":0,"trial_type":"html-button-response","trial_index":94,"time_elapsed":294788,"internal_node_id":"0.0-4.0-1.43","subject_id":"60268e50f4883632efe2730b","study_id":"6197b3f67c2b5cd3b6d9596a","session_id":"619be31de338501adb282064","condition":"contingent","relevant_dimensions":["antennae","wings"],"bee_group":{"antennae":"B","wings":"2","pattern":"X","legs":"X"},"bonus":0},{"rt":867,"stimulus":"bees-with-color/bee-B1SF.svg","response":0,"trial_type":"image-button-response","trial_index":95,"time_elapsed":295656,"internal_node_id":"0.0-4.0-0.44","subject_id":"60268e50f4883632efe2730b","study_id":"6197b3f67c2b5cd3b6d9596a","session_id":"619be31de338501adb282064","condition":"contingent","relevant_dimensions":["antennae","wings"],"bee_group":{"antennae":"B","wings":"2","pattern":"X","legs":"X"},"action":"harvest","summary":"good-harvest","bonus":0},{"rt":472.7999999523163,"stimulus":"\n                    <p><b>Action: <em>harvest</em></b></p>\n                    <p>This is the bee that you just saw.</p>\n                    <img src=\"bees-with-color/bee-B1SF.svg\" width=\"200\">\n                    <p><span class=\"greenText\"><b>Successful harvest!</b></span><br>Your pay has increased by $0.02. Your bonus pay is now $0.30.</p>\n            ","response":0,"trial_type":"html-button-response","trial_index":96,"time_elapsed":296130,"internal_node_id":"0.0-4.0-1.44","subject_id":"60268e50f4883632efe2730b","study_id":"6197b3f67c2b5cd3b6d9596a","session_id":"619be31de338501adb282064","condition":"contingent","relevant_dimensions":["antennae","wings"],"bee_group":{"antennae":"B","wings":"2","pattern":"X","legs":"X"},"bonus":0},{"rt":735.4000000953674,"stimulus":"bees-with-color/bee-A1DM.svg","response":1,"trial_type":"image-button-response","trial_index":97,"time_elapsed":296866,"internal_node_id":"0.0-4.0-0.45","subject_id":"60268e50f4883632efe2730b","study_id":"6197b3f67c2b5cd3b6d9596a","session_id":"619be31de338501adb282064","condition":"contingent","relevant_dimensions":["antennae","wings"],"bee_group":{"antennae":"B","wings":"2","pattern":"X","legs":"X"},"action":"avoid","summary":"bad-avoid","bonus":0},{"rt":380.7999999523163,"stimulus":"\n                    <p><b>Action: <em>avoid</em></b></p>\n                    <p>This is the bee that you just saw.</p>\n                    <img src=\"bees-with-color/bee-A1DM.svg\" width=\"200\">\n                    <p><br>Your bonus pay is unchanged, and remains at $0.30.</p>\n            ","response":0,"trial_type":"html-button-response","trial_index":98,"time_elapsed":297248,"internal_node_id":"0.0-4.0-1.45","subject_id":"60268e50f4883632efe2730b","study_id":"6197b3f67c2b5cd3b6d9596a","session_id":"619be31de338501adb282064","condition":"contingent","relevant_dimensions":["antennae","wings"],"bee_group":{"antennae":"B","wings":"2","pattern":"X","legs":"X"},"bonus":0},{"rt":789.2000000476837,"stimulus":"bees-with-color/bee-B2DF.svg","response":0,"trial_type":"image-button-response","trial_index":99,"time_elapsed":298038,"internal_node_id":"0.0-4.0-0.46","subject_id":"60268e50f4883632efe2730b","study_id":"6197b3f67c2b5cd3b6d9596a","session_id":"619be31de338501adb282064","condition":"contingent","relevant_dimensions":["antennae","wings"],"bee_group":{"antennae":"B","wings":"2","pattern":"X","legs":"X"},"action":"harvest","summary":"bad-harvest","bonus":0},{"rt":725.2000000476837,"stimulus":"\n                    <p><b>Action: <em>harvest</em></b></p>\n                    <p>This is the bee that you just saw.</p>\n                    <img src=\"bees-with-color/bee-B2DF.svg\" width=\"200\">\n                    <p><span class=\"redText\">Bad choice, the bee was angry.</span><br><b>You have been stung!</b><br>Your pay has been decreased by $0.10. Your bonus pay is now $0.20.</p>\n            ","response":0,"trial_type":"html-button-response","trial_index":100,"time_elapsed":298764,"internal_node_id":"0.0-4.0-1.46","subject_id":"60268e50f4883632efe2730b","study_id":"6197b3f67c2b5cd3b6d9596a","session_id":"619be31de338501adb282064","condition":"contingent","relevant_dimensions":["antennae","wings"],"bee_group":{"antennae":"B","wings":"2","pattern":"X","legs":"X"},"bonus":0},{"rt":663,"stimulus":"bees-with-color/bee-A1SF.svg","response":0,"trial_type":"image-button-response","trial_index":101,"time_elapsed":299428,"internal_node_id":"0.0-4.0-0.47","subject_id":"60268e50f4883632efe2730b","study_id":"6197b3f67c2b5cd3b6d9596a","session_id":"619be31de338501adb282064","condition":"contingent","relevant_dimensions":["antennae","wings"],"bee_group":{"antennae":"B","wings":"2","pattern":"X","legs":"X"},"action":"harvest","summary":"good-harvest","bonus":0},{"rt":467.10000002384186,"stimulus":"\n                    <p><b>Action: <em>harvest</em></b></p>\n                    <p>This is the bee that you just saw.</p>\n                    <img src=\"bees-with-color/bee-A1SF.svg\" width=\"200\">\n                    <p><span class=\"greenText\"><b>Successful harvest!</b></span><br>Your pay has increased by $0.02. Your bonus pay is now $0.22.</p>\n            ","response":0,"trial_type":"html-button-response","trial_index":102,"time_elapsed":299896,"internal_node_id":"0.0-4.0-1.47","subject_id":"60268e50f4883632efe2730b","study_id":"6197b3f67c2b5cd3b6d9596a","session_id":"619be31de338501adb282064","condition":"contingent","relevant_dimensions":["antennae","wings"],"bee_group":{"antennae":"B","wings":"2","pattern":"X","legs":"X"},"bonus":0},{"rt":868.8999999761581,"stimulus":"bees-with-color/bee-A2DM.svg","response":0,"trial_type":"image-button-response","trial_index":103,"time_elapsed":300766,"internal_node_id":"0.0-4.0-0.48","subject_id":"60268e50f4883632efe2730b","study_id":"6197b3f67c2b5cd3b6d9596a","session_id":"619be31de338501adb282064","condition":"contingent","relevant_dimensions":["antennae","wings"],"bee_group":{"antennae":"B","wings":"2","pattern":"X","legs":"X"},"action":"harvest","summary":"good-harvest","bonus":0},{"rt":520.6999999284744,"stimulus":"\n                    <p><b>Action: <em>harvest</em></b></p>\n                    <p>This is the bee that you just saw.</p>\n                    <img src=\"bees-with-color/bee-A2DM.svg\" width=\"200\">\n                    <p><span class=\"greenText\"><b>Successful harvest!</b></span><br>Your pay has increased by $0.02. Your bonus pay is now $0.24.</p>\n            ","response":0,"trial_type":"html-button-response","trial_index":104,"time_elapsed":301288,"internal_node_id":"0.0-4.0-1.48","subject_id":"60268e50f4883632efe2730b","study_id":"6197b3f67c2b5cd3b6d9596a","session_id":"619be31de338501adb282064","condition":"contingent","relevant_dimensions":["antennae","wings"],"bee_group":{"antennae":"B","wings":"2","pattern":"X","legs":"X"},"bonus":0},{"rt":1313.1000000238419,"stimulus":"bees-with-color/bee-B1SF.svg","response":0,"trial_type":"image-button-response","trial_index":105,"time_elapsed":302602,"internal_node_id":"0.0-4.0-0.49","subject_id":"60268e50f4883632efe2730b","study_id":"6197b3f67c2b5cd3b6d9596a","session_id":"619be31de338501adb282064","condition":"contingent","relevant_dimensions":["antennae","wings"],"bee_group":{"antennae":"B","wings":"2","pattern":"X","legs":"X"},"action":"harvest","summary":"good-harvest","bonus":0},{"rt":459.2000000476837,"stimulus":"\n                    <p><b>Action: <em>harvest</em></b></p>\n                    <p>This is the bee that you just saw.</p>\n                    <img src=\"bees-with-color/bee-B1SF.svg\" width=\"200\">\n                    <p><span class=\"greenText\"><b>Successful harvest!</b></span><br>Your pay has increased by $0.02. Your bonus pay is now $0.26.</p>\n            ","response":0,"trial_type":"html-button-response","trial_index":106,"time_elapsed":303062,"internal_node_id":"0.0-4.0-1.49","subject_id":"60268e50f4883632efe2730b","study_id":"6197b3f67c2b5cd3b6d9596a","session_id":"619be31de338501adb282064","condition":"contingent","relevant_dimensions":["antennae","wings"],"bee_group":{"antennae":"B","wings":"2","pattern":"X","legs":"X"},"bonus":0},{"rt":1593,"stimulus":"bees-with-color/bee-B2SF.svg","response":1,"trial_type":"image-button-response","trial_index":107,"time_elapsed":304656,"internal_node_id":"0.0-4.0-0.50","subject_id":"60268e50f4883632efe2730b","study_id":"6197b3f67c2b5cd3b6d9596a","session_id":"619be31de338501adb282064","condition":"contingent","relevant_dimensions":["antennae","wings"],"bee_group":{"antennae":"B","wings":"2","pattern":"X","legs":"X"},"action":"avoid","summary":"good-avoid","bonus":0},{"rt":399.2000000476837,"stimulus":"\n                    <p><b>Action: <em>avoid</em></b></p>\n                    <p>This is the bee that you just saw.</p>\n                    <img src=\"bees-with-color/bee-B2SF.svg\" width=\"200\">\n                    <p><br>Your bonus pay is unchanged, and remains at $0.26.</p>\n            ","response":0,"trial_type":"html-button-response","trial_index":108,"time_elapsed":305056,"internal_node_id":"0.0-4.0-1.50","subject_id":"60268e50f4883632efe2730b","study_id":"6197b3f67c2b5cd3b6d9596a","session_id":"619be31de338501adb282064","condition":"contingent","relevant_dimensions":["antennae","wings"],"bee_group":{"antennae":"B","wings":"2","pattern":"X","legs":"X"},"bonus":0},{"rt":1687,"stimulus":"bees-with-color/bee-A2SF.svg","response":0,"trial_type":"image-button-response","trial_index":109,"time_elapsed":306744,"internal_node_id":"0.0-4.0-0.51","subject_id":"60268e50f4883632efe2730b","study_id":"6197b3f67c2b5cd3b6d9596a","session_id":"619be31de338501adb282064","condition":"contingent","relevant_dimensions":["antennae","wings"],"bee_group":{"antennae":"B","wings":"2","pattern":"X","legs":"X"},"action":"harvest","summary":"good-harvest","bonus":0},{"rt":486.7000000476837,"stimulus":"\n                    <p><b>Action: <em>harvest</em></b></p>\n                    <p>This is the bee that you just saw.</p>\n                    <img src=\"bees-with-color/bee-A2SF.svg\" width=\"200\">\n                    <p><span class=\"greenText\"><b>Successful harvest!</b></span><br>Your pay has increased by $0.02. Your bonus pay is now $0.28.</p>\n            ","response":0,"trial_type":"html-button-response","trial_index":110,"time_elapsed":307232,"internal_node_id":"0.0-4.0-1.51","subject_id":"60268e50f4883632efe2730b","study_id":"6197b3f67c2b5cd3b6d9596a","session_id":"619be31de338501adb282064","condition":"contingent","relevant_dimensions":["antennae","wings"],"bee_group":{"antennae":"B","wings":"2","pattern":"X","legs":"X"},"bonus":0},{"rt":1165.1000000238419,"stimulus":"bees-with-color/bee-B2DF.svg","response":1,"trial_type":"image-button-response","trial_index":111,"time_elapsed":308398,"internal_node_id":"0.0-4.0-0.52","subject_id":"60268e50f4883632efe2730b","study_id":"6197b3f67c2b5cd3b6d9596a","session_id":"619be31de338501adb282064","condition":"contingent","relevant_dimensions":["antennae","wings"],"bee_group":{"antennae":"B","wings":"2","pattern":"X","legs":"X"},"action":"avoid","summary":"good-avoid","bonus":0},{"rt":606.8999999761581,"stimulus":"\n                    <p><b>Action: <em>avoid</em></b></p>\n                    <p>This is the bee that you just saw.</p>\n                    <img src=\"bees-with-color/bee-B2DF.svg\" width=\"200\">\n                    <p><br>Your bonus pay is unchanged, and remains at $0.28.</p>\n            ","response":0,"trial_type":"html-button-response","trial_index":112,"time_elapsed":309006,"internal_node_id":"0.0-4.0-1.52","subject_id":"60268e50f4883632efe2730b","study_id":"6197b3f67c2b5cd3b6d9596a","session_id":"619be31de338501adb282064","condition":"contingent","relevant_dimensions":["antennae","wings"],"bee_group":{"antennae":"B","wings":"2","pattern":"X","legs":"X"},"bonus":0},{"rt":1137,"stimulus":"bees-with-color/bee-A1SM.svg","response":0,"trial_type":"image-button-response","trial_index":113,"time_elapsed":310144,"internal_node_id":"0.0-4.0-0.53","subject_id":"60268e50f4883632efe2730b","study_id":"6197b3f67c2b5cd3b6d9596a","session_id":"619be31de338501adb282064","condition":"contingent","relevant_dimensions":["antennae","wings"],"bee_group":{"antennae":"B","wings":"2","pattern":"X","legs":"X"},"action":"harvest","summary":"good-harvest","bonus":0},{"rt":535,"stimulus":"\n                    <p><b>Action: <em>harvest</em></b></p>\n                    <p>This is the bee that you just saw.</p>\n                    <img src=\"bees-with-color/bee-A1SM.svg\" width=\"200\">\n                    <p><span class=\"greenText\"><b>Successful harvest!</b></span><br>Your pay has increased by $0.02. Your bonus pay is now $0.30.</p>\n            ","response":0,"trial_type":"html-button-response","trial_index":114,"time_elapsed":310680,"internal_node_id":"0.0-4.0-1.53","subject_id":"60268e50f4883632efe2730b","study_id":"6197b3f67c2b5cd3b6d9596a","session_id":"619be31de338501adb282064","condition":"contingent","relevant_dimensions":["antennae","wings"],"bee_group":{"antennae":"B","wings":"2","pattern":"X","legs":"X"},"bonus":0},{"rt":1103.2000000476837,"stimulus":"bees-with-color/bee-B1DM.svg","response":1,"trial_type":"image-button-response","trial_index":115,"time_elapsed":311784,"internal_node_id":"0.0-4.0-0.54","subject_id":"60268e50f4883632efe2730b","study_id":"6197b3f67c2b5cd3b6d9596a","session_id":"619be31de338501adb282064","condition":"contingent","relevant_dimensions":["antennae","wings"],"bee_group":{"antennae":"B","wings":"2","pattern":"X","legs":"X"},"action":"avoid","summary":"bad-avoid","bonus":0},{"rt":384.60000002384186,"stimulus":"\n                    <p><b>Action: <em>avoid</em></b></p>\n                    <p>This is the bee that you just saw.</p>\n                    <img src=\"bees-with-color/bee-B1DM.svg\" width=\"200\">\n                    <p><br>Your bonus pay is unchanged, and remains at $0.30.</p>\n            ","response":0,"trial_type":"html-button-response","trial_index":116,"time_elapsed":312170,"internal_node_id":"0.0-4.0-1.54","subject_id":"60268e50f4883632efe2730b","study_id":"6197b3f67c2b5cd3b6d9596a","session_id":"619be31de338501adb282064","condition":"contingent","relevant_dimensions":["antennae","wings"],"bee_group":{"antennae":"B","wings":"2","pattern":"X","legs":"X"},"bonus":0},{"rt":991.2999999523163,"stimulus":"bees-with-color/bee-A2SM.svg","response":1,"trial_type":"image-button-response","trial_index":117,"time_elapsed":313162,"internal_node_id":"0.0-4.0-0.55","subject_id":"60268e50f4883632efe2730b","study_id":"6197b3f67c2b5cd3b6d9596a","session_id":"619be31de338501adb282064","condition":"contingent","relevant_dimensions":["antennae","wings"],"bee_group":{"antennae":"B","wings":"2","pattern":"X","legs":"X"},"action":"avoid","summary":"bad-avoid","bonus":0},{"rt":581.2000000476837,"stimulus":"\n                    <p><b>Action: <em>avoid</em></b></p>\n                    <p>This is the bee that you just saw.</p>\n                    <img src=\"bees-with-color/bee-A2SM.svg\" width=\"200\">\n                    <p><br>Your bonus pay is unchanged, and remains at $0.30.</p>\n            ","response":0,"trial_type":"html-button-response","trial_index":118,"time_elapsed":313744,"internal_node_id":"0.0-4.0-1.55","subject_id":"60268e50f4883632efe2730b","study_id":"6197b3f67c2b5cd3b6d9596a","session_id":"619be31de338501adb282064","condition":"contingent","relevant_dimensions":["antennae","wings"],"bee_group":{"antennae":"B","wings":"2","pattern":"X","legs":"X"},"bonus":0},{"rt":1623.1000000238419,"stimulus":"bees-with-color/bee-A1DM.svg","response":1,"trial_type":"image-button-response","trial_index":119,"time_elapsed":315368,"internal_node_id":"0.0-4.0-0.56","subject_id":"60268e50f4883632efe2730b","study_id":"6197b3f67c2b5cd3b6d9596a","session_id":"619be31de338501adb282064","condition":"contingent","relevant_dimensions":["antennae","wings"],"bee_group":{"antennae":"B","wings":"2","pattern":"X","legs":"X"},"action":"avoid","summary":"bad-avoid","bonus":0},{"rt":344.89999997615814,"stimulus":"\n                    <p><b>Action: <em>avoid</em></b></p>\n                    <p>This is the bee that you just saw.</p>\n                    <img src=\"bees-with-color/bee-A1DM.svg\" width=\"200\">\n                    <p><br>Your bonus pay is unchanged, and remains at $0.30.</p>\n            ","response":0,"trial_type":"html-button-response","trial_index":120,"time_elapsed":315714,"internal_node_id":"0.0-4.0-1.56","subject_id":"60268e50f4883632efe2730b","study_id":"6197b3f67c2b5cd3b6d9596a","session_id":"619be31de338501adb282064","condition":"contingent","relevant_dimensions":["antennae","wings"],"bee_group":{"antennae":"B","wings":"2","pattern":"X","legs":"X"},"bonus":0},{"rt":785.5,"stimulus":"bees-with-color/bee-B1SM.svg","response":0,"trial_type":"image-button-response","trial_index":121,"time_elapsed":316500,"internal_node_id":"0.0-4.0-0.57","subject_id":"60268e50f4883632efe2730b","study_id":"6197b3f67c2b5cd3b6d9596a","session_id":"619be31de338501adb282064","condition":"contingent","relevant_dimensions":["antennae","wings"],"bee_group":{"antennae":"B","wings":"2","pattern":"X","legs":"X"},"action":"harvest","summary":"good-harvest","bonus":0},{"rt":740.6000000238419,"stimulus":"\n                    <p><b>Action: <em>harvest</em></b></p>\n                    <p>This is the bee that you just saw.</p>\n                    <img src=\"bees-with-color/bee-B1SM.svg\" width=\"200\">\n                    <p><span class=\"greenText\"><b>Successful harvest!</b></span><br>Your pay has increased by $0.02. Your bonus pay is now $0.32.</p>\n            ","response":0,"trial_type":"html-button-response","trial_index":122,"time_elapsed":317242,"internal_node_id":"0.0-4.0-1.57","subject_id":"60268e50f4883632efe2730b","study_id":"6197b3f67c2b5cd3b6d9596a","session_id":"619be31de338501adb282064","condition":"contingent","relevant_dimensions":["antennae","wings"],"bee_group":{"antennae":"B","wings":"2","pattern":"X","legs":"X"},"bonus":0},{"rt":1137,"stimulus":"bees-with-color/bee-B2DM.svg","response":0,"trial_type":"image-button-response","trial_index":123,"time_elapsed":318380,"internal_node_id":"0.0-4.0-0.58","subject_id":"60268e50f4883632efe2730b","study_id":"6197b3f67c2b5cd3b6d9596a","session_id":"619be31de338501adb282064","condition":"contingent","relevant_dimensions":["antennae","wings"],"bee_group":{"antennae":"B","wings":"2","pattern":"X","legs":"X"},"action":"harvest","summary":"bad-harvest","bonus":0},{"rt":767.2999999523163,"stimulus":"\n                    <p><b>Action: <em>harvest</em></b></p>\n                    <p>This is the bee that you just saw.</p>\n                    <img src=\"bees-with-color/bee-B2DM.svg\" width=\"200\">\n                    <p><span class=\"redText\">Bad choice, the bee was angry.</span><br><b>You have been stung!</b><br>Your pay has been decreased by $0.10. Your bonus pay is now $0.22.</p>\n            ","response":0,"trial_type":"html-button-response","trial_index":124,"time_elapsed":319148,"internal_node_id":"0.0-4.0-1.58","subject_id":"60268e50f4883632efe2730b","study_id":"6197b3f67c2b5cd3b6d9596a","session_id":"619be31de338501adb282064","condition":"contingent","relevant_dimensions":["antennae","wings"],"bee_group":{"antennae":"B","wings":"2","pattern":"X","legs":"X"},"bonus":0},{"rt":1695.5,"stimulus":"bees-with-color/bee-A2DF.svg","response":0,"trial_type":"image-button-response","trial_index":125,"time_elapsed":320845,"internal_node_id":"0.0-4.0-0.59","subject_id":"60268e50f4883632efe2730b","study_id":"6197b3f67c2b5cd3b6d9596a","session_id":"619be31de338501adb282064","condition":"contingent","relevant_dimensions":["antennae","wings"],"bee_group":{"antennae":"B","wings":"2","pattern":"X","legs":"X"},"action":"harvest","summary":"good-harvest","bonus":0},{"rt":486.7000000476837,"stimulus":"\n                    <p><b>Action: <em>harvest</em></b></p>\n                    <p>This is the bee that you just saw.</p>\n                    <img src=\"bees-with-color/bee-A2DF.svg\" width=\"200\">\n                    <p><span class=\"greenText\"><b>Successful harvest!</b></span><br>Your pay has increased by $0.02. Your bonus pay is now $0.24.</p>\n            ","response":0,"trial_type":"html-button-response","trial_index":126,"time_elapsed":321332,"internal_node_id":"0.0-4.0-1.59","subject_id":"60268e50f4883632efe2730b","study_id":"6197b3f67c2b5cd3b6d9596a","session_id":"619be31de338501adb282064","condition":"contingent","relevant_dimensions":["antennae","wings"],"bee_group":{"antennae":"B","wings":"2","pattern":"X","legs":"X"},"bonus":0},{"rt":1362.8999999761581,"stimulus":"bees-with-color/bee-B2SM.svg","response":0,"trial_type":"image-button-response","trial_index":127,"time_elapsed":322696,"internal_node_id":"0.0-4.0-0.60","subject_id":"60268e50f4883632efe2730b","study_id":"6197b3f67c2b5cd3b6d9596a","session_id":"619be31de338501adb282064","condition":"contingent","relevant_dimensions":["antennae","wings"],"bee_group":{"antennae":"B","wings":"2","pattern":"X","legs":"X"},"action":"harvest","summary":"bad-harvest","bonus":0},{"rt":711,"stimulus":"\n                    <p><b>Action: <em>harvest</em></b></p>\n                    <p>This is the bee that you just saw.</p>\n                    <img src=\"bees-with-color/bee-B2SM.svg\" width=\"200\">\n                    <p><span class=\"redText\">Bad choice, the bee was angry.</span><br><b>You have been stung!</b><br>Your pay has been decreased by $0.10. Your bonus pay is now $0.14.</p>\n            ","response":0,"trial_type":"html-button-response","trial_index":128,"time_elapsed":323408,"internal_node_id":"0.0-4.0-1.60","subject_id":"60268e50f4883632efe2730b","study_id":"6197b3f67c2b5cd3b6d9596a","session_id":"619be31de338501adb282064","condition":"contingent","relevant_dimensions":["antennae","wings"],"bee_group":{"antennae":"B","wings":"2","pattern":"X","legs":"X"},"bonus":0},{"rt":455.10000002384186,"stimulus":"bees-with-color/bee-A1DF.svg","response":0,"trial_type":"image-button-response","trial_index":129,"time_elapsed":323864,"internal_node_id":"0.0-4.0-0.61","subject_id":"60268e50f4883632efe2730b","study_id":"6197b3f67c2b5cd3b6d9596a","session_id":"619be31de338501adb282064","condition":"contingent","relevant_dimensions":["antennae","wings"],"bee_group":{"antennae":"B","wings":"2","pattern":"X","legs":"X"},"action":"harvest","summary":"good-harvest","bonus":0},{"rt":517.1000000238419,"stimulus":"\n                    <p><b>Action: <em>harvest</em></b></p>\n                    <p>This is the bee that you just saw.</p>\n                    <img src=\"bees-with-color/bee-A1DF.svg\" width=\"200\">\n                    <p><span class=\"greenText\"><b>Successful harvest!</b></span><br>Your pay has increased by $0.02. Your bonus pay is now $0.16.</p>\n            ","response":0,"trial_type":"html-button-response","trial_index":130,"time_elapsed":324382,"internal_node_id":"0.0-4.0-1.61","subject_id":"60268e50f4883632efe2730b","study_id":"6197b3f67c2b5cd3b6d9596a","session_id":"619be31de338501adb282064","condition":"contingent","relevant_dimensions":["antennae","wings"],"bee_group":{"antennae":"B","wings":"2","pattern":"X","legs":"X"},"bonus":0},{"rt":499,"stimulus":"bees-with-color/bee-A1SF.svg","response":0,"trial_type":"image-button-response","trial_index":131,"time_elapsed":324882,"internal_node_id":"0.0-4.0-0.62","subject_id":"60268e50f4883632efe2730b","study_id":"6197b3f67c2b5cd3b6d9596a","session_id":"619be31de338501adb282064","condition":"contingent","relevant_dimensions":["antennae","wings"],"bee_group":{"antennae":"B","wings":"2","pattern":"X","legs":"X"},"action":"harvest","summary":"good-harvest","bonus":0},{"rt":438.7000000476837,"stimulus":"\n                    <p><b>Action: <em>harvest</em></b></p>\n                    <p>This is the bee that you just saw.</p>\n                    <img src=\"bees-with-color/bee-A1SF.svg\" width=\"200\">\n                    <p><span class=\"greenText\"><b>Successful harvest!</b></span><br>Your pay has increased by $0.02. Your bonus pay is now $0.18.</p>\n            ","response":0,"trial_type":"html-button-response","trial_index":132,"time_elapsed":325322,"internal_node_id":"0.0-4.0-1.62","subject_id":"60268e50f4883632efe2730b","study_id":"6197b3f67c2b5cd3b6d9596a","session_id":"619be31de338501adb282064","condition":"contingent","relevant_dimensions":["antennae","wings"],"bee_group":{"antennae":"B","wings":"2","pattern":"X","legs":"X"},"bonus":0},{"rt":720.8999999761581,"stimulus":"bees-with-color/bee-B1DF.svg","response":0,"trial_type":"image-button-response","trial_index":133,"time_elapsed":326044,"internal_node_id":"0.0-4.0-0.63","subject_id":"60268e50f4883632efe2730b","study_id":"6197b3f67c2b5cd3b6d9596a","session_id":"619be31de338501adb282064","condition":"contingent","relevant_dimensions":["antennae","wings"],"bee_group":{"antennae":"B","wings":"2","pattern":"X","legs":"X"},"action":"harvest","summary":"good-harvest","bonus":0},{"rt":421.10000002384186,"stimulus":"\n                    <p><b>Action: <em>harvest</em></b></p>\n                    <p>This is the bee that you just saw.</p>\n                    <img src=\"bees-with-color/bee-B1DF.svg\" width=\"200\">\n                    <p><span class=\"greenText\"><b>Successful harvest!</b></span><br>Your pay has increased by $0.02. Your bonus pay is now $0.20.</p>\n            ","response":0,"trial_type":"html-button-response","trial_index":134,"time_elapsed":326466,"internal_node_id":"0.0-4.0-1.63","subject_id":"60268e50f4883632efe2730b","study_id":"6197b3f67c2b5cd3b6d9596a","session_id":"619be31de338501adb282064","condition":"contingent","relevant_dimensions":["antennae","wings"],"bee_group":{"antennae":"B","wings":"2","pattern":"X","legs":"X"},"bonus":0},{"rt":5834.799999952316,"stimulus":"You have completed the first part of this experiment.<br><br>You will now begin a shorter second part, in which you will receive no feedback.<br>The same rules regarding bonus pay apply.<br><br>Press any key to begin.","response":" ","trial_type":"html-keyboard-response","trial_index":135,"time_elapsed":332302,"internal_node_id":"0.0-5.0","subject_id":"60268e50f4883632efe2730b","study_id":"6197b3f67c2b5cd3b6d9596a","session_id":"619be31de338501adb282064","condition":"contingent","relevant_dimensions":["antennae","wings"],"bee_group":{"antennae":"B","wings":"2","pattern":"X","legs":"X"},"bonus":0},{"rt":1593.1000000238419,"stimulus":"bees-with-color/bee-A2SF.svg","response":0,"trial_type":"image-button-response","trial_index":136,"time_elapsed":333900,"internal_node_id":"0.0-6.0-0.0","subject_id":"60268e50f4883632efe2730b","study_id":"6197b3f67c2b5cd3b6d9596a","session_id":"619be31de338501adb282064","condition":"contingent","relevant_dimensions":["antennae","wings"],"bee_group":{"antennae":"B","wings":"2","pattern":"X","legs":"X"},"bonus":0},{"rt":1220.7000000476837,"stimulus":"bees-with-color/bee-B1DM.svg","response":1,"trial_type":"image-button-response","trial_index":137,"time_elapsed":335122,"internal_node_id":"0.0-6.0-0.1","subject_id":"60268e50f4883632efe2730b","study_id":"6197b3f67c2b5cd3b6d9596a","session_id":"619be31de338501adb282064","condition":"contingent","relevant_dimensions":["antennae","wings"],"bee_group":{"antennae":"B","wings":"2","pattern":"X","legs":"X"},"bonus":0},{"rt":1106.5,"stimulus":"bees-with-color/bee-B2SF.svg","response":1,"trial_type":"image-button-response","trial_index":138,"time_elapsed":336230,"internal_node_id":"0.0-6.0-0.2","subject_id":"60268e50f4883632efe2730b","study_id":"6197b3f67c2b5cd3b6d9596a","session_id":"619be31de338501adb282064","condition":"contingent","relevant_dimensions":["antennae","wings"],"bee_group":{"antennae":"B","wings":"2","pattern":"X","legs":"X"},"bonus":0},{"rt":1326.6000000238419,"stimulus":"bees-with-color/bee-A1SM.svg","response":1,"trial_type":"image-button-response","trial_index":139,"time_elapsed":337558,"internal_node_id":"0.0-6.0-0.3","subject_id":"60268e50f4883632efe2730b","study_id":"6197b3f67c2b5cd3b6d9596a","session_id":"619be31de338501adb282064","condition":"contingent","relevant_dimensions":["antennae","wings"],"bee_group":{"antennae":"B","wings":"2","pattern":"X","legs":"X"},"bonus":0},{"rt":1438.6000000238419,"stimulus":"bees-with-color/bee-A2DM.svg","response":1,"trial_type":"image-button-response","trial_index":140,"time_elapsed":338998,"internal_node_id":"0.0-6.0-0.4","subject_id":"60268e50f4883632efe2730b","study_id":"6197b3f67c2b5cd3b6d9596a","session_id":"619be31de338501adb282064","condition":"contingent","relevant_dimensions":["antennae","wings"],"bee_group":{"antennae":"B","wings":"2","pattern":"X","legs":"X"},"bonus":0},{"rt":836.6000000238419,"stimulus":"bees-with-color/bee-A1DM.svg","response":0,"trial_type":"image-button-response","trial_index":141,"time_elapsed":339836,"internal_node_id":"0.0-6.0-0.5","subject_id":"60268e50f4883632efe2730b","study_id":"6197b3f67c2b5cd3b6d9596a","session_id":"619be31de338501adb282064","condition":"contingent","relevant_dimensions":["antennae","wings"],"bee_group":{"antennae":"B","wings":"2","pattern":"X","legs":"X"},"bonus":0},{"rt":801.1000000238419,"stimulus":"bees-with-color/bee-B2DF.svg","response":0,"trial_type":"image-button-response","trial_index":142,"time_elapsed":340638,"internal_node_id":"0.0-6.0-0.6","subject_id":"60268e50f4883632efe2730b","study_id":"6197b3f67c2b5cd3b6d9596a","session_id":"619be31de338501adb282064","condition":"contingent","relevant_dimensions":["antennae","wings"],"bee_group":{"antennae":"B","wings":"2","pattern":"X","legs":"X"},"bonus":0},{"rt":1266.1000000238419,"stimulus":"bees-with-color/bee-A1SF.svg","response":0,"trial_type":"image-button-response","trial_index":143,"time_elapsed":341906,"internal_node_id":"0.0-6.0-0.7","subject_id":"60268e50f4883632efe2730b","study_id":"6197b3f67c2b5cd3b6d9596a","session_id":"619be31de338501adb282064","condition":"contingent","relevant_dimensions":["antennae","wings"],"bee_group":{"antennae":"B","wings":"2","pattern":"X","legs":"X"},"bonus":0},{"rt":599.1000000238419,"stimulus":"bees-with-color/bee-B1SM.svg","response":1,"trial_type":"image-button-response","trial_index":144,"time_elapsed":342507,"internal_node_id":"0.0-6.0-0.8","subject_id":"60268e50f4883632efe2730b","study_id":"6197b3f67c2b5cd3b6d9596a","session_id":"619be31de338501adb282064","condition":"contingent","relevant_dimensions":["antennae","wings"],"bee_group":{"antennae":"B","wings":"2","pattern":"X","legs":"X"},"bonus":0},{"rt":720.2000000476837,"stimulus":"bees-with-color/bee-A1DF.svg","response":1,"trial_type":"image-button-response","trial_index":145,"time_elapsed":343228,"internal_node_id":"0.0-6.0-0.9","subject_id":"60268e50f4883632efe2730b","study_id":"6197b3f67c2b5cd3b6d9596a","session_id":"619be31de338501adb282064","condition":"contingent","relevant_dimensions":["antennae","wings"],"bee_group":{"antennae":"B","wings":"2","pattern":"X","legs":"X"},"bonus":0},{"rt":294.2999999523163,"stimulus":"bees-with-color/bee-A2SM.svg","response":0,"trial_type":"image-button-response","trial_index":146,"time_elapsed":343524,"internal_node_id":"0.0-6.0-0.10","subject_id":"60268e50f4883632efe2730b","study_id":"6197b3f67c2b5cd3b6d9596a","session_id":"619be31de338501adb282064","condition":"contingent","relevant_dimensions":["antennae","wings"],"bee_group":{"antennae":"B","wings":"2","pattern":"X","legs":"X"},"bonus":0},{"rt":296.5,"stimulus":"bees-with-color/bee-B1SF.svg","response":0,"trial_type":"image-button-response","trial_index":147,"time_elapsed":343822,"internal_node_id":"0.0-6.0-0.11","subject_id":"60268e50f4883632efe2730b","study_id":"6197b3f67c2b5cd3b6d9596a","session_id":"619be31de338501adb282064","condition":"contingent","relevant_dimensions":["antennae","wings"],"bee_group":{"antennae":"B","wings":"2","pattern":"X","legs":"X"},"bonus":0},{"rt":332.6999999284744,"stimulus":"bees-with-color/bee-B1DF.svg","response":1,"trial_type":"image-button-response","trial_index":148,"time_elapsed":344156,"internal_node_id":"0.0-6.0-0.12","subject_id":"60268e50f4883632efe2730b","study_id":"6197b3f67c2b5cd3b6d9596a","session_id":"619be31de338501adb282064","condition":"contingent","relevant_dimensions":["antennae","wings"],"bee_group":{"antennae":"B","wings":"2","pattern":"X","legs":"X"},"bonus":0},{"rt":481.1999999284744,"stimulus":"bees-with-color/bee-A2DF.svg","response":0,"trial_type":"image-button-response","trial_index":149,"time_elapsed":344638,"internal_node_id":"0.0-6.0-0.13","subject_id":"60268e50f4883632efe2730b","study_id":"6197b3f67c2b5cd3b6d9596a","session_id":"619be31de338501adb282064","condition":"contingent","relevant_dimensions":["antennae","wings"],"bee_group":{"antennae":"B","wings":"2","pattern":"X","legs":"X"},"bonus":0},{"rt":170.10000002384186,"stimulus":"bees-with-color/bee-B2DM.svg","response":0,"trial_type":"image-button-response","trial_index":150,"time_elapsed":344810,"internal_node_id":"0.0-6.0-0.14","subject_id":"60268e50f4883632efe2730b","study_id":"6197b3f67c2b5cd3b6d9596a","session_id":"619be31de338501adb282064","condition":"contingent","relevant_dimensions":["antennae","wings"],"bee_group":{"antennae":"B","wings":"2","pattern":"X","legs":"X"},"bonus":0},{"rt":436.6999999284744,"stimulus":"bees-with-color/bee-B2SM.svg","response":0,"trial_type":"image-button-response","trial_index":151,"time_elapsed":345248,"internal_node_id":"0.0-6.0-0.15","subject_id":"60268e50f4883632efe2730b","study_id":"6197b3f67c2b5cd3b6d9596a","session_id":"619be31de338501adb282064","condition":"contingent","relevant_dimensions":["antennae","wings"],"bee_group":{"antennae":"B","wings":"2","pattern":"X","legs":"X"},"bonus":0},{"rt":450.7999999523163,"stimulus":"bees-with-color/bee-B1DF.svg","response":1,"trial_type":"image-button-response","trial_index":152,"time_elapsed":345700,"internal_node_id":"0.0-6.0-0.16","subject_id":"60268e50f4883632efe2730b","study_id":"6197b3f67c2b5cd3b6d9596a","session_id":"619be31de338501adb282064","condition":"contingent","relevant_dimensions":["antennae","wings"],"bee_group":{"antennae":"B","wings":"2","pattern":"X","legs":"X"},"bonus":0},{"rt":390.89999997615814,"stimulus":"bees-with-color/bee-B1SF.svg","response":0,"trial_type":"image-button-response","trial_index":153,"time_elapsed":346092,"internal_node_id":"0.0-6.0-0.17","subject_id":"60268e50f4883632efe2730b","study_id":"6197b3f67c2b5cd3b6d9596a","session_id":"619be31de338501adb282064","condition":"contingent","relevant_dimensions":["antennae","wings"],"bee_group":{"antennae":"B","wings":"2","pattern":"X","legs":"X"},"bonus":0},{"rt":515,"stimulus":"bees-with-color/bee-B2DM.svg","response":1,"trial_type":"image-button-response","trial_index":154,"time_elapsed":346608,"internal_node_id":"0.0-6.0-0.18","subject_id":"60268e50f4883632efe2730b","study_id":"6197b3f67c2b5cd3b6d9596a","session_id":"619be31de338501adb282064","condition":"contingent","relevant_dimensions":["antennae","wings"],"bee_group":{"antennae":"B","wings":"2","pattern":"X","legs":"X"},"bonus":0},{"rt":217.20000004768372,"stimulus":"bees-with-color/bee-A1DM.svg","response":1,"trial_type":"image-button-response","trial_index":155,"time_elapsed":346826,"internal_node_id":"0.0-6.0-0.19","subject_id":"60268e50f4883632efe2730b","study_id":"6197b3f67c2b5cd3b6d9596a","session_id":"619be31de338501adb282064","condition":"contingent","relevant_dimensions":["antennae","wings"],"bee_group":{"antennae":"B","wings":"2","pattern":"X","legs":"X"},"bonus":0},{"rt":366.89999997615814,"stimulus":"bees-with-color/bee-A2SM.svg","response":0,"trial_type":"image-button-response","trial_index":156,"time_elapsed":347194,"internal_node_id":"0.0-6.0-0.20","subject_id":"60268e50f4883632efe2730b","study_id":"6197b3f67c2b5cd3b6d9596a","session_id":"619be31de338501adb282064","condition":"contingent","relevant_dimensions":["antennae","wings"],"bee_group":{"antennae":"B","wings":"2","pattern":"X","legs":"X"},"bonus":0},{"rt":468.7999999523163,"stimulus":"bees-with-color/bee-A2DM.svg","response":0,"trial_type":"image-button-response","trial_index":157,"time_elapsed":347664,"internal_node_id":"0.0-6.0-0.21","subject_id":"60268e50f4883632efe2730b","study_id":"6197b3f67c2b5cd3b6d9596a","session_id":"619be31de338501adb282064","condition":"contingent","relevant_dimensions":["antennae","wings"],"bee_group":{"antennae":"B","wings":"2","pattern":"X","legs":"X"},"bonus":0},{"rt":256.89999997615814,"stimulus":"bees-with-color/bee-B2SM.svg","response":0,"trial_type":"image-button-response","trial_index":158,"time_elapsed":347922,"internal_node_id":"0.0-6.0-0.22","subject_id":"60268e50f4883632efe2730b","study_id":"6197b3f67c2b5cd3b6d9596a","session_id":"619be31de338501adb282064","condition":"contingent","relevant_dimensions":["antennae","wings"],"bee_group":{"antennae":"B","wings":"2","pattern":"X","legs":"X"},"bonus":0},{"rt":966.8999999761581,"stimulus":"bees-with-color/bee-A2SF.svg","response":1,"trial_type":"image-button-response","trial_index":159,"time_elapsed":348890,"internal_node_id":"0.0-6.0-0.23","subject_id":"60268e50f4883632efe2730b","study_id":"6197b3f67c2b5cd3b6d9596a","session_id":"619be31de338501adb282064","condition":"contingent","relevant_dimensions":["antennae","wings"],"bee_group":{"antennae":"B","wings":"2","pattern":"X","legs":"X"},"bonus":0},{"rt":399.10000002384186,"stimulus":"bees-with-color/bee-A2DF.svg","response":0,"trial_type":"image-button-response","trial_index":160,"time_elapsed":349290,"internal_node_id":"0.0-6.0-0.24","subject_id":"60268e50f4883632efe2730b","study_id":"6197b3f67c2b5cd3b6d9596a","session_id":"619be31de338501adb282064","condition":"contingent","relevant_dimensions":["antennae","wings"],"bee_group":{"antennae":"B","wings":"2","pattern":"X","legs":"X"},"bonus":0},{"rt":912.6000000238419,"stimulus":"bees-with-color/bee-B1SM.svg","response":0,"trial_type":"image-button-response","trial_index":161,"time_elapsed":350204,"internal_node_id":"0.0-6.0-0.25","subject_id":"60268e50f4883632efe2730b","study_id":"6197b3f67c2b5cd3b6d9596a","session_id":"619be31de338501adb282064","condition":"contingent","relevant_dimensions":["antennae","wings"],"bee_group":{"antennae":"B","wings":"2","pattern":"X","legs":"X"},"bonus":0},{"rt":764.8999999761581,"stimulus":"bees-with-color/bee-A1SF.svg","response":0,"trial_type":"image-button-response","trial_index":162,"time_elapsed":350970,"internal_node_id":"0.0-6.0-0.26","subject_id":"60268e50f4883632efe2730b","study_id":"6197b3f67c2b5cd3b6d9596a","session_id":"619be31de338501adb282064","condition":"contingent","relevant_dimensions":["antennae","wings"],"bee_group":{"antennae":"B","wings":"2","pattern":"X","legs":"X"},"bonus":0},{"rt":468.89999997615814,"stimulus":"bees-with-color/bee-A1DF.svg","response":1,"trial_type":"image-button-response","trial_index":163,"time_elapsed":351440,"internal_node_id":"0.0-6.0-0.27","subject_id":"60268e50f4883632efe2730b","study_id":"6197b3f67c2b5cd3b6d9596a","session_id":"619be31de338501adb282064","condition":"contingent","relevant_dimensions":["antennae","wings"],"bee_group":{"antennae":"B","wings":"2","pattern":"X","legs":"X"},"bonus":0},{"rt":426.89999997615814,"stimulus":"bees-with-color/bee-A1SM.svg","response":0,"trial_type":"image-button-response","trial_index":164,"time_elapsed":351868,"internal_node_id":"0.0-6.0-0.28","subject_id":"60268e50f4883632efe2730b","study_id":"6197b3f67c2b5cd3b6d9596a","session_id":"619be31de338501adb282064","condition":"contingent","relevant_dimensions":["antennae","wings"],"bee_group":{"antennae":"B","wings":"2","pattern":"X","legs":"X"},"bonus":0},{"rt":769,"stimulus":"bees-with-color/bee-B2SF.svg","response":0,"trial_type":"image-button-response","trial_index":165,"time_elapsed":352638,"internal_node_id":"0.0-6.0-0.29","subject_id":"60268e50f4883632efe2730b","study_id":"6197b3f67c2b5cd3b6d9596a","session_id":"619be31de338501adb282064","condition":"contingent","relevant_dimensions":["antennae","wings"],"bee_group":{"antennae":"B","wings":"2","pattern":"X","legs":"X"},"bonus":0},{"rt":486.39999997615814,"stimulus":"bees-with-color/bee-B1DM.svg","response":1,"trial_type":"image-button-response","trial_index":166,"time_elapsed":353126,"internal_node_id":"0.0-6.0-0.30","subject_id":"60268e50f4883632efe2730b","study_id":"6197b3f67c2b5cd3b6d9596a","session_id":"619be31de338501adb282064","condition":"contingent","relevant_dimensions":["antennae","wings"],"bee_group":{"antennae":"B","wings":"2","pattern":"X","legs":"X"},"bonus":0},{"rt":478.6999999284744,"stimulus":"bees-with-color/bee-B2DF.svg","response":0,"trial_type":"image-button-response","trial_index":167,"time_elapsed":353606,"internal_node_id":"0.0-6.0-0.31","subject_id":"60268e50f4883632efe2730b","study_id":"6197b3f67c2b5cd3b6d9596a","session_id":"619be31de338501adb282064","condition":"contingent","relevant_dimensions":["antennae","wings"],"bee_group":{"antennae":"B","wings":"2","pattern":"X","legs":"X"},"bonus":0},{"rt":5285.199999928474,"stimulus":"You started with $2.50 of base pay.<br><br>\n            You made $0.00 in bonus pay,\n            for a t