[{"success":true,"trial_type":"fullscreen","trial_index":0,"time_elapsed":29044,"internal_node_id":"0.0-0.0","subject_id":"606b81830eadb0d0bbee2cb9","study_id":"6197b3f67c2b5cd3b6d9596a","session_id":"6197b9f2f63ee4bbe2fc1112","condition":"contingent","relevant_dimensions":["antennae","legs"],"bee_group":{"antennae":"A","wings":"X","pattern":"X","legs":"M"},"bonus":1.4400000000000008},{"success":true,"timeout":false,"failed_images":[],"failed_audio":[],"failed_video":[],"trial_type":"preload","trial_index":1,"time_elapsed":31094,"internal_node_id":"0.0-1.0","subject_id":"606b81830eadb0d0bbee2cb9","study_id":"6197b3f67c2b5cd3b6d9596a","session_id":"6197b9f2f63ee4bbe2fc1112","condition":"contingent","relevant_dimensions":["antennae","legs"],"bee_group":{"antennae":"A","wings":"X","pattern":"X","legs":"M"},"bonus":1.4400000000000008},{"rt":1267,"stimulus":"Welcome! Press any key to begin.","response":" ","trial_type":"html-keyboard-response","trial_index":2,"time_elapsed":32361,"internal_node_id":"0.0-2.0","subject_id":"606b81830eadb0d0bbee2cb9","study_id":"6197b3f67c2b5cd3b6d9596a","session_id":"6197b9f2f63ee4bbe2fc1112","condition":"contingent","relevant_dimensions":["antennae","legs"],"bee_group":{"antennae":"A","wings":"X","pattern":"X","legs":"M"},"bonus":1.4400000000000008},{"view_history":[{"page_index":0,"viewing_time":4121.600000000093},{"page_index":1,"viewing_time":10223.899999999907},{"page_index":2,"viewing_time":14800},{"page_index":3,"viewing_time":21024},{"page_index":4,"viewing_time":5520},{"page_index":5,"viewing_time":5280},{"page_index":6,"viewing_time":8184.100000000093},{"page_index":7,"viewing_time":4376.0999999996275},{"page_index":8,"viewing_time":3615.7000000001863},{"page_index":9,"viewing_time":2240.2000000001863},{"page_index":10,"viewing_time":3999.899999999907},{"page_index":11,"viewing_time":6135.899999999907},{"page_index":12,"viewing_time":5552.100000000093},{"page_index":13,"viewing_time":1208},{"page_index":14,"viewing_time":2143.899999999907}],"rt":98425.69999999972,"trial_type":"instructions","trial_index":3,"time_elapsed":130788,"internal_node_id":"0.0-3.0-0.0","subject_id":"606b81830eadb0d0bbee2cb9","study_id":"6197b3f67c2b5cd3b6d9596a","session_id":"6197b9f2f63ee4bbe2fc1112","condition":"contingent","relevant_dimensions":["antennae","legs"],"bee_group":{"antennae":"A","wings":"X","pattern":"X","legs":"M"},"bonus":1.4400000000000008},{"rt":17573.69999999972,"response":{"Q0":["Two or six legs","Stinger or no stinger","Single or double wings","Antennae or no antennae"]},"question_order":[0],"trial_type":"survey-multi-select","trial_index":4,"time_elapsed":148364,"internal_node_id":"0.0-3.0-1.0","subject_id":"606b81830eadb0d0bbee2cb9","study_id":"6197b3f67c2b5cd3b6d9596a","session_id":"6197b9f2f63ee4bbe2fc1112","condition":"contingent","relevant_dimensions":["antennae","legs"],"bee_group":{"antennae":"A","wings":"X","pattern":"X","legs":"M"},"correct":false,"bonus":1.4400000000000008},{"rt":24892.299999999814,"response":{"Q1":"No.","Q2":"Based on the four features of the bee.","Q3":"You do not learn if it was friendly or dangerous, and do not alter your bonus."},"question_order":[0,1,2],"trial_type":"survey-multi-choice","trial_index":5,"time_elapsed":173260,"internal_node_id":"0.0-3.0-2.0","subject_id":"606b81830eadb0d0bbee2cb9","study_id":"6197b3f67c2b5cd3b6d9596a","session_id":"6197b9f2f63ee4bbe2fc1112","condition":"contingent","relevant_dimensions":["antennae","legs"],"bee_group":{"antennae":"A","wings":"X","pattern":"X","legs":"M"},"correct":true,"bonus":1.4400000000000008},{"rt":4436.600000000093,"stimulus":"<p>You did not answer all comprehension questions correctly.<br>Press <b>continue</b> to review the instructions again.</p>","response":0,"trial_type":"html-button-response","trial_index":6,"time_elapsed":177699,"internal_node_id":"0.0-3.0-3.0","subject_id":"606b81830eadb0d0bbee2cb9","study_id":"6197b3f67c2b5cd3b6d9596a","session_id":"6197b9f2f63ee4bbe2fc1112","condition":"contingent","relevant_dimensions":["antennae","legs"],"bee_group":{"antennae":"A","wings":"X","pattern":"X","legs":"M"},"bonus":1.4400000000000008},{"view_history":[{"page_index":0,"viewing_time":1886.8999999999069},{"page_index":1,"viewing_time":3624.100000000093},{"page_index":2,"viewing_time":1760},{"page_index":3,"viewing_time":1424},{"page_index":4,"viewing_time":1927.8999999999069},{"page_index":5,"viewing_time":2256},{"page_index":6,"viewing_time":2456.100000000093},{"page_index":7,"viewing_time":2303.899999999907},{"page_index":8,"viewing_time":1688.1000000000931},{"page_index":9,"viewing_time":2072.100000000093},{"page_index":10,"viewing_time":1599.7999999998137},{"page_index":11,"viewing_time":5352},{"page_index":12,"viewing_time":1104.1000000000931},{"page_index":13,"viewing_time":991.7999999998137},{"page_index":14,"viewing_time":1080.2000000001863}],"rt":31527.299999999814,"trial_type":"instructions","trial_index":7,"time_elapsed":209227,"internal_node_id":"0.0-3.0-4.0-0.0","subject_id":"606b81830eadb0d0bbee2cb9","study_id":"6197b3f67c2b5cd3b6d9596a","session_id":"6197b9f2f63ee4bbe2fc1112","condition":"contingent","relevant_dimensions":["antennae","legs"],"bee_group":{"antennae":"A","wings":"X","pattern":"X","legs":"M"},"bonus":1.4400000000000008},{"rt":9477,"response":{"Q0":["Two or six legs","Stripes or spots on body","Single or double wings","Antennae or no antennae"]},"question_order":[0],"trial_type":"survey-multi-select","trial_index":8,"time_elapsed":218708,"internal_node_id":"0.0-3.0-4.0-1.0","subject_id":"606b81830eadb0d0bbee2cb9","study_id":"6197b3f67c2b5cd3b6d9596a","session_id":"6197b9f2f63ee4bbe2fc1112","condition":"contingent","relevant_dimensions":["antennae","legs"],"bee_group":{"antennae":"A","wings":"X","pattern":"X","legs":"M"},"correct":true,"bonus":1.4400000000000008},{"rt":24548.900000000373,"response":{"Q1":"No.","Q2":"Based on the four features of the bee.","Q3":"You do not learn if it was friendly or dangerous, and do not alter your bonus."},"question_order":[0,1,2],"trial_type":"survey-multi-choice","trial_index":9,"time_elapsed":243260,"internal_node_id":"0.0-3.0-4.0-2.0","subject_id":"606b81830eadb0d0bbee2cb9","study_id":"6197b3f67c2b5cd3b6d9596a","session_id":"6197b9f2f63ee4bbe2fc1112","condition":"contingent","relevant_dimensions":["antennae","legs"],"bee_group":{"antennae":"A","wings":"X","pattern":"X","legs":"M"},"correct":true,"bonus":1.4400000000000008},{"rt":1741,"stimulus":"<p>Congrats, you got everything right<br>When you're ready, click the button below to continue to the experiment.</p>","response":0,"trial_type":"html-button-response","trial_index":10,"time_elapsed":245004,"internal_node_id":"0.0-3.0-4.0-3.0","subject_id":"606b81830eadb0d0bbee2cb9","study_id":"6197b3f67c2b5cd3b6d9596a","session_id":"6197b9f2f63ee4bbe2fc1112","condition":"contingent","relevant_dimensions":["antennae","legs"],"bee_group":{"antennae":"A","wings":"X","pattern":"X","legs":"M"},"bonus":1.4400000000000008},{"rt":5101.9000000003725,"stimulus":"bees-with-color/bee-B1DF.svg","response":0,"trial_type":"image-button-response","trial_index":11,"time_elapsed":250108,"internal_node_id":"0.0-4.0-0.0","subject_id":"606b81830eadb0d0bbee2cb9","study_id":"6197b3f67c2b5cd3b6d9596a","session_id":"6197b9f2f63ee4bbe2fc1112","condition":"contingent","relevant_dimensions":["antennae","legs"],"bee_group":{"antennae":"A","wings":"X","pattern":"X","legs":"M"},"action":"harvest","summary":"good-harvest","bonus":1.4400000000000008},{"rt":5062.100000000093,"stimulus":"\n                    <p><b>Action: <em>harvest</em></b></p>\n                    <p>This is the bee that you just saw.</p>\n                    <img src=\"bees-with-color/bee-B1DF.svg\" width=\"200\">\n                    <p><span class=\"greenText\"><b>Successful harvest!</b></span><br>Your pay has increased by $0.02. Your bonus pay is now $0.56.</p>\n            ","response":0,"trial_type":"html-button-response","trial_index":12,"time_elapsed":255171,"internal_node_id":"0.0-4.0-1.0","subject_id":"606b81830eadb0d0bbee2cb9","study_id":"6197b3f67c2b5cd3b6d9596a","session_id":"6197b9f2f63ee4bbe2fc1112","condition":"contingent","relevant_dimensions":["antennae","legs"],"bee_group":{"antennae":"A","wings":"X","pattern":"X","legs":"M"},"bonus":1.4400000000000008},{"rt":6950.5,"stimulus":"bees-with-color/bee-A2DF.svg","response":1,"trial_type":"image-button-response","trial_index":13,"time_elapsed":262124,"internal_node_id":"0.0-4.0-0.1","subject_id":"606b81830eadb0d0bbee2cb9","study_id":"6197b3f67c2b5cd3b6d9596a","session_id":"6197b9f2f63ee4bbe2fc1112","condition":"contingent","relevant_dimensions":["antennae","legs"],"bee_group":{"antennae":"A","wings":"X","pattern":"X","legs":"M"},"action":"avoid","summary":"bad-avoid","bonus":1.4400000000000008},{"rt":4359.399999999907,"stimulus":"\n                    <p><b>Action: <em>avoid</em></b></p>\n                    <p>This is the bee that you just saw.</p>\n                    <img src=\"bees-with-color/bee-A2DF.svg\" width=\"200\">\n                    <p><br>Your bonus pay is unchanged, and remains at $0.56.</p>\n            ","response":0,"trial_type":"html-button-response","trial_index":14,"time_elapsed":266484,"internal_node_id":"0.0-4.0-1.1","subject_id":"606b81830eadb0d0bbee2cb9","study_id":"6197b3f67c2b5cd3b6d9596a","session_id":"6197b9f2f63ee4bbe2fc1112","condition":"contingent","relevant_dimensions":["antennae","legs"],"bee_group":{"antennae":"A","wings":"X","pattern":"X","legs":"M"},"bonus":1.4400000000000008},{"rt":3069.7999999998137,"stimulus":"bees-with-color/bee-B2SM.svg","response":0,"trial_type":"image-button-response","trial_index":15,"time_elapsed":269556,"internal_node_id":"0.0-4.0-0.2","subject_id":"606b81830eadb0d0bbee2cb9","study_id":"6197b3f67c2b5cd3b6d9596a","session_id":"6197b9f2f63ee4bbe2fc1112","condition":"contingent","relevant_dimensions":["antennae","legs"],"bee_group":{"antennae":"A","wings":"X","pattern":"X","legs":"M"},"action":"harvest","summary":"good-harvest","bonus":1.4400000000000008},{"rt":3470.2000000001863,"stimulus":"\n                    <p><b>Action: <em>harvest</em></b></p>\n                    <p>This is the bee that you just saw.</p>\n                    <img src=\"bees-with-color/bee-B2SM.svg\" width=\"200\">\n                    <p><span class=\"greenText\"><b>Successful harvest!</b></span><br>Your pay has increased by $0.02. Your bonus pay is now $0.58.</p>\n            ","response":0,"trial_type":"html-button-response","trial_index":16,"time_elapsed":273028,"internal_node_id":"0.0-4.0-1.2","subject_id":"606b81830eadb0d0bbee2cb9","study_id":"6197b3f67c2b5cd3b6d9596a","session_id":"6197b9f2f63ee4bbe2fc1112","condition":"contingent","relevant_dimensions":["antennae","legs"],"bee_group":{"antennae":"A","wings":"X","pattern":"X","legs":"M"},"bonus":1.4400000000000008},{"rt":3534.899999999907,"stimulus":"bees-with-color/bee-A2SF.svg","response":0,"trial_type":"image-button-response","trial_index":17,"time_elapsed":276564,"internal_node_id":"0.0-4.0-0.3","subject_id":"606b81830eadb0d0bbee2cb9","study_id":"6197b3f67c2b5cd3b6d9596a","session_id":"6197b9f2f63ee4bbe2fc1112","condition":"contingent","relevant_dimensions":["antennae","legs"],"bee_group":{"antennae":"A","wings":"X","pattern":"X","legs":"M"},"action":"harvest","summary":"good-harvest","bonus":1.4400000000000008},{"rt":1222.7999999998137,"stimulus":"\n                    <p><b>Action: <em>harvest</em></b></p>\n                    <p>This is the bee that you just saw.</p>\n                    <img src=\"bees-with-color/bee-A2SF.svg\" width=\"200\">\n                    <p><span class=\"greenText\"><b>Successful harvest!</b></span><br>Your pay has increased by $0.02. Your bonus pay is now $0.60.</p>\n            ","response":0,"trial_type":"html-button-response","trial_index":18,"time_elapsed":277788,"internal_node_id":"0.0-4.0-1.3","subject_id":"606b81830eadb0d0bbee2cb9","study_id":"6197b3f67c2b5cd3b6d9596a","session_id":"6197b9f2f63ee4bbe2fc1112","condition":"contingent","relevant_dimensions":["antennae","legs"],"bee_group":{"antennae":"A","wings":"X","pattern":"X","legs":"M"},"bonus":1.4400000000000008},{"rt":2902.600000000093,"stimulus":"bees-with-color/bee-B2SF.svg","response":0,"trial_type":"image-button-response","trial_index":19,"time_elapsed":280692,"internal_node_id":"0.0-4.0-0.4","subject_id":"606b81830eadb0d0bbee2cb9","study_id":"6197b3f67c2b5cd3b6d9596a","session_id":"6197b9f2f63ee4bbe2fc1112","condition":"contingent","relevant_dimensions":["antennae","legs"],"bee_group":{"antennae":"A","wings":"X","pattern":"X","legs":"M"},"action":"harvest","summary":"good-harvest","bonus":1.4400000000000008},{"rt":934.5,"stimulus":"\n                    <p><b>Action: <em>harvest</em></b></p>\n                    <p>This is the bee that you just saw.</p>\n                    <img src=\"bees-with-color/bee-B2SF.svg\" width=\"200\">\n                    <p><span class=\"greenText\"><b>Successful harvest!</b></span><br>Your pay has increased by $0.02. Your bonus pay is now $0.62.</p>\n            ","response":0,"trial_type":"html-button-response","trial_index":20,"time_elapsed":281628,"internal_node_id":"0.0-4.0-1.4","subject_id":"606b81830eadb0d0bbee2cb9","study_id":"6197b3f67c2b5cd3b6d9596a","session_id":"6197b9f2f63ee4bbe2fc1112","condition":"contingent","relevant_dimensions":["antennae","legs"],"bee_group":{"antennae":"A","wings":"X","pattern":"X","legs":"M"},"bonus":1.4400000000000008},{"rt":2333.7999999998137,"stimulus":"bees-with-color/bee-B1DM.svg","response":0,"trial_type":"image-button-response","trial_index":21,"time_elapsed":283964,"internal_node_id":"0.0-4.0-0.5","subject_id":"606b81830eadb0d0bbee2cb9","study_id":"6197b3f67c2b5cd3b6d9596a","session_id":"6197b9f2f63ee4bbe2fc1112","condition":"contingent","relevant_dimensions":["antennae","legs"],"bee_group":{"antennae":"A","wings":"X","pattern":"X","legs":"M"},"action":"harvest","summary":"good-harvest","bonus":1.4400000000000008},{"rt":822.8999999999069,"stimulus":"\n                    <p><b>Action: <em>harvest</em></b></p>\n                    <p>This is the bee that you just saw.</p>\n                    <img src=\"bees-with-color/bee-B1DM.svg\" width=\"200\">\n                    <p><span class=\"greenText\"><b>Successful harvest!</b></span><br>Your pay has increased by $0.02. Your bonus pay is now $0.64.</p>\n            ","response":0,"trial_type":"html-button-response","trial_index":22,"time_elapsed":284788,"internal_node_id":"0.0-4.0-1.5","subject_id":"606b81830eadb0d0bbee2cb9","study_id":"6197b3f67c2b5cd3b6d9596a","session_id":"6197b9f2f63ee4bbe2fc1112","condition":"contingent","relevant_dimensions":["antennae","legs"],"bee_group":{"antennae":"A","wings":"X","pattern":"X","legs":"M"},"bonus":1.4400000000000008},{"rt":3510.100000000093,"stimulus":"bees-with-color/bee-A2DM.svg","response":1,"trial_type":"image-button-response","trial_index":23,"time_elapsed":288300,"internal_node_id":"0.0-4.0-0.6","subject_id":"606b81830eadb0d0bbee2cb9","study_id":"6197b3f67c2b5cd3b6d9596a","session_id":"6197b9f2f63ee4bbe2fc1112","condition":"contingent","relevant_dimensions":["antennae","legs"],"bee_group":{"antennae":"A","wings":"X","pattern":"X","legs":"M"},"action":"avoid","summary":"good-avoid","bonus":1.4400000000000008},{"rt":839,"stimulus":"\n                    <p><b>Action: <em>avoid</em></b></p>\n                    <p>This is the bee that you just saw.</p>\n                    <img src=\"bees-with-color/bee-A2DM.svg\" width=\"200\">\n                    <p><br>Your bonus pay is unchanged, and remains at $0.64.</p>\n            ","response":0,"trial_type":"html-button-response","trial_index":24,"time_elapsed":289140,"internal_node_id":"0.0-4.0-1.6","subject_id":"606b81830eadb0d0bbee2cb9","study_id":"6197b3f67c2b5cd3b6d9596a","session_id":"6197b9f2f63ee4bbe2fc1112","condition":"contingent","relevant_dimensions":["antennae","legs"],"bee_group":{"antennae":"A","wings":"X","pattern":"X","legs":"M"},"bonus":1.4400000000000008},{"rt":4246.800000000279,"stimulus":"bees-with-color/bee-A2SM.svg","response":1,"trial_type":"image-button-response","trial_index":25,"time_elapsed":293388,"internal_node_id":"0.0-4.0-0.7","subject_id":"606b81830eadb0d0bbee2cb9","study_id":"6197b3f67c2b5cd3b6d9596a","session_id":"6197b9f2f63ee4bbe2fc1112","condition":"contingent","relevant_dimensions":["antennae","legs"],"bee_group":{"antennae":"A","wings":"X","pattern":"X","legs":"M"},"action":"avoid","summary":"good-avoid","bonus":1.4400000000000008},{"rt":622.6999999997206,"stimulus":"\n                    <p><b>Action: <em>avoid</em></b></p>\n                    <p>This is the bee that you just saw.</p>\n                    <img src=\"bees-with-color/bee-A2SM.svg\" width=\"200\">\n                    <p><br>Your bonus pay is unchanged, and remains at $0.64.</p>\n            ","response":0,"trial_type":"html-button-response","trial_index":26,"time_elapsed":294012,"internal_node_id":"0.0-4.0-1.7","subject_id":"606b81830eadb0d0bbee2cb9","study_id":"6197b3f67c2b5cd3b6d9596a","session_id":"6197b9f2f63ee4bbe2fc1112","condition":"contingent","relevant_dimensions":["antennae","legs"],"bee_group":{"antennae":"A","wings":"X","pattern":"X","legs":"M"},"bonus":1.4400000000000008},{"rt":1158.5,"stimulus":"bees-with-color/bee-B2DF.svg","response":0,"trial_type":"image-button-response","trial_index":27,"time_elapsed":295172,"internal_node_id":"0.0-4.0-0.8","subject_id":"606b81830eadb0d0bbee2cb9","study_id":"6197b3f67c2b5cd3b6d9596a","session_id":"6197b9f2f63ee4bbe2fc1112","condition":"contingent","relevant_dimensions":["antennae","legs"],"bee_group":{"antennae":"A","wings":"X","pattern":"X","legs":"M"},"action":"harvest","summary":"good-harvest","bonus":1.4400000000000008},{"rt":726.6000000000931,"stimulus":"\n                    <p><b>Action: <em>harvest</em></b></p>\n                    <p>This is the bee that you just saw.</p>\n                    <img src=\"bees-with-color/bee-B2DF.svg\" width=\"200\">\n                    <p><span class=\"greenText\"><b>Successful harvest!</b></span><br>Your pay has increased by $0.02. Your bonus pay is now $0.66.</p>\n            ","response":0,"trial_type":"html-button-response","trial_index":28,"time_elapsed":295900,"internal_node_id":"0.0-4.0-1.8","subject_id":"606b81830eadb0d0bbee2cb9","study_id":"6197b3f67c2b5cd3b6d9596a","session_id":"6197b9f2f63ee4bbe2fc1112","condition":"contingent","relevant_dimensions":["antennae","legs"],"bee_group":{"antennae":"A","wings":"X","pattern":"X","legs":"M"},"bonus":1.4400000000000008},{"rt":3310.899999999907,"stimulus":"bees-with-color/bee-A1DF.svg","response":0,"trial_type":"image-button-response","trial_index":29,"time_elapsed":299212,"internal_node_id":"0.0-4.0-0.9","subject_id":"606b81830eadb0d0bbee2cb9","study_id":"6197b3f67c2b5cd3b6d9596a","session_id":"6197b9f2f63ee4bbe2fc1112","condition":"contingent","relevant_dimensions":["antennae","legs"],"bee_group":{"antennae":"A","wings":"X","pattern":"X","legs":"M"},"action":"harvest","summary":"good-harvest","bonus":1.4400000000000008},{"rt":1062.7000000001863,"stimulus":"\n                    <p><b>Action: <em>harvest</em></b></p>\n                    <p>This is the bee that you just saw.</p>\n                    <img src=\"bees-with-color/bee-A1DF.svg\" width=\"200\">\n                    <p><span class=\"greenText\"><b>Successful harvest!</b></span><br>Your pay has increased by $0.02. Your bonus pay is now $0.68.</p>\n            ","response":0,"trial_type":"html-button-response","trial_index":30,"time_elapsed":300276,"internal_node_id":"0.0-4.0-1.9","subject_id":"606b81830eadb0d0bbee2cb9","study_id":"6197b3f67c2b5cd3b6d9596a","session_id":"6197b9f2f63ee4bbe2fc1112","condition":"contingent","relevant_dimensions":["antennae","legs"],"bee_group":{"antennae":"A","wings":"X","pattern":"X","legs":"M"},"bonus":1.4400000000000008},{"rt":3366.600000000093,"stimulus":"bees-with-color/bee-A1SF.svg","response":1,"trial_type":"image-button-response","trial_index":31,"time_elapsed":303644,"internal_node_id":"0.0-4.0-0.10","subject_id":"606b81830eadb0d0bbee2cb9","study_id":"6197b3f67c2b5cd3b6d9596a","session_id":"6197b9f2f63ee4bbe2fc1112","condition":"contingent","relevant_dimensions":["antennae","legs"],"bee_group":{"antennae":"A","wings":"X","pattern":"X","legs":"M"},"action":"avoid","summary":"bad-avoid","bonus":1.4400000000000008},{"rt":590.7000000001863,"stimulus":"\n                    <p><b>Action: <em>avoid</em></b></p>\n                    <p>This is the bee that you just saw.</p>\n                    <img src=\"bees-with-color/bee-A1SF.svg\" width=\"200\">\n                    <p><br>Your bonus pay is unchanged, and remains at $0.68.</p>\n            ","response":0,"trial_type":"html-button-response","trial_index":32,"time_elapsed":304236,"internal_node_id":"0.0-4.0-1.10","subject_id":"606b81830eadb0d0bbee2cb9","study_id":"6197b3f67c2b5cd3b6d9596a","session_id":"6197b9f2f63ee4bbe2fc1112","condition":"contingent","relevant_dimensions":["antennae","legs"],"bee_group":{"antennae":"A","wings":"X","pattern":"X","legs":"M"},"bonus":1.4400000000000008},{"rt":2462.7000000001863,"stimulus":"bees-with-color/bee-B1SF.svg","response":0,"trial_type":"image-button-response","trial_index":33,"time_elapsed":306700,"internal_node_id":"0.0-4.0-0.11","subject_id":"606b81830eadb0d0bbee2cb9","study_id":"6197b3f67c2b5cd3b6d9596a","session_id":"6197b9f2f63ee4bbe2fc1112","condition":"contingent","relevant_dimensions":["antennae","legs"],"bee_group":{"antennae":"A","wings":"X","pattern":"X","legs":"M"},"action":"harvest","summary":"good-harvest","bonus":1.4400000000000008},{"rt":806.7000000001863,"stimulus":"\n                    <p><b>Action: <em>harvest</em></b></p>\n                    <p>This is the bee that you just saw.</p>\n                    <img src=\"bees-with-color/bee-B1SF.svg\" width=\"200\">\n                    <p><span class=\"greenText\"><b>Successful harvest!</b></span><br>Your pay has increased by $0.02. Your bonus pay is now $0.70.</p>\n            ","response":0,"trial_type":"html-button-response","trial_index":34,"time_elapsed":307508,"internal_node_id":"0.0-4.0-1.11","subject_id":"606b81830eadb0d0bbee2cb9","study_id":"6197b3f67c2b5cd3b6d9596a","session_id":"6197b9f2f63ee4bbe2fc1112","condition":"contingent","relevant_dimensions":["antennae","legs"],"bee_group":{"antennae":"A","wings":"X","pattern":"X","legs":"M"},"bonus":1.4400000000000008},{"rt":4534.399999999907,"stimulus":"bees-with-color/bee-A1DM.svg","response":1,"trial_type":"image-button-response","trial_index":35,"time_elapsed":312044,"internal_node_id":"0.0-4.0-0.12","subject_id":"606b81830eadb0d0bbee2cb9","study_id":"6197b3f67c2b5cd3b6d9596a","session_id":"6197b9f2f63ee4bbe2fc1112","condition":"contingent","relevant_dimensions":["antennae","legs"],"bee_group":{"antennae":"A","wings":"X","pattern":"X","legs":"M"},"action":"avoid","summary":"good-avoid","bonus":1.4400000000000008},{"rt":582.8999999999069,"stimulus":"\n                    <p><b>Action: <em>avoid</em></b></p>\n                    <p>This is the bee that you just saw.</p>\n                    <img src=\"bees-with-color/bee-A1DM.svg\" width=\"200\">\n                    <p><br>Your bonus pay is unchanged, and remains at $0.70.</p>\n            ","response":0,"trial_type":"html-button-response","trial_index":36,"time_elapsed":312628,"internal_node_id":"0.0-4.0-1.12","subject_id":"606b81830eadb0d0bbee2cb9","study_id":"6197b3f67c2b5cd3b6d9596a","session_id":"6197b9f2f63ee4bbe2fc1112","condition":"contingent","relevant_dimensions":["antennae","legs"],"bee_group":{"antennae":"A","wings":"X","pattern":"X","legs":"M"},"bonus":1.4400000000000008},{"rt":1478.6000000000931,"stimulus":"bees-with-color/bee-B1SM.svg","response":0,"trial_type":"image-button-response","trial_index":37,"time_elapsed":314108,"internal_node_id":"0.0-4.0-0.13","subject_id":"606b81830eadb0d0bbee2cb9","study_id":"6197b3f67c2b5cd3b6d9596a","session_id":"6197b9f2f63ee4bbe2fc1112","condition":"contingent","relevant_dimensions":["antennae","legs"],"bee_group":{"antennae":"A","wings":"X","pattern":"X","legs":"M"},"action":"harvest","summary":"good-harvest","bonus":1.4400000000000008},{"rt":638.6000000000931,"stimulus":"\n                    <p><b>Action: <em>harvest</em></b></p>\n                    <p>This is the bee that you just saw.</p>\n                    <img src=\"bees-with-color/bee-B1SM.svg\" width=\"200\">\n                    <p><span class=\"greenText\"><b>Successful harvest!</b></span><br>Your pay has increased by $0.02. Your bonus pay is now $0.72.</p>\n            ","response":0,"trial_type":"html-button-response","trial_index":38,"time_elapsed":314748,"internal_node_id":"0.0-4.0-1.13","subject_id":"606b81830eadb0d0bbee2cb9","study_id":"6197b3f67c2b5cd3b6d9596a","session_id":"6197b9f2f63ee4bbe2fc1112","condition":"contingent","relevant_dimensions":["antennae","legs"],"bee_group":{"antennae":"A","wings":"X","pattern":"X","legs":"M"},"bonus":1.4400000000000008},{"rt":2703.3000000002794,"stimulus":"bees-with-color/bee-A1SM.svg","response":0,"trial_type":"image-button-response","trial_index":39,"time_elapsed":317452,"internal_node_id":"0.0-4.0-0.14","subject_id":"606b81830eadb0d0bbee2cb9","study_id":"6197b3f67c2b5cd3b6d9596a","session_id":"6197b9f2f63ee4bbe2fc1112","condition":"contingent","relevant_dimensions":["antennae","legs"],"bee_group":{"antennae":"A","wings":"X","pattern":"X","legs":"M"},"action":"harvest","summary":"bad-harvest","bonus":1.4400000000000008},{"rt":2271,"stimulus":"\n                    <p><b>Action: <em>harvest</em></b></p>\n                    <p>This is the bee that you just saw.</p>\n                    <img src=\"bees-with-color/bee-A1SM.svg\" width=\"200\">\n                    <p><span class=\"redText\">Bad choice, the bee was angry.</span><br><b>You have been stung!</b><br>Your pay has been decreased by $0.10. Your bonus pay is now $0.62.</p>\n            ","response":0,"trial_type":"html-button-response","trial_index":40,"time_elapsed":319724,"internal_node_id":"0.0-4.0-1.14","subject_id":"606b81830eadb0d0bbee2cb9","study_id":"6197b3f67c2b5cd3b6d9596a","session_id":"6197b9f2f63ee4bbe2fc1112","condition":"contingent","relevant_dimensions":["antennae","legs"],"bee_group":{"antennae":"A","wings":"X","pattern":"X","legs":"M"},"bonus":1.4400000000000008},{"rt":2190.7000000001863,"stimulus":"bees-with-color/bee-B2DM.svg","response":0,"trial_type":"image-button-response","trial_index":41,"time_elapsed":321916,"internal_node_id":"0.0-4.0-0.15","subject_id":"606b81830eadb0d0bbee2cb9","study_id":"6197b3f67c2b5cd3b6d9596a","session_id":"6197b9f2f63ee4bbe2fc1112","condition":"contingent","relevant_dimensions":["antennae","legs"],"bee_group":{"antennae":"A","wings":"X","pattern":"X","legs":"M"},"action":"harvest","summary":"good-harvest","bonus":1.4400000000000008},{"rt":631,"stimulus":"\n                    <p><b>Action: <em>harvest</em></b></p>\n                    <p>This is the bee that you just saw.</p>\n                    <img src=\"bees-with-color/bee-B2DM.svg\" width=\"200\">\n                    <p><span class=\"greenText\"><b>Successful harvest!</b></span><br>Your pay has increased by $0.02. Your bonus pay is now $0.64.</p>\n            ","response":0,"trial_type":"html-button-response","trial_index":42,"time_elapsed":322548,"internal_node_id":"0.0-4.0-1.15","subject_id":"606b81830eadb0d0bbee2cb9","study_id":"6197b3f67c2b5cd3b6d9596a","session_id":"6197b9f2f63ee4bbe2fc1112","condition":"contingent","relevant_dimensions":["antennae","legs"],"bee_group":{"antennae":"A","wings":"X","pattern":"X","legs":"M"},"bonus":1.4400000000000008},{"rt":2111.3000000002794,"stimulus":"bees-with-color/bee-A2SF.svg","response":0,"trial_type":"image-button-response","trial_index":43,"time_elapsed":324660,"internal_node_id":"0.0-4.0-0.16","subject_id":"606b81830eadb0d0bbee2cb9","study_id":"6197b3f67c2b5cd3b6d9596a","session_id":"6197b9f2f63ee4bbe2fc1112","condition":"contingent","relevant_dimensions":["antennae","legs"],"bee_group":{"antennae":"A","wings":"X","pattern":"X","legs":"M"},"action":"harvest","summary":"good-harvest","bonus":1.4400000000000008},{"rt":646.8999999999069,"stimulus":"\n                    <p><b>Action: <em>harvest</em></b></p>\n                    <p>This is the bee that you just saw.</p>\n                    <img src=\"bees-with-color/bee-A2SF.svg\" width=\"200\">\n                    <p><span class=\"greenText\"><b>Successful harvest!</b></span><br>Your pay has increased by $0.02. Your bonus pay is now $0.66.</p>\n            ","response":0,"trial_type":"html-button-response","trial_index":44,"time_elapsed":325308,"internal_node_id":"0.0-4.0-1.16","subject_id":"606b81830eadb0d0bbee2cb9","study_id":"6197b3f67c2b5cd3b6d9596a","session_id":"6197b9f2f63ee4bbe2fc1112","condition":"contingent","relevant_dimensions":["antennae","legs"],"bee_group":{"antennae":"A","wings":"X","pattern":"X","legs":"M"},"bonus":1.4400000000000008},{"rt":1822.8999999999069,"stimulus":"bees-with-color/bee-B2SF.svg","response":0,"trial_type":"image-button-response","trial_index":45,"time_elapsed":327132,"internal_node_id":"0.0-4.0-0.17","subject_id":"606b81830eadb0d0bbee2cb9","study_id":"6197b3f67c2b5cd3b6d9596a","session_id":"6197b9f2f63ee4bbe2fc1112","condition":"contingent","relevant_dimensions":["antennae","legs"],"bee_group":{"antennae":"A","wings":"X","pattern":"X","legs":"M"},"action":"harvest","summary":"good-harvest","bonus":1.4400000000000008},{"rt":639,"stimulus":"\n                    <p><b>Action: <em>harvest</em></b></p>\n                    <p>This is the bee that you just saw.</p>\n                    <img src=\"bees-with-color/bee-B2SF.svg\" width=\"200\">\n                    <p><span class=\"greenText\"><b>Successful harvest!</b></span><br>Your pay has increased by $0.02. Your bonus pay is now $0.68.</p>\n            ","response":0,"trial_type":"html-button-response","trial_index":46,"time_elapsed":327772,"internal_node_id":"0.0-4.0-1.17","subject_id":"606b81830eadb0d0bbee2cb9","study_id":"6197b3f67c2b5cd3b6d9596a","session_id":"6197b9f2f63ee4bbe2fc1112","condition":"contingent","relevant_dimensions":["antennae","legs"],"bee_group":{"antennae":"A","wings":"X","pattern":"X","legs":"M"},"bonus":1.4400000000000008},{"rt":1951.8000000002794,"stimulus":"bees-with-color/bee-A1SF.svg","response":0,"trial_type":"image-button-response","trial_index":47,"time_elapsed":329724,"internal_node_id":"0.0-4.0-0.18","subject_id":"606b81830eadb0d0bbee2cb9","study_id":"6197b3f67c2b5cd3b6d9596a","session_id":"6197b9f2f63ee4bbe2fc1112","condition":"contingent","relevant_dimensions":["antennae","legs"],"bee_group":{"antennae":"A","wings":"X","pattern":"X","legs":"M"},"action":"harvest","summary":"good-harvest","bonus":1.4400000000000008},{"rt":662.5,"stimulus":"\n                    <p><b>Action: <em>harvest</em></b></p>\n                    <p>This is the bee that you just saw.</p>\n                    <img src=\"bees-with-color/bee-A1SF.svg\" width=\"200\">\n                    <p><span class=\"greenText\"><b>Successful harvest!</b></span><br>Your pay has increased by $0.02. Your bonus pay is now $0.70.</p>\n            ","response":0,"trial_type":"html-button-response","trial_index":48,"time_elapsed":330388,"internal_node_id":"0.0-4.0-1.18","subject_id":"606b81830eadb0d0bbee2cb9","study_id":"6197b3f67c2b5cd3b6d9596a","session_id":"6197b9f2f63ee4bbe2fc1112","condition":"contingent","relevant_dimensions":["antennae","legs"],"bee_group":{"antennae":"A","wings":"X","pattern":"X","legs":"M"},"bonus":1.4400000000000008},{"rt":2031,"stimulus":"bees-with-color/bee-B1DF.svg","response":0,"trial_type":"image-button-response","trial_index":49,"time_elapsed":332420,"internal_node_id":"0.0-4.0-0.19","subject_id":"606b81830eadb0d0bbee2cb9","study_id":"6197b3f67c2b5cd3b6d9596a","session_id":"6197b9f2f63ee4bbe2fc1112","condition":"contingent","relevant_dimensions":["antennae","legs"],"bee_group":{"antennae":"A","wings":"X","pattern":"X","legs":"M"},"action":"harvest","summary":"good-harvest","bonus":1.4400000000000008},{"rt":590.8999999999069,"stimulus":"\n                    <p><b>Action: <em>harvest</em></b></p>\n                    <p>This is the bee that you just saw.</p>\n                    <img src=\"bees-with-color/bee-B1DF.svg\" width=\"200\">\n                    <p><span class=\"greenText\"><b>Successful harvest!</b></span><br>Your pay has increased by $0.02. Your bonus pay is now $0.72.</p>\n            ","response":0,"trial_type":"html-button-response","trial_index":50,"time_elapsed":333012,"internal_node_id":"0.0-4.0-1.19","subject_id":"606b81830eadb0d0bbee2cb9","study_id":"6197b3f67c2b5cd3b6d9596a","session_id":"6197b9f2f63ee4bbe2fc1112","condition":"contingent","relevant_dimensions":["antennae","legs"],"bee_group":{"antennae":"A","wings":"X","pattern":"X","legs":"M"},"bonus":1.4400000000000008},{"rt":1647.1000000000931,"stimulus":"bees-with-color/bee-A2SM.svg","response":1,"trial_type":"image-button-response","trial_index":51,"time_elapsed":334660,"internal_node_id":"0.0-4.0-0.20","subject_id":"606b81830eadb0d0bbee2cb9","study_id":"6197b3f67c2b5cd3b6d9596a","session_id":"6197b9f2f63ee4bbe2fc1112","condition":"contingent","relevant_dimensions":["antennae","legs"],"bee_group":{"antennae":"A","wings":"X","pattern":"X","legs":"M"},"action":"avoid","summary":"good-avoid","bonus":1.4400000000000008},{"rt":943.1000000000931,"stimulus":"\n                    <p><b>Action: <em>avoid</em></b></p>\n                    <p>This is the bee that you just saw.</p>\n                    <img src=\"bees-with-color/bee-A2SM.svg\" width=\"200\">\n                    <p><br>Your bonus pay is unchanged, and remains at $0.72.</p>\n            ","response":0,"trial_type":"html-button-response","trial_index":52,"time_elapsed":335604,"internal_node_id":"0.0-4.0-1.20","subject_id":"606b81830eadb0d0bbee2cb9","study_id":"6197b3f67c2b5cd3b6d9596a","session_id":"6197b9f2f63ee4bbe2fc1112","condition":"contingent","relevant_dimensions":["antennae","legs"],"bee_group":{"antennae":"A","wings":"X","pattern":"X","legs":"M"},"bonus":1.4400000000000008},{"rt":2183,"stimulus":"bees-with-color/bee-B2DF.svg","response":0,"trial_type":"image-button-response","trial_index":53,"time_elapsed":337788,"internal_node_id":"0.0-4.0-0.21","subject_id":"606b81830eadb0d0bbee2cb9","study_id":"6197b3f67c2b5cd3b6d9596a","session_id":"6197b9f2f63ee4bbe2fc1112","condition":"contingent","relevant_dimensions":["antennae","legs"],"bee_group":{"antennae":"A","wings":"X","pattern":"X","legs":"M"},"action":"harvest","summary":"good-harvest","bonus":1.4400000000000008},{"rt":694.6000000000931,"stimulus":"\n                    <p><b>Action: <em>harvest</em></b></p>\n                    <p>This is the bee that you just saw.</p>\n                    <img src=\"bees-with-color/bee-B2DF.svg\" width=\"200\">\n                    <p><span class=\"greenText\"><b>Successful harvest!</b></span><br>Your pay has increased by $0.02. Your bonus pay is now $0.74.</p>\n            ","response":0,"trial_type":"html-button-response","trial_index":54,"time_elapsed":338484,"internal_node_id":"0.0-4.0-1.21","subject_id":"606b81830eadb0d0bbee2cb9","study_id":"6197b3f67c2b5cd3b6d9596a","session_id":"6197b9f2f63ee4bbe2fc1112","condition":"contingent","relevant_dimensions":["antennae","legs"],"bee_group":{"antennae":"A","wings":"X","pattern":"X","legs":"M"},"bonus":1.4400000000000008},{"rt":1871,"stimulus":"bees-with-color/bee-A2DM.svg","response":1,"trial_type":"image-button-response","trial_index":55,"time_elapsed":340356,"internal_node_id":"0.0-4.0-0.22","subject_id":"606b81830eadb0d0bbee2cb9","study_id":"6197b3f67c2b5cd3b6d9596a","session_id":"6197b9f2f63ee4bbe2fc1112","condition":"contingent","relevant_dimensions":["antennae","legs"],"bee_group":{"antennae":"A","wings":"X","pattern":"X","legs":"M"},"action":"avoid","summary":"good-avoid","bonus":1.4400000000000008},{"rt":942.6999999997206,"stimulus":"\n                    <p><b>Action: <em>avoid</em></b></p>\n                    <p>This is the bee that you just saw.</p>\n                    <img src=\"bees-with-color/bee-A2DM.svg\" width=\"200\">\n                    <p><br>Your bonus pay is unchanged, and remains at $0.74.</p>\n            ","response":0,"trial_type":"html-button-response","trial_index":56,"time_elapsed":341300,"internal_node_id":"0.0-4.0-1.22","subject_id":"606b81830eadb0d0bbee2cb9","study_id":"6197b3f67c2b5cd3b6d9596a","session_id":"6197b9f2f63ee4bbe2fc1112","condition":"contingent","relevant_dimensions":["antennae","legs"],"bee_group":{"antennae":"A","wings":"X","pattern":"X","legs":"M"},"bonus":1.4400000000000008},{"rt":1743.1999999997206,"stimulus":"bees-with-color/bee-B1SF.svg","response":0,"trial_type":"image-button-response","trial_index":57,"time_elapsed":343044,"internal_node_id":"0.0-4.0-0.23","subject_id":"606b81830eadb0d0bbee2cb9","study_id":"6197b3f67c2b5cd3b6d9596a","session_id":"6197b9f2f63ee4bbe2fc1112","condition":"contingent","relevant_dimensions":["antennae","legs"],"bee_group":{"antennae":"A","wings":"X","pattern":"X","legs":"M"},"action":"harvest","summary":"good-harvest","bonus":1.4400000000000008},{"rt":686.6000000000931,"stimulus":"\n                    <p><b>Action: <em>harvest</em></b></p>\n                    <p>This is the bee that you just saw.</p>\n                    <img src=\"bees-with-color/bee-B1SF.svg\" width=\"200\">\n                    <p><span class=\"greenText\"><b>Successful harvest!</b></span><br>Your pay has increased by $0.02. Your bonus pay is now $0.76.</p>\n            ","response":0,"trial_type":"html-button-response","trial_index":58,"time_elapsed":343732,"internal_node_id":"0.0-4.0-1.23","subject_id":"606b81830eadb0d0bbee2cb9","study_id":"6197b3f67c2b5cd3b6d9596a","session_id":"6197b9f2f63ee4bbe2fc1112","condition":"contingent","relevant_dimensions":["antennae","legs"],"bee_group":{"antennae":"A","wings":"X","pattern":"X","legs":"M"},"bonus":1.4400000000000008},{"rt":5534.9000000003725,"stimulus":"bees-with-color/bee-A1DM.svg","response":1,"trial_type":"image-button-response","trial_index":59,"time_elapsed":349268,"internal_node_id":"0.0-4.0-0.24","subject_id":"606b81830eadb0d0bbee2cb9","study_id":"6197b3f67c2b5cd3b6d9596a","session_id":"6197b9f2f63ee4bbe2fc1112","condition":"contingent","relevant_dimensions":["antennae","legs"],"bee_group":{"antennae":"A","wings":"X","pattern":"X","legs":"M"},"action":"avoid","summary":"good-avoid","bonus":1.4400000000000008},{"rt":638.7999999998137,"stimulus":"\n                    <p><b>Action: <em>avoid</em></b></p>\n                    <p>This is the bee that you just saw.</p>\n                    <img src=\"bees-with-color/bee-A1DM.svg\" width=\"200\">\n                    <p><br>Your bonus pay is unchanged, and remains at $0.76.</p>\n            ","response":0,"trial_type":"html-button-response","trial_index":60,"time_elapsed":349908,"internal_node_id":"0.0-4.0-1.24","subject_id":"606b81830eadb0d0bbee2cb9","study_id":"6197b3f67c2b5cd3b6d9596a","session_id":"6197b9f2f63ee4bbe2fc1112","condition":"contingent","relevant_dimensions":["antennae","legs"],"bee_group":{"antennae":"A","wings":"X","pattern":"X","legs":"M"},"bonus":1.4400000000000008},{"rt":1422.6000000000931,"stimulus":"bees-with-color/bee-B1SM.svg","response":1,"trial_type":"image-button-response","trial_index":61,"time_elapsed":351331,"internal_node_id":"0.0-4.0-0.25","subject_id":"606b81830eadb0d0bbee2cb9","study_id":"6197b3f67c2b5cd3b6d9596a","session_id":"6197b9f2f63ee4bbe2fc1112","condition":"contingent","relevant_dimensions":["antennae","legs"],"bee_group":{"antennae":"A","wings":"X","pattern":"X","legs":"M"},"action":"avoid","summary":"bad-avoid","bonus":1.4400000000000008},{"rt":983,"stimulus":"\n                    <p><b>Action: <em>avoid</em></b></p>\n                    <p>This is the bee that you just saw.</p>\n                    <img src=\"bees-with-color/bee-B1SM.svg\" width=\"200\">\n                    <p><br>Your bonus pay is unchanged, and remains at $0.76.</p>\n            ","response":0,"trial_type":"html-button-response","trial_index":62,"time_elapsed":352316,"internal_node_id":"0.0-4.0-1.25","subject_id":"606b81830eadb0d0bbee2cb9","study_id":"6197b3f67c2b5cd3b6d9596a","session_id":"6197b9f2f63ee4bbe2fc1112","condition":"contingent","relevant_dimensions":["antennae","legs"],"bee_group":{"antennae":"A","wings":"X","pattern":"X","legs":"M"},"bonus":1.4400000000000008},{"rt":1478.8999999999069,"stimulus":"bees-with-color/bee-A1DF.svg","response":0,"trial_type":"image-button-response","trial_index":63,"time_elapsed":353796,"internal_node_id":"0.0-4.0-0.26","subject_id":"606b81830eadb0d0bbee2cb9","study_id":"6197b3f67c2b5cd3b6d9596a","session_id":"6197b9f2f63ee4bbe2fc1112","condition":"contingent","relevant_dimensions":["antennae","legs"],"bee_group":{"antennae":"A","wings":"X","pattern":"X","legs":"M"},"action":"harvest","summary":"good-harvest","bonus":1.4400000000000008},{"rt":934.7999999998137,"stimulus":"\n                    <p><b>Action: <em>harvest</em></b></p>\n                    <p>This is the bee that you just saw.</p>\n                    <img src=\"bees-with-color/bee-A1DF.svg\" width=\"200\">\n                    <p><span class=\"greenText\"><b>Successful harvest!</b></span><br>Your pay has increased by $0.02. Your bonus pay is now $0.78.</p>\n            ","response":0,"trial_type":"html-button-response","trial_index":64,"time_elapsed":354732,"internal_node_id":"0.0-4.0-1.26","subject_id":"606b81830eadb0d0bbee2cb9","study_id":"6197b3f67c2b5cd3b6d9596a","session_id":"6197b9f2f63ee4bbe2fc1112","condition":"contingent","relevant_dimensions":["antennae","legs"],"bee_group":{"antennae":"A","wings":"X","pattern":"X","legs":"M"},"bonus":1.4400000000000008},{"rt":1430.8000000002794,"stimulus":"bees-with-color/bee-A1SM.svg","response":1,"trial_type":"image-button-response","trial_index":65,"time_elapsed":356164,"internal_node_id":"0.0-4.0-0.27","subject_id":"606b81830eadb0d0bbee2cb9","study_id":"6197b3f67c2b5cd3b6d9596a","session_id":"6197b9f2f63ee4bbe2fc1112","condition":"contingent","relevant_dimensions":["antennae","legs"],"bee_group":{"antennae":"A","wings":"X","pattern":"X","legs":"M"},"action":"avoid","summary":"good-avoid","bonus":1.4400000000000008},{"rt":598.8000000002794,"stimulus":"\n                    <p><b>Action: <em>avoid</em></b></p>\n                    <p>This is the bee that you just saw.</p>\n                    <img src=\"bees-with-color/bee-A1SM.svg\" width=\"200\">\n                    <p><br>Your bonus pay is unchanged, and remains at $0.78.</p>\n            ","response":0,"trial_type":"html-button-response","trial_index":66,"time_elapsed":356764,"internal_node_id":"0.0-4.0-1.27","subject_id":"606b81830eadb0d0bbee2cb9","study_id":"6197b3f67c2b5cd3b6d9596a","session_id":"6197b9f2f63ee4bbe2fc1112","condition":"contingent","relevant_dimensions":["antennae","legs"],"bee_group":{"antennae":"A","wings":"X","pattern":"X","legs":"M"},"bonus":1.4400000000000008},{"rt":1278.5,"stimulus":"bees-with-color/bee-B2SM.svg","response":1,"trial_type":"image-button-response","trial_index":67,"time_elapsed":358044,"internal_node_id":"0.0-4.0-0.28","subject_id":"606b81830eadb0d0bbee2cb9","study_id":"6197b3f67c2b5cd3b6d9596a","session_id":"6197b9f2f63ee4bbe2fc1112","condition":"contingent","relevant_dimensions":["antennae","legs"],"bee_group":{"antennae":"A","wings":"X","pattern":"X","legs":"M"},"action":"avoid","summary":"bad-avoid","bonus":1.4400000000000008},{"rt":534.7000000001863,"stimulus":"\n                    <p><b>Action: <em>avoid</em></b></p>\n                    <p>This is the bee that you just saw.</p>\n                    <img src=\"bees-with-color/bee-B2SM.svg\" width=\"200\">\n                    <p><br>Your bonus pay is unchanged, and remains at $0.78.</p>\n            ","response":0,"trial_type":"html-button-response","trial_index":68,"time_elapsed":358580,"internal_node_id":"0.0-4.0-1.28","subject_id":"606b81830eadb0d0bbee2cb9","study_id":"6197b3f67c2b5cd3b6d9596a","session_id":"6197b9f2f63ee4bbe2fc1112","condition":"contingent","relevant_dimensions":["antennae","legs"],"bee_group":{"antennae":"A","wings":"X","pattern":"X","legs":"M"},"bonus":1.4400000000000008},{"rt":1790.8999999999069,"stimulus":"bees-with-color/bee-B2DM.svg","response":1,"trial_type":"image-button-response","trial_index":69,"time_elapsed":360372,"internal_node_id":"0.0-4.0-0.29","subject_id":"606b81830eadb0d0bbee2cb9","study_id":"6197b3f67c2b5cd3b6d9596a","session_id":"6197b9f2f63ee4bbe2fc1112","condition":"contingent","relevant_dimensions":["antennae","legs"],"bee_group":{"antennae":"A","wings":"X","pattern":"X","legs":"M"},"action":"avoid","summary":"bad-avoid","bonus":1.4400000000000008},{"rt":511.20000000018626,"stimulus":"\n                    <p><b>Action: <em>avoid</em></b></p>\n                    <p>This is the bee that you just saw.</p>\n                    <img src=\"bees-with-color/bee-B2DM.svg\" width=\"200\">\n                    <p><br>Your bonus pay is unchanged, and remains at $0.78.</p>\n            ","response":0,"trial_type":"html-button-response","trial_index":70,"time_elapsed":360884,"internal_node_id":"0.0-4.0-1.29","subject_id":"606b81830eadb0d0bbee2cb9","study_id":"6197b3f67c2b5cd3b6d9596a","session_id":"6197b9f2f63ee4bbe2fc1112","condition":"contingent","relevant_dimensions":["antennae","legs"],"bee_group":{"antennae":"A","wings":"X","pattern":"X","legs":"M"},"bonus":1.4400000000000008},{"rt":1238.3999999999069,"stimulus":"bees-with-color/bee-B1DM.svg","response":1,"trial_type":"image-button-response","trial_index":71,"time_elapsed":362124,"internal_node_id":"0.0-4.0-0.30","subject_id":"606b81830eadb0d0bbee2cb9","study_id":"6197b3f67c2b5cd3b6d9596a","session_id":"6197b9f2f63ee4bbe2fc1112","condition":"contingent","relevant_dimensions":["antennae","legs"],"bee_group":{"antennae":"A","wings":"X","pattern":"X","legs":"M"},"action":"avoid","summary":"bad-avoid","bonus":1.4400000000000008},{"rt":462.5,"stimulus":"\n                    <p><b>Action: <em>avoid</em></b></p>\n                    <p>This is the bee that you just saw.</p>\n                    <img src=\"bees-with-color/bee-B1DM.svg\" width=\"200\">\n                    <p><br>Your bonus pay is unchanged, and remains at $0.78.</p>\n            ","response":0,"trial_type":"html-button-response","trial_index":72,"time_elapsed":362588,"internal_node_id":"0.0-4.0-1.30","subject_id":"606b81830eadb0d0bbee2cb9","study_id":"6197b3f67c2b5cd3b6d9596a","session_id":"6197b9f2f63ee4bbe2fc1112","condition":"contingent","relevant_dimensions":["antennae","legs"],"bee_group":{"antennae":"A","wings":"X","pattern":"X","legs":"M"},"bonus":1.4400000000000008},{"rt":1350.7999999998137,"stimulus":"bees-with-color/bee-A2DF.svg","response":0,"trial_type":"image-button-response","trial_index":73,"time_elapsed":363940,"internal_node_id":"0.0-4.0-0.31","subject_id":"606b81830eadb0d0bbee2cb9","study_id":"6197b3f67c2b5cd3b6d9596a","session_id":"6197b9f2f63ee4bbe2fc1112","condition":"contingent","relevant_dimensions":["antennae","legs"],"bee_group":{"antennae":"A","wings":"X","pattern":"X","legs":"M"},"action":"harvest","summary":"good-harvest","bonus":1.4400000000000008},{"rt":583.0999999996275,"stimulus":"\n                    <p><b>Action: <em>harvest</em></b></p>\n                    <p>This is the bee that you just saw.</p>\n                    <img src=\"bees-with-color/bee-A2DF.svg\" width=\"200\">\n                    <p><span class=\"greenText\"><b>Successful harvest!</b></span><br>Your pay has increased by $0.02. Your bonus pay is now $0.80.</p>\n            ","response":0,"trial_type":"html-button-response","trial_index":74,"time_elapsed":364524,"internal_node_id":"0.0-4.0-1.31","subject_id":"606b81830eadb0d0bbee2cb9","study_id":"6197b3f67c2b5cd3b6d9596a","session_id":"6197b9f2f63ee4bbe2fc1112","condition":"contingent","relevant_dimensions":["antennae","legs"],"bee_group":{"antennae":"A","wings":"X","pattern":"X","legs":"M"},"bonus":1.4400000000000008},{"rt":1726.6000000000931,"stimulus":"bees-with-color/bee-A2DF.svg","response":0,"trial_type":"image-button-response","trial_index":75,"time_elapsed":366252,"internal_node_id":"0.0-4.0-0.32","subject_id":"606b81830eadb0d0bbee2cb9","study_id":"6197b3f67c2b5cd3b6d9596a","session_id":"6197b9f2f63ee4bbe2fc1112","condition":"contingent","relevant_dimensions":["antennae","legs"],"bee_group":{"antennae":"A","wings":"X","pattern":"X","legs":"M"},"action":"harvest","summary":"good-harvest","bonus":1.4400000000000008},{"rt":943.2000000001863,"stimulus":"\n                    <p><b>Action: <em>harvest</em></b></p>\n                    <p>This is the bee that you just saw.</p>\n                    <img src=\"bees-with-color/bee-A2DF.svg\" width=\"200\">\n                    <p><span class=\"greenText\"><b>Successful harvest!</b></span><br>Your pay has increased by $0.02. Your bonus pay is now $0.82.</p>\n            ","response":0,"trial_type":"html-button-response","trial_index":76,"time_elapsed":367196,"internal_node_id":"0.0-4.0-1.32","subject_id":"606b81830eadb0d0bbee2cb9","study_id":"6197b3f67c2b5cd3b6d9596a","session_id":"6197b9f2f63ee4bbe2fc1112","condition":"contingent","relevant_dimensions":["antennae","legs"],"bee_group":{"antennae":"A","wings":"X","pattern":"X","legs":"M"},"bonus":1.4400000000000008},{"rt":1310.6999999997206,"stimulus":"bees-with-color/bee-B1SM.svg","response":1,"trial_type":"image-button-response","trial_index":77,"time_elapsed":368507,"internal_node_id":"0.0-4.0-0.33","subject_id":"606b81830eadb0d0bbee2cb9","study_id":"6197b3f67c2b5cd3b6d9596a","session_id":"6197b9f2f63ee4bbe2fc1112","condition":"contingent","relevant_dimensions":["antennae","legs"],"bee_group":{"antennae":"A","wings":"X","pattern":"X","legs":"M"},"action":"avoid","summary":"bad-avoid","bonus":1.4400000000000008},{"rt":599.2999999998137,"stimulus":"\n                    <p><b>Action: <em>avoid</em></b></p>\n                    <p>This is the bee that you just saw.</p>\n                    <img src=\"bees-with-color/bee-B1SM.svg\" width=\"200\">\n                    <p><br>Your bonus pay is unchanged, and remains at $0.82.</p>\n            ","response":0,"trial_type":"html-button-response","trial_index":78,"time_elapsed":369107,"internal_node_id":"0.0-4.0-1.33","subject_id":"606b81830eadb0d0bbee2cb9","study_id":"6197b3f67c2b5cd3b6d9596a","session_id":"6197b9f2f63ee4bbe2fc1112","condition":"contingent","relevant_dimensions":["antennae","legs"],"bee_group":{"antennae":"A","wings":"X","pattern":"X","legs":"M"},"bonus":1.4400000000000008},{"rt":1399.1000000000931,"stimulus":"bees-with-color/bee-A1SF.svg","response":0,"trial_type":"image-button-response","trial_index":79,"time_elapsed":370507,"internal_node_id":"0.0-4.0-0.34","subject_id":"606b81830eadb0d0bbee2cb9","study_id":"6197b3f67c2b5cd3b6d9596a","session_id":"6197b9f2f63ee4bbe2fc1112","condition":"contingent","relevant_dimensions":["antennae","legs"],"bee_group":{"antennae":"A","wings":"X","pattern":"X","legs":"M"},"action":"harvest","summary":"good-harvest","bonus":1.4400000000000008},{"rt":598.6000000000931,"stimulus":"\n                    <p><b>Action: <em>harvest</em></b></p>\n                    <p>This is the bee that you just saw.</p>\n                    <img src=\"bees-with-color/bee-A1SF.svg\" width=\"200\">\n                    <p><span class=\"greenText\"><b>Successful harvest!</b></span><br>Your pay has increased by $0.02. Your bonus pay is now $0.84.</p>\n            ","response":0,"trial_type":"html-button-response","trial_index":80,"time_elapsed":371107,"internal_node_id":"0.0-4.0-1.34","subject_id":"606b81830eadb0d0bbee2cb9","study_id":"6197b3f67c2b5cd3b6d9596a","session_id":"6197b9f2f63ee4bbe2fc1112","condition":"contingent","relevant_dimensions":["antennae","legs"],"bee_group":{"antennae":"A","wings":"X","pattern":"X","legs":"M"},"bonus":1.4400000000000008},{"rt":1911.2000000001863,"stimulus":"bees-with-color/bee-B1SF.svg","response":0,"trial_type":"image-button-response","trial_index":81,"time_elapsed":373020,"internal_node_id":"0.0-4.0-0.35","subject_id":"606b81830eadb0d0bbee2cb9","study_id":"6197b3f67c2b5cd3b6d9596a","session_id":"6197b9f2f63ee4bbe2fc1112","condition":"contingent","relevant_dimensions":["antennae","legs"],"bee_group":{"antennae":"A","wings":"X","pattern":"X","legs":"M"},"action":"harvest","summary":"good-harvest","bonus":1.4400000000000008},{"rt":823.2000000001863,"stimulus":"\n                    <p><b>Action: <em>harvest</em></b></p>\n                    <p>This is the bee that you just saw.</p>\n                    <img src=\"bees-with-color/bee-B1SF.svg\" width=\"200\">\n                    <p><span class=\"greenText\"><b>Successful harvest!</b></span><br>Your pay has increased by $0.02. Your bonus pay is now $0.86.</p>\n            ","response":0,"trial_type":"html-button-response","trial_index":82,"time_elapsed":373844,"internal_node_id":"0.0-4.0-1.35","subject_id":"606b81830eadb0d0bbee2cb9","study_id":"6197b3f67c2b5cd3b6d9596a","session_id":"6197b9f2f63ee4bbe2fc1112","condition":"contingent","relevant_dimensions":["antennae","legs"],"bee_group":{"antennae":"A","wings":"X","pattern":"X","legs":"M"},"bonus":1.4400000000000008},{"rt":2183.100000000093,"stimulus":"bees-with-color/bee-B1DF.svg","response":0,"trial_type":"image-button-response","trial_index":83,"time_elapsed":376028,"internal_node_id":"0.0-4.0-0.36","subject_id":"606b81830eadb0d0bbee2cb9","study_id":"6197b3f67c2b5cd3b6d9596a","session_id":"6197b9f2f63ee4bbe2fc1112","condition":"contingent","relevant_dimensions":["antennae","legs"],"bee_group":{"antennae":"A","wings":"X","pattern":"X","legs":"M"},"action":"harvest","summary":"good-harvest","bonus":1.4400000000000008},{"rt":567.1000000000931,"stimulus":"\n                    <p><b>Action: <em>harvest</em></b></p>\n                    <p>This is the bee that you just saw.</p>\n                    <img src=\"bees-with-color/bee-B1DF.svg\" width=\"200\">\n                    <p><span class=\"greenText\"><b>Successful harvest!</b></span><br>Your pay has increased by $0.02. Your bonus pay is now $0.88.</p>\n            ","response":0,"trial_type":"html-button-response","trial_index":84,"time_elapsed":376596,"internal_node_id":"0.0-4.0-1.36","subject_id":"606b81830eadb0d0bbee2cb9","study_id":"6197b3f67c2b5cd3b6d9596a","session_id":"6197b9f2f63ee4bbe2fc1112","condition":"contingent","relevant_dimensions":["antennae","legs"],"bee_group":{"antennae":"A","wings":"X","pattern":"X","legs":"M"},"bonus":1.4400000000000008},{"rt":1295,"stimulus":"bees-with-color/bee-A2DM.svg","response":1,"trial_type":"image-button-response","trial_index":85,"time_elapsed":377892,"internal_node_id":"0.0-4.0-0.37","subject_id":"606b81830eadb0d0bbee2cb9","study_id":"6197b3f67c2b5cd3b6d9596a","session_id":"6197b9f2f63ee4bbe2fc1112","condition":"contingent","relevant_dimensions":["antennae","legs"],"bee_group":{"antennae":"A","wings":"X","pattern":"X","legs":"M"},"action":"avoid","summary":"good-avoid","bonus":1.4400000000000008},{"rt":511.10000000009313,"stimulus":"\n                    <p><b>Action: <em>avoid</em></b></p>\n                    <p>This is the bee that you just saw.</p>\n                    <img src=\"bees-with-color/bee-A2DM.svg\" width=\"200\">\n                    <p><br>Your bonus pay is unchanged, and remains at $0.88.</p>\n            ","response":0,"trial_type":"html-button-response","trial_index":86,"time_elapsed":378404,"internal_node_id":"0.0-4.0-1.37","subject_id":"606b81830eadb0d0bbee2cb9","study_id":"6197b3f67c2b5cd3b6d9596a","session_id":"6197b9f2f63ee4bbe2fc1112","condition":"contingent","relevant_dimensions":["antennae","legs"],"bee_group":{"antennae":"A","wings":"X","pattern":"X","legs":"M"},"bonus":1.4400000000000008},{"rt":759.2000000001863,"stimulus":"bees-with-color/bee-B2DM.svg","response":1,"trial_type":"image-button-response","trial_index":87,"time_elapsed":379164,"internal_node_id":"0.0-4.0-0.38","subject_id":"606b81830eadb0d0bbee2cb9","study_id":"6197b3f67c2b5cd3b6d9596a","session_id":"6197b9f2f63ee4bbe2fc1112","condition":"contingent","relevant_dimensions":["antennae","legs"],"bee_group":{"antennae":"A","wings":"X","pattern":"X","legs":"M"},"action":"avoid","summary":"bad-avoid","bonus":1.4400000000000008},{"rt":455.10000000009313,"stimulus":"\n                    <p><b>Action: <em>avoid</em></b></p>\n                    <p>This is the bee that you just saw.</p>\n                    <img src=\"bees-with-color/bee-B2DM.svg\" width=\"200\">\n                    <p><br>Your bonus pay is unchanged, and remains at $0.88.</p>\n            ","response":0,"trial_type":"html-button-response","trial_index":88,"time_elapsed":379620,"internal_node_id":"0.0-4.0-1.38","subject_id":"606b81830eadb0d0bbee2cb9","study_id":"6197b3f67c2b5cd3b6d9596a","session_id":"6197b9f2f63ee4bbe2fc1112","condition":"contingent","relevant_dimensions":["antennae","legs"],"bee_group":{"antennae":"A","wings":"X","pattern":"X","legs":"M"},"bonus":1.4400000000000008},{"rt":998.9000000003725,"stimulus":"bees-with-color/bee-A1DM.svg","response":1,"trial_type":"image-button-response","trial_index":89,"time_elapsed":380620,"internal_node_id":"0.0-4.0-0.39","subject_id":"606b81830eadb0d0bbee2cb9","study_id":"6197b3f67c2b5cd3b6d9596a","session_id":"6197b9f2f63ee4bbe2fc1112","condition":"contingent","relevant_dimensions":["antennae","legs"],"bee_group":{"antennae":"A","wings":"X","pattern":"X","legs":"M"},"action":"avoid","summary":"good-avoid","bonus":1.4400000000000008},{"rt":423,"stimulus":"\n                    <p><b>Action: <em>avoid</em></b></p>\n                    <p>This is the bee that you just saw.</p>\n                    <img src=\"bees-with-color/bee-A1DM.svg\" width=\"200\">\n                    <p><br>Your bonus pay is unchanged, and remains at $0.88.</p>\n            ","response":0,"trial_type":"html-button-response","trial_index":90,"time_elapsed":381044,"internal_node_id":"0.0-4.0-1.39","subject_id":"606b81830eadb0d0bbee2cb9","study_id":"6197b3f67c2b5cd3b6d9596a","session_id":"6197b9f2f63ee4bbe2fc1112","condition":"contingent","relevant_dimensions":["antennae","legs"],"bee_group":{"antennae":"A","wings":"X","pattern":"X","legs":"M"},"bonus":1.4400000000000008},{"rt":1214.8999999999069,"stimulus":"bees-with-color/bee-B2SM.svg","response":1,"trial_type":"image-button-response","trial_index":91,"time_elapsed":382260,"internal_node_id":"0.0-4.0-0.40","subject_id":"606b81830eadb0d0bbee2cb9","study_id":"6197b3f67c2b5cd3b6d9596a","session_id":"6197b9f2f63ee4bbe2fc1112","condition":"contingent","relevant_dimensions":["antennae","legs"],"bee_group":{"antennae":"A","wings":"X","pattern":"X","legs":"M"},"action":"avoid","summary":"bad-avoid","bonus":1.4400000000000008},{"rt":431,"stimulus":"\n                    <p><b>Action: <em>avoid</em></b></p>\n                    <p>This is the bee that you just saw.</p>\n                    <img src=\"bees-with-color/bee-B2SM.svg\" width=\"200\">\n                    <p><br>Your bonus pay is unchanged, and remains at $0.88.</p>\n            ","response":0,"trial_type":"html-button-response","trial_index":92,"time_elapsed":382692,"internal_node_id":"0.0-4.0-1.40","subject_id":"606b81830eadb0d0bbee2cb9","study_id":"6197b3f67c2b5cd3b6d9596a","session_id":"6197b9f2f63ee4bbe2fc1112","condition":"contingent","relevant_dimensions":["antennae","legs"],"bee_group":{"antennae":"A","wings":"X","pattern":"X","legs":"M"},"bonus":1.4400000000000008},{"rt":1447,"stimulus":"bees-with-color/bee-A1DF.svg","response":0,"trial_type":"image-button-response","trial_index":93,"time_elapsed":384140,"internal_node_id":"0.0-4.0-0.41","subject_id":"606b81830eadb0d0bbee2cb9","study_id":"6197b3f67c2b5cd3b6d9596a","session_id":"6197b9f2f63ee4bbe2fc1112","condition":"contingent","relevant_dimensions":["antennae","legs"],"bee_group":{"antennae":"A","wings":"X","pattern":"X","legs":"M"},"action":"harvest","summary":"good-harvest","bonus":1.4400000000000008},{"rt":583,"stimulus":"\n                    <p><b>Action: <em>harvest</em></b></p>\n                    <p>This is the bee that you just saw.</p>\n                    <img src=\"bees-with-color/bee-A1DF.svg\" width=\"200\">\n                    <p><span class=\"greenText\"><b>Successful harvest!</b></span><br>Your pay has increased by $0.02. Your bonus pay is now $0.90.</p>\n            ","response":0,"trial_type":"html-button-response","trial_index":94,"time_elapsed":384724,"internal_node_id":"0.0-4.0-1.41","subject_id":"606b81830eadb0d0bbee2cb9","study_id":"6197b3f67c2b5cd3b6d9596a","session_id":"6197b9f2f63ee4bbe2fc1112","condition":"contingent","relevant_dimensions":["antennae","legs"],"bee_group":{"antennae":"A","wings":"X","pattern":"X","legs":"M"},"bonus":1.4400000000000008},{"rt":1535.1000000000931,"stimulus":"bees-with-color/bee-B2SF.svg","response":0,"trial_type":"image-button-response","trial_index":95,"time_elapsed":386260,"internal_node_id":"0.0-4.0-0.42","subject_id":"606b81830eadb0d0bbee2cb9","study_id":"6197b3f67c2b5cd3b6d9596a","session_id":"6197b9f2f63ee4bbe2fc1112","condition":"contingent","relevant_dimensions":["antennae","legs"],"bee_group":{"antennae":"A","wings":"X","pattern":"X","legs":"M"},"action":"harvest","summary":"good-harvest","bonus":1.4400000000000008},{"rt":574.8999999999069,"stimulus":"\n                    <p><b>Action: <em>harvest</em></b></p>\n                    <p>This is the bee that you just saw.</p>\n                    <img src=\"bees-with-color/bee-B2SF.svg\" width=\"200\">\n                    <p><span class=\"greenText\"><b>Successful harvest!</b></span><br>Your pay has increased by $0.02. Your bonus pay is now $0.92.</p>\n            ","response":0,"trial_type":"html-button-response","trial_index":96,"time_elapsed":386836,"internal_node_id":"0.0-4.0-1.42","subject_id":"606b81830eadb0d0bbee2cb9","study_id":"6197b3f67c2b5cd3b6d9596a","session_id":"6197b9f2f63ee4bbe2fc1112","condition":"contingent","relevant_dimensions":["antennae","legs"],"bee_group":{"antennae":"A","wings":"X","pattern":"X","legs":"M"},"bonus":1.4400000000000008},{"rt":743,"stimulus":"bees-with-color/bee-A2SM.svg","response":1,"trial_type":"image-button-response","trial_index":97,"time_elapsed":387580,"internal_node_id":"0.0-4.0-0.43","subject_id":"606b81830eadb0d0bbee2cb9","study_id":"6197b3f67c2b5cd3b6d9596a","session_id":"6197b9f2f63ee4bbe2fc1112","condition":"contingent","relevant_dimensions":["antennae","legs"],"bee_group":{"antennae":"A","wings":"X","pattern":"X","legs":"M"},"action":"avoid","summary":"good-avoid","bonus":1.4400000000000008},{"rt":447,"stimulus":"\n                    <p><b>Action: <em>avoid</em></b></p>\n                    <p>This is the bee that you just saw.</p>\n                    <img src=\"bees-with-color/bee-A2SM.svg\" width=\"200\">\n                    <p><br>Your bonus pay is unchanged, and remains at $0.92.</p>\n            ","response":0,"trial_type":"html-button-response","trial_index":98,"time_elapsed":388028,"internal_node_id":"0.0-4.0-1.43","subject_id":"606b81830eadb0d0bbee2cb9","study_id":"6197b3f67c2b5cd3b6d9596a","session_id":"6197b9f2f63ee4bbe2fc1112","condition":"contingent","relevant_dimensions":["antennae","legs"],"bee_group":{"antennae":"A","wings":"X","pattern":"X","legs":"M"},"bonus":1.4400000000000008},{"rt":862.8999999999069,"stimulus":"bees-with-color/bee-A1SM.svg","response":1,"trial_type":"image-button-response","trial_index":99,"time_elapsed":388891,"internal_node_id":"0.0-4.0-0.44","subject_id":"606b81830eadb0d0bbee2cb9","study_id":"6197b3f67c2b5cd3b6d9596a","session_id":"6197b9f2f63ee4bbe2fc1112","condition":"contingent","relevant_dimensions":["antennae","legs"],"bee_group":{"antennae":"A","wings":"X","pattern":"X","legs":"M"},"action":"avoid","summary":"good-avoid","bonus":1.4400000000000008},{"rt":423.20000000018626,"stimulus":"\n                    <p><b>Action: <em>avoid</em></b></p>\n                    <p>This is the bee that you just saw.</p>\n                    <img src=\"bees-with-color/bee-A1SM.svg\" width=\"200\">\n                    <p><br>Your bonus pay is unchanged, and remains at $0.92.</p>\n            ","response":0,"trial_type":"html-button-response","trial_index":100,"time_elapsed":389316,"internal_node_id":"0.0-4.0-1.44","subject_id":"606b81830eadb0d0bbee2cb9","study_id":"6197b3f67c2b5cd3b6d9596a","session_id":"6197b9f2f63ee4bbe2fc1112","condition":"contingent","relevant_dimensions":["antennae","legs"],"bee_group":{"antennae":"A","wings":"X","pattern":"X","legs":"M"},"bonus":1.4400000000000008},{"rt":726.6999999997206,"stimulus":"bees-with-color/bee-B1DM.svg","response":1,"trial_type":"image-button-response","trial_index":101,"time_elapsed":390044,"internal_node_id":"0.0-4.0-0.45","subject_id":"606b81830eadb0d0bbee2cb9","study_id":"6197b3f67c2b5cd3b6d9596a","session_id":"6197b9f2f63ee4bbe2fc1112","condition":"contingent","relevant_dimensions":["antennae","legs"],"bee_group":{"antennae":"A","wings":"X","pattern":"X","legs":"M"},"action":"avoid","summary":"bad-avoid","bonus":1.4400000000000008},{"rt":399,"stimulus":"\n                    <p><b>Action: <em>avoid</em></b></p>\n                    <p>This is the bee that you just saw.</p>\n                    <img src=\"bees-with-color/bee-B1DM.svg\" width=\"200\">\n                    <p><br>Your bonus pay is unchanged, and remains at $0.92.</p>\n            ","response":0,"trial_type":"html-button-response","trial_index":102,"time_elapsed":390444,"internal_node_id":"0.0-4.0-1.45","subject_id":"606b81830eadb0d0bbee2cb9","study_id":"6197b3f67c2b5cd3b6d9596a","session_id":"6197b9f2f63ee4bbe2fc1112","condition":"contingent","relevant_dimensions":["antennae","legs"],"bee_group":{"antennae":"A","wings":"X","pattern":"X","legs":"M"},"bonus":1.4400000000000008},{"rt":791.2000000001863,"stimulus":"bees-with-color/bee-A2SF.svg","response":0,"trial_type":"image-button-response","trial_index":103,"time_elapsed":391236,"internal_node_id":"0.0-4.0-0.46","subject_id":"606b81830eadb0d0bbee2cb9","study_id":"6197b3f67c2b5cd3b6d9596a","session_id":"6197b9f2f63ee4bbe2fc1112","condition":"contingent","relevant_dimensions":["antennae","legs"],"bee_group":{"antennae":"A","wings":"X","pattern":"X","legs":"M"},"action":"harvest","summary":"good-harvest","bonus":1.4400000000000008},{"rt":551,"stimulus":"\n                    <p><b>Action: <em>harvest</em></b></p>\n                    <p>This is the bee that you just saw.</p>\n                    <img src=\"bees-with-color/bee-A2SF.svg\" width=\"200\">\n                    <p><span class=\"greenText\"><b>Successful harvest!</b></span><br>Your pay has increased by $0.02. Your bonus pay is now $0.94.</p>\n            ","response":0,"trial_type":"html-button-response","trial_index":104,"time_elapsed":391788,"internal_node_id":"0.0-4.0-1.46","subject_id":"606b81830eadb0d0bbee2cb9","study_id":"6197b3f67c2b5cd3b6d9596a","session_id":"6197b9f2f63ee4bbe2fc1112","condition":"contingent","relevant_dimensions":["antennae","legs"],"bee_group":{"antennae":"A","wings":"X","pattern":"X","legs":"M"},"bonus":1.4400000000000008},{"rt":783,"stimulus":"bees-with-color/bee-B2DF.svg","response":0,"trial_type":"image-button-response","trial_index":105,"time_elapsed":392572,"internal_node_id":"0.0-4.0-0.47","subject_id":"606b81830eadb0d0bbee2cb9","study_id":"6197b3f67c2b5cd3b6d9596a","session_id":"6197b9f2f63ee4bbe2fc1112","condition":"contingent","relevant_dimensions":["antennae","legs"],"bee_group":{"antennae":"A","wings":"X","pattern":"X","legs":"M"},"action":"harvest","summary":"good-harvest","bonus":1.4400000000000008},{"rt":446.89999999990687,"stimulus":"\n                    <p><b>Action: <em>harvest</em></b></p>\n                    <p>This is the bee that you just saw.</p>\n                    <img src=\"bees-with-color/bee-B2DF.svg\" width=\"200\">\n                    <p><span class=\"greenText\"><b>Successful harvest!</b></span><br>Your pay has increased by $0.02. Your bonus pay is now $0.96.</p>\n            ","response":0,"trial_type":"html-button-response","trial_index":106,"time_elapsed":393020,"internal_node_id":"0.0-4.0-1.47","subject_id":"606b81830eadb0d0bbee2cb9","study_id":"6197b3f67c2b5cd3b6d9596a","session_id":"6197b9f2f63ee4bbe2fc1112","condition":"contingent","relevant_dimensions":["antennae","legs"],"bee_group":{"antennae":"A","wings":"X","pattern":"X","legs":"M"},"bonus":1.4400000000000008},{"rt":766.7999999998137,"stimulus":"bees-with-color/bee-B1DM.svg","response":1,"trial_type":"image-button-response","trial_index":107,"time_elapsed":393788,"internal_node_id":"0.0-4.0-0.48","subject_id":"606b81830eadb0d0bbee2cb9","study_id":"6197b3f67c2b5cd3b6d9596a","session_id":"6197b9f2f63ee4bbe2fc1112","condition":"contingent","relevant_dimensions":["antennae","legs"],"bee_group":{"antennae":"A","wings":"X","pattern":"X","legs":"M"},"action":"avoid","summary":"bad-avoid","bonus":1.4400000000000008},{"rt":415,"stimulus":"\n                    <p><b>Action: <em>avoid</em></b></p>\n                    <p>This is the bee that you just saw.</p>\n                    <img src=\"bees-with-color/bee-B1DM.svg\" width=\"200\">\n                    <p><br>Your bonus pay is unchanged, and remains at $0.96.</p>\n            ","response":0,"trial_type":"html-button-response","trial_index":108,"time_elapsed":394204,"internal_node_id":"0.0-4.0-1.48","subject_id":"606b81830eadb0d0bbee2cb9","study_id":"6197b3f67c2b5cd3b6d9596a","session_id":"6197b9f2f63ee4bbe2fc1112","condition":"contingent","relevant_dimensions":["antennae","legs"],"bee_group":{"antennae":"A","wings":"X","pattern":"X","legs":"M"},"bonus":1.4400000000000008},{"rt":1086.8999999999069,"stimulus":"bees-with-color/bee-A2SM.svg","response":1,"trial_type":"image-button-response","trial_index":109,"time_elapsed":395292,"internal_node_id":"0.0-4.0-0.49","subject_id":"606b81830eadb0d0bbee2cb9","study_id":"6197b3f67c2b5cd3b6d9596a","session_id":"6197b9f2f63ee4bbe2fc1112","condition":"contingent","relevant_dimensions":["antennae","legs"],"bee_group":{"antennae":"A","wings":"X","pattern":"X","legs":"M"},"action":"avoid","summary":"good-avoid","bonus":1.4400000000000008},{"rt":431,"stimulus":"\n                    <p><b>Action: <em>avoid</em></b></p>\n                    <p>This is the bee that you just saw.</p>\n                    <img src=\"bees-with-color/bee-A2SM.svg\" width=\"200\">\n                    <p><br>Your bonus pay is unchanged, and remains at $0.96.</p>\n            ","response":0,"trial_type":"html-button-response","trial_index":110,"time_elapsed":395724,"internal_node_id":"0.0-4.0-1.49","subject_id":"606b81830eadb0d0bbee2cb9","study_id":"6197b3f67c2b5cd3b6d9596a","session_id":"6197b9f2f63ee4bbe2fc1112","condition":"contingent","relevant_dimensions":["antennae","legs"],"bee_group":{"antennae":"A","wings":"X","pattern":"X","legs":"M"},"bonus":1.4400000000000008},{"rt":782.8999999999069,"stimulus":"bees-with-color/bee-B1DF.svg","response":0,"trial_type":"image-button-response","trial_index":111,"time_elapsed":396508,"internal_node_id":"0.0-4.0-0.50","subject_id":"606b81830eadb0d0bbee2cb9","study_id":"6197b3f67c2b5cd3b6d9596a","session_id":"6197b9f2f63ee4bbe2fc1112","condition":"contingent","relevant_dimensions":["antennae","legs"],"bee_group":{"antennae":"A","wings":"X","pattern":"X","legs":"M"},"action":"harvest","summary":"good-harvest","bonus":1.4400000000000008},{"rt":438.89999999990687,"stimulus":"\n                    <p><b>Action: <em>harvest</em></b></p>\n                    <p>This is the bee that you just saw.</p>\n                    <img src=\"bees-with-color/bee-B1DF.svg\" width=\"200\">\n                    <p><span class=\"greenText\"><b>Successful harvest!</b></span><br>Your pay has increased by $0.02. Your bonus pay is now $0.98.</p>\n            ","response":0,"trial_type":"html-button-response","trial_index":112,"time_elapsed":396948,"internal_node_id":"0.0-4.0-1.50","subject_id":"606b81830eadb0d0bbee2cb9","study_id":"6197b3f67c2b5cd3b6d9596a","session_id":"6197b9f2f63ee4bbe2fc1112","condition":"contingent","relevant_dimensions":["antennae","legs"],"bee_group":{"antennae":"A","wings":"X","pattern":"X","legs":"M"},"bonus":1.4400000000000008},{"rt":1007,"stimulus":"bees-with-color/bee-B2DF.svg","response":0,"trial_type":"image-button-response","trial_index":113,"time_elapsed":397956,"internal_node_id":"0.0-4.0-0.51","subject_id":"606b81830eadb0d0bbee2cb9","study_id":"6197b3f67c2b5cd3b6d9596a","session_id":"6197b9f2f63ee4bbe2fc1112","condition":"contingent","relevant_dimensions":["antennae","legs"],"bee_group":{"antennae":"A","wings":"X","pattern":"X","legs":"M"},"action":"harvest","summary":"good-harvest","bonus":1.4400000000000008},{"rt":446.79999999981374,"stimulus":"\n                    <p><b>Action: <em>harvest</em></b></p>\n                    <p>This is the bee that you just saw.</p>\n                    <img src=\"bees-with-color/bee-B2DF.svg\" width=\"200\">\n                    <p><span class=\"greenText\"><b>Successful harvest!</b></span><br>Your pay has increased by $0.02. Your bonus pay is now $1.00.</p>\n            ","response":0,"trial_type":"html-button-response","trial_index":114,"time_elapsed":398404,"internal_node_id":"0.0-4.0-1.51","subject_id":"606b81830eadb0d0bbee2cb9","study_id":"6197b3f67c2b5cd3b6d9596a","session_id":"6197b9f2f63ee4bbe2fc1112","condition":"contingent","relevant_dimensions":["antennae","legs"],"bee_group":{"antennae":"A","wings":"X","pattern":"X","legs":"M"},"bonus":1.4400000000000008},{"rt":1710.8999999999069,"stimulus":"bees-with-color/bee-A1DF.svg","response":0,"trial_type":"image-button-response","trial_index":115,"time_elapsed":400116,"internal_node_id":"0.0-4.0-0.52","subject_id":"606b81830eadb0d0bbee2cb9","study_id":"6197b3f67c2b5cd3b6d9596a","session_id":"6197b9f2f63ee4bbe2fc1112","condition":"contingent","relevant_dimensions":["antennae","legs"],"bee_group":{"antennae":"A","wings":"X","pattern":"X","legs":"M"},"action":"harvest","summary":"good-harvest","bonus":1.4400000000000008},{"rt":382.8000000002794,"stimulus":"\n                    <p><b>Action: <em>harvest</em></b></p>\n                    <p>This is the bee that you just saw.</p>\n                    <img src=\"bees-with-color/bee-A1DF.svg\" width=\"200\">\n                    <p><span class=\"greenText\"><b>Successful harvest!</b></span><br>Your pay has increased by $0.02. Your bonus pay is now $1.02.</p>\n            ","response":0,"trial_type":"html-button-response","trial_index":116,"time_elapsed":400500,"internal_node_id":"0.0-4.0-1.52","subject_id":"606b81830eadb0d0bbee2cb9","study_id":"6197b3f67c2b5cd3b6d9596a","session_id":"6197b9f2f63ee4bbe2fc1112","condition":"contingent","relevant_dimensions":["antennae","legs"],"bee_group":{"antennae":"A","wings":"X","pattern":"X","legs":"M"},"bonus":1.4400000000000008},{"rt":966.7999999998137,"stimulus":"bees-with-color/bee-A1DM.svg","response":1,"trial_type":"image-button-response","trial_index":117,"time_elapsed":401468,"internal_node_id":"0.0-4.0-0.53","subject_id":"606b81830eadb0d0bbee2cb9","study_id":"6197b3f67c2b5cd3b6d9596a","session_id":"6197b9f2f63ee4bbe2fc1112","condition":"contingent","relevant_dimensions":["antennae","legs"],"bee_group":{"antennae":"A","wings":"X","pattern":"X","legs":"M"},"action":"avoid","summary":"good-avoid","bonus":1.4400000000000008},{"rt":462.89999999990687,"stimulus":"\n                    <p><b>Action: <em>avoid</em></b></p>\n                    <p>This is the bee that you just saw.</p>\n                    <img src=\"bees-with-color/bee-A1DM.svg\" width=\"200\">\n                    <p><br>Your bonus pay is unchanged, and remains at $1.02.</p>\n            ","response":0,"trial_type":"html-button-response","trial_index":118,"time_elapsed":401932,"internal_node_id":"0.0-4.0-1.53","subject_id":"606b81830eadb0d0bbee2cb9","study_id":"6197b3f67c2b5cd3b6d9596a","session_id":"6197b9f2f63ee4bbe2fc1112","condition":"contingent","relevant_dimensions":["antennae","legs"],"bee_group":{"antennae":"A","wings":"X","pattern":"X","legs":"M"},"bonus":1.4400000000000008},{"rt":1319,"stimulus":"bees-with-color/bee-A2DF.svg","response":0,"trial_type":"image-button-response","trial_index":119,"time_elapsed":403251,"internal_node_id":"0.0-4.0-0.54","subject_id":"606b81830eadb0d0bbee2cb9","study_id":"6197b3f67c2b5cd3b6d9596a","session_id":"6197b9f2f63ee4bbe2fc1112","condition":"contingent","relevant_dimensions":["antennae","legs"],"bee_group":{"antennae":"A","wings":"X","pattern":"X","legs":"M"},"action":"harvest","summary":"good-harvest","bonus":1.4400000000000008},{"rt":487.3000000002794,"stimulus":"\n                    <p><b>Action: <em>harvest</em></b></p>\n                    <p>This is the bee that you just saw.</p>\n                    <img src=\"bees-with-color/bee-A2DF.svg\" width=\"200\">\n                    <p><span class=\"greenText\"><b>Successful harvest!</b></span><br>Your pay has increased by $0.02. Your bonus pay is now $1.04.</p>\n            ","response":0,"trial_type":"html-button-response","trial_index":120,"time_elapsed":403740,"internal_node_id":"0.0-4.0-1.54","subject_id":"606b81830eadb0d0bbee2cb9","study_id":"6197b3f67c2b5cd3b6d9596a","session_id":"6197b9f2f63ee4bbe2fc1112","condition":"contingent","relevant_dimensions":["antennae","legs"],"bee_group":{"antennae":"A","wings":"X","pattern":"X","legs":"M"},"bonus":1.4400000000000008},{"rt":935.1000000000931,"stimulus":"bees-with-color/bee-B2SM.svg","response":1,"trial_type":"image-button-response","trial_index":121,"time_elapsed":404676,"internal_node_id":"0.0-4.0-0.55","subject_id":"606b81830eadb0d0bbee2cb9","study_id":"6197b3f67c2b5cd3b6d9596a","session_id":"6197b9f2f63ee4bbe2fc1112","condition":"contingent","relevant_dimensions":["antennae","legs"],"bee_group":{"antennae":"A","wings":"X","pattern":"X","legs":"M"},"action":"avoid","summary":"bad-avoid","bonus":1.4400000000000008},{"rt":447.10000000009313,"stimulus":"\n                    <p><b>Action: <em>avoid</em></b></p>\n                    <p>This is the bee that you just saw.</p>\n                    <img src=\"bees-with-color/bee-B2SM.svg\" width=\"200\">\n                    <p><br>Your bonus pay is unchanged, and remains at $1.04.</p>\n            ","response":0,"trial_type":"html-button-response","trial_index":122,"time_elapsed":405124,"internal_node_id":"0.0-4.0-1.55","subject_id":"606b81830eadb0d0bbee2cb9","study_id":"6197b3f67c2b5cd3b6d9596a","session_id":"6197b9f2f63ee4bbe2fc1112","condition":"contingent","relevant_dimensions":["antennae","legs"],"bee_group":{"antennae":"A","wings":"X","pattern":"X","legs":"M"},"bonus":1.4400000000000008},{"rt":1447.1000000000931,"stimulus":"bees-with-color/bee-A2SF.svg","response":0,"trial_type":"image-button-response","trial_index":123,"time_elapsed":406572,"internal_node_id":"0.0-4.0-0.56","subject_id":"606b81830eadb0d0bbee2cb9","study_id":"6197b3f67c2b5cd3b6d9596a","session_id":"6197b9f2f63ee4bbe2fc1112","condition":"contingent","relevant_dimensions":["antennae","legs"],"bee_group":{"antennae":"A","wings":"X","pattern":"X","legs":"M"},"action":"harvest","summary":"good-harvest","bonus":1.4400000000000008},{"rt":567.2000000001863,"stimulus":"\n                    <p><b>Action: <em>harvest</em></b></p>\n                    <p>This is the bee that you just saw.</p>\n                    <img src=\"bees-with-color/bee-A2SF.svg\" width=\"200\">\n                    <p><span class=\"greenText\"><b>Successful harvest!</b></span><br>Your pay has increased by $0.02. Your bonus pay is now $1.06.</p>\n            ","response":0,"trial_type":"html-button-response","trial_index":124,"time_elapsed":407140,"internal_node_id":"0.0-4.0-1.56","subject_id":"606b81830eadb0d0bbee2cb9","study_id":"6197b3f67c2b5cd3b6d9596a","session_id":"6197b9f2f63ee4bbe2fc1112","condition":"contingent","relevant_dimensions":["antennae","legs"],"bee_group":{"antennae":"A","wings":"X","pattern":"X","legs":"M"},"bonus":1.4400000000000008},{"rt":934.5,"stimulus":"bees-with-color/bee-B2SF.svg","response":0,"trial_type":"image-button-response","trial_index":125,"time_elapsed":408075,"internal_node_id":"0.0-4.0-0.57","subject_id":"606b81830eadb0d0bbee2cb9","study_id":"6197b3f67c2b5cd3b6d9596a","session_id":"6197b9f2f63ee4bbe2fc1112","condition":"contingent","relevant_dimensions":["antennae","legs"],"bee_group":{"antennae":"A","wings":"X","pattern":"X","legs":"M"},"action":"harvest","summary":"good-harvest","bonus":1.4400000000000008},{"rt":526.7999999998137,"stimulus":"\n                    <p><b>Action: <em>harvest</em></b></p>\n                    <p>This is the bee that you just saw.</p>\n                    <img src=\"bees-with-color/bee-B2SF.svg\" width=\"200\">\n                    <p><span class=\"greenText\"><b>Successful harvest!</b></span><br>Your pay has increased by $0.02. Your bonus pay is now $1.08.</p>\n            ","response":0,"trial_type":"html-button-response","trial_index":126,"time_elapsed":408604,"internal_node_id":"0.0-4.0-1.57","subject_id":"606b81830eadb0d0bbee2cb9","study_id":"6197b3f67c2b5cd3b6d9596a","session_id":"6197b9f2f63ee4bbe2fc1112","condition":"contingent","relevant_dimensions":["antennae","legs"],"bee_group":{"antennae":"A","wings":"X","pattern":"X","legs":"M"},"bonus":1.4400000000000008},{"rt":1279,"stimulus":"bees-with-color/bee-A1SF.svg","response":0,"trial_type":"image-button-response","trial_index":127,"time_elapsed":409884,"internal_node_id":"0.0-4.0-0.58","subject_id":"606b81830eadb0d0bbee2cb9","study_id":"6197b3f67c2b5cd3b6d9596a","session_id":"6197b9f2f63ee4bbe2fc1112","condition":"contingent","relevant_dimensions":["antennae","legs"],"bee_group":{"antennae":"A","wings":"X","pattern":"X","legs":"M"},"action":"harvest","summary":"good-harvest","bonus":1.4400000000000008},{"rt":439.10000000009313,"stimulus":"\n                    <p><b>Action: <em>harvest</em></b></p>\n                    <p>This is the bee that you just saw.</p>\n                    <img src=\"bees-with-color/bee-A1SF.svg\" width=\"200\">\n                    <p><span class=\"greenText\"><b>Successful harvest!</b></span><br>Your pay has increased by $0.02. Your bonus pay is now $1.10.</p>\n            ","response":0,"trial_type":"html-button-response","trial_index":128,"time_elapsed":410324,"internal_node_id":"0.0-4.0-1.58","subject_id":"606b81830eadb0d0bbee2cb9","study_id":"6197b3f67c2b5cd3b6d9596a","session_id":"6197b9f2f63ee4bbe2fc1112","condition":"contingent","relevant_dimensions":["antennae","legs"],"bee_group":{"antennae":"A","wings":"X","pattern":"X","legs":"M"},"bonus":1.4400000000000008},{"rt":1111.2000000001863,"stimulus":"bees-with-color/bee-B1SM.svg","response":1,"trial_type":"image-button-response","trial_index":129,"time_elapsed":411435,"internal_node_id":"0.0-4.0-0.59","subject_id":"606b81830eadb0d0bbee2cb9","study_id":"6197b3f67c2b5cd3b6d9596a","session_id":"6197b9f2f63ee4bbe2fc1112","condition":"contingent","relevant_dimensions":["antennae","legs"],"bee_group":{"antennae":"A","wings":"X","pattern":"X","legs":"M"},"action":"avoid","summary":"bad-avoid","bonus":1.4400000000000008},{"rt":711,"stimulus":"\n                    <p><b>Action: <em>avoid</em></b></p>\n                    <p>This is the bee that you just saw.</p>\n                    <img src=\"bees-with-color/bee-B1SM.svg\" width=\"200\">\n                    <p><br>Your bonus pay is unchanged, and remains at $1.10.</p>\n            ","response":0,"trial_type":"html-button-response","trial_index":130,"time_elapsed":412147,"internal_node_id":"0.0-4.0-1.59","subject_id":"606b81830eadb0d0bbee2cb9","study_id":"6197b3f67c2b5cd3b6d9596a","session_id":"6197b9f2f63ee4bbe2fc1112","condition":"contingent","relevant_dimensions":["antennae","legs"],"bee_group":{"antennae":"A","wings":"X","pattern":"X","legs":"M"},"bonus":1.4400000000000008},{"rt":1239,"stimulus":"bees-with-color/bee-B2DM.svg","response":1,"trial_type":"image-button-response","trial_index":131,"time_elapsed":413388,"internal_node_id":"0.0-4.0-0.60","subject_id":"606b81830eadb0d0bbee2cb9","study_id":"6197b3f67c2b5cd3b6d9596a","session_id":"6197b9f2f63ee4bbe2fc1112","condition":"contingent","relevant_dimensions":["antennae","legs"],"bee_group":{"antennae":"A","wings":"X","pattern":"X","legs":"M"},"action":"avoid","summary":"bad-avoid","bonus":1.4400000000000008},{"rt":655.1999999997206,"stimulus":"\n                    <p><b>Action: <em>avoid</em></b></p>\n                    <p>This is the bee that you just saw.</p>\n                    <img src=\"bees-with-color/bee-B2DM.svg\" width=\"200\">\n                    <p><br>Your bonus pay is unchanged, and remains at $1.10.</p>\n            ","response":0,"trial_type":"html-button-response","trial_index":132,"time_elapsed":414044,"internal_node_id":"0.0-4.0-1.60","subject_id":"606b81830eadb0d0bbee2cb9","study_id":"6197b3f67c2b5cd3b6d9596a","session_id":"6197b9f2f63ee4bbe2fc1112","condition":"contingent","relevant_dimensions":["antennae","legs"],"bee_group":{"antennae":"A","wings":"X","pattern":"X","legs":"M"},"bonus":1.4400000000000008},{"rt":726.7000000001863,"stimulus":"bees-with-color/bee-A2DM.svg","response":1,"trial_type":"image-button-response","trial_index":133,"time_elapsed":414771,"internal_node_id":"0.0-4.0-0.61","subject_id":"606b81830eadb0d0bbee2cb9","study_id":"6197b3f67c2b5cd3b6d9596a","session_id":"6197b9f2f63ee4bbe2fc1112","condition":"contingent","relevant_dimensions":["antennae","legs"],"bee_group":{"antennae":"A","wings":"X","pattern":"X","legs":"M"},"action":"avoid","summary":"good-avoid","bonus":1.4400000000000008},{"rt":447.10000000009313,"stimulus":"\n                    <p><b>Action: <em>avoid</em></b></p>\n                    <p>This is the bee that you just saw.</p>\n                    <img src=\"bees-with-color/bee-A2DM.svg\" width=\"200\">\n                    <p><br>Your bonus pay is unchanged, and remains at $1.10.</p>\n            ","response":0,"trial_type":"html-button-response","trial_index":134,"time_elapsed":415219,"internal_node_id":"0.0-4.0-1.61","subject_id":"606b81830eadb0d0bbee2cb9","study_id":"6197b3f67c2b5cd3b6d9596a","session_id":"6197b9f2f63ee4bbe2fc1112","condition":"contingent","relevant_dimensions":["antennae","legs"],"bee_group":{"antennae":"A","wings":"X","pattern":"X","legs":"M"},"bonus":1.4400000000000008},{"rt":1215.2999999998137,"stimulus":"bees-with-color/bee-A1SM.svg","response":1,"trial_type":"image-button-response","trial_index":135,"time_elapsed":416436,"internal_node_id":"0.0-4.0-0.62","subject_id":"606b81830eadb0d0bbee2cb9","study_id":"6197b3f67c2b5cd3b6d9596a","session_id":"6197b9f2f63ee4bbe2fc1112","condition":"contingent","relevant_dimensions":["antennae","legs"],"bee_group":{"antennae":"A","wings":"X","pattern":"X","legs":"M"},"action":"avoid","summary":"good-avoid","bonus":1.4400000000000008},{"rt":430.39999999990687,"stimulus":"\n                    <p><b>Action: <em>avoid</em></b></p>\n                    <p>This is the bee that you just saw.</p>\n                    <img src=\"bees-with-color/bee-A1SM.svg\" width=\"200\">\n                    <p><br>Your bonus pay is unchanged, and remains at $1.10.</p>\n            ","response":0,"trial_type":"html-button-response","trial_index":136,"time_elapsed":416867,"internal_node_id":"0.0-4.0-1.62","subject_id":"606b81830eadb0d0bbee2cb9","study_id":"6197b3f67c2b5cd3b6d9596a","session_id":"6197b9f2f63ee4bbe2fc1112","condition":"contingent","relevant_dimensions":["antennae","legs"],"bee_group":{"antennae":"A","wings":"X","pattern":"X","legs":"M"},"bonus":1.4400000000000008},{"rt":687.2000000001863,"stimulus":"bees-with-color/bee-B1SF.svg","response":0,"trial_type":"image-button-response","trial_index":137,"time_elapsed":417555,"internal_node_id":"0.0-4.0-0.63","subject_id":"606b81830eadb0d0bbee2cb9","study_id":"6197b3f67c2b5cd3b6d9596a","session_id":"6197b9f2f63ee4bbe2fc1112","condition":"contingent","relevant_dimensions":["antennae","legs"],"bee_group":{"antennae":"A","wings":"X","pattern":"X","legs":"M"},"action":"harvest","summary":"good-harvest","bonus":1.4400000000000008},{"rt":510.60000000009313,"stimulus":"\n                    <p><b>Action: <em>harvest</em></b></p>\n                    <p>This is the bee that you just saw.</p>\n                    <img src=\"bees-with-color/bee-B1SF.svg\" width=\"200\">\n                    <p><span class=\"greenText\"><b>Successful harvest!</b></span><br>Your pay has increased by $0.02. Your bonus pay is now $1.12.</p>\n            ","response":0,"trial_type":"html-button-response","trial_index":138,"time_elapsed":418067,"internal_node_id":"0.0-4.0-1.63","subject_id":"606b81830eadb0d0bbee2cb9","study_id":"6197b3f67c2b5cd3b6d9596a","session_id":"6197b9f2f63ee4bbe2fc1112","condition":"contingent","relevant_dimensions":["antennae","legs"],"bee_group":{"antennae":"A","wings":"X","pattern":"X","legs":"M"},"bonus":1.4400000000000008},{"rt":5517.399999999907,"stimulus":"You have completed the first part of this experiment.<br><br>You will now begin a shorter second part, in which you will receive no feedback.<br>The same rules regarding bonus pay apply.<br><br>Press any key to begin.","response":"arrowright","trial_type":"html-keyboard-response","trial_index":139,"time_elapsed":423586,"internal_node_id":"0.0-5.0","subject_id":"606b81830eadb0d0bbee2cb9","study_id":"6197b3f67c2b5cd3b6d9596a","session_id":"6197b9f2f63ee4bbe2fc1112","condition":"contingent","relevant_dimensions":["antennae","legs"],"bee_group":{"antennae":"A","wings":"X","pattern":"X","legs":"M"},"bonus":1.4400000000000008},{"rt":3159.899999999907,"stimulus":"bees-with-color/bee-A2SF.svg","response":0,"trial_type":"image-button-response","trial_index":140,"time_elapsed":426756,"internal_node_id":"0.0-6.0-0.0","subject_id":"606b81830eadb0d0bbee2cb9","study_id":"6197b3f67c2b5cd3b6d9596a","session_id":"6197b9f2f63ee4bbe2fc1112","condition":"contingent","relevant_dimensions":["antennae","legs"],"bee_group":{"antennae":"A","wings":"X","pattern":"X","legs":"M"},"bonus":1.4400000000000008},{"rt":2198.2999999998137,"stimulus":"bees-with-color/bee-B1SF.svg","response":0,"trial_type":"image-button-response","trial_index":141,"time_elapsed":428955,"internal_node_id":"0.0-6.0-0.1","subject_id":"606b81830eadb0d0bbee2cb9","study_id":"6197b3f67c2b5cd3b6d9596a","session_id":"6197b9f2f63ee4bbe2fc1112","condition":"contingent","relevant_dimensions":["antennae","legs"],"bee_group":{"antennae":"A","wings":"X","pattern":"X","legs":"M"},"bonus":1.4400000000000008},{"rt":822.2999999998137,"stimulus":"bees-with-color/bee-A1SM.svg","response":1,"trial_type":"image-button-response","trial_index":142,"time_elapsed":429779,"internal_node_id":"0.0-6.0-0.2","subject_id":"606b81830eadb0d0bbee2cb9","study_id":"6197b3f67c2b5cd3b6d9596a","session_id":"6197b9f2f63ee4bbe2fc1112","condition":"contingent","relevant_dimensions":["antennae","legs"],"bee_group":{"antennae":"A","wings":"X","pattern":"X","legs":"M"},"bonus":1.4400000000000008},{"rt":798.5,"stimulus":"bees-with-color/bee-B2DM.svg","response":1,"trial_type":"image-button-response","trial_index":143,"time_elapsed":430579,"internal_node_id":"0.0-6.0-0.3","subject_id":"606b81830eadb0d0bbee2cb9","study_id":"6197b3f67c2b5cd3b6d9596a","session_id":"6197b9f2f63ee4bbe2fc1112","condition":"contingent","relevant_dimensions":["antennae","legs"],"bee_group":{"antennae":"A","wings":"X","pattern":"X","legs":"M"},"bonus":1.4400000000000008},{"rt":678.2000000001863,"stimulus":"bees-with-color/bee-A2DM.svg","response":1,"trial_type":"image-button-response","trial_index":144,"time_elapsed":431260,"internal_node_id":"0.0-6.0-0.4","subject_id":"606b81830eadb0d0bbee2cb9","study_id":"6197b3f67c2b5cd3b6d9596a","session_id":"6197b9f2f63ee4bbe2fc1112","condition":"contingent","relevant_dimensions":["antennae","legs"],"bee_group":{"antennae":"A","wings":"X","pattern":"X","legs":"M"},"bonus":1.4400000000000008},{"rt":974.2999999998137,"stimulus":"bees-with-color/bee-B1DM.svg","response":1,"trial_type":"image-button-response","trial_index":145,"time_elapsed":432236,"internal_node_id":"0.0-6.0-0.5","subject_id":"606b81830eadb0d0bbee2cb9","study_id":"6197b3f67c2b5cd3b6d9596a","session_id":"6197b9f2f63ee4bbe2fc1112","condition":"contingent","relevant_dimensions":["antennae","legs"],"bee_group":{"antennae":"A","wings":"X","pattern":"X","legs":"M"},"bonus":1.4400000000000008},{"rt":854.5,"stimulus":"bees-with-color/bee-B1DF.svg","response":0,"trial_type":"image-button-response","trial_index":146,"time_elapsed":433091,"internal_node_id":"0.0-6.0-0.6","subject_id":"606b81830eadb0d0bbee2cb9","study_id":"6197b3f67c2b5cd3b6d9596a","session_id":"6197b9f2f63ee4bbe2fc1112","condition":"contingent","relevant_dimensions":["antennae","legs"],"bee_group":{"antennae":"A","wings":"X","pattern":"X","legs":"M"},"bonus":1.4400000000000008},{"rt":742.5,"stimulus":"bees-with-color/bee-A2DF.svg","response":0,"trial_type":"image-button-response","trial_index":147,"time_elapsed":433836,"internal_node_id":"0.0-6.0-0.7","subject_id":"606b81830eadb0d0bbee2cb9","study_id":"6197b3f67c2b5cd3b6d9596a","session_id":"6197b9f2f63ee4bbe2fc1112","condition":"contingent","relevant_dimensions":["antennae","legs"],"bee_group":{"antennae":"A","wings":"X","pattern":"X","legs":"M"},"bonus":1.4400000000000008},{"rt":662.5,"stimulus":"bees-with-color/bee-B2SF.svg","response":0,"trial_type":"image-button-response","trial_index":148,"time_elapsed":434500,"internal_node_id":"0.0-6.0-0.8","subject_id":"606b81830eadb0d0bbee2cb9","study_id":"6197b3f67c2b5cd3b6d9596a","session_id":"6197b9f2f63ee4bbe2fc1112","condition":"contingent","relevant_dimensions":["antennae","legs"],"bee_group":{"antennae":"A","wings":"X","pattern":"X","legs":"M"},"bonus":1.4400000000000008},{"rt":542.2999999998137,"stimulus":"bees-with-color/bee-A1SF.svg","response":0,"trial_type":"image-button-response","trial_index":149,"time_elapsed":435043,"internal_node_id":"0.0-6.0-0.9","subject_id":"606b81830eadb0d0bbee2cb9","study_id":"6197b3f67c2b5cd3b6d9596a","session_id":"6197b9f2f63ee4bbe2fc1112","condition":"contingent","relevant_dimensions":["antennae","legs"],"bee_group":{"antennae":"A","wings":"X","pattern":"X","legs":"M"},"bonus":1.4400000000000008},{"rt":1038,"stimulus":"bees-with-color/bee-B2SM.svg","response":1,"trial_type":"image-button-response","trial_index":150,"time_elapsed":436084,"internal_node_id":"0.0-6.0-0.10","subject_id":"606b81830eadb0d0bbee2cb9","study_id":"6197b3f67c2b5cd3b6d9596a","session_id":"6197b9f2f63ee4bbe2fc1112","condition":"contingent","relevant_dimensions":["antennae","legs"],"bee_group":{"antennae":"A","wings":"X","pattern":"X","legs":"M"},"bonus":1.4400000000000008},{"rt":510.60000000009313,"stimulus":"bees-with-color/bee-A2SM.svg","response":1,"trial_type":"image-button-response","trial_index":151,"time_elapsed":436595,"internal_node_id":"0.0-6.0-0.11","subject_id":"606b81830eadb0d0bbee2cb9","study_id":"6197b3f67c2b5cd3b6d9596a","session_id":"6197b9f2f63ee4bbe2fc1112","condition":"contingent","relevant_dimensions":["antennae","legs"],"bee_group":{"antennae":"A","wings":"X","pattern":"X","legs":"M"},"bonus":1.4400000000000008},{"rt":678.5,"stimulus":"bees-with-color/bee-B1SM.svg","response":1,"trial_type":"image-button-response","trial_index":152,"time_elapsed":437275,"internal_node_id":"0.0-6.0-0.12","subject_id":"606b81830eadb0d0bbee2cb9","study_id":"6197b3f67c2b5cd3b6d9596a","session_id":"6197b9f2f63ee4bbe2fc1112","condition":"contingent","relevant_dimensions":["antennae","legs"],"bee_group":{"antennae":"A","wings":"X","pattern":"X","legs":"M"},"bonus":1.4400000000000008},{"rt":854.8000000002794,"stimulus":"bees-with-color/bee-A1DM.svg","response":1,"trial_type":"image-button-response","trial_index":153,"time_elapsed":438131,"internal_node_id":"0.0-6.0-0.13","subject_id":"606b81830eadb0d0bbee2cb9","study_id":"6197b3f67c2b5cd3b6d9596a","session_id":"6197b9f2f63ee4bbe2fc1112","condition":"contingent","relevant_dimensions":["antennae","legs"],"bee_group":{"antennae":"A","wings":"X","pattern":"X","legs":"M"},"bonus":1.4400000000000008},{"rt":670.6000000000931,"stimulus":"bees-with-color/bee-A1DF.svg","response":0,"trial_type":"image-button-response","trial_index":154,"time_elapsed":438803,"internal_node_id":"0.0-6.0-0.14","subject_id":"606b81830eadb0d0bbee2cb9","study_id":"6197b3f67c2b5cd3b6d9596a","session_id":"6197b9f2f63ee4bbe2fc1112","condition":"contingent","relevant_dimensions":["antennae","legs"],"bee_group":{"antennae":"A","wings":"X","pattern":"X","legs":"M"},"bonus":1.4400000000000008},{"rt":782.8000000002794,"stimulus":"bees-with-color/bee-B2DF.svg","response":0,"trial_type":"image-button-response","trial_index":155,"time_elapsed":439587,"internal_node_id":"0.0-6.0-0.15","subject_id":"606b81830eadb0d0bbee2cb9","study_id":"6197b3f67c2b5cd3b6d9596a","session_id":"6197b9f2f63ee4bbe2fc1112","condition":"contingent","relevant_dimensions":["antennae","legs"],"bee_group":{"antennae":"A","wings":"X","pattern":"X","legs":"M"},"bonus":1.4400000000000008},{"rt":1166.7999999998137,"stimulus":"bees-with-color/bee-B1DM.svg","response":1,"trial_type":"image-button-response","trial_index":156,"time_elapsed":440755,"internal_node_id":"0.0-6.0-0.16","subject_id":"606b81830eadb0d0bbee2cb9","study_id":"6197b3f67c2b5cd3b6d9596a","session_id":"6197b9f2f63ee4bbe2fc1112","condition":"contingent","relevant_dimensions":["antennae","legs"],"bee_group":{"antennae":"A","wings":"X","pattern":"X","legs":"M"},"bonus":1.4400000000000008},{"rt":519,"stimulus":"bees-with-color/bee-B1SM.svg","response":1,"trial_type":"image-button-response","trial_index":157,"time_elapsed":441275,"internal_node_id":"0.0-6.0-0.17","subject_id":"606b81830eadb0d0bbee2cb9","study_id":"6197b3f67c2b5cd3b6d9596a","session_id":"6197b9f2f63ee4bbe2fc1112","condition":"contingent","relevant_dimensions":["antennae","legs"],"bee_group":{"antennae":"A","wings":"X","pattern":"X","legs":"M"},"bonus":1.4400000000000008},{"rt":519,"stimulus":"bees-with-color/bee-A1DM.svg","response":1,"trial_type":"image-button-response","trial_index":158,"time_elapsed":441795,"internal_node_id":"0.0-6.0-0.18","subject_id":"606b81830eadb0d0bbee2cb9","study_id":"6197b3f67c2b5cd3b6d9596a","session_id":"6197b9f2f63ee4bbe2fc1112","condition":"contingent","relevant_dimensions":["antennae","legs"],"bee_group":{"antennae":"A","wings":"X","pattern":"X","legs":"M"},"bonus":1.4400000000000008},{"rt":814.8999999999069,"stimulus":"bees-with-color/bee-B1SF.svg","response":0,"trial_type":"image-button-response","trial_index":159,"time_elapsed":442611,"internal_node_id":"0.0-6.0-0.19","subject_id":"606b81830eadb0d0bbee2cb9","study_id":"6197b3f67c2b5cd3b6d9596a","session_id":"6197b9f2f63ee4bbe2fc1112","condition":"contingent","relevant_dimensions":["antennae","legs"],"bee_group":{"antennae":"A","wings":"X","pattern":"X","legs":"M"},"bonus":1.4400000000000008},{"rt":750.8999999999069,"stimulus":"bees-with-color/bee-B1DF.svg","response":0,"trial_type":"image-button-response","trial_index":160,"time_elapsed":443363,"internal_node_id":"0.0-6.0-0.20","subject_id":"606b81830eadb0d0bbee2cb9","study_id":"6197b3f67c2b5cd3b6d9596a","session_id":"6197b9f2f63ee4bbe2fc1112","condition":"contingent","relevant_dimensions":["antennae","legs"],"bee_group":{"antennae":"A","wings":"X","pattern":"X","legs":"M"},"bonus":1.4400000000000008},{"rt":519.1999999997206,"stimulus":"bees-with-color/bee-A1SF.svg","response":0,"trial_type":"image-button-response","trial_index":161,"time_elapsed":443884,"internal_node_id":"0.0-6.0-0.21","subject_id":"606b81830eadb0d0bbee2cb9","study_id":"6197b3f67c2b5cd3b6d9596a","session_id":"6197b9f2f63ee4bbe2fc1112","condition":"contingent","relevant_dimensions":["antennae","legs"],"bee_group":{"antennae":"A","wings":"X","pattern":"X","legs":"M"},"bonus":1.4400000000000008},{"rt":734.6000000000931,"stimulus":"bees-with-color/bee-A2SF.svg","response":0,"trial_type":"image-button-response","trial_index":162,"time_elapsed":444619,"internal_node_id":"0.0-6.0-0.22","subject_id":"606b81830eadb0d0bbee2cb9","study_id":"6197b3f67c2b5cd3b6d9596a"