[{"success":true,"trial_type":"fullscreen","trial_index":0,"time_elapsed":2674,"internal_node_id":"0.0-0.0","subject_id":"60b7ba38ea1d0cb2441945db","study_id":"60edd13110225f80f9f3709b","session_id":"6196c1f51dde0db67d349259","condition":"full-information","relevant_dimensions":["antennae","legs"],"bee_group":{"antennae":"A","wings":"X","pattern":"X","legs":"F"},"bonus":0.7400000000000007},{"success":true,"timeout":false,"failed_images":[],"failed_audio":[],"failed_video":[],"trial_type":"preload","trial_index":1,"time_elapsed":4314,"internal_node_id":"0.0-1.0","subject_id":"60b7ba38ea1d0cb2441945db","study_id":"60edd13110225f80f9f3709b","session_id":"6196c1f51dde0db67d349259","condition":"full-information","relevant_dimensions":["antennae","legs"],"bee_group":{"antennae":"A","wings":"X","pattern":"X","legs":"F"},"bonus":0.7400000000000007},{"rt":2681,"stimulus":"Welcome! Press any key to begin.","response":"f","trial_type":"html-keyboard-response","trial_index":2,"time_elapsed":6994,"internal_node_id":"0.0-2.0","subject_id":"60b7ba38ea1d0cb2441945db","study_id":"60edd13110225f80f9f3709b","session_id":"6196c1f51dde0db67d349259","condition":"full-information","relevant_dimensions":["antennae","legs"],"bee_group":{"antennae":"A","wings":"X","pattern":"X","legs":"F"},"bonus":0.7400000000000007},{"view_history":[{"page_index":0,"viewing_time":2670},{"page_index":1,"viewing_time":8557},{"page_index":2,"viewing_time":5650},{"page_index":3,"viewing_time":17209},{"page_index":4,"viewing_time":4297},{"page_index":5,"viewing_time":3457},{"page_index":6,"viewing_time":4545},{"page_index":7,"viewing_time":2867},{"page_index":8,"viewing_time":1920},{"page_index":9,"viewing_time":1533},{"page_index":10,"viewing_time":1459},{"page_index":11,"viewing_time":7676},{"page_index":12,"viewing_time":9791},{"page_index":13,"viewing_time":1047},{"page_index":14,"viewing_time":1521}],"rt":74199,"trial_type":"instructions","trial_index":3,"time_elapsed":81193,"internal_node_id":"0.0-3.0-0.0","subject_id":"60b7ba38ea1d0cb2441945db","study_id":"60edd13110225f80f9f3709b","session_id":"6196c1f51dde0db67d349259","condition":"full-information","relevant_dimensions":["antennae","legs"],"bee_group":{"antennae":"A","wings":"X","pattern":"X","legs":"F"},"bonus":0.7400000000000007},{"rt":9843,"response":{"Q0":["Two or six legs","Stripes or spots on body","Single or double wings","Antennae or no antennae"]},"question_order":[0],"trial_type":"survey-multi-select","trial_index":4,"time_elapsed":91038,"internal_node_id":"0.0-3.0-1.0","subject_id":"60b7ba38ea1d0cb2441945db","study_id":"60edd13110225f80f9f3709b","session_id":"6196c1f51dde0db67d349259","condition":"full-information","relevant_dimensions":["antennae","legs"],"bee_group":{"antennae":"A","wings":"X","pattern":"X","legs":"F"},"correct":true,"bonus":0.7400000000000007},{"rt":10687,"response":{"Q1":"No.","Q2":"Based on the four features of the bee.","Q3":"You learn if it was friendly or dangerous, but do not alter your bonus."},"question_order":[0,1,2],"trial_type":"survey-multi-choice","trial_index":5,"time_elapsed":101726,"internal_node_id":"0.0-3.0-2.0","subject_id":"60b7ba38ea1d0cb2441945db","study_id":"60edd13110225f80f9f3709b","session_id":"6196c1f51dde0db67d349259","condition":"full-information","relevant_dimensions":["antennae","legs"],"bee_group":{"antennae":"A","wings":"X","pattern":"X","legs":"F"},"correct":true,"bonus":0.7400000000000007},{"rt":1934,"stimulus":"<p>Congrats, you got everything right<br>When you're ready, click the button below to continue to the experiment.</p>","response":0,"trial_type":"html-button-response","trial_index":6,"time_elapsed":103661,"internal_node_id":"0.0-3.0-3.0","subject_id":"60b7ba38ea1d0cb2441945db","study_id":"60edd13110225f80f9f3709b","session_id":"6196c1f51dde0db67d349259","condition":"full-information","relevant_dimensions":["antennae","legs"],"bee_group":{"antennae":"A","wings":"X","pattern":"X","legs":"F"},"bonus":0.7400000000000007},{"rt":13973,"stimulus":"bees-with-color/bee-A2DM.svg","response":0,"trial_type":"image-button-response","trial_index":7,"time_elapsed":117636,"internal_node_id":"0.0-4.0-0.0","subject_id":"60b7ba38ea1d0cb2441945db","study_id":"60edd13110225f80f9f3709b","session_id":"6196c1f51dde0db67d349259","condition":"full-information","relevant_dimensions":["antennae","legs"],"bee_group":{"antennae":"A","wings":"X","pattern":"X","legs":"F"},"action":"harvest","summary":"good-harvest","bonus":0.7400000000000007},{"rt":8762,"stimulus":"\n                    <p><b>Action: <em>harvest</em></b></p>\n                    <p>This is the bee that you just saw.</p>\n                    <img src=\"bees-with-color/bee-A2DM.svg\" width=\"200\">\n                    <p><span class=\"greenText\"><b>Successful harvest!</b></span><br>Your pay has increased by $0.02. Your bonus pay is now $0.56.</p>\n            ","response":0,"trial_type":"html-button-response","trial_index":8,"time_elapsed":126409,"internal_node_id":"0.0-4.0-1.0","subject_id":"60b7ba38ea1d0cb2441945db","study_id":"60edd13110225f80f9f3709b","session_id":"6196c1f51dde0db67d349259","condition":"full-information","relevant_dimensions":["antennae","legs"],"bee_group":{"antennae":"A","wings":"X","pattern":"X","legs":"F"},"bonus":0.7400000000000007},{"rt":4127,"stimulus":"bees-with-color/bee-B1SM.svg","response":0,"trial_type":"image-button-response","trial_index":9,"time_elapsed":130537,"internal_node_id":"0.0-4.0-0.1","subject_id":"60b7ba38ea1d0cb2441945db","study_id":"60edd13110225f80f9f3709b","session_id":"6196c1f51dde0db67d349259","condition":"full-information","relevant_dimensions":["antennae","legs"],"bee_group":{"antennae":"A","wings":"X","pattern":"X","legs":"F"},"action":"harvest","summary":"good-harvest","bonus":0.7400000000000007},{"rt":33773,"stimulus":"\n                    <p><b>Action: <em>harvest</em></b></p>\n                    <p>This is the bee that you just saw.</p>\n                    <img src=\"bees-with-color/bee-B1SM.svg\" width=\"200\">\n                    <p><span class=\"greenText\"><b>Successful harvest!</b></span><br>Your pay has increased by $0.02. Your bonus pay is now $0.58.</p>\n            ","response":0,"trial_type":"html-button-response","trial_index":10,"time_elapsed":164313,"internal_node_id":"0.0-4.0-1.1","subject_id":"60b7ba38ea1d0cb2441945db","study_id":"60edd13110225f80f9f3709b","session_id":"6196c1f51dde0db67d349259","condition":"full-information","relevant_dimensions":["antennae","legs"],"bee_group":{"antennae":"A","wings":"X","pattern":"X","legs":"F"},"bonus":0.7400000000000007},{"rt":8427,"stimulus":"bees-with-color/bee-A1DF.svg","response":0,"trial_type":"image-button-response","trial_index":11,"time_elapsed":172741,"internal_node_id":"0.0-4.0-0.2","subject_id":"60b7ba38ea1d0cb2441945db","study_id":"60edd13110225f80f9f3709b","session_id":"6196c1f51dde0db67d349259","condition":"full-information","relevant_dimensions":["antennae","legs"],"bee_group":{"antennae":"A","wings":"X","pattern":"X","legs":"F"},"action":"harvest","summary":"bad-harvest","bonus":0.7400000000000007},{"rt":15573,"stimulus":"\n                    <p><b>Action: <em>harvest</em></b></p>\n                    <p>This is the bee that you just saw.</p>\n                    <img src=\"bees-with-color/bee-A1DF.svg\" width=\"200\">\n                    <p><span class=\"redText\">Bad choice, the bee was angry.</span><br><b>You have been stung!</b><br>Your pay has been decreased by $0.10. Your bonus pay is now $0.48.</p>\n            ","response":0,"trial_type":"html-button-response","trial_index":12,"time_elapsed":188315,"internal_node_id":"0.0-4.0-1.2","subject_id":"60b7ba38ea1d0cb2441945db","study_id":"60edd13110225f80f9f3709b","session_id":"6196c1f51dde0db67d349259","condition":"full-information","relevant_dimensions":["antennae","legs"],"bee_group":{"antennae":"A","wings":"X","pattern":"X","legs":"F"},"bonus":0.7400000000000007},{"rt":3038,"stimulus":"bees-with-color/bee-A2DF.svg","response":1,"trial_type":"image-button-response","trial_index":13,"time_elapsed":191353,"internal_node_id":"0.0-4.0-0.3","subject_id":"60b7ba38ea1d0cb2441945db","study_id":"60edd13110225f80f9f3709b","session_id":"6196c1f51dde0db67d349259","condition":"full-information","relevant_dimensions":["antennae","legs"],"bee_group":{"antennae":"A","wings":"X","pattern":"X","legs":"F"},"action":"avoid","summary":"good-avoid","bonus":0.7400000000000007},{"rt":8263,"stimulus":"\n                    <p><b>Action: <em>avoid</em></b></p>\n                    <p>This is the bee that you just saw.</p>\n                    <img src=\"bees-with-color/bee-A2DF.svg\" width=\"200\">\n                    <p><span class=\"greenText\">Good choice!</span>  This bee would have stung you.<br>Your bonus pay is unchanged, and remains at $0.48.</p>\n            ","response":0,"trial_type":"html-button-response","trial_index":14,"time_elapsed":199618,"internal_node_id":"0.0-4.0-1.3","subject_id":"60b7ba38ea1d0cb2441945db","study_id":"60edd13110225f80f9f3709b","session_id":"6196c1f51dde0db67d349259","condition":"full-information","relevant_dimensions":["antennae","legs"],"bee_group":{"antennae":"A","wings":"X","pattern":"X","legs":"F"},"bonus":0.7400000000000007},{"rt":1669,"stimulus":"bees-with-color/bee-A1SM.svg","response":0,"trial_type":"image-button-response","trial_index":15,"time_elapsed":201289,"internal_node_id":"0.0-4.0-0.4","subject_id":"60b7ba38ea1d0cb2441945db","study_id":"60edd13110225f80f9f3709b","session_id":"6196c1f51dde0db67d349259","condition":"full-information","relevant_dimensions":["antennae","legs"],"bee_group":{"antennae":"A","wings":"X","pattern":"X","legs":"F"},"action":"harvest","summary":"good-harvest","bonus":0.7400000000000007},{"rt":11029,"stimulus":"\n                    <p><b>Action: <em>harvest</em></b></p>\n                    <p>This is the bee that you just saw.</p>\n                    <img src=\"bees-with-color/bee-A1SM.svg\" width=\"200\">\n                    <p><span class=\"greenText\"><b>Successful harvest!</b></span><br>Your pay has increased by $0.02. Your bonus pay is now $0.50.</p>\n            ","response":0,"trial_type":"html-button-response","trial_index":16,"time_elapsed":212318,"internal_node_id":"0.0-4.0-1.4","subject_id":"60b7ba38ea1d0cb2441945db","study_id":"60edd13110225f80f9f3709b","session_id":"6196c1f51dde0db67d349259","condition":"full-information","relevant_dimensions":["antennae","legs"],"bee_group":{"antennae":"A","wings":"X","pattern":"X","legs":"F"},"bonus":0.7400000000000007},{"rt":1800,"stimulus":"bees-with-color/bee-B1DF.svg","response":1,"trial_type":"image-button-response","trial_index":17,"time_elapsed":214119,"internal_node_id":"0.0-4.0-0.5","subject_id":"60b7ba38ea1d0cb2441945db","study_id":"60edd13110225f80f9f3709b","session_id":"6196c1f51dde0db67d349259","condition":"full-information","relevant_dimensions":["antennae","legs"],"bee_group":{"antennae":"A","wings":"X","pattern":"X","legs":"F"},"action":"avoid","summary":"bad-avoid","bonus":0.7400000000000007},{"rt":11723,"stimulus":"\n                    <p><b>Action: <em>avoid</em></b></p>\n                    <p>This is the bee that you just saw.</p>\n                    <img src=\"bees-with-color/bee-B1DF.svg\" width=\"200\">\n                    <p><span class=\"redText\">Bad choice,</span> the bee was friendly.<br>Your bonus pay is unchanged, and remains at $0.50.</p>\n            ","response":0,"trial_type":"html-button-response","trial_index":18,"time_elapsed":225844,"internal_node_id":"0.0-4.0-1.5","subject_id":"60b7ba38ea1d0cb2441945db","study_id":"60edd13110225f80f9f3709b","session_id":"6196c1f51dde0db67d349259","condition":"full-information","relevant_dimensions":["antennae","legs"],"bee_group":{"antennae":"A","wings":"X","pattern":"X","legs":"F"},"bonus":0.7400000000000007},{"rt":7904,"stimulus":"bees-with-color/bee-B2SF.svg","response":0,"trial_type":"image-button-response","trial_index":19,"time_elapsed":233748,"internal_node_id":"0.0-4.0-0.6","subject_id":"60b7ba38ea1d0cb2441945db","study_id":"60edd13110225f80f9f3709b","session_id":"6196c1f51dde0db67d349259","condition":"full-information","relevant_dimensions":["antennae","legs"],"bee_group":{"antennae":"A","wings":"X","pattern":"X","legs":"F"},"action":"harvest","summary":"good-harvest","bonus":0.7400000000000007},{"rt":9813,"stimulus":"\n                    <p><b>Action: <em>harvest</em></b></p>\n                    <p>This is the bee that you just saw.</p>\n                    <img src=\"bees-with-color/bee-B2SF.svg\" width=\"200\">\n                    <p><span class=\"greenText\"><b>Successful harvest!</b></span><br>Your pay has increased by $0.02. Your bonus pay is now $0.52.</p>\n            ","response":0,"trial_type":"html-button-response","trial_index":20,"time_elapsed":243563,"internal_node_id":"0.0-4.0-1.6","subject_id":"60b7ba38ea1d0cb2441945db","study_id":"60edd13110225f80f9f3709b","session_id":"6196c1f51dde0db67d349259","condition":"full-information","relevant_dimensions":["antennae","legs"],"bee_group":{"antennae":"A","wings":"X","pattern":"X","legs":"F"},"bonus":0.7400000000000007},{"rt":6437,"stimulus":"bees-with-color/bee-A1DM.svg","response":1,"trial_type":"image-button-response","trial_index":21,"time_elapsed":250000,"internal_node_id":"0.0-4.0-0.7","subject_id":"60b7ba38ea1d0cb2441945db","study_id":"60edd13110225f80f9f3709b","session_id":"6196c1f51dde0db67d349259","condition":"full-information","relevant_dimensions":["antennae","legs"],"bee_group":{"antennae":"A","wings":"X","pattern":"X","legs":"F"},"action":"avoid","summary":"bad-avoid","bonus":0.7400000000000007},{"rt":11063,"stimulus":"\n                    <p><b>Action: <em>avoid</em></b></p>\n                    <p>This is the bee that you just saw.</p>\n                    <img src=\"bees-with-color/bee-A1DM.svg\" width=\"200\">\n                    <p><span class=\"redText\">Bad choice,</span> the bee was friendly.<br>Your bonus pay is unchanged, and remains at $0.52.</p>\n            ","response":0,"trial_type":"html-button-response","trial_index":22,"time_elapsed":261065,"internal_node_id":"0.0-4.0-1.7","subject_id":"60b7ba38ea1d0cb2441945db","study_id":"60edd13110225f80f9f3709b","session_id":"6196c1f51dde0db67d349259","condition":"full-information","relevant_dimensions":["antennae","legs"],"bee_group":{"antennae":"A","wings":"X","pattern":"X","legs":"F"},"bonus":0.7400000000000007},{"rt":5177,"stimulus":"bees-with-color/bee-A2SM.svg","response":0,"trial_type":"image-button-response","trial_index":23,"time_elapsed":266242,"internal_node_id":"0.0-4.0-0.8","subject_id":"60b7ba38ea1d0cb2441945db","study_id":"60edd13110225f80f9f3709b","session_id":"6196c1f51dde0db67d349259","condition":"full-information","relevant_dimensions":["antennae","legs"],"bee_group":{"antennae":"A","wings":"X","pattern":"X","legs":"F"},"action":"harvest","summary":"good-harvest","bonus":0.7400000000000007},{"rt":8722,"stimulus":"\n                    <p><b>Action: <em>harvest</em></b></p>\n                    <p>This is the bee that you just saw.</p>\n                    <img src=\"bees-with-color/bee-A2SM.svg\" width=\"200\">\n                    <p><span class=\"greenText\"><b>Successful harvest!</b></span><br>Your pay has increased by $0.02. Your bonus pay is now $0.54.</p>\n            ","response":0,"trial_type":"html-button-response","trial_index":24,"time_elapsed":274965,"internal_node_id":"0.0-4.0-1.8","subject_id":"60b7ba38ea1d0cb2441945db","study_id":"60edd13110225f80f9f3709b","session_id":"6196c1f51dde0db67d349259","condition":"full-information","relevant_dimensions":["antennae","legs"],"bee_group":{"antennae":"A","wings":"X","pattern":"X","legs":"F"},"bonus":0.7400000000000007},{"rt":1238,"stimulus":"bees-with-color/bee-A1SF.svg","response":1,"trial_type":"image-button-response","trial_index":25,"time_elapsed":276204,"internal_node_id":"0.0-4.0-0.9","subject_id":"60b7ba38ea1d0cb2441945db","study_id":"60edd13110225f80f9f3709b","session_id":"6196c1f51dde0db67d349259","condition":"full-information","relevant_dimensions":["antennae","legs"],"bee_group":{"antennae":"A","wings":"X","pattern":"X","legs":"F"},"action":"avoid","summary":"good-avoid","bonus":0.7400000000000007},{"rt":8198,"stimulus":"\n                    <p><b>Action: <em>avoid</em></b></p>\n                    <p>This is the bee that you just saw.</p>\n                    <img src=\"bees-with-color/bee-A1SF.svg\" width=\"200\">\n                    <p><span class=\"greenText\">Good choice!</span>  This bee would have stung you.<br>Your bonus pay is unchanged, and remains at $0.54.</p>\n            ","response":0,"trial_type":"html-button-response","trial_index":26,"time_elapsed":284403,"internal_node_id":"0.0-4.0-1.9","subject_id":"60b7ba38ea1d0cb2441945db","study_id":"60edd13110225f80f9f3709b","session_id":"6196c1f51dde0db67d349259","condition":"full-information","relevant_dimensions":["antennae","legs"],"bee_group":{"antennae":"A","wings":"X","pattern":"X","legs":"F"},"bonus":0.7400000000000007},{"rt":5605,"stimulus":"bees-with-color/bee-B1DM.svg","response":1,"trial_type":"image-button-response","trial_index":27,"time_elapsed":290008,"internal_node_id":"0.0-4.0-0.10","subject_id":"60b7ba38ea1d0cb2441945db","study_id":"60edd13110225f80f9f3709b","session_id":"6196c1f51dde0db67d349259","condition":"full-information","relevant_dimensions":["antennae","legs"],"bee_group":{"antennae":"A","wings":"X","pattern":"X","legs":"F"},"action":"avoid","summary":"bad-avoid","bonus":0.7400000000000007},{"rt":10136,"stimulus":"\n                    <p><b>Action: <em>avoid</em></b></p>\n                    <p>This is the bee that you just saw.</p>\n                    <img src=\"bees-with-color/bee-B1DM.svg\" width=\"200\">\n                    <p><span class=\"redText\">Bad choice,</span> the bee was friendly.<br>Your bonus pay is unchanged, and remains at $0.54.</p>\n            ","response":0,"trial_type":"html-button-response","trial_index":28,"time_elapsed":300144,"internal_node_id":"0.0-4.0-1.10","subject_id":"60b7ba38ea1d0cb2441945db","study_id":"60edd13110225f80f9f3709b","session_id":"6196c1f51dde0db67d349259","condition":"full-information","relevant_dimensions":["antennae","legs"],"bee_group":{"antennae":"A","wings":"X","pattern":"X","legs":"F"},"bonus":0.7400000000000007},{"rt":1294,"stimulus":"bees-with-color/bee-B2DM.svg","response":0,"trial_type":"image-button-response","trial_index":29,"time_elapsed":301440,"internal_node_id":"0.0-4.0-0.11","subject_id":"60b7ba38ea1d0cb2441945db","study_id":"60edd13110225f80f9f3709b","session_id":"6196c1f51dde0db67d349259","condition":"full-information","relevant_dimensions":["antennae","legs"],"bee_group":{"antennae":"A","wings":"X","pattern":"X","legs":"F"},"action":"harvest","summary":"good-harvest","bonus":0.7400000000000007},{"rt":8402,"stimulus":"\n                    <p><b>Action: <em>harvest</em></b></p>\n                    <p>This is the bee that you just saw.</p>\n                    <img src=\"bees-with-color/bee-B2DM.svg\" width=\"200\">\n                    <p><span class=\"greenText\"><b>Successful harvest!</b></span><br>Your pay has increased by $0.02. Your bonus pay is now $0.56.</p>\n            ","response":0,"trial_type":"html-button-response","trial_index":30,"time_elapsed":309842,"internal_node_id":"0.0-4.0-1.11","subject_id":"60b7ba38ea1d0cb2441945db","study_id":"60edd13110225f80f9f3709b","session_id":"6196c1f51dde0db67d349259","condition":"full-information","relevant_dimensions":["antennae","legs"],"bee_group":{"antennae":"A","wings":"X","pattern":"X","legs":"F"},"bonus":0.7400000000000007},{"rt":815,"stimulus":"bees-with-color/bee-B2DF.svg","response":1,"trial_type":"image-button-response","trial_index":31,"time_elapsed":310657,"internal_node_id":"0.0-4.0-0.12","subject_id":"60b7ba38ea1d0cb2441945db","study_id":"60edd13110225f80f9f3709b","session_id":"6196c1f51dde0db67d349259","condition":"full-information","relevant_dimensions":["antennae","legs"],"bee_group":{"antennae":"A","wings":"X","pattern":"X","legs":"F"},"action":"avoid","summary":"bad-avoid","bonus":0.7400000000000007},{"rt":11524,"stimulus":"\n                    <p><b>Action: <em>avoid</em></b></p>\n                    <p>This is the bee that you just saw.</p>\n                    <img src=\"bees-with-color/bee-B2DF.svg\" width=\"200\">\n                    <p><span class=\"redText\">Bad choice,</span> the bee was friendly.<br>Your bonus pay is unchanged, and remains at $0.56.</p>\n            ","response":0,"trial_type":"html-button-response","trial_index":32,"time_elapsed":322181,"internal_node_id":"0.0-4.0-1.12","subject_id":"60b7ba38ea1d0cb2441945db","study_id":"60edd13110225f80f9f3709b","session_id":"6196c1f51dde0db67d349259","condition":"full-information","relevant_dimensions":["antennae","legs"],"bee_group":{"antennae":"A","wings":"X","pattern":"X","legs":"F"},"bonus":0.7400000000000007},{"rt":1470,"stimulus":"bees-with-color/bee-B1SF.svg","response":1,"trial_type":"image-button-response","trial_index":33,"time_elapsed":323652,"internal_node_id":"0.0-4.0-0.13","subject_id":"60b7ba38ea1d0cb2441945db","study_id":"60edd13110225f80f9f3709b","session_id":"6196c1f51dde0db67d349259","condition":"full-information","relevant_dimensions":["antennae","legs"],"bee_group":{"antennae":"A","wings":"X","pattern":"X","legs":"F"},"action":"avoid","summary":"bad-avoid","bonus":0.7400000000000007},{"rt":28783,"stimulus":"\n                    <p><b>Action: <em>avoid</em></b></p>\n                    <p>This is the bee that you just saw.</p>\n                    <img src=\"bees-with-color/bee-B1SF.svg\" width=\"200\">\n                    <p><span class=\"redText\">Bad choice,</span> the bee was friendly.<br>Your bonus pay is unchanged, and remains at $0.56.</p>\n            ","response":0,"trial_type":"html-button-response","trial_index":34,"time_elapsed":352437,"internal_node_id":"0.0-4.0-1.13","subject_id":"60b7ba38ea1d0cb2441945db","study_id":"60edd13110225f80f9f3709b","session_id":"6196c1f51dde0db67d349259","condition":"full-information","relevant_dimensions":["antennae","legs"],"bee_group":{"antennae":"A","wings":"X","pattern":"X","legs":"F"},"bonus":0.7400000000000007},{"rt":4530,"stimulus":"bees-with-color/bee-B2SM.svg","response":0,"trial_type":"image-button-response","trial_index":35,"time_elapsed":356968,"internal_node_id":"0.0-4.0-0.14","subject_id":"60b7ba38ea1d0cb2441945db","study_id":"60edd13110225f80f9f3709b","session_id":"6196c1f51dde0db67d349259","condition":"full-information","relevant_dimensions":["antennae","legs"],"bee_group":{"antennae":"A","wings":"X","pattern":"X","legs":"F"},"action":"harvest","summary":"good-harvest","bonus":0.7400000000000007},{"rt":10492,"stimulus":"\n                    <p><b>Action: <em>harvest</em></b></p>\n                    <p>This is the bee that you just saw.</p>\n                    <img src=\"bees-with-color/bee-B2SM.svg\" width=\"200\">\n                    <p><span class=\"greenText\"><b>Successful harvest!</b></span><br>Your pay has increased by $0.02. Your bonus pay is now $0.58.</p>\n            ","response":0,"trial_type":"html-button-response","trial_index":36,"time_elapsed":367461,"internal_node_id":"0.0-4.0-1.14","subject_id":"60b7ba38ea1d0cb2441945db","study_id":"60edd13110225f80f9f3709b","session_id":"6196c1f51dde0db67d349259","condition":"full-information","relevant_dimensions":["antennae","legs"],"bee_group":{"antennae":"A","wings":"X","pattern":"X","legs":"F"},"bonus":0.7400000000000007},{"rt":10107,"stimulus":"bees-with-color/bee-A2SF.svg","response":1,"trial_type":"image-button-response","trial_index":37,"time_elapsed":377568,"internal_node_id":"0.0-4.0-0.15","subject_id":"60b7ba38ea1d0cb2441945db","study_id":"60edd13110225f80f9f3709b","session_id":"6196c1f51dde0db67d349259","condition":"full-information","relevant_dimensions":["antennae","legs"],"bee_group":{"antennae":"A","wings":"X","pattern":"X","legs":"F"},"action":"avoid","summary":"good-avoid","bonus":0.7400000000000007},{"rt":6487,"stimulus":"\n                    <p><b>Action: <em>avoid</em></b></p>\n                    <p>This is the bee that you just saw.</p>\n                    <img src=\"bees-with-color/bee-A2SF.svg\" width=\"200\">\n                    <p><span class=\"greenText\">Good choice!</span>  This bee would have stung you.<br>Your bonus pay is unchanged, and remains at $0.58.</p>\n            ","response":0,"trial_type":"html-button-response","trial_index":38,"time_elapsed":384056,"internal_node_id":"0.0-4.0-1.15","subject_id":"60b7ba38ea1d0cb2441945db","study_id":"60edd13110225f80f9f3709b","session_id":"6196c1f51dde0db67d349259","condition":"full-information","relevant_dimensions":["antennae","legs"],"bee_group":{"antennae":"A","wings":"X","pattern":"X","legs":"F"},"bonus":0.7400000000000007},{"rt":2336,"stimulus":"bees-with-color/bee-A2DM.svg","response":0,"trial_type":"image-button-response","trial_index":39,"time_elapsed":386394,"internal_node_id":"0.0-4.0-0.16","subject_id":"60b7ba38ea1d0cb2441945db","study_id":"60edd13110225f80f9f3709b","session_id":"6196c1f51dde0db67d349259","condition":"full-information","relevant_dimensions":["antennae","legs"],"bee_group":{"antennae":"A","wings":"X","pattern":"X","legs":"F"},"action":"harvest","summary":"good-harvest","bonus":0.7400000000000007},{"rt":14308,"stimulus":"\n                    <p><b>Action: <em>harvest</em></b></p>\n                    <p>This is the bee that you just saw.</p>\n                    <img src=\"bees-with-color/bee-A2DM.svg\" width=\"200\">\n                    <p><span class=\"greenText\"><b>Successful harvest!</b></span><br>Your pay has increased by $0.02. Your bonus pay is now $0.60.</p>\n            ","response":0,"trial_type":"html-button-response","trial_index":40,"time_elapsed":400703,"internal_node_id":"0.0-4.0-1.16","subject_id":"60b7ba38ea1d0cb2441945db","study_id":"60edd13110225f80f9f3709b","session_id":"6196c1f51dde0db67d349259","condition":"full-information","relevant_dimensions":["antennae","legs"],"bee_group":{"antennae":"A","wings":"X","pattern":"X","legs":"F"},"bonus":0.7400000000000007},{"rt":12383,"stimulus":"bees-with-color/bee-B1DF.svg","response":0,"trial_type":"image-button-response","trial_index":41,"time_elapsed":413088,"internal_node_id":"0.0-4.0-0.17","subject_id":"60b7ba38ea1d0cb2441945db","study_id":"60edd13110225f80f9f3709b","session_id":"6196c1f51dde0db67d349259","condition":"full-information","relevant_dimensions":["antennae","legs"],"bee_group":{"antennae":"A","wings":"X","pattern":"X","legs":"F"},"action":"harvest","summary":"good-harvest","bonus":0.7400000000000007},{"rt":10806,"stimulus":"\n                    <p><b>Action: <em>harvest</em></b></p>\n                    <p>This is the bee that you just saw.</p>\n                    <img src=\"bees-with-color/bee-B1DF.svg\" width=\"200\">\n                    <p><span class=\"greenText\"><b>Successful harvest!</b></span><br>Your pay has increased by $0.02. Your bonus pay is now $0.62.</p>\n            ","response":0,"trial_type":"html-button-response","trial_index":42,"time_elapsed":423895,"internal_node_id":"0.0-4.0-1.17","subject_id":"60b7ba38ea1d0cb2441945db","study_id":"60edd13110225f80f9f3709b","session_id":"6196c1f51dde0db67d349259","condition":"full-information","relevant_dimensions":["antennae","legs"],"bee_group":{"antennae":"A","wings":"X","pattern":"X","legs":"F"},"bonus":0.7400000000000007},{"rt":5194,"stimulus":"bees-with-color/bee-A2DF.svg","response":1,"trial_type":"image-button-response","trial_index":43,"time_elapsed":429090,"internal_node_id":"0.0-4.0-0.18","subject_id":"60b7ba38ea1d0cb2441945db","study_id":"60edd13110225f80f9f3709b","session_id":"6196c1f51dde0db67d349259","condition":"full-information","relevant_dimensions":["antennae","legs"],"bee_group":{"antennae":"A","wings":"X","pattern":"X","legs":"F"},"action":"avoid","summary":"good-avoid","bonus":0.7400000000000007},{"rt":1397,"stimulus":"\n                    <p><b>Action: <em>avoid</em></b></p>\n                    <p>This is the bee that you just saw.</p>\n                    <img src=\"bees-with-color/bee-A2DF.svg\" width=\"200\">\n                    <p><span class=\"greenText\">Good choice!</span>  This bee would have stung you.<br>Your bonus pay is unchanged, and remains at $0.62.</p>\n            ","response":0,"trial_type":"html-button-response","trial_index":44,"time_elapsed":430487,"internal_node_id":"0.0-4.0-1.18","subject_id":"60b7ba38ea1d0cb2441945db","study_id":"60edd13110225f80f9f3709b","session_id":"6196c1f51dde0db67d349259","condition":"full-information","relevant_dimensions":["antennae","legs"],"bee_group":{"antennae":"A","wings":"X","pattern":"X","legs":"F"},"bonus":0.7400000000000007},{"rt":3187,"stimulus":"bees-with-color/bee-A1SF.svg","response":1,"trial_type":"image-button-response","trial_index":45,"time_elapsed":433675,"internal_node_id":"0.0-4.0-0.19","subject_id":"60b7ba38ea1d0cb2441945db","study_id":"60edd13110225f80f9f3709b","session_id":"6196c1f51dde0db67d349259","condition":"full-information","relevant_dimensions":["antennae","legs"],"bee_group":{"antennae":"A","wings":"X","pattern":"X","legs":"F"},"action":"avoid","summary":"good-avoid","bonus":0.7400000000000007},{"rt":862,"stimulus":"\n                    <p><b>Action: <em>avoid</em></b></p>\n                    <p>This is the bee that you just saw.</p>\n                    <img src=\"bees-with-color/bee-A1SF.svg\" width=\"200\">\n                    <p><span class=\"greenText\">Good choice!</span>  This bee would have stung you.<br>Your bonus pay is unchanged, and remains at $0.62.</p>\n            ","response":0,"trial_type":"html-button-response","trial_index":46,"time_elapsed":434539,"internal_node_id":"0.0-4.0-1.19","subject_id":"60b7ba38ea1d0cb2441945db","study_id":"60edd13110225f80f9f3709b","session_id":"6196c1f51dde0db67d349259","condition":"full-information","relevant_dimensions":["antennae","legs"],"bee_group":{"antennae":"A","wings":"X","pattern":"X","legs":"F"},"bonus":0.7400000000000007},{"rt":8824,"stimulus":"bees-with-color/bee-A1SM.svg","response":0,"trial_type":"image-button-response","trial_index":47,"time_elapsed":443363,"internal_node_id":"0.0-4.0-0.20","subject_id":"60b7ba38ea1d0cb2441945db","study_id":"60edd13110225f80f9f3709b","session_id":"6196c1f51dde0db67d349259","condition":"full-information","relevant_dimensions":["antennae","legs"],"bee_group":{"antennae":"A","wings":"X","pattern":"X","legs":"F"},"action":"harvest","summary":"good-harvest","bonus":0.7400000000000007},{"rt":3097,"stimulus":"\n                    <p><b>Action: <em>harvest</em></b></p>\n                    <p>This is the bee that you just saw.</p>\n                    <img src=\"bees-with-color/bee-A1SM.svg\" width=\"200\">\n                    <p><span class=\"greenText\"><b>Successful harvest!</b></span><br>Your pay has increased by $0.02. Your bonus pay is now $0.64.</p>\n            ","response":0,"trial_type":"html-button-response","trial_index":48,"time_elapsed":446461,"internal_node_id":"0.0-4.0-1.20","subject_id":"60b7ba38ea1d0cb2441945db","study_id":"60edd13110225f80f9f3709b","session_id":"6196c1f51dde0db67d349259","condition":"full-information","relevant_dimensions":["antennae","legs"],"bee_group":{"antennae":"A","wings":"X","pattern":"X","legs":"F"},"bonus":0.7400000000000007},{"rt":4335,"stimulus":"bees-with-color/bee-B1DM.svg","response":0,"trial_type":"image-button-response","trial_index":49,"time_elapsed":450797,"internal_node_id":"0.0-4.0-0.21","subject_id":"60b7ba38ea1d0cb2441945db","study_id":"60edd13110225f80f9f3709b","session_id":"6196c1f51dde0db67d349259","condition":"full-information","relevant_dimensions":["antennae","legs"],"bee_group":{"antennae":"A","wings":"X","pattern":"X","legs":"F"},"action":"harvest","summary":"good-harvest","bonus":0.7400000000000007},{"rt":709,"stimulus":"\n                    <p><b>Action: <em>harvest</em></b></p>\n                    <p>This is the bee that you just saw.</p>\n                    <img src=\"bees-with-color/bee-B1DM.svg\" width=\"200\">\n                    <p><span class=\"greenText\"><b>Successful harvest!</b></span><br>Your pay has increased by $0.02. Your bonus pay is now $0.66.</p>\n            ","response":0,"trial_type":"html-button-response","trial_index":50,"time_elapsed":451508,"internal_node_id":"0.0-4.0-1.21","subject_id":"60b7ba38ea1d0cb2441945db","study_id":"60edd13110225f80f9f3709b","session_id":"6196c1f51dde0db67d349259","condition":"full-information","relevant_dimensions":["antennae","legs"],"bee_group":{"antennae":"A","wings":"X","pattern":"X","legs":"F"},"bonus":0.7400000000000007},{"rt":4895,"stimulus":"bees-with-color/bee-A1DM.svg","response":0,"trial_type":"image-button-response","trial_index":51,"time_elapsed":456403,"internal_node_id":"0.0-4.0-0.22","subject_id":"60b7ba38ea1d0cb2441945db","study_id":"60edd13110225f80f9f3709b","session_id":"6196c1f51dde0db67d349259","condition":"full-information","relevant_dimensions":["antennae","legs"],"bee_group":{"antennae":"A","wings":"X","pattern":"X","legs":"F"},"action":"harvest","summary":"good-harvest","bonus":0.7400000000000007},{"rt":718,"stimulus":"\n                    <p><b>Action: <em>harvest</em></b></p>\n                    <p>This is the bee that you just saw.</p>\n                    <img src=\"bees-with-color/bee-A1DM.svg\" width=\"200\">\n                    <p><span class=\"greenText\"><b>Successful harvest!</b></span><br>Your pay has increased by $0.02. Your bonus pay is now $0.68.</p>\n            ","response":0,"trial_type":"html-button-response","trial_index":52,"time_elapsed":457122,"internal_node_id":"0.0-4.0-1.22","subject_id":"60b7ba38ea1d0cb2441945db","study_id":"60edd13110225f80f9f3709b","session_id":"6196c1f51dde0db67d349259","condition":"full-information","relevant_dimensions":["antennae","legs"],"bee_group":{"antennae":"A","wings":"X","pattern":"X","legs":"F"},"bonus":0.7400000000000007},{"rt":9185,"stimulus":"bees-with-color/bee-B1SM.svg","response":0,"trial_type":"image-button-response","trial_index":53,"time_elapsed":466308,"internal_node_id":"0.0-4.0-0.23","subject_id":"60b7ba38ea1d0cb2441945db","study_id":"60edd13110225f80f9f3709b","session_id":"6196c1f51dde0db67d349259","condition":"full-information","relevant_dimensions":["antennae","legs"],"bee_group":{"antennae":"A","wings":"X","pattern":"X","legs":"F"},"action":"harvest","summary":"good-harvest","bonus":0.7400000000000007},{"rt":819,"stimulus":"\n                    <p><b>Action: <em>harvest</em></b></p>\n                    <p>This is the bee that you just saw.</p>\n                    <img src=\"bees-with-color/bee-B1SM.svg\" width=\"200\">\n                    <p><span class=\"greenText\"><b>Successful harvest!</b></span><br>Your pay has increased by $0.02. Your bonus pay is now $0.70.</p>\n            ","response":0,"trial_type":"html-button-response","trial_index":54,"time_elapsed":467128,"internal_node_id":"0.0-4.0-1.23","subject_id":"60b7ba38ea1d0cb2441945db","study_id":"60edd13110225f80f9f3709b","session_id":"6196c1f51dde0db67d349259","condition":"full-information","relevant_dimensions":["antennae","legs"],"bee_group":{"antennae":"A","wings":"X","pattern":"X","legs":"F"},"bonus":0.7400000000000007},{"rt":2211,"stimulus":"bees-with-color/bee-A2SM.svg","response":0,"trial_type":"image-button-response","trial_index":55,"time_elapsed":469340,"internal_node_id":"0.0-4.0-0.24","subject_id":"60b7ba38ea1d0cb2441945db","study_id":"60edd13110225f80f9f3709b","session_id":"6196c1f51dde0db67d349259","condition":"full-information","relevant_dimensions":["antennae","legs"],"bee_group":{"antennae":"A","wings":"X","pattern":"X","legs":"F"},"action":"harvest","summary":"good-harvest","bonus":0.7400000000000007},{"rt":836,"stimulus":"\n                    <p><b>Action: <em>harvest</em></b></p>\n                    <p>This is the bee that you just saw.</p>\n                    <img src=\"bees-with-color/bee-A2SM.svg\" width=\"200\">\n                    <p><span class=\"greenText\"><b>Successful harvest!</b></span><br>Your pay has increased by $0.02. Your bonus pay is now $0.72.</p>\n            ","response":0,"trial_type":"html-button-response","trial_index":56,"time_elapsed":470178,"internal_node_id":"0.0-4.0-1.24","subject_id":"60b7ba38ea1d0cb2441945db","study_id":"60edd13110225f80f9f3709b","session_id":"6196c1f51dde0db67d349259","condition":"full-information","relevant_dimensions":["antennae","legs"],"bee_group":{"antennae":"A","wings":"X","pattern":"X","legs":"F"},"bonus":0.7400000000000007},{"rt":5613,"stimulus":"bees-with-color/bee-B2SM.svg","response":0,"trial_type":"image-button-response","trial_index":57,"time_elapsed":475792,"internal_node_id":"0.0-4.0-0.25","subject_id":"60b7ba38ea1d0cb2441945db","study_id":"60edd13110225f80f9f3709b","session_id":"6196c1f51dde0db67d349259","condition":"full-information","relevant_dimensions":["antennae","legs"],"bee_group":{"antennae":"A","wings":"X","pattern":"X","legs":"F"},"action":"harvest","summary":"good-harvest","bonus":0.7400000000000007},{"rt":672,"stimulus":"\n                    <p><b>Action: <em>harvest</em></b></p>\n                    <p>This is the bee that you just saw.</p>\n                    <img src=\"bees-with-color/bee-B2SM.svg\" width=\"200\">\n                    <p><span class=\"greenText\"><b>Successful harvest!</b></span><br>Your pay has increased by $0.02. Your bonus pay is now $0.74.</p>\n            ","response":0,"trial_type":"html-button-response","trial_index":58,"time_elapsed":476464,"internal_node_id":"0.0-4.0-1.25","subject_id":"60b7ba38ea1d0cb2441945db","study_id":"60edd13110225f80f9f3709b","session_id":"6196c1f51dde0db67d349259","condition":"full-information","relevant_dimensions":["antennae","legs"],"bee_group":{"antennae":"A","wings":"X","pattern":"X","legs":"F"},"bonus":0.7400000000000007},{"rt":2286,"stimulus":"bees-with-color/bee-A2SF.svg","response":1,"trial_type":"image-button-response","trial_index":59,"time_elapsed":478749,"internal_node_id":"0.0-4.0-0.26","subject_id":"60b7ba38ea1d0cb2441945db","study_id":"60edd13110225f80f9f3709b","session_id":"6196c1f51dde0db67d349259","condition":"full-information","relevant_dimensions":["antennae","legs"],"bee_group":{"antennae":"A","wings":"X","pattern":"X","legs":"F"},"action":"avoid","summary":"good-avoid","bonus":0.7400000000000007},{"rt":1230,"stimulus":"\n                    <p><b>Action: <em>avoid</em></b></p>\n                    <p>This is the bee that you just saw.</p>\n                    <img src=\"bees-with-color/bee-A2SF.svg\" width=\"200\">\n                    <p><span class=\"greenText\">Good choice!</span>  This bee would have stung you.<br>Your bonus pay is unchanged, and remains at $0.74.</p>\n            ","response":0,"trial_type":"html-button-response","trial_index":60,"time_elapsed":479980,"internal_node_id":"0.0-4.0-1.26","subject_id":"60b7ba38ea1d0cb2441945db","study_id":"60edd13110225f80f9f3709b","session_id":"6196c1f51dde0db67d349259","condition":"full-information","relevant_dimensions":["antennae","legs"],"bee_group":{"antennae":"A","wings":"X","pattern":"X","legs":"F"},"bonus":0.7400000000000007},{"rt":4478,"stimulus":"bees-with-color/bee-B2SF.svg","response":1,"trial_type":"image-button-response","trial_index":61,"time_elapsed":484459,"internal_node_id":"0.0-4.0-0.27","subject_id":"60b7ba38ea1d0cb2441945db","study_id":"60edd13110225f80f9f3709b","session_id":"6196c1f51dde0db67d349259","condition":"full-information","relevant_dimensions":["antennae","legs"],"bee_group":{"antennae":"A","wings":"X","pattern":"X","legs":"F"},"action":"avoid","summary":"bad-avoid","bonus":0.7400000000000007},{"rt":1047,"stimulus":"\n                    <p><b>Action: <em>avoid</em></b></p>\n                    <p>This is the bee that you just saw.</p>\n                    <img src=\"bees-with-color/bee-B2SF.svg\" width=\"200\">\n                    <p><span class=\"redText\">Bad choice,</span> the bee was friendly.<br>Your bonus pay is unchanged, and remains at $0.74.</p>\n            ","response":0,"trial_type":"html-button-response","trial_index":62,"time_elapsed":485507,"internal_node_id":"0.0-4.0-1.27","subject_id":"60b7ba38ea1d0cb2441945db","study_id":"60edd13110225f80f9f3709b","session_id":"6196c1f51dde0db67d349259","condition":"full-information","relevant_dimensions":["antennae","legs"],"bee_group":{"antennae":"A","wings":"X","pattern":"X","legs":"F"},"bonus":0.7400000000000007},{"rt":4531,"stimulus":"bees-with-color/bee-B1SF.svg","response":0,"trial_type":"image-button-response","trial_index":63,"time_elapsed":490038,"internal_node_id":"0.0-4.0-0.28","subject_id":"60b7ba38ea1d0cb2441945db","study_id":"60edd13110225f80f9f3709b","session_id":"6196c1f51dde0db67d349259","condition":"full-information","relevant_dimensions":["antennae","legs"],"bee_group":{"antennae":"A","wings":"X","pattern":"X","legs":"F"},"action":"harvest","summary":"good-harvest","bonus":0.7400000000000007},{"rt":605,"stimulus":"\n                    <p><b>Action: <em>harvest</em></b></p>\n                    <p>This is the bee that you just saw.</p>\n                    <img src=\"bees-with-color/bee-B1SF.svg\" width=\"200\">\n                    <p><span class=\"greenText\"><b>Successful harvest!</b></span><br>Your pay has increased by $0.02. Your bonus pay is now $0.76.</p>\n            ","response":0,"trial_type":"html-button-response","trial_index":64,"time_elapsed":490643,"internal_node_id":"0.0-4.0-1.28","subject_id":"60b7ba38ea1d0cb2441945db","study_id":"60edd13110225f80f9f3709b","session_id":"6196c1f51dde0db67d349259","condition":"full-information","relevant_dimensions":["antennae","legs"],"bee_group":{"antennae":"A","wings":"X","pattern":"X","legs":"F"},"bonus":0.7400000000000007},{"rt":14768,"stimulus":"bees-with-color/bee-A1DF.svg","response":1,"trial_type":"image-button-response","trial_index":65,"time_elapsed":505412,"internal_node_id":"0.0-4.0-0.29","subject_id":"60b7ba38ea1d0cb2441945db","study_id":"60edd13110225f80f9f3709b","session_id":"6196c1f51dde0db67d349259","condition":"full-information","relevant_dimensions":["antennae","legs"],"bee_group":{"antennae":"A","wings":"X","pattern":"X","legs":"F"},"action":"avoid","summary":"good-avoid","bonus":0.7400000000000007},{"rt":1068,"stimulus":"\n                    <p><b>Action: <em>avoid</em></b></p>\n                    <p>This is the bee that you just saw.</p>\n                    <img src=\"bees-with-color/bee-A1DF.svg\" width=\"200\">\n                    <p><span class=\"greenText\">Good choice!</span>  This bee would have stung you.<br>Your bonus pay is unchanged, and remains at $0.76.</p>\n            ","response":0,"trial_type":"html-button-response","trial_index":66,"time_elapsed":506481,"internal_node_id":"0.0-4.0-1.29","subject_id":"60b7ba38ea1d0cb2441945db","study_id":"60edd13110225f80f9f3709b","session_id":"6196c1f51dde0db67d349259","condition":"full-information","relevant_dimensions":["antennae","legs"],"bee_group":{"antennae":"A","wings":"X","pattern":"X","legs":"F"},"bonus":0.7400000000000007},{"rt":4753,"stimulus":"bees-with-color/bee-B2DM.svg","response":0,"trial_type":"image-button-response","trial_index":67,"time_elapsed":511236,"internal_node_id":"0.0-4.0-0.30","subject_id":"60b7ba38ea1d0cb2441945db","study_id":"60edd13110225f80f9f3709b","session_id":"6196c1f51dde0db67d349259","condition":"full-information","relevant_dimensions":["antennae","legs"],"bee_group":{"antennae":"A","wings":"X","pattern":"X","legs":"F"},"action":"harvest","summary":"good-harvest","bonus":0.7400000000000007},{"rt":554,"stimulus":"\n                    <p><b>Action: <em>harvest</em></b></p>\n                    <p>This is the bee that you just saw.</p>\n                    <img src=\"bees-with-color/bee-B2DM.svg\" width=\"200\">\n                    <p><span class=\"greenText\"><b>Successful harvest!</b></span><br>Your pay has increased by $0.02. Your bonus pay is now $0.78.</p>\n            ","response":0,"trial_type":"html-button-response","trial_index":68,"time_elapsed":511792,"internal_node_id":"0.0-4.0-1.30","subject_id":"60b7ba38ea1d0cb2441945db","study_id":"60edd13110225f80f9f3709b","session_id":"6196c1f51dde0db67d349259","condition":"full-information","relevant_dimensions":["antennae","legs"],"bee_group":{"antennae":"A","wings":"X","pattern":"X","legs":"F"},"bonus":0.7400000000000007},{"rt":3184,"stimulus":"bees-with-color/bee-B2DF.svg","response":0,"trial_type":"image-button-response","trial_index":69,"time_elapsed":514978,"internal_node_id":"0.0-4.0-0.31","subject_id":"60b7ba38ea1d0cb2441945db","study_id":"60edd13110225f80f9f3709b","session_id":"6196c1f51dde0db67d349259","condition":"full-information","relevant_dimensions":["antennae","legs"],"bee_group":{"antennae":"A","wings":"X","pattern":"X","legs":"F"},"action":"harvest","summary":"good-harvest","bonus":0.7400000000000007},{"rt":663,"stimulus":"\n                    <p><b>Action: <em>harvest</em></b></p>\n                    <p>This is the bee that you just saw.</p>\n                    <img src=\"bees-with-color/bee-B2DF.svg\" width=\"200\">\n                    <p><span class=\"greenText\"><b>Successful harvest!</b></span><br>Your pay has increased by $0.02. Your bonus pay is now $0.80.</p>\n            ","response":0,"trial_type":"html-button-response","trial_index":70,"time_elapsed":515643,"internal_node_id":"0.0-4.0-1.31","subject_id":"60b7ba38ea1d0cb2441945db","study_id":"60edd13110225f80f9f3709b","session_id":"6196c1f51dde0db67d349259","condition":"full-information","relevant_dimensions":["antennae","legs"],"bee_group":{"antennae":"A","wings":"X","pattern":"X","legs":"F"},"bonus":0.7400000000000007},{"rt":2085,"stimulus":"bees-with-color/bee-B1DM.svg","response":0,"trial_type":"image-button-response","trial_index":71,"time_elapsed":517729,"internal_node_id":"0.0-4.0-0.32","subject_id":"60b7ba38ea1d0cb2441945db","study_id":"60edd13110225f80f9f3709b","session_id":"6196c1f51dde0db67d349259","condition":"full-information","relevant_dimensions":["antennae","legs"],"bee_group":{"antennae":"A","wings":"X","pattern":"X","legs":"F"},"action":"harvest","summary":"good-harvest","bonus":0.7400000000000007},{"rt":619,"stimulus":"\n                    <p><b>Action: <em>harvest</em></b></p>\n                    <p>This is the bee that you just saw.</p>\n                    <img src=\"bees-with-color/bee-B1DM.svg\" width=\"200\">\n                    <p><span class=\"greenText\"><b>Successful harvest!</b></span><br>Your pay has increased by $0.02. Your bonus pay is now $0.82.</p>\n            ","response":0,"trial_type":"html-button-response","trial_index":72,"time_elapsed":518349,"internal_node_id":"0.0-4.0-1.32","subject_id":"60b7ba38ea1d0cb2441945db","study_id":"60edd13110225f80f9f3709b","session_id":"6196c1f51dde0db67d349259","condition":"full-information","relevant_dimensions":["antennae","legs"],"bee_group":{"antennae":"A","wings":"X","pattern":"X","legs":"F"},"bonus":0.7400000000000007},{"rt":1049,"stimulus":"bees-with-color/bee-B2SM.svg","response":0,"trial_type":"image-button-response","trial_index":73,"time_elapsed":519398,"internal_node_id":"0.0-4.0-0.33","subject_id":"60b7ba38ea1d0cb2441945db","study_id":"60edd13110225f80f9f3709b","session_id":"6196c1f51dde0db67d349259","condition":"full-information","relevant_dimensions":["antennae","legs"],"bee_group":{"antennae":"A","wings":"X","pattern":"X","legs":"F"},"action":"harvest","summary":"good-harvest","bonus":0.7400000000000007},{"rt":507,"stimulus":"\n                    <p><b>Action: <em>harvest</em></b></p>\n                    <p>This is the bee that you just saw.</p>\n                    <img src=\"bees-with-color/bee-B2SM.svg\" width=\"200\">\n                    <p><span class=\"greenText\"><b>Successful harvest!</b></span><br>Your pay has increased by $0.02. Your bonus pay is now $0.84.</p>\n            ","response":0,"trial_type":"html-button-response","trial_index":74,"time_elapsed":519907,"internal_node_id":"0.0-4.0-1.33","subject_id":"60b7ba38ea1d0cb2441945db","study_id":"60edd13110225f80f9f3709b","session_id":"6196c1f51dde0db67d349259","condition":"full-information","relevant_dimensions":["antennae","legs"],"bee_group":{"antennae":"A","wings":"X","pattern":"X","legs":"F"},"bonus":0.7400000000000007},{"rt":2924,"stimulus":"bees-with-color/bee-A2DF.svg","response":1,"trial_type":"image-button-response","trial_index":75,"time_elapsed":522831,"internal_node_id":"0.0-4.0-0.34","subject_id":"60b7ba38ea1d0cb2441945db","study_id":"60edd13110225f80f9f3709b","session_id":"6196c1f51dde0db67d349259","condition":"full-information","relevant_dimensions":["antennae","legs"],"bee_group":{"antennae":"A","wings":"X","pattern":"X","legs":"F"},"action":"avoid","summary":"good-avoid","bonus":0.7400000000000007},{"rt":552,"stimulus":"\n                    <p><b>Action: <em>avoid</em></b></p>\n                    <p>This is the bee that you just saw.</p>\n                    <img src=\"bees-with-color/bee-A2DF.svg\" width=\"200\">\n                    <p><span class=\"greenText\">Good choice!</span>  This bee would have stung you.<br>Your bonus pay is unchanged, and remains at $0.84.</p>\n            ","response":0,"trial_type":"html-button-response","trial_index":76,"time_elapsed":523384,"internal_node_id":"0.0-4.0-1.34","subject_id":"60b7ba38ea1d0cb2441945db","study_id":"60edd13110225f80f9f3709b","session_id":"6196c1f51dde0db67d349259","condition":"full-information","relevant_dimensions":["antennae","legs"],"bee_group":{"antennae":"A","wings":"X","pattern":"X","legs":"F"},"bonus":0.7400000000000007},{"rt":3423,"stimulus":"bees-with-color/bee-A1DM.svg","response":0,"trial_type":"image-button-response","trial_index":77,"time_elapsed":526807,"internal_node_id":"0.0-4.0-0.35","subject_id":"60b7ba38ea1d0cb2441945db","study_id":"60edd13110225f80f9f3709b","session_id":"6196c1f51dde0db67d349259","condition":"full-information","relevant_dimensions":["antennae","legs"],"bee_group":{"antennae":"A","wings":"X","pattern":"X","legs":"F"},"action":"harvest","summary":"good-harvest","bonus":0.7400000000000007},{"rt":510,"stimulus":"\n                    <p><b>Action: <em>harvest</em></b></p>\n                    <p>This is the bee that you just saw.</p>\n                    <img src=\"bees-with-color/bee-A1DM.svg\" width=\"200\">\n                    <p><span class=\"greenText\"><b>Successful harvest!</b></span><br>Your pay has increased by $0.02. Your bonus pay is now $0.86.</p>\n            ","response":0,"trial_type":"html-button-response","trial_index":78,"time_elapsed":527318,"internal_node_id":"0.0-4.0-1.35","subject_id":"60b7ba38ea1d0cb2441945db","study_id":"60edd13110225f80f9f3709b","session_id":"6196c1f51dde0db67d349259","condition":"full-information","relevant_dimensions":["antennae","legs"],"bee_group":{"antennae":"A","wings":"X","pattern":"X","legs":"F"},"bonus":0.7400000000000007},{"rt":2738,"stimulus":"bees-with-color/bee-B2DM.svg","response":0,"trial_type":"image-button-response","trial_index":79,"time_elapsed":530059,"internal_node_id":"0.0-4.0-0.36","subject_id":"60b7ba38ea1d0cb2441945db","study_id":"60edd13110225f80f9f3709b","session_id":"6196c1f51dde0db67d349259","condition":"full-information","relevant_dimensions":["antennae","legs"],"bee_group":{"antennae":"A","wings":"X","pattern":"X","legs":"F"},"action":"harvest","summary":"good-harvest","bonus":0.7400000000000007},{"rt":773,"stimulus":"\n                    <p><b>Action: <em>harvest</em></b></p>\n                    <p>This is the bee that you just saw.</p>\n                    <img src=\"bees-with-color/bee-B2DM.svg\" width=\"200\">\n                    <p><span class=\"greenText\"><b>Successful harvest!</b></span><br>Your pay has increased by $0.02. Your bonus pay is now $0.88.</p>\n            ","response":0,"trial_type":"html-button-response","trial_index":80,"time_elapsed":530832,"internal_node_id":"0.0-4.0-1.36","subject_id":"60b7ba38ea1d0cb2441945db","study_id":"60edd13110225f80f9f3709b","session_id":"6196c1f51dde0db67d349259","condition":"full-information","relevant_dimensions":["antennae","legs"],"bee_group":{"antennae":"A","wings":"X","pattern":"X","legs":"F"},"bonus":0.7400000000000007},{"rt":10447,"stimulus":"bees-with-color/bee-B2DF.svg","response":0,"trial_type":"image-button-response","trial_index":81,"time_elapsed":541280,"internal_node_id":"0.0-4.0-0.37","subject_id":"60b7ba38ea1d0cb2441945db","study_id":"60edd13110225f80f9f3709b","session_id":"6196c1f51dde0db67d349259","condition":"full-information","relevant_dimensions":["antennae","legs"],"bee_group":{"antennae":"A","wings":"X","pattern":"X","legs":"F"},"action":"harvest","summary":"good-harvest","bonus":0.7400000000000007},{"rt":588,"stimulus":"\n                    <p><b>Action: <em>harvest</em></b></p>\n                    <p>This is the bee that you just saw.</p>\n                    <img src=\"bees-with-color/bee-B2DF.svg\" width=\"200\">\n                    <p><span class=\"greenText\"><b>Successful harvest!</b></span><br>Your pay has increased by $0.02. Your bonus pay is now $0.90.</p>\n            ","response":0,"trial_type":"html-button-response","trial_index":82,"time_elapsed":541868,"internal_node_id":"0.0-4.0-1.37","subject_id":"60b7ba38ea1d0cb2441945db","study_id":"60edd13110225f80f9f3709b","session_id":"6196c1f51dde0db67d349259","condition":"full-information","relevant_dimensions":["antennae","legs"],"bee_group":{"antennae":"A","wings":"X","pattern":"X","legs":"F"},"bonus":0.7400000000000007},{"rt":3854,"stimulus":"bees-with-color/bee-A1SM.svg","response":0,"trial_type":"image-button-response","trial_index":83,"time_elapsed":545723,"internal_node_id":"0.0-4.0-0.38","subject_id":"60b7ba38ea1d0cb2441945db","study_id":"60edd13110225f80f9f3709b","session_id":"6196c1f51dde0db67d349259","condition":"full-information","relevant_dimensions":["antennae","legs"],"bee_group":{"antennae":"A","wings":"X","pattern":"X","legs":"F"},"action":"harvest","summary":"good-harvest","bonus":0.7400000000000007},{"rt":714,"stimulus":"\n                    <p><b>Action: <em>harvest</em></b></p>\n                    <p>This is the bee that you just saw.</p>\n                    <img src=\"bees-with-color/bee-A1SM.svg\" width=\"200\">\n                    <p><span class=\"greenText\"><b>Successful harvest!</b></span><br>Your pay has increased by $0.02. Your bonus pay is now $0.92.</p>\n            ","response":0,"trial_type":"html-button-response","trial_index":84,"time_elapsed":546438,"internal_node_id":"0.0-4.0-1.38","subject_id":"60b7ba38ea1d0cb2441945db","study_id":"60edd13110225f80f9f3709b","session_id":"6196c1f51dde0db67d349259","condition":"full-information","relevant_dimensions":["antennae","legs"],"bee_group":{"antennae":"A","wings":"X","pattern":"X","legs":"F"},"bonus":0.7400000000000007},{"rt":4384,"stimulus":"bees-with-color/bee-A1DF.svg","response":1,"trial_type":"image-button-response","trial_index":85,"time_elapsed":550823,"internal_node_id":"0.0-4.0-0.39","subject_id":"60b7ba38ea1d0cb2441945db","study_id":"60edd13110225f80f9f3709b","session_id":"6196c1f51dde0db67d349259","condition":"full-information","relevant_dimensions":["antennae","legs"],"bee_group":{"antennae":"A","wings":"X","pattern":"X","legs":"F"},"action":"avoid","summary":"good-avoid","bonus":0.7400000000000007},{"rt":658,"stimulus":"\n                    <p><b>Action: <em>avoid</em></b></p>\n                    <p>This is the bee that you just saw.</p>\n                    <img src=\"bees-with-color/bee-A1DF.svg\" width=\"200\">\n                    <p><span class=\"greenText\">Good choice!</span>  This bee would have stung you.<br>Your bonus pay is unchanged, and remains at $0.92.</p>\n            ","response":0,"trial_type":"html-button-response","trial_index":86,"time_elapsed":551483,"internal_node_id":"0.0-4.0-1.39","subject_id":"60b7ba38ea1d0cb2441945db","study_id":"60edd13110225f80f9f3709b","session_id":"6196c1f51dde0db67d349259","condition":"full-information","relevant_dimensions":["antennae","legs"],"bee_group":{"antennae":"A","wings":"X","pattern":"X","legs":"F"},"bonus":0.7400000000000007},{"rt":4119,"stimulus":"bees-with-color/bee-A2SM.svg","response":0,"trial_type":"image-button-response","trial_index":87,"time_elapsed":555604,"internal_node_id":"0.0-4.0-0.40","subject_id":"60b7ba38ea1d0cb2441945db","study_id":"60edd13110225f80f9f3709b","session_id":"6196c1f51dde0db67d349259","condition":"full-information","relevant_dimensions":["antennae","legs"],"bee_group":{"antennae":"A","wings":"X","pattern":"X","legs":"F"},"action":"harvest","summary":"good-harvest","bonus":0.7400000000000007},{"rt":1047,"stimulus":"\n                    <p><b>Action: <em>harvest</em></b></p>\n                    <p>This is the bee that you just saw.</p>\n                    <img src=\"bees-with-color/bee-A2SM.svg\" width=\"200\">\n                    <p><span class=\"greenText\"><b>Successful harvest!</b></span><br>Your pay has increased by $0.02. Your bonus pay is now $0.94.</p>\n            ","response":0,"trial_type":"html-button-response","trial_index":88,"time_elapsed":556651,"internal_node_id":"0.0-4.0-1.40","subject_id":"60b7ba38ea1d0cb2441945db","study_id":"60edd13110225f80f9f3709b","session_id":"6196c1f51dde0db67d349259","condition":"full-information","relevant_dimensions":["antennae","legs"],"bee_group":{"antennae":"A","wings":"X","pattern":"X","legs":"F"},"bonus":0.7400000000000007},{"rt":5082,"stimulus":"bees-with-color/bee-B1DF.svg","response":0,"trial_type":"image-button-response","trial_index":89,"time_elapsed":561734,"internal_node_id":"0.0-4.0-0.41","subject_id":"60b7ba38ea1d0cb2441945db","study_id":"60edd13110225f80f9f3709b","session_id":"6196c1f51dde0db67d349259","condition":"full-information","relevant_dimensions":["antennae","legs"],"bee_group":{"antennae":"A","wings":"X","pattern":"X","legs":"F"},"action":"harvest","summary":"good-harvest","bonus":0.7400000000000007},{"rt":717,"stimulus":"\n                    <p><b>Action: <em>harvest</em></b></p>\n                    <p>This is the bee that you just saw.</p>\n                    <img src=\"bees-with-color/bee-B1DF.svg\" width=\"200\">\n                    <p><span class=\"greenText\"><b>Successful harvest!</b></span><br>Your pay has increased by $0.02. Your bonus pay is now $0.96.</p>\n            ","response":0,"trial_type":"html-button-response","trial_index":90,"time_elapsed":562452,"internal_node_id":"0.0-4.0-1.41","subject_id":"60b7ba38ea1d0cb2441945db","study_id":"60edd13110225f80f9f3709b","session_id":"6196c1f51dde0db67d349259","condition":"full-information","relevant_dimensions":["antennae","legs"],"bee_group":{"antennae":"A","wings":"X","pattern":"X","legs":"F"},"bonus":0.7400000000000007},{"rt":11507,"stimulus":"bees-with-color/bee-B2SF.svg","response":0,"trial_type":"image-button-response","trial_index":91,"time_elapsed":573959,"internal_node_id":"0.0-4.0-0.42","subject_id":"60b7ba38ea1d0cb2441945db","study_id":"60edd13110225f80f9f3709b","session_id":"6196c1f51dde0db67d349259","condition":"full-information","relevant_dimensions":["antennae","legs"],"bee_group":{"antennae":"A","wings":"X","pattern":"X","legs":"F"},"action":"harvest","summary":"good-harvest","bonus":0.7400000000000007},{"rt":747,"stimulus":"\n                    <p><b>Action: <em>harvest</em></b></p>\n                    <p>This is the bee that you just saw.</p>\n                    <img src=\"bees-with-color/bee-B2SF.svg\" width=\"200\">\n                    <p><span class=\"greenText\"><b>Successful harvest!</b></span><br>Your pay has increased by $0.02. Your bonus pay is now $0.98.</p>\n            ","response":0,"trial_type":"html-button-response","trial_index":92,"time_elapsed":574709,"internal_node_id":"0.0-4.0-1.42","subject_id":"60b7ba38ea1d0cb2441945db","study_id":"60edd13110225f80f9f3709b","session_id":"6196c1f51dde0db67d349259","condition":"full-information","relevant_dimensions":["antennae","legs"],"bee_group":{"antennae":"A","wings":"X","pattern":"X","legs":"F"},"bonus":0.7400000000000007},{"rt":3536,"stimulus":"bees-with-color/bee-A2SF.svg","response":1,"trial_type":"image-button-response","trial_index":93,"time_elapsed":578246,"internal_node_id":"0.0-4.0-0.43","subject_id":"60b7ba38ea1d0cb2441945db","study_id":"60edd13110225f80f9f3709b","session_id":"6196c1f51dde0db67d349259","condition":"full-information","relevant_dimensions":["antennae","legs"],"bee_group":{"antennae":"A","wings":"X","pattern":"X","legs":"F"},"action":"avoid","summary":"good-avoid","bonus":0.7400000000000007},{"rt":759,"stimulus":"\n                    <p><b>Action: <em>avoid</em></b></p>\n                    <p>This is the bee that you just saw.</p>\n                    <img src=\"bees-with-color/bee-A2SF.svg\" width=\"200\">\n                    <p><span class=\"greenText\">Good choice!</span>  This bee would have stung you.<br>Your bonus pay is unchanged, and remains at $0.98.</p>\n            ","response":0,"trial_type":"html-button-response","trial_index":94,"time_elapsed":579006,"internal_node_id":"0.0-4.0-1.43","subject_id":"60b7ba38ea1d0cb2441945db","study_id":"60edd13110225f80f9f3709b","session_id":"6196c1f51dde0db67d349259","condition":"full-information","relevant_dimensions":["antennae","legs"],"bee_group":{"antennae":"A","wings":"X","pattern":"X","legs":"F"},"bonus":0.7400000000000007},{"rt":2390,"stimulus":"bees-with-color/bee-A1SF.svg","response":1,"trial_type":"image-button-response","trial_index":95,"time_elapsed":581397,"internal_node_id":"0.0-4.0-0.44","subject_id":"60b7ba38ea1d0cb2441945db","study_id":"60edd13110225f80f9f3709b","session_id":"6196c1f51dde0db67d349259","condition":"full-information","relevant_dimensions":["antennae","legs"],"bee_group":{"antennae":"A","wings":"X","pattern":"X","legs":"F"},"action":"avoid","summary":"good-avoid","bonus":0.7400000000000007},{"rt":516,"stimulus":"\n                    <p><b>Action: <em>avoid</em></b></p>\n                    <p>This is the bee that you just saw.</p>\n                    <img src=\"bees-with-color/bee-A1SF.svg\" width=\"200\">\n                    <p><span class=\"greenText\">Good choice!</span>  This bee would have stung you.<br>Your bonus pay is unchanged, and remains at $0.98.</p>\n            ","response":0,"trial_type":"html-button-response","trial_index":96,"time_elapsed":581914,"internal_node_id":"0.0-4.0-1.44","subject_id":"60b7ba38ea1d0cb2441945db","study_id":"60edd13110225f80f9f3709b","session_id":"6196c1f51dde0db67d349259","condition":"full-information","relevant_dimensions":["antennae","legs"],"bee_group":{"antennae":"A","wings":"X","pattern":"X","legs":"F"},"bonus":0.7400000000000007},{"rt":1777,"stimulus":"bees-with-color/bee-B1SF.svg","response":0,"trial_type":"image-button-response","trial_index":97,"time_elapsed":583691,"internal_node_id":"0.0-4.0-0.45","subject_id":"60b7ba38ea1d0cb2441945db","study_id":"60edd13110225f80f9f3709b","session_id":"6196c1f51dde0db67d349259","condition":"full-information","relevant_dimensions":["antennae","legs"],"bee_group":{"antennae":"A","wings":"X","pattern":"X","legs":"F"},"action":"harvest","summary":"good-harvest","bonus":0.7400000000000007},{"rt":566,"stimulus":"\n                    <p><b>Action: <em>harvest</em></b></p>\n                    <p>This is the bee that you just saw.</p>\n                    <img src=\"bees-with-color/bee-B1SF.svg\" width=\"200\">\n                    <p><span class=\"greenText\"><b>Successful harvest!</b></span><br>Your pay has increased by $0.02. Your bonus pay is now $1.00.</p>\n            ","response":0,"trial_type":"html-button-response","trial_index":98,"time_elapsed":584258,"internal_node_id":"0.0-4.0-1.45","subject_id":"60b7ba38ea1d0cb2441945db","study_id":"60edd13110225f80f9f3709b","session_id":"6196c1f51dde0db67d349259","condition":"full-information","relevant_dimensions":["antennae","legs"],"bee_group":{"antennae":"A","wings":"X","pattern":"X","legs":"F"},"bonus":0.7400000000000007},{"rt":924,"stimulus":"bees-with-color/bee-B1SM.svg","response":0,"trial_type":"image-button-response","trial_index":99,"time_elapsed":585184,"internal_node_id":"0.0-4.0-0.46","subject_id":"60b7ba38ea1d0cb2441945db","study_id":"60edd13110225f80f9f3709b","session_id":"6196c1f51dde0db67d349259","condition":"full-information","relevant_dimensions":["antennae","legs"],"bee_group":{"antennae":"A","wings":"X","pattern":"X","legs":"F"},"action":"harvest","summary":"good-harvest","bonus":0.7400000000000007},{"rt":479,"stimulus":"\n                    <p><b>Action: <em>harvest</em></b></p>\n                    <p>This is the bee that you just saw.</p>\n                    <img src=\"bees-with-color/bee-B1SM.svg\" width=\"200\">\n                    <p><span class=\"greenText\"><b>Successful harvest!</b></span><br>Your pay has increased by $0.02. Your bonus pay is now $1.02.</p>\n            ","response":0,"trial_type":"html-button-response","trial_index":100,"time_elapsed":585664,"internal_node_id":"0.0-4.0-1.46","subject_id":"60b7ba38ea1d0cb2441945db","study_id":"60edd13110225f80f9f3709b","session_id":"6196c1f51dde0db67d349259","condition":"full-information","relevant_dimensions":["antennae","legs"],"bee_group":{"antennae":"A","wings":"X","pattern":"X","legs":"F"},"bonus":0.7400000000000007},{"rt":1996,"stimulus":"bees-with-color/bee-A2DM.svg","response":0,"trial_type":"image-button-response","trial_index":101,"time_elapsed":587662,"internal_node_id":"0.0-4.0-0.47","subject_id":"60b7ba38ea1d0cb2441945db","study_id":"60edd13110225f80f9f3709b","session_id":"6196c1f51dde0db67d349259","condition":"full-information","relevant_dimensions":["antennae","legs"],"bee_group":{"antennae":"A","wings":"X","pattern":"X","legs":"F"},"action":"harvest","summary":"good-harvest","bonus":0.7400000000000007},{"rt":502,"stimulus":"\n                    <p><b>Action: <em>harvest</em></b></p>\n                    <p>This is the bee that you just saw.</p>\n                    <img src=\"bees-with-color/bee-A2DM.svg\" width=\"200\">\n                    <p><span class=\"greenText\"><b>Successful harvest!</b></span><br>Your pay has increased by $0.02. Your bonus pay is now $1.04.</p>\n            ","response":0,"trial_type":"html-button-response","trial_index":102,"time_elapsed":588165,"internal_node_id":"0.0-4.0-1.47","subject_id":"60b7ba38ea1d0cb2441945db","study_id":"60edd13110225f80f9f3709b","session_id":"6196c1f51dde0db67d349259","condition":"full-information","relevant_dimensions":["antennae","legs"],"bee_group":{"antennae":"A","wings":"X","pattern":"X","legs":"F"},"bonus":0.7400000000000007},{"rt":2227,"stimulus":"bees-with-color/bee-A1SM.svg","response":0,"trial_type":"image-button-response","trial_index":103,"time_elapsed":590393,"internal_node_id":"0.0-4.0-0.48","subject_id":"60b7ba38ea1d0cb2441945db","study_id":"60edd13110225f80f9f3709b","session_id":"6196c1f51dde0db67d349259","condition":"full-information","relevant_dimensions":["antennae","legs"],"bee_group":{"antennae":"A","wings":"X","pattern":"X","legs":"F"},"action":"harvest","summary":"good-harvest","bonus":0.7400000000000007},{"rt":820,"stimulus":"\n                    <p><b>Action: <em>harvest</em></b></p>\n                    <p>This is the bee that you just saw.</p>\n                    <img src=\"bees-with-color/bee-A1SM.svg\" width=\"200\">\n                    <p><span class=\"greenText\"><b>Successful harvest!</b></span><br>Your pay has increased by $0.02. Your bonus pay is now $1.06.</p>\n            ","response":0,"trial_type":"html-button-response","trial_index":104,"time_elapsed":591214,"internal_node_id":"0.0-4.0-1.48","subject_id":"60b7ba38ea1d0cb2441945db","study_id":"60edd13110225f80f9f3709b","session_id":"6196c1f51dde0db67d349259","condition":"full-information","relevant_dimensions":["antennae","legs"],"bee_group":{"antennae":"A","wings":"X","pattern":"X","legs":"F"},"bonus":0.7400000000000007},{"rt":10624,"stimulus":"bees-with-color/bee-B1SM.svg","response":0,"trial_type":"image-button-response","trial_index":105,"time_elapsed":601840,"internal_node_id":"0.0-4.0-0.49","subject_id":"60b7ba38ea1d0cb2441945db","study_id":"60edd13110225f80f9f3709b","session_id":"6196c1f51dde0db67d349259","condition":"full-information","relevant_dimensions":["antennae","legs"],"bee_group":{"antennae":"A","wings":"X","pattern":"X","legs":"F"},"action":"harvest","summary":"good-harvest","bonus":0.7400000000000007},{"rt":565,"stimulus":"\n                    <p><b>Action: <em>harvest</em></b></p>\n                    <p>This is the bee that you just saw.</p>\n                    <img src=\"bees-with-color/bee-B1SM.svg\" width=\"200\">\n                    <p><span class=\"greenText\"><b>Successful harvest!</b></span><br>Your pay has increased by $0.02. Your bonus pay is now $1.08.</p>\n            ","response":0,"trial_type":"html-button-response","trial_index":106,"time_elapsed":602404,"internal_node_id":"0.0-4.0-1.49","subject_id":"60b7ba38ea1d0cb2441945db","study_id":"60edd13110225f80f9f3709b","session_id":"6196c1f51dde0db67d349259","condition":"full-information","relevant_dimensions":["antennae","legs"],"bee_group":{"antennae":"A","wings":"X","pattern":"X","legs":"F"},"bonus":0.7400000000000007},{"rt":1610,"stimulus":"bees-with-color/bee-A1SF.svg","response":1,"trial_type":"image-button-response","trial_index":107,"time_elapsed":604016,"internal_node_id":"0.0-4.0-0.50","subject_id":"60b7ba38ea1d0cb2441945db","study_id":"60edd13110225f80f9f3709b","session_id":"6196c1f51dde0db67d349259","condition":"full-information","relevant_dimensions":["antennae","legs"],"bee_group":{"antennae":"A","wings":"X","pattern":"X","legs":"F"},"action":"avoid","summary":"good-avoid","bonus":0.7400000000000007},{"rt":541,"stimulus":"\n                    <p><b>Action: <em>avoid</em></b></p>\n                    <p>This is the bee that you just saw.</p>\n                    <img src=\"bees-with-color/bee-A1SF.svg\" width=\"200\">\n                    <p><span class=\"greenText\">Good choice!</span>  This bee would have stung you.<br>Your bonus pay is unchanged, and remains at $1.08.</p>\n            ","response":0,"trial_type":"html-button-response","trial_index":108,"time_elapsed":604559,"internal_node_id":"0.0-4.0-1.50","subject_id":"60b7ba38ea1d0cb2441945db","study_id":"60edd13110225f80f9f3709b","session_id":"6196c1f51dde0db67d349259","condition":"full-information","relevant_dimensions":["antennae","legs"],"bee_group":{"antennae":"A","wings":"X","pattern":"X","legs":"F"},"bonus":0.7400000000000007},{"rt":4516,"stimulus":"bees-with-color/bee-B1SF.svg","response":1,"trial_type":"image-button-response","trial_index":109,"time_elapsed":609076,"internal_node_id":"0.0-4.0-0.51","subject_id":"60b7ba38ea1d0cb2441945db","study_id":"60edd13110225f80f9f3709b","session_id":"6196c1f51dde0db67d349259","condition":"full-information","relevant_dimensions":["antennae","legs"],"bee_group":{"antennae":"A","wings":"X","pattern":"X","legs":"F"},"action":"avoid","summary":"bad-avoid","bonus":0.7400000000000007},{"rt":9532,"stimulus":"\n                    <p><b>Action: <em>avoid</em></b></p>\n                    <p>This is the bee that you just saw.</p>\n                    <img src=\"bees-with-color/bee-B1SF.svg\" width=\"200\">\n                    <p><span class=\"redText\">Bad choice,</span> the bee was friendly.<br>Your bonus pay is unchanged, and remains at $1.08.</p>\n            ","response":0,"trial_type":"html-button-response","trial_index":110,"time_elapsed":618608,"internal_node_id":"0.0-4.0-1.51","subject_id":"60b7ba38ea1d0cb2441945db","study_id":"60edd13110225f80f9f3709b","session_id":"6196c1f51dde0db67d349259","condition":"full-information","relevant_dimensions":["antennae","legs"],"bee_group":{"antennae":"A","wings":"X","pattern":"X","legs":"F"},"bonus":0.7400000000000007},{"rt":6675,"stimulus":"bees-with-color/bee-B1DM.svg","response":0,"trial_type":"image-button-response","trial_index":111,"time_elapsed":625284,"internal_node_id":"0.0-4.0-0.52","subject_id":"60b7ba38ea1d0cb2441945db","study_id":"60edd13110225f80f9f3709b","session_id":"6196c1f51dde0db67d349259","condition":"full-information","relevant_dimensions":["antennae","legs"],"bee_group":{"antennae":"A","wings":"X","pattern":"X","legs":"F"},"action":"harvest","summary":"good-harvest","bonus":0.7400000000000007},{"rt":716,"stimulus":"\n                    <p><b>Action: <em>harvest</em></b></p>\n                    <p>This is the bee that you just saw.</p>\n                    <img src=\"bees-with-color/bee-B1DM.svg\" width=\"200\">\n                    <p><span class=\"greenText\"><b>Successful harvest!</b></span><br>Your pay has increased by $0.02. Your bonus pay is now $1.10.</p>\n            ","response":0,"trial_type":"html-button-response","trial_index":112,"time_elapsed":626000,"internal_node_id":"0.0-4.0-1.52","subject_id":"60b7ba38ea1d0cb2441945db","study_id":"60edd13110225f80f9f3709b","session_id":"6196c1f51dde0db67d349259","condition":"full-information","relevant_dimensions":["antennae","legs"],"bee_group":{"antennae":"A","wings":"X","pattern":"X","legs":"F"},"bonus":0.7400000000000007},{"rt":3224,"stimulus":"bees-with-color/bee-A2DF.svg","response":1,"trial_type":"image-button-response","trial_index":113,"time_elapsed":629225,"internal_node_id":"0.0-4.0-0.53","subject_id":"60b7ba38ea1d0cb2441945db","study_id":"60edd13110225f80f9f3709b","session_id":"6196c1f51dde0db67d349259","condition":"full-information","relevant_dimensions":["antennae","legs"],"bee_group":{"antennae":"A","wings":"X","pattern":"X","legs":"F"},"action":"avoid","summary":"good-avoid","bonus":0.7400000000000007},{"rt":842,"stimulus":"\n                    <p><b>Action: <em>avoid</em></b></p>\n                    <p>This is the bee that you just saw.</p>\n                    <img src=\"bees-with-color/bee-A2DF.svg\" width=\"200\">\n                    <p><span class=\"greenText\">Good choice!</span>  This bee would have stung you.<br>Your bonus pay is unchanged, and remains at $1.10.</p>\n            ","response":0,"trial_type":"html-button-response","trial_index":114,"time_elapsed":630068,"internal_node_id":"0.0-4.0-1.53","subject_id":"60b7ba38ea1d0cb2441945db","study_id":"60edd13110225f80f9f3709b","session_id":"6196c1f51dde0db67d349259","condition":"full-information","relevant_dimensions":["antennae","legs"],"bee_group":{"antennae":"A","wings":"X","pattern":"X","legs":"F"},"bonus":0.7400000000000007},{"rt":3473,"stimulus":"bees-with-color/bee-B2SM.svg","response":0,"trial_type":"image-button-response","trial_index":115,"time_elapsed":633541,"internal_node_id":"0.0-4.0-0.54","subject_id":"60b7ba38ea1d0cb2441945db","study_id":"60edd13110225f80f9f3709b","session_id":"6196c1f51dde0db67d349259","condition":"full-information","relevant_dimensions":["antennae","legs"],"bee_group":{"antennae":"A","wings":"X","pattern":"X","legs":"F"},"action":"harvest","summary":"good-harvest","bonus":0.7400000000000007},{"rt":1478,"stimulus":"\n                    <p><b>Action: <em>harvest</em></b></p>\n                    <p>This is the bee that you just saw.</p>\n                    <img src=\"bees-with-color/bee-B2SM.svg\" width=\"200\">\n                    <p><span class=\"greenText\"><b>Successful harvest!</b></span><br>Your pay has increased by $0.02. Your bonus pay is now $1.12.</p>\n            ","response":0,"trial_type":"html-button-response","trial_index":116,"time_elapsed":635020,"internal_node_id":"0.0-4.0-1.54","subject_id":"60b7ba38ea1d0cb2441945db","study_id":"60edd13110225f80f9f3709b","session_id":"6196c1f51dde0db67d349259","condition":"full-information","relevant_dimensions":["antennae","legs"],"bee_group":{"antennae":"A","wings":"X","pattern":"X","legs":"F"},"bonus":0.7400000000000007},{"rt":4624,"stimulus":"bees-with-color/bee-B2DF.svg","response":0,"trial_type":"image-button-response","trial_index":117,"time_elapsed":639645,"internal_node_id":"0.0-4.0-0.55","subject_id":"60b7ba38ea1d0cb2441945db","study_id":"60edd13110225f80f9f3709b","session_id":"6196c1f51dde0db67d349259","condition":"full-information","relevant_dimensions":["antennae","legs"],"bee_group":{"antennae":"A","wings":"X","pattern":"X","legs":"F"},"action":"harvest","summary":"good-harvest","bonus":0.7400000000000007},{"rt":483,"stimulus":"\n                    <p><b>Action: <em>harvest</em></b></p>\n                    <p>This is the bee that you just saw.</p>\n                    <img src=\"bees-with-color/bee-B2DF.svg\" width=\"200\">\n                    <p><span class=\"greenText\"><b>Successful harvest!</b></span><br>Your pay has increased by $0.02. Your bonus pay is now $1.14.</p>\n            ","response":0,"trial_type":"html-button-response","trial_index":118,"time_elapsed":640128,"internal_node_id":"0.0-4.0-1.55","subject_id":"60b7ba38ea1d0cb2441945db","study_id":"60edd13110225f80f9f3709b","session_id":"6196c1f51dde0db67d349259","condition":"full-information","relevant_dimensions":["antennae","legs"],"bee_group":{"antennae":"A","wings":"X","pattern":"X","legs":"F"},"bonus":0.7400000000000007},{"rt":841,"stimulus":"bees-with-color/bee-B2SF.svg","response":0,"trial_type":"image-button-response","trial_index":119,"time_elapsed":640970,"internal_node_id":"0.0-4.0-0.56","subject_id":"60b7ba38ea1d0cb2441945db","study_id":"60edd13110225f80f9f3709b","session_id":"6196c1f51dde0db67d349259","condition":"full-information","relevant_dimensions":["antennae","legs"],"bee_group":{"antennae":"A","wings":"X","pattern":"X","legs":"F"},"action":"harvest","summary":"good-harvest","bonus":0.7400000000000007},{"rt":441,"stimulus":"\n                    <p><b>Action: <em>harvest</em></b></p>\n                    <p>This is the bee that you just saw.</p>\n                    <img src=\"bees-with-color/bee-B2SF.svg\" width=\"200\">\n                    <p><span class=\"greenText\"><b>Successful harvest!</b></span><br>Your pay has increased by $0.02. Your bonus pay is now $1.16.</p>\n            ","response":0,"trial_type":"html-button-response","trial_index":120,"time_elapsed":641413,"internal_node_id":"0.0-4.0-1.56","subject_id":"60b7ba38ea1d0cb2441945db","study_id":"60edd13110225f80f9f3709b","session_id":"6196c1f51dde0db67d349259","condition":"full-information","relevant_dimensions":["antennae","legs"],"bee_group":{"antennae":"A","wings":"X","pattern":"X","legs":"F"},"bonus":0.7400000000000007},{"rt":1796,"stimulus":"bees-with-color/bee-A2DM.svg","response":0,"trial_type":"image-button-response","trial_index":121,"time_elapsed":643210,"internal_node_id":"0.0-4.0-0.57","subject_id":"60b7ba38ea1d0cb2441945db","study_id":"60edd13110225f80f9f3709b","session_id":"6196c1f51dde0db67d349259","condition":"full-information","relevant_dimensions":["antennae","legs"],"bee_group":{"antennae":"A","wings":"X","pattern":"X","legs":"F"},"action":"harvest","summary":"good-harvest","bonus":0.7400000000000007},{"rt":596,"stimulus":"\n                    <p><b>Action: <em>harvest</em></b></p>\n                    <p>This is the bee that you just saw.</p>\n                    <img src=\"bees-with-color/bee-A2DM.svg\" width=\"200\">\n                    <p><span class=\"greenText\"><b>Successful harvest!</b></span><br>Your pay has increased by $0.02. Your bonus pay is now $1.18.</p>\n            ","response":0,"trial_type":"html-button-response","trial_index":122,"time_elapsed":643808,"internal_node_id":"0.0-4.0-1.57","subject_id":"60b7ba38ea1d0cb2441945db","study_id":"60edd13110225f80f9f3709b","session_id":"6196c1f51dde0db67d349259","condition":"full-information","relevant_dimensions":["antennae","legs"],"bee_group":{"antennae":"A","wings":"X","pattern":"X","legs":"F"},"bonus":0.7400000000000007},{"rt":6042,"stimulus":"bees-with-color/bee-A2SF.svg","response":1,"trial_type":"image-button-response","trial_index":123,"time_elapsed":649850,"internal_node_id":"0.0-4.0-0.58","subject_id":"60b7ba38ea1d0cb2441945db","study_id":"60edd13110225f80f9f3709b","session_id":"6196c1f51dde0db67d349259","condition":"full-information","relevant_dimensions":["antennae","legs"],"bee_group":{"antennae":"A","wings":"X","pattern":"X","legs":"F"},"action":"avoid","summary":"good-avoid","bonus":0.7400000000000007},{"rt":773,"stimulus":"\n                    <p><b>Action: <em>avoid</em></b></p>\n                    <p>This is the bee that you just saw.</p>\n                    <img src=\"bees-with-color/bee-A2SF.svg\" width=\"200\">\n                    <p><span class=\"greenText\">Good choice!</span>  This bee would have stung you.<br>Your bonus pay is unchanged, and remains at $1.18.</p>\n            ","response":0,"trial_type":"html-button-response","trial_index":124,"time_elapsed":650624,"internal_node_id":"0.0-4.0-1.58","subject_id":"60b7ba38ea1d0cb2441945db","study_id":"60edd13110225f80f9f3709b","session_id":"6196c1f51dde0db67d349259","condition":"full-information","relevant_dimensions":["antennae","legs"],"bee_group":{"antennae":"A","wings":"X","pattern":"X","legs":"F"},"bonus":0.7400000000000007},{"rt":1292,"stimulus":"bees-with-color/bee-B1DF.svg","response":0,"trial_type":"image-button-response","trial_index":125,"time_elapsed":651917,"internal_node_id":"0.0-4.0-0.59","subject_id":"60b7ba38ea1d0cb2441945db","study_id":"60edd13110225f80f9f3709b","session_id":"6196c1f51dde0db67d349259","condition":"full-information","relevant_dimensions":["antennae","legs"],"bee_group":{"antennae":"A","wings":"X","pattern":"X","legs":"F"},"action":"harvest","summary":"good-harvest","bonus":0.7400000000000007},{"rt":530,"stimulus":"\n                    <p><b>Action: <em>harvest</em></b></p>\n                    <p>This is the bee that you just saw.</p>\n                    <img src=\"bees-with-color/bee-B1DF.svg\" width=\"200\">\n                    <p><span class=\"greenText\"><b>Successful harvest!</b></span><br>Your pay has increased by $0.02. Your bonus pay is now $1.20.</p>\n            ","response":0,"trial_type":"html-button-response","trial_index":126,"time_elapsed":652447,"internal_node_id":"0.0-4.0-1.59","subject_id":"60b7ba38ea1d0cb2441945db","study_id":"60edd13110225f80f9f3709b","session_id":"6196c1f51dde0db67d349259","condition":"full-information","relevant_dimensions":["antennae","legs"],"bee_group":{"antennae":"A","wings":"X","pattern":"X","legs":"F"},"bonus":0.7400000000000007},{"rt":7758,"stimulus":"bees-with-color/bee-A1DF.svg","response":1,"trial_type":"image-button-response","trial_index":127,"time_elapsed":660206,"internal_node_id":"0.0-4.0-0.60","subject_id":"60b7ba38ea1d0cb2441945db","study_id":"60edd13110225f80f9f3709b","session_id":"6196c1f51dde0db67d349259","condition":"full-information","relevant_dimensions":["antennae","legs"],"bee_group":{"antennae":"A","wings":"X","pattern":"X","legs":"F"},"action":"avoid","summary":"good-avoid","bonus":0.7400000000000007},{"rt":579,"stimulus":"\n                    <p><b>Action: <em>avoid</em></b></p>\n                    <p>This is the bee that you just saw.</p>\n                    <img src=\"bees-with-color/bee-A1DF.svg\" width=\"200\">\n                    <p><span class=\"greenText\">Good choice!</span>  This bee would have stung you.<br>Your bonus pay is unchanged, and remains at $1.20.</p>\n            ","response":0,"trial_type":"html-button-response","trial_index":128,"time_elapsed":660786,"internal_node_id":"0.0-4.0-1.60","subject_id":"60b7ba38ea1d0cb2441945db","study_id":"60edd13110225f80f9f3709b","session_id":"6196c1f51dde0db67d349259","condition":"full-information","relevant_dimensions":["antennae","legs"],"bee_group":{"antennae":"A","wings":"X","pattern":"X","legs":"F"},"bonus":0.7400000000000007},{"rt":4403,"stimulus":"bees-with-color/bee-A1DM.svg","response":0,"trial_type":"image-button-response","trial_index":129,"time_elapsed":665190,"internal_node_id":"0.0-4.0-0.61","subject_id":"60b7ba38ea1d0cb2441945db","study_id":"60edd13110225f80f9f3709b","session_id":"6196c1f51dde0db67d349259","condition":"full-information","relevant_dimensions":["antennae","legs"],"bee_group":{"antennae":"A","wings":"X","pattern":"X","legs":"F"},"action":"harvest","summary":"good-harvest","bonus":0.7400000000000007},{"rt":437,"stimulus":"\n                    <p><b>Action: <em>harvest</em></b></p>\n                    <p>This is the bee that you just saw.</p>\n                    <img src=\"bees-with-color/bee-A1DM.svg\" width=\"200\">\n                    <p><span class=\"greenText\"><b>Successful harvest!</b></span><br>Your pay has increased by $0.02. Your bonus pay is now $1.22.</p>\n            ","response":0,"trial_type":"html-button-response","trial_index":130,"time_elapsed":665629,"internal_node_id":"0.0-4.0-1.61","subject_id":"60b7ba38ea1d0cb2441945db","study_id":"60edd13110225f80f9f3709b","session_id":"6196c1f51dde0db67d349259","condition":"full-information","relevant_dimensions":["antennae","legs"],"bee_group":{"antennae":"A","wings":"X","pattern":"X","legs":"F"},"bonus":0.7400000000000007},{"rt":5947,"stimulus":"bees-with-color/bee-A2SM.svg","response":0,"trial_type":"image-button-response","trial_index":131,"time_elapsed":671576,"internal_node_id":"0.0-4.0-0.62","subject_id":"60b7ba38ea1d0cb2441945db","study_id":"60edd13110225f80f9f3709b","session_id":"6196c1f51dde0db67d349259","condition":"full-information","relevant_dimensions":["antennae","legs"],"bee_group":{"antennae":"A","wings":"X","pattern":"X","legs":"F"},"action":"harvest","summary":"good-harvest","bonus":0.7400000000000007},{"rt":724,"stimulus":"\n                    <p><b>Action: <em>harvest</em></b></p>\n                    <p>This is the bee that you just saw.</p>\n                    <img src=\"bees-with-color/bee-A2SM.svg\" width=\"200\">\n                    <p><span class=\"greenText\"><b>Successful harvest!</b></span><br>Your pay has increased by $0.02. Your bonus pay is now $1.24.</p>\n            ","response":0,"trial_type":"html-button-response","trial_index":132,"time_elapsed":672301,"internal_node_id":"0.0-4.0-1.62","subject_id":"60b7ba38ea1d0cb2441945db","study_id":"60edd13110225f80f9f3709b","session_id":"6196c1f51dde0db67d349259","condition":"full-information","relevant_dimensions":["antennae","legs"],"bee_group":{"antennae":"A","wings":"X","pattern":"X","legs":"F"},"bonus":0.7400000000000007},{"rt":2440,"stimulus":"bees-with-color/bee-B2DM.svg","response":0,"trial_type":"image-button-response","trial_index":133,"time_elapsed":674741,"internal_node_id":"0.0-4.0-0.63","subject_id":"60b7ba38ea1d0cb2441945db","study_id":"60edd13110225f80f9f3709b","session_id":"6196c1f51dde0db67d349259","condition":"full-information","relevant_dimensions":["antennae","legs"],"bee_group":{"antennae":"A","wings":"X","pattern":"X","legs":"F"},"action":"harvest","summary":"good-harvest","bonus":0.7400000000000007},{"rt":727,"stimulus":"\n                    <p><b>Action: <em>harvest</em></b></p>\n                    <p>This is the bee that you just saw.</p>\n                    <img src=\"bees-with-color/bee-B2DM.svg\" width=\"200\">\n                    <p><span class=\"greenText\"><b>Successful harvest!</b></span><br>Your pay has increased by $0.02. Your bonus pay is now $1.26.</p>\n            ","response":0,"trial_type":"html-button-response","trial_index":134,"time_elapsed":675469,"internal_node_id":"0.0-4.0-1.63","subject_id":"60b7ba38ea1d0cb2441945db","study_id":"60edd13110225f80f9f3709b","session_id":"6196c1f51dde0db67d349259","condition":"full-information","relevant_dimensions":["antennae","legs"],"bee_group":{"antennae":"A","wings":"X","pattern":"X","legs":"F"},"bonus":0.7400000000000007},{"rt":8976,"stimulus":"You have completed the first part of this experiment.<br><br>You will now begin a shorter second part, in which you will receive no feedback.<br>The same rules regarding bonus pay apply.<br><br>Press any key to begin.","response":"d","trial_type":"html-keyboard-response","trial_index":135,"time_elapsed":684446,"internal_node_id":"0.0-5.0","subject_id":"60b7ba38ea1d0cb2441945db","study_id":"60edd13110225f80f9f3709b","session_id":"6196c1f51dde0db67d349259","condition":"full-information","relevant_dimensions":["antennae","legs"],"bee_group":{"antennae":"A","wings":"X","pattern":"X","legs":"F"},"bonus":0.7400000000000007},{"rt":5048,"stimulus":"bees-with-color/bee-B1DM.svg","response":0,"trial_type":"image-button-response","trial_index":136,"time_elapsed":689496,"internal_node_id":"0.0-6.0-0.0","subject_id":"60b7ba38ea1d0cb2441945db","study_id":"60edd13110225f80f9f3709b","session_id":"6196c1f51dde0db67d349259","condition":"full-information","relevant_dimensions":["antennae","legs"],"bee_group":{"antennae":"A","wings":"X","pattern":"X","legs":"F"},"bonus":0.7400000000000007},{"rt":2124,"stimulus":"bees-with-color/bee-B1DF.svg","response":1,"trial_type":"image-button-response","trial_index":137,"time_elapsed":691621,"internal_node_id":"0.0-6.0-0.1","subject_id":"60b7ba38ea1d0cb2441945db","study_id":"60edd13110225f80f9f3709b","session_id":"6196c1f51dde0db67d349259","condition":"full-information","relevant_dimensions":["antennae","legs"],"bee_group":{"antennae":"A","wings":"X","pattern":"X","legs":"F"},"bonus":0.7400000000000007},{"rt":1881,"stimulus":"bees-with-color/bee-B2DF.svg","response":1,"trial_type":"image-button-response","trial_index":138,"time_elapsed":693502,"internal_node_id":"0.0-6.0-0.2","subject_id":"60b7ba38ea1d0cb2441945db","study_id":"60edd13110225f80f9f3709b","session_id":"6196c1f51dde0db67d349259","condition":"full-information","relevant_dimensions":["antennae","legs"],"bee_group":{"antennae":"A","wings":"X","pattern":"X","legs":"F"},"bonus":0.7400000000000007},{"rt":2140,"stimulus":"bees-with-color/bee-B2DM.svg","response":0,"trial_type":"image-button-response","trial_index":139,"time_elapsed":695642,"internal_node_id":"0.0-6.0-0.3","subject_id":"60b7ba38ea1d0cb2441945db","study_id":"60edd13110225f80f9f3709b","session_id":"6196c1f51dde0db67d349259","condition":"full-information","relevant_dimensions":["antennae","legs"],"bee_group":{"antennae":"A","wings":"X","pattern":"X","legs":"F"},"bonus":0.7400000000000007},{"rt":381,"stimulus":"bees-with-color/bee-A1DF.svg","response":0,"trial_type":"image-button-response","trial_index":140,"time_elapsed":696025,"internal_node_id":"0.0-6.0-0.4","subject_id":"60b7ba38ea1d0cb2441945db","study_id":"60edd13110225f80f9f3709b","session_id":"6196c1f51dde0db67d349259","condition":"full-information","relevant_dimensions":["antennae","legs"],"bee_group":{"antennae":"A","wings":"X","pattern":"X","legs":"F"},"bonus":0.7400000000000007},{"rt":289,"stimulus":"bees-with-color/bee-A1SF.svg","response":0,"trial_type":"image-button-response","trial_index":141,"time_elapsed":696314,"internal_node_id":"0.0-6.0-0.5","subject_id":"60b7ba38ea1d0cb2441945db","study_id":"60edd13110225f80f9f3709b","session_id":"6196c1f51dde0db67d349259","condition":"full-information","relevant_dimensions":["antennae","legs"],"bee_group":{"antennae":"A","wings":"X","pattern":"X","legs":"F"},"bonus":0.7400000000000007},{"rt":397,"stimulus":"bees-with-color/bee-B1SF.svg","response":1,"trial_type":"image-button-response","trial_index":142,"time_elapsed":696713,"internal_node_id":"0.0-6.0-0.6","subject_id":"60b7ba38ea1d0cb2441945db","study_id":"60edd13110225f80f9f3709b","session_id":"6196c1f51dde0db67d349259","condition":"full-information","relevant_dimensions":["antennae","legs"],"bee_group":{"antennae":"A","wings":"X","pattern":"X","legs":"F"},"bonus":0.7400000000000007},{"rt":495,"stimulus":"bees-with-color/bee-B1SM.svg","response":0,"trial_type":"image-button-response","trial_index":143,"time_elapsed":697208,"internal_node_id":"0.0-6.0-0.7","subject_id":"60b7ba38ea1d0cb2441945db","study_id":"60edd13110225f80f9f3709b","session_id":"6196c1f51dde0db67d349259","condition":"full-information","relevant_dimensions":["antennae","legs"],"bee_group":{"antennae":"A","wings":"X","pattern":"X","legs":"F"},"bonus":0.7400000000000007},{"rt":280,"stimulus":"bees-with-color/bee-A2DF.svg","response":0,"trial_type":"image-button-response","trial_index":144,"time_elapsed":697490,"internal_node_id":"0.0-6.0-0.8","subject_id":"60b7ba38ea1d0cb2441945db","study_id":"60edd13110225f80f9f3709b","session_id":"6196c1f51dde0db67d349259","condition":"full-information","relevant_dimensions":["antennae","legs"],"bee_group":{"antennae":"A","wings":"X","pattern":"X","legs":"F"},"bonus":0.7400000000000007},{"rt":233,"stimulus":"bees-with-color/bee-A1SM.svg","response":0,"trial_type":"image-button-response","trial_index":145,"time_elapsed":697724,"internal_node_id":"0.0-6.0-0.9","subject_id":"60b7ba38ea1d0cb2441945db","study_id":"60edd13110225f80f9f3709b","session_id":"6196c1f51dde0db67d349259","condition":"full-information","relevant_dimensions":["antennae","legs"],"bee_group":{"antennae":"A","wings":"X","pattern":"X","legs":"F"},"bonus":0.7400000000000007},{"rt":343,"stimulus":"bees-with-color/bee-A2SM.svg","response":1,"trial_type":"image-button-response","trial_index":146,"time_elapsed":698067,"internal_node_id":"0.0-6.0-0.10","subject_id":"60b7ba38ea1d0cb2441945db","study_id":"60edd13110225f80f9f3709b","session_id":"6196c1f51dde0db67d349259","condition":"full-information","relevant_dimensions":["antennae","legs"],"bee_group":{"antennae":"A","wings":"X","pattern":"X","legs":"F"},"bonus":0.7400000000000007},{"rt":425,"stimulus":"bees-with-color/bee-A1DM.svg","response":0,"trial_type":"image-button-response","trial_index":147,"time_elapsed":698495,"internal_node_id":"0.0-6.0-0.11","subject_id":"60b7ba38ea1d0cb2441945db","study_id":"60edd13110225f80f9f3709b","session_id":"6196c1f51dde0db67d349259","condition":"full-information","relevant_dimensions":["antennae","legs"],"bee_group":{"antennae":"A","wings":"X","pattern":"X","legs":"F"},"bonus":0.7400000000000007},{"rt":252,"stimulus":"bees-with-color/bee-A2SF.svg","response":0,"trial_type":"image-button-response","trial_index":148,"time_elapsed":698747,"internal_node_id":"0.0-6.0-0.12","subject_id":"60b7ba38ea1d0cb2441945db","study_id":"60edd13110225f80f9f3709b","session_id":"6196c1f51dde0db67d349259","condition":"full-information","relevant_dimensions":["antennae","legs"],"bee_group":{"antennae":"A","wings":"X","pattern":"X","legs":"F"},"bonus":0.7400000000000007},{"rt":349,"stimulus":"bees-with-color/bee-B2SM.svg","response":1,"trial_type":"image-button-response","trial_index":149,"time_elapsed":699096,"internal_node_id":"0.0-6.0-0.13","subject_id":"60b7ba38ea1d0cb2441945db","study_id":"60edd13110225f80f9f3709b","session_id":"6196c1f51dde0db67d349259","condition":"full-information","relevant_dimensions":["antennae","legs"],"bee_group":{"antennae":"A","wings":"X","pattern":"X","legs":"F"},"bonus":0.7400000000000007},{"rt":389,"stimulus":"bees-with-color/bee-A2DM.svg","response":0,"trial_type":"image-button-response","trial_index":150,"time_elapsed":699486,"internal_node_id":"0.0-6.0-0.14","subject_id":"60b7ba38ea1d0cb2441945db","study_id":"60edd13110225f80f9f3709b","session_id":"6196c1f51dde0db67d349259","condition":"full-information","relevant_dimensions":["antennae","legs"],"bee_group":{"antennae":"A","wings":"X","pattern":"X","legs":"F"},"bonus":0.7400000000000007},{"rt":234,"stimulus":"bees-with-color/bee-B2SF.svg","response":0,"trial_type":"image-button-response","trial_index":151,"time_elapsed":699720,"internal_node_id":"0.0-6.0-0.15","subject_id":"60b7ba38ea1d0cb2441945db","study_id":"60edd13110225f80f9f3709b","session_id":"6196c1f51dde0db67d349259","condition":"full-information","relevant_dimensions":["antennae","legs"],"bee_group":{"antennae":"A","wings":"X","pattern":"X","legs":"F"},"bonus":0.7400000000000007},{"rt":265,"stimulus":"bees-with-color/bee-A2SM.svg","response":0,"trial_type":"image-button-response","trial_index":152,"time_elapsed":699987,"internal_node_id":"0.0-6.0-0.16","subject_id":"60b7ba38ea1d0cb2441945db","study_id":"60edd13110225f80f9f3709b","session_id":"6196c1f51dde0db67d349259","condition":"full-information","relevant_dimensions":["antennae","legs"],"bee_group":{"antennae":"A","wings":"X","pattern":"X","legs":"F"},"bonus":0.7400000000000007},{"rt":441,"stimulus":"bees-with-color/bee-B1SF.svg","response":1,"trial_type":"image-button-response","trial_index":153,"time_elapsed":700428,"internal_node_id":"0.0-6.0-0.17","subject_id":"60b7ba38ea1d0cb2441945db","study_id":"60edd13110225f80f9f3709b","session_id":"6196c1f51dde0db67d349259","condition":"full-information","relevant_dimensions":["antennae","legs"],"bee_group":{"antennae":"A","wings":"X","pattern":"X","legs":"F"},"bonus":0.7400000000000007},{"rt":410,"stimulus":"bees-with-color/bee-A2SF.svg","response":0,"trial_type":"image-button-response","trial_index":154,"time_elapsed":700839,"internal_node_id":"0.0-6.0-0.18","subject_id":"60b7ba38ea1d0cb2441945db","study_id":"60edd13110225f80f9f3709b","session_id":"6196c1f51dde0db67d349259","condition":"full-information","relevant_dimensions":["antennae","legs"],"bee_group":{"antennae":"A","wings":"X","pattern":"X","legs":"F"},"bonus":0.7400000000000007},{"rt":234,"stimulus":"bees-with-color/bee-A1SM.svg","response":0,"trial_type":"image-button-response","trial_index":155,"time_elapsed":701073,"internal_node_id":"0.0-6.0-0.19","subject_id":"60b7ba38ea1d0cb2441945db","study_id":"60edd13110225f80f9f3709b","session_id":"6196c1f51dde0db67d349259","condition":"full-information","relevant_dimensions":["antennae","legs"],"bee_group":{"antennae":"A","wings":"X","pattern":"X","legs":"F"},"bonus":0.7400000000000007},{"rt":301,"stimulus":"bees-with-color/bee-B1DM.svg","response":1,"trial_type":"image-button-response","trial_index":156,"time_elapsed":701375,"internal_node_id":"0.0-6.0-0.20","subject_id":"60b7ba38ea1d0cb2441945db","study_id":"60edd13110225f80f9f3709b","session_id":"6196c1f51dde0db67d349259","condition":"full-information","relevant_dimensions":["antennae","legs"],"bee_group":{"antennae":"A","wings":"X","pattern":"X","legs":"F"},"bonus":0.7400000000000007},{"rt":317,"stimulus":"bees-with-color/bee-B2SM.svg","response":0,"trial_type":"image-button-response","trial_index":157,"time_elapsed":701693,"internal_node_id":"0.0-6.0-0.21","subject_id":"60b7ba38ea1d0cb2441945db","study_id":"60edd13110225f80f9f3709b","session_id":"6196c1f51dde0db67d349259","condition":"full-information","relevant_dimensions":["antennae","legs"],"bee_group":{"antennae":"A","wings":"X","pattern":"X","legs":"F"},"bonus":0.7400000000000007},{"rt":251,"stimulus":"bees-with-color/bee-B2DM.svg","response":0,"trial_type":"image-button-response","trial_index":158,"time_elapsed":701944,"internal_node_id":"0.0-6.0-0.22","subject_id":"60b7ba38ea1d0cb2441945db","study_id":"60edd13110225f80f9f3709b","session_id":"6196c1f51dde0db67d349259","condition":"full-information","relevant_dimensions":["antennae","legs"],"bee_group":{"antennae":"A","wings":"X","pattern":"X","legs":"F"},"bonus":0.7400000000000007},{"rt":227,"stimulus":"bees-with-color/bee-A1DF.svg","response":0,"trial_type":"image-button-response","trial_index":159,"time_elapsed":702172,"internal_node_id":"0.0-6.0-0.23","subject_id":"60b7ba38ea1d0cb2441945db","study_id":"60edd13110225f80f9f3709b","session_id":"6196c1f51dde0db67d349259","condition":"full-information","relevant_dimensions":["antennae","legs"],"bee_group":{"antennae":"A","wings":"X","pattern":"X","legs":"F"},"bonus":0.7400000000000007},{"rt":278,"stimulus":"bees-with-color/bee-B1SM.svg","response":1,"trial_type":"image-button-response","trial_index":160,"time_elapsed":702451,"internal_node_id":"0.0-6.0-0.24","subject_id":"60b7ba38ea1d0cb2441945db","study_id":"60edd13110225f80f9f3709b","session_id":"6196c1f51dde0db67d349259","condition":"full-information","relevant_dimensions":["antennae","legs"],"bee_group":{"antennae":"A","wings":"X","pattern":"X","legs":"F"},"bonus":0.7400000000000007},{"rt":339,"stimulus":"bees-with-color/bee-A1SF.svg","response":0,"trial_type":"image-button-response","trial_index":161,"time_elapsed":702791,"internal_node_id":"0.0-6.0-0.25","subject_id":"60b7ba38ea1d0cb2441945db","study_id":"60edd13110225f80f9f3709b","session_id":"6196c1f51dde0db67d349259","condition":"full-information","relevant_dimensions":["antennae","legs"],"bee_group":{"ant