[{"success":true,"trial_type":"fullscreen","trial_index":0,"time_elapsed":8145,"internal_node_id":"0.0-0.0","subject_id":"6151cfe3ba49dd3ad62708ee","study_id":"60edd13110225f80f9f3709b","session_id":"6196bf63846ea7c085e146ae","condition":"contingent","relevant_dimensions":["antennae","legs"],"bee_group":{"antennae":"B","wings":"X","pattern":"X","legs":"F"},"bonus":0.9000000000000009},{"success":true,"timeout":false,"failed_images":[],"failed_audio":[],"failed_video":[],"trial_type":"preload","trial_index":1,"time_elapsed":9321,"internal_node_id":"0.0-1.0","subject_id":"6151cfe3ba49dd3ad62708ee","study_id":"60edd13110225f80f9f3709b","session_id":"6196bf63846ea7c085e146ae","condition":"contingent","relevant_dimensions":["antennae","legs"],"bee_group":{"antennae":"B","wings":"X","pattern":"X","legs":"F"},"bonus":0.9000000000000009},{"rt":2733,"stimulus":"Welcome! Press any key to begin.","response":" ","trial_type":"html-keyboard-response","trial_index":2,"time_elapsed":12056,"internal_node_id":"0.0-2.0","subject_id":"6151cfe3ba49dd3ad62708ee","study_id":"60edd13110225f80f9f3709b","session_id":"6196bf63846ea7c085e146ae","condition":"contingent","relevant_dimensions":["antennae","legs"],"bee_group":{"antennae":"B","wings":"X","pattern":"X","legs":"F"},"bonus":0.9000000000000009},{"view_history":[{"page_index":0,"viewing_time":6375},{"page_index":1,"viewing_time":16055},{"page_index":2,"viewing_time":14168},{"page_index":3,"viewing_time":18656},{"page_index":4,"viewing_time":12384},{"page_index":5,"viewing_time":11649},{"page_index":6,"viewing_time":16488},{"page_index":7,"viewing_time":5672},{"page_index":8,"viewing_time":3887},{"page_index":9,"viewing_time":2232},{"page_index":10,"viewing_time":1760},{"page_index":11,"viewing_time":11449},{"page_index":12,"viewing_time":42679},{"page_index":13,"viewing_time":1185},{"page_index":14,"viewing_time":4192}],"rt":168831,"trial_type":"instructions","trial_index":3,"time_elapsed":180888,"internal_node_id":"0.0-3.0-0.0","subject_id":"6151cfe3ba49dd3ad62708ee","study_id":"60edd13110225f80f9f3709b","session_id":"6196bf63846ea7c085e146ae","condition":"contingent","relevant_dimensions":["antennae","legs"],"bee_group":{"antennae":"B","wings":"X","pattern":"X","legs":"F"},"bonus":0.9000000000000009},{"rt":16655,"response":{"Q0":["Two or six legs","Stripes or spots on body","Single or double wings","Antennae or no antennae"]},"question_order":[0],"trial_type":"survey-multi-select","trial_index":4,"time_elapsed":197547,"internal_node_id":"0.0-3.0-1.0","subject_id":"6151cfe3ba49dd3ad62708ee","study_id":"60edd13110225f80f9f3709b","session_id":"6196bf63846ea7c085e146ae","condition":"contingent","relevant_dimensions":["antennae","legs"],"bee_group":{"antennae":"B","wings":"X","pattern":"X","legs":"F"},"correct":true,"bonus":0.9000000000000009},{"rt":21940,"response":{"Q1":"No.","Q2":"Based on the four features of the bee.","Q3":"You do not learn if it was friendly or dangerous, and do not alter your bonus."},"question_order":[0,1,2],"trial_type":"survey-multi-choice","trial_index":5,"time_elapsed":219488,"internal_node_id":"0.0-3.0-2.0","subject_id":"6151cfe3ba49dd3ad62708ee","study_id":"60edd13110225f80f9f3709b","session_id":"6196bf63846ea7c085e146ae","condition":"contingent","relevant_dimensions":["antennae","legs"],"bee_group":{"antennae":"B","wings":"X","pattern":"X","legs":"F"},"correct":true,"bonus":0.9000000000000009},{"rt":4024,"stimulus":"<p>Congrats, you got everything right<br>When you're ready, click the button below to continue to the experiment.</p>","response":0,"trial_type":"html-button-response","trial_index":6,"time_elapsed":223512,"internal_node_id":"0.0-3.0-3.0","subject_id":"6151cfe3ba49dd3ad62708ee","study_id":"60edd13110225f80f9f3709b","session_id":"6196bf63846ea7c085e146ae","condition":"contingent","relevant_dimensions":["antennae","legs"],"bee_group":{"antennae":"B","wings":"X","pattern":"X","legs":"F"},"bonus":0.9000000000000009},{"rt":12542,"stimulus":"bees-with-color/bee-A1SF.svg","response":0,"trial_type":"image-button-response","trial_index":7,"time_elapsed":236056,"internal_node_id":"0.0-4.0-0.0","subject_id":"6151cfe3ba49dd3ad62708ee","study_id":"60edd13110225f80f9f3709b","session_id":"6196bf63846ea7c085e146ae","condition":"contingent","relevant_dimensions":["antennae","legs"],"bee_group":{"antennae":"B","wings":"X","pattern":"X","legs":"F"},"action":"harvest","summary":"good-harvest","bonus":0.9000000000000009},{"rt":15944,"stimulus":"\n                    <p><b>Action: <em>harvest</em></b></p>\n                    <p>This is the bee that you just saw.</p>\n                    <img src=\"bees-with-color/bee-A1SF.svg\" width=\"200\">\n                    <p><span class=\"greenText\"><b>Successful harvest!</b></span><br>Your pay has increased by $0.02. Your bonus pay is now $0.56.</p>\n            ","response":0,"trial_type":"html-button-response","trial_index":8,"time_elapsed":252016,"internal_node_id":"0.0-4.0-1.0","subject_id":"6151cfe3ba49dd3ad62708ee","study_id":"60edd13110225f80f9f3709b","session_id":"6196bf63846ea7c085e146ae","condition":"contingent","relevant_dimensions":["antennae","legs"],"bee_group":{"antennae":"B","wings":"X","pattern":"X","legs":"F"},"bonus":0.9000000000000009},{"rt":6615,"stimulus":"bees-with-color/bee-A2SF.svg","response":0,"trial_type":"image-button-response","trial_index":9,"time_elapsed":258632,"internal_node_id":"0.0-4.0-0.1","subject_id":"6151cfe3ba49dd3ad62708ee","study_id":"60edd13110225f80f9f3709b","session_id":"6196bf63846ea7c085e146ae","condition":"contingent","relevant_dimensions":["antennae","legs"],"bee_group":{"antennae":"B","wings":"X","pattern":"X","legs":"F"},"action":"harvest","summary":"good-harvest","bonus":0.9000000000000009},{"rt":7997,"stimulus":"\n                    <p><b>Action: <em>harvest</em></b></p>\n                    <p>This is the bee that you just saw.</p>\n                    <img src=\"bees-with-color/bee-A2SF.svg\" width=\"200\">\n                    <p><span class=\"greenText\"><b>Successful harvest!</b></span><br>Your pay has increased by $0.02. Your bonus pay is now $0.58.</p>\n            ","response":0,"trial_type":"html-button-response","trial_index":10,"time_elapsed":266633,"internal_node_id":"0.0-4.0-1.1","subject_id":"6151cfe3ba49dd3ad62708ee","study_id":"60edd13110225f80f9f3709b","session_id":"6196bf63846ea7c085e146ae","condition":"contingent","relevant_dimensions":["antennae","legs"],"bee_group":{"antennae":"B","wings":"X","pattern":"X","legs":"F"},"bonus":0.9000000000000009},{"rt":11439,"stimulus":"bees-with-color/bee-A2DM.svg","response":1,"trial_type":"image-button-response","trial_index":11,"time_elapsed":278073,"internal_node_id":"0.0-4.0-0.2","subject_id":"6151cfe3ba49dd3ad62708ee","study_id":"60edd13110225f80f9f3709b","session_id":"6196bf63846ea7c085e146ae","condition":"contingent","relevant_dimensions":["antennae","legs"],"bee_group":{"antennae":"B","wings":"X","pattern":"X","legs":"F"},"action":"avoid","summary":"bad-avoid","bonus":0.9000000000000009},{"rt":3279,"stimulus":"\n                    <p><b>Action: <em>avoid</em></b></p>\n                    <p>This is the bee that you just saw.</p>\n                    <img src=\"bees-with-color/bee-A2DM.svg\" width=\"200\">\n                    <p><br>Your bonus pay is unchanged, and remains at $0.58.</p>\n            ","response":0,"trial_type":"html-button-response","trial_index":12,"time_elapsed":281353,"internal_node_id":"0.0-4.0-1.2","subject_id":"6151cfe3ba49dd3ad62708ee","study_id":"60edd13110225f80f9f3709b","session_id":"6196bf63846ea7c085e146ae","condition":"contingent","relevant_dimensions":["antennae","legs"],"bee_group":{"antennae":"B","wings":"X","pattern":"X","legs":"F"},"bonus":0.9000000000000009},{"rt":8703,"stimulus":"bees-with-color/bee-B2DF.svg","response":1,"trial_type":"image-button-response","trial_index":13,"time_elapsed":290056,"internal_node_id":"0.0-4.0-0.3","subject_id":"6151cfe3ba49dd3ad62708ee","study_id":"60edd13110225f80f9f3709b","session_id":"6196bf63846ea7c085e146ae","condition":"contingent","relevant_dimensions":["antennae","legs"],"bee_group":{"antennae":"B","wings":"X","pattern":"X","legs":"F"},"action":"avoid","summary":"good-avoid","bonus":0.9000000000000009},{"rt":1111,"stimulus":"\n                    <p><b>Action: <em>avoid</em></b></p>\n                    <p>This is the bee that you just saw.</p>\n                    <img src=\"bees-with-color/bee-B2DF.svg\" width=\"200\">\n                    <p><br>Your bonus pay is unchanged, and remains at $0.58.</p>\n            ","response":0,"trial_type":"html-button-response","trial_index":14,"time_elapsed":291169,"internal_node_id":"0.0-4.0-1.3","subject_id":"6151cfe3ba49dd3ad62708ee","study_id":"60edd13110225f80f9f3709b","session_id":"6196bf63846ea7c085e146ae","condition":"contingent","relevant_dimensions":["antennae","legs"],"bee_group":{"antennae":"B","wings":"X","pattern":"X","legs":"F"},"bonus":0.9000000000000009},{"rt":4639,"stimulus":"bees-with-color/bee-B2SM.svg","response":0,"trial_type":"image-button-response","trial_index":15,"time_elapsed":295808,"internal_node_id":"0.0-4.0-0.4","subject_id":"6151cfe3ba49dd3ad62708ee","study_id":"60edd13110225f80f9f3709b","session_id":"6196bf63846ea7c085e146ae","condition":"contingent","relevant_dimensions":["antennae","legs"],"bee_group":{"antennae":"B","wings":"X","pattern":"X","legs":"F"},"action":"harvest","summary":"good-harvest","bonus":0.9000000000000009},{"rt":14286,"stimulus":"\n                    <p><b>Action: <em>harvest</em></b></p>\n                    <p>This is the bee that you just saw.</p>\n                    <img src=\"bees-with-color/bee-B2SM.svg\" width=\"200\">\n                    <p><span class=\"greenText\"><b>Successful harvest!</b></span><br>Your pay has increased by $0.02. Your bonus pay is now $0.60.</p>\n            ","response":0,"trial_type":"html-button-response","trial_index":16,"time_elapsed":310096,"internal_node_id":"0.0-4.0-1.4","subject_id":"6151cfe3ba49dd3ad62708ee","study_id":"60edd13110225f80f9f3709b","session_id":"6196bf63846ea7c085e146ae","condition":"contingent","relevant_dimensions":["antennae","legs"],"bee_group":{"antennae":"B","wings":"X","pattern":"X","legs":"F"},"bonus":0.9000000000000009},{"rt":5360,"stimulus":"bees-with-color/bee-A2SM.svg","response":0,"trial_type":"image-button-response","trial_index":17,"time_elapsed":315456,"internal_node_id":"0.0-4.0-0.5","subject_id":"6151cfe3ba49dd3ad62708ee","study_id":"60edd13110225f80f9f3709b","session_id":"6196bf63846ea7c085e146ae","condition":"contingent","relevant_dimensions":["antennae","legs"],"bee_group":{"antennae":"B","wings":"X","pattern":"X","legs":"F"},"action":"harvest","summary":"good-harvest","bonus":0.9000000000000009},{"rt":1302,"stimulus":"\n                    <p><b>Action: <em>harvest</em></b></p>\n                    <p>This is the bee that you just saw.</p>\n                    <img src=\"bees-with-color/bee-A2SM.svg\" width=\"200\">\n                    <p><span class=\"greenText\"><b>Successful harvest!</b></span><br>Your pay has increased by $0.02. Your bonus pay is now $0.62.</p>\n            ","response":0,"trial_type":"html-button-response","trial_index":18,"time_elapsed":316761,"internal_node_id":"0.0-4.0-1.5","subject_id":"6151cfe3ba49dd3ad62708ee","study_id":"60edd13110225f80f9f3709b","session_id":"6196bf63846ea7c085e146ae","condition":"contingent","relevant_dimensions":["antennae","legs"],"bee_group":{"antennae":"B","wings":"X","pattern":"X","legs":"F"},"bonus":0.9000000000000009},{"rt":3695,"stimulus":"bees-with-color/bee-B2SF.svg","response":0,"trial_type":"image-button-response","trial_index":19,"time_elapsed":320456,"internal_node_id":"0.0-4.0-0.6","subject_id":"6151cfe3ba49dd3ad62708ee","study_id":"60edd13110225f80f9f3709b","session_id":"6196bf63846ea7c085e146ae","condition":"contingent","relevant_dimensions":["antennae","legs"],"bee_group":{"antennae":"B","wings":"X","pattern":"X","legs":"F"},"action":"harvest","summary":"bad-harvest","bonus":0.9000000000000009},{"rt":19231,"stimulus":"\n                    <p><b>Action: <em>harvest</em></b></p>\n                    <p>This is the bee that you just saw.</p>\n                    <img src=\"bees-with-color/bee-B2SF.svg\" width=\"200\">\n                    <p><span class=\"redText\">Bad choice, the bee was angry.</span><br><b>You have been stung!</b><br>Your pay has been decreased by $0.10. Your bonus pay is now $0.52.</p>\n            ","response":0,"trial_type":"html-button-response","trial_index":20,"time_elapsed":339688,"internal_node_id":"0.0-4.0-1.6","subject_id":"6151cfe3ba49dd3ad62708ee","study_id":"60edd13110225f80f9f3709b","session_id":"6196bf63846ea7c085e146ae","condition":"contingent","relevant_dimensions":["antennae","legs"],"bee_group":{"antennae":"B","wings":"X","pattern":"X","legs":"F"},"bonus":0.9000000000000009},{"rt":5343,"stimulus":"bees-with-color/bee-A1DF.svg","response":0,"trial_type":"image-button-response","trial_index":21,"time_elapsed":345033,"internal_node_id":"0.0-4.0-0.7","subject_id":"6151cfe3ba49dd3ad62708ee","study_id":"60edd13110225f80f9f3709b","session_id":"6196bf63846ea7c085e146ae","condition":"contingent","relevant_dimensions":["antennae","legs"],"bee_group":{"antennae":"B","wings":"X","pattern":"X","legs":"F"},"action":"harvest","summary":"good-harvest","bonus":0.9000000000000009},{"rt":12808,"stimulus":"\n                    <p><b>Action: <em>harvest</em></b></p>\n                    <p>This is the bee that you just saw.</p>\n                    <img src=\"bees-with-color/bee-A1DF.svg\" width=\"200\">\n                    <p><span class=\"greenText\"><b>Successful harvest!</b></span><br>Your pay has increased by $0.02. Your bonus pay is now $0.54.</p>\n            ","response":0,"trial_type":"html-button-response","trial_index":22,"time_elapsed":357841,"internal_node_id":"0.0-4.0-1.7","subject_id":"6151cfe3ba49dd3ad62708ee","study_id":"60edd13110225f80f9f3709b","session_id":"6196bf63846ea7c085e146ae","condition":"contingent","relevant_dimensions":["antennae","legs"],"bee_group":{"antennae":"B","wings":"X","pattern":"X","legs":"F"},"bonus":0.9000000000000009},{"rt":6983,"stimulus":"bees-with-color/bee-A1SM.svg","response":0,"trial_type":"image-button-response","trial_index":23,"time_elapsed":364825,"internal_node_id":"0.0-4.0-0.8","subject_id":"6151cfe3ba49dd3ad62708ee","study_id":"60edd13110225f80f9f3709b","session_id":"6196bf63846ea7c085e146ae","condition":"contingent","relevant_dimensions":["antennae","legs"],"bee_group":{"antennae":"B","wings":"X","pattern":"X","legs":"F"},"action":"harvest","summary":"good-harvest","bonus":0.9000000000000009},{"rt":2071,"stimulus":"\n                    <p><b>Action: <em>harvest</em></b></p>\n                    <p>This is the bee that you just saw.</p>\n                    <img src=\"bees-with-color/bee-A1SM.svg\" width=\"200\">\n                    <p><span class=\"greenText\"><b>Successful harvest!</b></span><br>Your pay has increased by $0.02. Your bonus pay is now $0.56.</p>\n            ","response":0,"trial_type":"html-button-response","trial_index":24,"time_elapsed":366897,"internal_node_id":"0.0-4.0-1.8","subject_id":"6151cfe3ba49dd3ad62708ee","study_id":"60edd13110225f80f9f3709b","session_id":"6196bf63846ea7c085e146ae","condition":"contingent","relevant_dimensions":["antennae","legs"],"bee_group":{"antennae":"B","wings":"X","pattern":"X","legs":"F"},"bonus":0.9000000000000009},{"rt":7311,"stimulus":"bees-with-color/bee-B1DF.svg","response":0,"trial_type":"image-button-response","trial_index":25,"time_elapsed":374209,"internal_node_id":"0.0-4.0-0.9","subject_id":"6151cfe3ba49dd3ad62708ee","study_id":"60edd13110225f80f9f3709b","session_id":"6196bf63846ea7c085e146ae","condition":"contingent","relevant_dimensions":["antennae","legs"],"bee_group":{"antennae":"B","wings":"X","pattern":"X","legs":"F"},"action":"harvest","summary":"bad-harvest","bonus":0.9000000000000009},{"rt":11662,"stimulus":"\n                    <p><b>Action: <em>harvest</em></b></p>\n                    <p>This is the bee that you just saw.</p>\n                    <img src=\"bees-with-color/bee-B1DF.svg\" width=\"200\">\n                    <p><span class=\"redText\">Bad choice, the bee was angry.</span><br><b>You have been stung!</b><br>Your pay has been decreased by $0.10. Your bonus pay is now $0.46.</p>\n            ","response":0,"trial_type":"html-button-response","trial_index":26,"time_elapsed":385873,"internal_node_id":"0.0-4.0-1.9","subject_id":"6151cfe3ba49dd3ad62708ee","study_id":"60edd13110225f80f9f3709b","session_id":"6196bf63846ea7c085e146ae","condition":"contingent","relevant_dimensions":["antennae","legs"],"bee_group":{"antennae":"B","wings":"X","pattern":"X","legs":"F"},"bonus":0.9000000000000009},{"rt":4086,"stimulus":"bees-with-color/bee-B1SF.svg","response":0,"trial_type":"image-button-response","trial_index":27,"time_elapsed":389961,"internal_node_id":"0.0-4.0-0.10","subject_id":"6151cfe3ba49dd3ad62708ee","study_id":"60edd13110225f80f9f3709b","session_id":"6196bf63846ea7c085e146ae","condition":"contingent","relevant_dimensions":["antennae","legs"],"bee_group":{"antennae":"B","wings":"X","pattern":"X","legs":"F"},"action":"harvest","summary":"bad-harvest","bonus":0.9000000000000009},{"rt":1895,"stimulus":"\n                    <p><b>Action: <em>harvest</em></b></p>\n                    <p>This is the bee that you just saw.</p>\n                    <img src=\"bees-with-color/bee-B1SF.svg\" width=\"200\">\n                    <p><span class=\"redText\">Bad choice, the bee was angry.</span><br><b>You have been stung!</b><br>Your pay has been decreased by $0.10. Your bonus pay is now $0.36.</p>\n            ","response":0,"trial_type":"html-button-response","trial_index":28,"time_elapsed":391856,"internal_node_id":"0.0-4.0-1.10","subject_id":"6151cfe3ba49dd3ad62708ee","study_id":"60edd13110225f80f9f3709b","session_id":"6196bf63846ea7c085e146ae","condition":"contingent","relevant_dimensions":["antennae","legs"],"bee_group":{"antennae":"B","wings":"X","pattern":"X","legs":"F"},"bonus":0.9000000000000009},{"rt":2079,"stimulus":"bees-with-color/bee-B2DM.svg","response":0,"trial_type":"image-button-response","trial_index":29,"time_elapsed":393937,"internal_node_id":"0.0-4.0-0.11","subject_id":"6151cfe3ba49dd3ad62708ee","study_id":"60edd13110225f80f9f3709b","session_id":"6196bf63846ea7c085e146ae","condition":"contingent","relevant_dimensions":["antennae","legs"],"bee_group":{"antennae":"B","wings":"X","pattern":"X","legs":"F"},"action":"harvest","summary":"good-harvest","bonus":0.9000000000000009},{"rt":20160,"stimulus":"\n                    <p><b>Action: <em>harvest</em></b></p>\n                    <p>This is the bee that you just saw.</p>\n                    <img src=\"bees-with-color/bee-B2DM.svg\" width=\"200\">\n                    <p><span class=\"greenText\"><b>Successful harvest!</b></span><br>Your pay has increased by $0.02. Your bonus pay is now $0.38.</p>\n            ","response":0,"trial_type":"html-button-response","trial_index":30,"time_elapsed":414097,"internal_node_id":"0.0-4.0-1.11","subject_id":"6151cfe3ba49dd3ad62708ee","study_id":"60edd13110225f80f9f3709b","session_id":"6196bf63846ea7c085e146ae","condition":"contingent","relevant_dimensions":["antennae","legs"],"bee_group":{"antennae":"B","wings":"X","pattern":"X","legs":"F"},"bonus":0.9000000000000009},{"rt":7758,"stimulus":"bees-with-color/bee-B1SM.svg","response":1,"trial_type":"image-button-response","trial_index":31,"time_elapsed":421857,"internal_node_id":"0.0-4.0-0.12","subject_id":"6151cfe3ba49dd3ad62708ee","study_id":"60edd13110225f80f9f3709b","session_id":"6196bf63846ea7c085e146ae","condition":"contingent","relevant_dimensions":["antennae","legs"],"bee_group":{"antennae":"B","wings":"X","pattern":"X","legs":"F"},"action":"avoid","summary":"bad-avoid","bonus":0.9000000000000009},{"rt":1159,"stimulus":"\n                    <p><b>Action: <em>avoid</em></b></p>\n                    <p>This is the bee that you just saw.</p>\n                    <img src=\"bees-with-color/bee-B1SM.svg\" width=\"200\">\n                    <p><br>Your bonus pay is unchanged, and remains at $0.38.</p>\n            ","response":0,"trial_type":"html-button-response","trial_index":32,"time_elapsed":423017,"internal_node_id":"0.0-4.0-1.12","subject_id":"6151cfe3ba49dd3ad62708ee","study_id":"60edd13110225f80f9f3709b","session_id":"6196bf63846ea7c085e146ae","condition":"contingent","relevant_dimensions":["antennae","legs"],"bee_group":{"antennae":"B","wings":"X","pattern":"X","legs":"F"},"bonus":0.9000000000000009},{"rt":9078,"stimulus":"bees-with-color/bee-A1DM.svg","response":0,"trial_type":"image-button-response","trial_index":33,"time_elapsed":432097,"internal_node_id":"0.0-4.0-0.13","subject_id":"6151cfe3ba49dd3ad62708ee","study_id":"60edd13110225f80f9f3709b","session_id":"6196bf63846ea7c085e146ae","condition":"contingent","relevant_dimensions":["antennae","legs"],"bee_group":{"antennae":"B","wings":"X","pattern":"X","legs":"F"},"action":"harvest","summary":"good-harvest","bonus":0.9000000000000009},{"rt":6167,"stimulus":"\n                    <p><b>Action: <em>harvest</em></b></p>\n                    <p>This is the bee that you just saw.</p>\n                    <img src=\"bees-with-color/bee-A1DM.svg\" width=\"200\">\n                    <p><span class=\"greenText\"><b>Successful harvest!</b></span><br>Your pay has increased by $0.02. Your bonus pay is now $0.40.</p>\n            ","response":0,"trial_type":"html-button-response","trial_index":34,"time_elapsed":438265,"internal_node_id":"0.0-4.0-1.13","subject_id":"6151cfe3ba49dd3ad62708ee","study_id":"60edd13110225f80f9f3709b","session_id":"6196bf63846ea7c085e146ae","condition":"contingent","relevant_dimensions":["antennae","legs"],"bee_group":{"antennae":"B","wings":"X","pattern":"X","legs":"F"},"bonus":0.9000000000000009},{"rt":4887,"stimulus":"bees-with-color/bee-B1DM.svg","response":0,"trial_type":"image-button-response","trial_index":35,"time_elapsed":443153,"internal_node_id":"0.0-4.0-0.14","subject_id":"6151cfe3ba49dd3ad62708ee","study_id":"60edd13110225f80f9f3709b","session_id":"6196bf63846ea7c085e146ae","condition":"contingent","relevant_dimensions":["antennae","legs"],"bee_group":{"antennae":"B","wings":"X","pattern":"X","legs":"F"},"action":"harvest","summary":"good-harvest","bonus":0.9000000000000009},{"rt":848,"stimulus":"\n                    <p><b>Action: <em>harvest</em></b></p>\n                    <p>This is the bee that you just saw.</p>\n                    <img src=\"bees-with-color/bee-B1DM.svg\" width=\"200\">\n                    <p><span class=\"greenText\"><b>Successful harvest!</b></span><br>Your pay has increased by $0.02. Your bonus pay is now $0.42.</p>\n            ","response":0,"trial_type":"html-button-response","trial_index":36,"time_elapsed":444002,"internal_node_id":"0.0-4.0-1.14","subject_id":"6151cfe3ba49dd3ad62708ee","study_id":"60edd13110225f80f9f3709b","session_id":"6196bf63846ea7c085e146ae","condition":"contingent","relevant_dimensions":["antennae","legs"],"bee_group":{"antennae":"B","wings":"X","pattern":"X","legs":"F"},"bonus":0.9000000000000009},{"rt":4015,"stimulus":"bees-with-color/bee-A2DF.svg","response":0,"trial_type":"image-button-response","trial_index":37,"time_elapsed":448017,"internal_node_id":"0.0-4.0-0.15","subject_id":"6151cfe3ba49dd3ad62708ee","study_id":"60edd13110225f80f9f3709b","session_id":"6196bf63846ea7c085e146ae","condition":"contingent","relevant_dimensions":["antennae","legs"],"bee_group":{"antennae":"B","wings":"X","pattern":"X","legs":"F"},"action":"harvest","summary":"good-harvest","bonus":0.9000000000000009},{"rt":815,"stimulus":"\n                    <p><b>Action: <em>harvest</em></b></p>\n                    <p>This is the bee that you just saw.</p>\n                    <img src=\"bees-with-color/bee-A2DF.svg\" width=\"200\">\n                    <p><span class=\"greenText\"><b>Successful harvest!</b></span><br>Your pay has increased by $0.02. Your bonus pay is now $0.44.</p>\n            ","response":0,"trial_type":"html-button-response","trial_index":38,"time_elapsed":448833,"internal_node_id":"0.0-4.0-1.15","subject_id":"6151cfe3ba49dd3ad62708ee","study_id":"60edd13110225f80f9f3709b","session_id":"6196bf63846ea7c085e146ae","condition":"contingent","relevant_dimensions":["antennae","legs"],"bee_group":{"antennae":"B","wings":"X","pattern":"X","legs":"F"},"bonus":0.9000000000000009},{"rt":6287,"stimulus":"bees-with-color/bee-A1SF.svg","response":0,"trial_type":"image-button-response","trial_index":39,"time_elapsed":455121,"internal_node_id":"0.0-4.0-0.16","subject_id":"6151cfe3ba49dd3ad62708ee","study_id":"60edd13110225f80f9f3709b","session_id":"6196bf63846ea7c085e146ae","condition":"contingent","relevant_dimensions":["antennae","legs"],"bee_group":{"antennae":"B","wings":"X","pattern":"X","legs":"F"},"action":"harvest","summary":"good-harvest","bonus":0.9000000000000009},{"rt":2039,"stimulus":"\n                    <p><b>Action: <em>harvest</em></b></p>\n                    <p>This is the bee that you just saw.</p>\n                    <img src=\"bees-with-color/bee-A1SF.svg\" width=\"200\">\n                    <p><span class=\"greenText\"><b>Successful harvest!</b></span><br>Your pay has increased by $0.02. Your bonus pay is now $0.46.</p>\n            ","response":0,"trial_type":"html-button-response","trial_index":40,"time_elapsed":457162,"internal_node_id":"0.0-4.0-1.16","subject_id":"6151cfe3ba49dd3ad62708ee","study_id":"60edd13110225f80f9f3709b","session_id":"6196bf63846ea7c085e146ae","condition":"contingent","relevant_dimensions":["antennae","legs"],"bee_group":{"antennae":"B","wings":"X","pattern":"X","legs":"F"},"bonus":0.9000000000000009},{"rt":5550,"stimulus":"bees-with-color/bee-A1DF.svg","response":0,"trial_type":"image-button-response","trial_index":41,"time_elapsed":462713,"internal_node_id":"0.0-4.0-0.17","subject_id":"6151cfe3ba49dd3ad62708ee","study_id":"60edd13110225f80f9f3709b","session_id":"6196bf63846ea7c085e146ae","condition":"contingent","relevant_dimensions":["antennae","legs"],"bee_group":{"antennae":"B","wings":"X","pattern":"X","legs":"F"},"action":"harvest","summary":"good-harvest","bonus":0.9000000000000009},{"rt":1247,"stimulus":"\n                    <p><b>Action: <em>harvest</em></b></p>\n                    <p>This is the bee that you just saw.</p>\n                    <img src=\"bees-with-color/bee-A1DF.svg\" width=\"200\">\n                    <p><span class=\"greenText\"><b>Successful harvest!</b></span><br>Your pay has increased by $0.02. Your bonus pay is now $0.48.</p>\n            ","response":0,"trial_type":"html-button-response","trial_index":42,"time_elapsed":463961,"internal_node_id":"0.0-4.0-1.17","subject_id":"6151cfe3ba49dd3ad62708ee","study_id":"60edd13110225f80f9f3709b","session_id":"6196bf63846ea7c085e146ae","condition":"contingent","relevant_dimensions":["antennae","legs"],"bee_group":{"antennae":"B","wings":"X","pattern":"X","legs":"F"},"bonus":0.9000000000000009},{"rt":4503,"stimulus":"bees-with-color/bee-B1SM.svg","response":0,"trial_type":"image-button-response","trial_index":43,"time_elapsed":468466,"internal_node_id":"0.0-4.0-0.18","subject_id":"6151cfe3ba49dd3ad62708ee","study_id":"60edd13110225f80f9f3709b","session_id":"6196bf63846ea7c085e146ae","condition":"contingent","relevant_dimensions":["antennae","legs"],"bee_group":{"antennae":"B","wings":"X","pattern":"X","legs":"F"},"action":"harvest","summary":"good-harvest","bonus":0.9000000000000009},{"rt":2727,"stimulus":"\n                    <p><b>Action: <em>harvest</em></b></p>\n                    <p>This is the bee that you just saw.</p>\n                    <img src=\"bees-with-color/bee-B1SM.svg\" width=\"200\">\n                    <p><span class=\"greenText\"><b>Successful harvest!</b></span><br>Your pay has increased by $0.02. Your bonus pay is now $0.50.</p>\n            ","response":0,"trial_type":"html-button-response","trial_index":44,"time_elapsed":471194,"internal_node_id":"0.0-4.0-1.18","subject_id":"6151cfe3ba49dd3ad62708ee","study_id":"60edd13110225f80f9f3709b","session_id":"6196bf63846ea7c085e146ae","condition":"contingent","relevant_dimensions":["antennae","legs"],"bee_group":{"antennae":"B","wings":"X","pattern":"X","legs":"F"},"bonus":0.9000000000000009},{"rt":10015,"stimulus":"bees-with-color/bee-B2DF.svg","response":0,"trial_type":"image-button-response","trial_index":45,"time_elapsed":481209,"internal_node_id":"0.0-4.0-0.19","subject_id":"6151cfe3ba49dd3ad62708ee","study_id":"60edd13110225f80f9f3709b","session_id":"6196bf63846ea7c085e146ae","condition":"contingent","relevant_dimensions":["antennae","legs"],"bee_group":{"antennae":"B","wings":"X","pattern":"X","legs":"F"},"action":"harvest","summary":"bad-harvest","bonus":0.9000000000000009},{"rt":24864,"stimulus":"\n                    <p><b>Action: <em>harvest</em></b></p>\n                    <p>This is the bee that you just saw.</p>\n                    <img src=\"bees-with-color/bee-B2DF.svg\" width=\"200\">\n                    <p><span class=\"redText\">Bad choice, the bee was angry.</span><br><b>You have been stung!</b><br>Your pay has been decreased by $0.10. Your bonus pay is now $0.40.</p>\n            ","response":0,"trial_type":"html-button-response","trial_index":46,"time_elapsed":506074,"internal_node_id":"0.0-4.0-1.19","subject_id":"6151cfe3ba49dd3ad62708ee","study_id":"60edd13110225f80f9f3709b","session_id":"6196bf63846ea7c085e146ae","condition":"contingent","relevant_dimensions":["antennae","legs"],"bee_group":{"antennae":"B","wings":"X","pattern":"X","legs":"F"},"bonus":0.9000000000000009},{"rt":8670,"stimulus":"bees-with-color/bee-A2SF.svg","response":0,"trial_type":"image-button-response","trial_index":47,"time_elapsed":514746,"internal_node_id":"0.0-4.0-0.20","subject_id":"6151cfe3ba49dd3ad62708ee","study_id":"60edd13110225f80f9f3709b","session_id":"6196bf63846ea7c085e146ae","condition":"contingent","relevant_dimensions":["antennae","legs"],"bee_group":{"antennae":"B","wings":"X","pattern":"X","legs":"F"},"action":"harvest","summary":"good-harvest","bonus":0.9000000000000009},{"rt":1503,"stimulus":"\n                    <p><b>Action: <em>harvest</em></b></p>\n                    <p>This is the bee that you just saw.</p>\n                    <img src=\"bees-with-color/bee-A2SF.svg\" width=\"200\">\n                    <p><span class=\"greenText\"><b>Successful harvest!</b></span><br>Your pay has increased by $0.02. Your bonus pay is now $0.42.</p>\n            ","response":0,"trial_type":"html-button-response","trial_index":48,"time_elapsed":516250,"internal_node_id":"0.0-4.0-1.20","subject_id":"6151cfe3ba49dd3ad62708ee","study_id":"60edd13110225f80f9f3709b","session_id":"6196bf63846ea7c085e146ae","condition":"contingent","relevant_dimensions":["antennae","legs"],"bee_group":{"antennae":"B","wings":"X","pattern":"X","legs":"F"},"bonus":0.9000000000000009},{"rt":13368,"stimulus":"bees-with-color/bee-A2DM.svg","response":0,"trial_type":"image-button-response","trial_index":49,"time_elapsed":529618,"internal_node_id":"0.0-4.0-0.21","subject_id":"6151cfe3ba49dd3ad62708ee","study_id":"60edd13110225f80f9f3709b","session_id":"6196bf63846ea7c085e146ae","condition":"contingent","relevant_dimensions":["antennae","legs"],"bee_group":{"antennae":"B","wings":"X","pattern":"X","legs":"F"},"action":"harvest","summary":"good-harvest","bonus":0.9000000000000009},{"rt":1303,"stimulus":"\n                    <p><b>Action: <em>harvest</em></b></p>\n                    <p>This is the bee that you just saw.</p>\n                    <img src=\"bees-with-color/bee-A2DM.svg\" width=\"200\">\n                    <p><span class=\"greenText\"><b>Successful harvest!</b></span><br>Your pay has increased by $0.02. Your bonus pay is now $0.44.</p>\n            ","response":0,"trial_type":"html-button-response","trial_index":50,"time_elapsed":530921,"internal_node_id":"0.0-4.0-1.21","subject_id":"6151cfe3ba49dd3ad62708ee","study_id":"60edd13110225f80f9f3709b","session_id":"6196bf63846ea7c085e146ae","condition":"contingent","relevant_dimensions":["antennae","legs"],"bee_group":{"antennae":"B","wings":"X","pattern":"X","legs":"F"},"bonus":0.9000000000000009},{"rt":13606,"stimulus":"bees-with-color/bee-B2SF.svg","response":0,"trial_type":"image-button-response","trial_index":51,"time_elapsed":544530,"internal_node_id":"0.0-4.0-0.22","subject_id":"6151cfe3ba49dd3ad62708ee","study_id":"60edd13110225f80f9f3709b","session_id":"6196bf63846ea7c085e146ae","condition":"contingent","relevant_dimensions":["antennae","legs"],"bee_group":{"antennae":"B","wings":"X","pattern":"X","legs":"F"},"action":"harvest","summary":"bad-harvest","bonus":0.9000000000000009},{"rt":14064,"stimulus":"\n                    <p><b>Action: <em>harvest</em></b></p>\n                    <p>This is the bee that you just saw.</p>\n                    <img src=\"bees-with-color/bee-B2SF.svg\" width=\"200\">\n                    <p><span class=\"redText\">Bad choice, the bee was angry.</span><br><b>You have been stung!</b><br>Your pay has been decreased by $0.10. Your bonus pay is now $0.34.</p>\n            ","response":0,"trial_type":"html-button-response","trial_index":52,"time_elapsed":558594,"internal_node_id":"0.0-4.0-1.22","subject_id":"6151cfe3ba49dd3ad62708ee","study_id":"60edd13110225f80f9f3709b","session_id":"6196bf63846ea7c085e146ae","condition":"contingent","relevant_dimensions":["antennae","legs"],"bee_group":{"antennae":"B","wings":"X","pattern":"X","legs":"F"},"bonus":0.9000000000000009},{"rt":2639,"stimulus":"bees-with-color/bee-A2DF.svg","response":0,"trial_type":"image-button-response","trial_index":53,"time_elapsed":561234,"internal_node_id":"0.0-4.0-0.23","subject_id":"6151cfe3ba49dd3ad62708ee","study_id":"60edd13110225f80f9f3709b","session_id":"6196bf63846ea7c085e146ae","condition":"contingent","relevant_dimensions":["antennae","legs"],"bee_group":{"antennae":"B","wings":"X","pattern":"X","legs":"F"},"action":"harvest","summary":"good-harvest","bonus":0.9000000000000009},{"rt":1064,"stimulus":"\n                    <p><b>Action: <em>harvest</em></b></p>\n                    <p>This is the bee that you just saw.</p>\n                    <img src=\"bees-with-color/bee-A2DF.svg\" width=\"200\">\n                    <p><span class=\"greenText\"><b>Successful harvest!</b></span><br>Your pay has increased by $0.02. Your bonus pay is now $0.36.</p>\n            ","response":0,"trial_type":"html-button-response","trial_index":54,"time_elapsed":562297,"internal_node_id":"0.0-4.0-1.23","subject_id":"6151cfe3ba49dd3ad62708ee","study_id":"60edd13110225f80f9f3709b","session_id":"6196bf63846ea7c085e146ae","condition":"contingent","relevant_dimensions":["antennae","legs"],"bee_group":{"antennae":"B","wings":"X","pattern":"X","legs":"F"},"bonus":0.9000000000000009},{"rt":9791,"stimulus":"bees-with-color/bee-B1SF.svg","response":1,"trial_type":"image-button-response","trial_index":55,"time_elapsed":572089,"internal_node_id":"0.0-4.0-0.24","subject_id":"6151cfe3ba49dd3ad62708ee","study_id":"60edd13110225f80f9f3709b","session_id":"6196bf63846ea7c085e146ae","condition":"contingent","relevant_dimensions":["antennae","legs"],"bee_group":{"antennae":"B","wings":"X","pattern":"X","legs":"F"},"action":"avoid","summary":"good-avoid","bonus":0.9000000000000009},{"rt":975,"stimulus":"\n                    <p><b>Action: <em>avoid</em></b></p>\n                    <p>This is the bee that you just saw.</p>\n                    <img src=\"bees-with-color/bee-B1SF.svg\" width=\"200\">\n                    <p><br>Your bonus pay is unchanged, and remains at $0.36.</p>\n            ","response":0,"trial_type":"html-button-response","trial_index":56,"time_elapsed":573066,"internal_node_id":"0.0-4.0-1.24","subject_id":"6151cfe3ba49dd3ad62708ee","study_id":"60edd13110225f80f9f3709b","session_id":"6196bf63846ea7c085e146ae","condition":"contingent","relevant_dimensions":["antennae","legs"],"bee_group":{"antennae":"B","wings":"X","pattern":"X","legs":"F"},"bonus":0.9000000000000009},{"rt":7222,"stimulus":"bees-with-color/bee-B1DF.svg","response":1,"trial_type":"image-button-response","trial_index":57,"time_elapsed":580289,"internal_node_id":"0.0-4.0-0.25","subject_id":"6151cfe3ba49dd3ad62708ee","study_id":"60edd13110225f80f9f3709b","session_id":"6196bf63846ea7c085e146ae","condition":"contingent","relevant_dimensions":["antennae","legs"],"bee_group":{"antennae":"B","wings":"X","pattern":"X","legs":"F"},"action":"avoid","summary":"good-avoid","bonus":0.9000000000000009},{"rt":1047,"stimulus":"\n                    <p><b>Action: <em>avoid</em></b></p>\n                    <p>This is the bee that you just saw.</p>\n                    <img src=\"bees-with-color/bee-B1DF.svg\" width=\"200\">\n                    <p><br>Your bonus pay is unchanged, and remains at $0.36.</p>\n            ","response":0,"trial_type":"html-button-response","trial_index":58,"time_elapsed":581337,"internal_node_id":"0.0-4.0-1.25","subject_id":"6151cfe3ba49dd3ad62708ee","study_id":"60edd13110225f80f9f3709b","session_id":"6196bf63846ea7c085e146ae","condition":"contingent","relevant_dimensions":["antennae","legs"],"bee_group":{"antennae":"B","wings":"X","pattern":"X","legs":"F"},"bonus":0.9000000000000009},{"rt":1463,"stimulus":"bees-with-color/bee-A2SM.svg","response":0,"trial_type":"image-button-response","trial_index":59,"time_elapsed":582801,"internal_node_id":"0.0-4.0-0.26","subject_id":"6151cfe3ba49dd3ad62708ee","study_id":"60edd13110225f80f9f3709b","session_id":"6196bf63846ea7c085e146ae","condition":"contingent","relevant_dimensions":["antennae","legs"],"bee_group":{"antennae":"B","wings":"X","pattern":"X","legs":"F"},"action":"harvest","summary":"good-harvest","bonus":0.9000000000000009},{"rt":799,"stimulus":"\n                    <p><b>Action: <em>harvest</em></b></p>\n                    <p>This is the bee that you just saw.</p>\n                    <img src=\"bees-with-color/bee-A2SM.svg\" width=\"200\">\n                    <p><span class=\"greenText\"><b>Successful harvest!</b></span><br>Your pay has increased by $0.02. Your bonus pay is now $0.38.</p>\n            ","response":0,"trial_type":"html-button-response","trial_index":60,"time_elapsed":583601,"internal_node_id":"0.0-4.0-1.26","subject_id":"6151cfe3ba49dd3ad62708ee","study_id":"60edd13110225f80f9f3709b","session_id":"6196bf63846ea7c085e146ae","condition":"contingent","relevant_dimensions":["antennae","legs"],"bee_group":{"antennae":"B","wings":"X","pattern":"X","legs":"F"},"bonus":0.9000000000000009},{"rt":1207,"stimulus":"bees-with-color/bee-A1DM.svg","response":0,"trial_type":"image-button-response","trial_index":61,"time_elapsed":584809,"internal_node_id":"0.0-4.0-0.27","subject_id":"6151cfe3ba49dd3ad62708ee","study_id":"60edd13110225f80f9f3709b","session_id":"6196bf63846ea7c085e146ae","condition":"contingent","relevant_dimensions":["antennae","legs"],"bee_group":{"antennae":"B","wings":"X","pattern":"X","legs":"F"},"action":"harvest","summary":"good-harvest","bonus":0.9000000000000009},{"rt":784,"stimulus":"\n                    <p><b>Action: <em>harvest</em></b></p>\n                    <p>This is the bee that you just saw.</p>\n                    <img src=\"bees-with-color/bee-A1DM.svg\" width=\"200\">\n                    <p><span class=\"greenText\"><b>Successful harvest!</b></span><br>Your pay has increased by $0.02. Your bonus pay is now $0.40.</p>\n            ","response":0,"trial_type":"html-button-response","trial_index":62,"time_elapsed":585594,"internal_node_id":"0.0-4.0-1.27","subject_id":"6151cfe3ba49dd3ad62708ee","study_id":"60edd13110225f80f9f3709b","session_id":"6196bf63846ea7c085e146ae","condition":"contingent","relevant_dimensions":["antennae","legs"],"bee_group":{"antennae":"B","wings":"X","pattern":"X","legs":"F"},"bonus":0.9000000000000009},{"rt":6951,"stimulus":"bees-with-color/bee-B2SM.svg","response":0,"trial_type":"image-button-response","trial_index":63,"time_elapsed":592545,"internal_node_id":"0.0-4.0-0.28","subject_id":"6151cfe3ba49dd3ad62708ee","study_id":"60edd13110225f80f9f3709b","session_id":"6196bf63846ea7c085e146ae","condition":"contingent","relevant_dimensions":["antennae","legs"],"bee_group":{"antennae":"B","wings":"X","pattern":"X","legs":"F"},"action":"harvest","summary":"good-harvest","bonus":0.9000000000000009},{"rt":13039,"stimulus":"\n                    <p><b>Action: <em>harvest</em></b></p>\n                    <p>This is the bee that you just saw.</p>\n                    <img src=\"bees-with-color/bee-B2SM.svg\" width=\"200\">\n                    <p><span class=\"greenText\"><b>Successful harvest!</b></span><br>Your pay has increased by $0.02. Your bonus pay is now $0.42.</p>\n            ","response":0,"trial_type":"html-button-response","trial_index":64,"time_elapsed":605586,"internal_node_id":"0.0-4.0-1.28","subject_id":"6151cfe3ba49dd3ad62708ee","study_id":"60edd13110225f80f9f3709b","session_id":"6196bf63846ea7c085e146ae","condition":"contingent","relevant_dimensions":["antennae","legs"],"bee_group":{"antennae":"B","wings":"X","pattern":"X","legs":"F"},"bonus":0.9000000000000009},{"rt":1743,"stimulus":"bees-with-color/bee-A1SM.svg","response":0,"trial_type":"image-button-response","trial_index":65,"time_elapsed":607330,"internal_node_id":"0.0-4.0-0.29","subject_id":"6151cfe3ba49dd3ad62708ee","study_id":"60edd13110225f80f9f3709b","session_id":"6196bf63846ea7c085e146ae","condition":"contingent","relevant_dimensions":["antennae","legs"],"bee_group":{"antennae":"B","wings":"X","pattern":"X","legs":"F"},"action":"harvest","summary":"good-harvest","bonus":0.9000000000000009},{"rt":831,"stimulus":"\n                    <p><b>Action: <em>harvest</em></b></p>\n                    <p>This is the bee that you just saw.</p>\n                    <img src=\"bees-with-color/bee-A1SM.svg\" width=\"200\">\n                    <p><span class=\"greenText\"><b>Successful harvest!</b></span><br>Your pay has increased by $0.02. Your bonus pay is now $0.44.</p>\n            ","response":0,"trial_type":"html-button-response","trial_index":66,"time_elapsed":608162,"internal_node_id":"0.0-4.0-1.29","subject_id":"6151cfe3ba49dd3ad62708ee","study_id":"60edd13110225f80f9f3709b","session_id":"6196bf63846ea7c085e146ae","condition":"contingent","relevant_dimensions":["antennae","legs"],"bee_group":{"antennae":"B","wings":"X","pattern":"X","legs":"F"},"bonus":0.9000000000000009},{"rt":4207,"stimulus":"bees-with-color/bee-B2DM.svg","response":0,"trial_type":"image-button-response","trial_index":67,"time_elapsed":612370,"internal_node_id":"0.0-4.0-0.30","subject_id":"6151cfe3ba49dd3ad62708ee","study_id":"60edd13110225f80f9f3709b","session_id":"6196bf63846ea7c085e146ae","condition":"contingent","relevant_dimensions":["antennae","legs"],"bee_group":{"antennae":"B","wings":"X","pattern":"X","legs":"F"},"action":"harvest","summary":"good-harvest","bonus":0.9000000000000009},{"rt":791,"stimulus":"\n                    <p><b>Action: <em>harvest</em></b></p>\n                    <p>This is the bee that you just saw.</p>\n                    <img src=\"bees-with-color/bee-B2DM.svg\" width=\"200\">\n                    <p><span class=\"greenText\"><b>Successful harvest!</b></span><br>Your pay has increased by $0.02. Your bonus pay is now $0.46.</p>\n            ","response":0,"trial_type":"html-button-response","trial_index":68,"time_elapsed":613162,"internal_node_id":"0.0-4.0-1.30","subject_id":"6151cfe3ba49dd3ad62708ee","study_id":"60edd13110225f80f9f3709b","session_id":"6196bf63846ea7c085e146ae","condition":"contingent","relevant_dimensions":["antennae","legs"],"bee_group":{"antennae":"B","wings":"X","pattern":"X","legs":"F"},"bonus":0.9000000000000009},{"rt":5998,"stimulus":"bees-with-color/bee-B1DM.svg","response":1,"trial_type":"image-button-response","trial_index":69,"time_elapsed":619161,"internal_node_id":"0.0-4.0-0.31","subject_id":"6151cfe3ba49dd3ad62708ee","study_id":"60edd13110225f80f9f3709b","session_id":"6196bf63846ea7c085e146ae","condition":"contingent","relevant_dimensions":["antennae","legs"],"bee_group":{"antennae":"B","wings":"X","pattern":"X","legs":"F"},"action":"avoid","summary":"bad-avoid","bonus":0.9000000000000009},{"rt":999,"stimulus":"\n                    <p><b>Action: <em>avoid</em></b></p>\n                    <p>This is the bee that you just saw.</p>\n                    <img src=\"bees-with-color/bee-B1DM.svg\" width=\"200\">\n                    <p><br>Your bonus pay is unchanged, and remains at $0.46.</p>\n            ","response":0,"trial_type":"html-button-response","trial_index":70,"time_elapsed":620162,"internal_node_id":"0.0-4.0-1.31","subject_id":"6151cfe3ba49dd3ad62708ee","study_id":"60edd13110225f80f9f3709b","session_id":"6196bf63846ea7c085e146ae","condition":"contingent","relevant_dimensions":["antennae","legs"],"bee_group":{"antennae":"B","wings":"X","pattern":"X","legs":"F"},"bonus":0.9000000000000009},{"rt":2359,"stimulus":"bees-with-color/bee-B1SM.svg","response":1,"trial_type":"image-button-response","trial_index":71,"time_elapsed":622522,"internal_node_id":"0.0-4.0-0.32","subject_id":"6151cfe3ba49dd3ad62708ee","study_id":"60edd13110225f80f9f3709b","session_id":"6196bf63846ea7c085e146ae","condition":"contingent","relevant_dimensions":["antennae","legs"],"bee_group":{"antennae":"B","wings":"X","pattern":"X","legs":"F"},"action":"avoid","summary":"bad-avoid","bonus":0.9000000000000009},{"rt":695,"stimulus":"\n                    <p><b>Action: <em>avoid</em></b></p>\n                    <p>This is the bee that you just saw.</p>\n                    <img src=\"bees-with-color/bee-B1SM.svg\" width=\"200\">\n                    <p><br>Your bonus pay is unchanged, and remains at $0.46.</p>\n            ","response":0,"trial_type":"html-button-response","trial_index":72,"time_elapsed":623218,"internal_node_id":"0.0-4.0-1.32","subject_id":"6151cfe3ba49dd3ad62708ee","study_id":"60edd13110225f80f9f3709b","session_id":"6196bf63846ea7c085e146ae","condition":"contingent","relevant_dimensions":["antennae","legs"],"bee_group":{"antennae":"B","wings":"X","pattern":"X","legs":"F"},"bonus":0.9000000000000009},{"rt":5815,"stimulus":"bees-with-color/bee-B2SF.svg","response":1,"trial_type":"image-button-response","trial_index":73,"time_elapsed":629034,"internal_node_id":"0.0-4.0-0.33","subject_id":"6151cfe3ba49dd3ad62708ee","study_id":"60edd13110225f80f9f3709b","session_id":"6196bf63846ea7c085e146ae","condition":"contingent","relevant_dimensions":["antennae","legs"],"bee_group":{"antennae":"B","wings":"X","pattern":"X","legs":"F"},"action":"avoid","summary":"good-avoid","bonus":0.9000000000000009},{"rt":782,"stimulus":"\n                    <p><b>Action: <em>avoid</em></b></p>\n                    <p>This is the bee that you just saw.</p>\n                    <img src=\"bees-with-color/bee-B2SF.svg\" width=\"200\">\n                    <p><br>Your bonus pay is unchanged, and remains at $0.46.</p>\n            ","response":0,"trial_type":"html-button-response","trial_index":74,"time_elapsed":629818,"internal_node_id":"0.0-4.0-1.33","subject_id":"6151cfe3ba49dd3ad62708ee","study_id":"60edd13110225f80f9f3709b","session_id":"6196bf63846ea7c085e146ae","condition":"contingent","relevant_dimensions":["antennae","legs"],"bee_group":{"antennae":"B","wings":"X","pattern":"X","legs":"F"},"bonus":0.9000000000000009},{"rt":5607,"stimulus":"bees-with-color/bee-B1DM.svg","response":1,"trial_type":"image-button-response","trial_index":75,"time_elapsed":635426,"internal_node_id":"0.0-4.0-0.34","subject_id":"6151cfe3ba49dd3ad62708ee","study_id":"60edd13110225f80f9f3709b","session_id":"6196bf63846ea7c085e146ae","condition":"contingent","relevant_dimensions":["antennae","legs"],"bee_group":{"antennae":"B","wings":"X","pattern":"X","legs":"F"},"action":"avoid","summary":"bad-avoid","bonus":0.9000000000000009},{"rt":879,"stimulus":"\n                    <p><b>Action: <em>avoid</em></b></p>\n                    <p>This is the bee that you just saw.</p>\n                    <img src=\"bees-with-color/bee-B1DM.svg\" width=\"200\">\n                    <p><br>Your bonus pay is unchanged, and remains at $0.46.</p>\n            ","response":0,"trial_type":"html-button-response","trial_index":76,"time_elapsed":636307,"internal_node_id":"0.0-4.0-1.34","subject_id":"6151cfe3ba49dd3ad62708ee","study_id":"60edd13110225f80f9f3709b","session_id":"6196bf63846ea7c085e146ae","condition":"contingent","relevant_dimensions":["antennae","legs"],"bee_group":{"antennae":"B","wings":"X","pattern":"X","legs":"F"},"bonus":0.9000000000000009},{"rt":959,"stimulus":"bees-with-color/bee-A2SF.svg","response":0,"trial_type":"image-button-response","trial_index":77,"time_elapsed":637266,"internal_node_id":"0.0-4.0-0.35","subject_id":"6151cfe3ba49dd3ad62708ee","study_id":"60edd13110225f80f9f3709b","session_id":"6196bf63846ea7c085e146ae","condition":"contingent","relevant_dimensions":["antennae","legs"],"bee_group":{"antennae":"B","wings":"X","pattern":"X","legs":"F"},"action":"harvest","summary":"good-harvest","bonus":0.9000000000000009},{"rt":655,"stimulus":"\n                    <p><b>Action: <em>harvest</em></b></p>\n                    <p>This is the bee that you just saw.</p>\n                    <img src=\"bees-with-color/bee-A2SF.svg\" width=\"200\">\n                    <p><span class=\"greenText\"><b>Successful harvest!</b></span><br>Your pay has increased by $0.02. Your bonus pay is now $0.48.</p>\n            ","response":0,"trial_type":"html-button-response","trial_index":78,"time_elapsed":637921,"internal_node_id":"0.0-4.0-1.35","subject_id":"6151cfe3ba49dd3ad62708ee","study_id":"60edd13110225f80f9f3709b","session_id":"6196bf63846ea7c085e146ae","condition":"contingent","relevant_dimensions":["antennae","legs"],"bee_group":{"antennae":"B","wings":"X","pattern":"X","legs":"F"},"bonus":0.9000000000000009},{"rt":1110,"stimulus":"bees-with-color/bee-A1SF.svg","response":0,"trial_type":"image-button-response","trial_index":79,"time_elapsed":639034,"internal_node_id":"0.0-4.0-0.36","subject_id":"6151cfe3ba49dd3ad62708ee","study_id":"60edd13110225f80f9f3709b","session_id":"6196bf63846ea7c085e146ae","condition":"contingent","relevant_dimensions":["antennae","legs"],"bee_group":{"antennae":"B","wings":"X","pattern":"X","legs":"F"},"action":"harvest","summary":"good-harvest","bonus":0.9000000000000009},{"rt":648,"stimulus":"\n                    <p><b>Action: <em>harvest</em></b></p>\n                    <p>This is the bee that you just saw.</p>\n                    <img src=\"bees-with-color/bee-A1SF.svg\" width=\"200\">\n                    <p><span class=\"greenText\"><b>Successful harvest!</b></span><br>Your pay has increased by $0.02. Your bonus pay is now $0.50.</p>\n            ","response":0,"trial_type":"html-button-response","trial_index":80,"time_elapsed":639682,"internal_node_id":"0.0-4.0-1.36","subject_id":"6151cfe3ba49dd3ad62708ee","study_id":"60edd13110225f80f9f3709b","session_id":"6196bf63846ea7c085e146ae","condition":"contingent","relevant_dimensions":["antennae","legs"],"bee_group":{"antennae":"B","wings":"X","pattern":"X","legs":"F"},"bonus":0.9000000000000009},{"rt":1207,"stimulus":"bees-with-color/bee-A2DM.svg","response":0,"trial_type":"image-button-response","trial_index":81,"time_elapsed":640890,"internal_node_id":"0.0-4.0-0.37","subject_id":"6151cfe3ba49dd3ad62708ee","study_id":"60edd13110225f80f9f3709b","session_id":"6196bf63846ea7c085e146ae","condition":"contingent","relevant_dimensions":["antennae","legs"],"bee_group":{"antennae":"B","wings":"X","pattern":"X","legs":"F"},"action":"harvest","summary":"good-harvest","bonus":0.9000000000000009},{"rt":824,"stimulus":"\n                    <p><b>Action: <em>harvest</em></b></p>\n                    <p>This is the bee that you just saw.</p>\n                    <img src=\"bees-with-color/bee-A2DM.svg\" width=\"200\">\n                    <p><span class=\"greenText\"><b>Successful harvest!</b></span><br>Your pay has increased by $0.02. Your bonus pay is now $0.52.</p>\n            ","response":0,"trial_type":"html-button-response","trial_index":82,"time_elapsed":641715,"internal_node_id":"0.0-4.0-1.37","subject_id":"6151cfe3ba49dd3ad62708ee","study_id":"60edd13110225f80f9f3709b","session_id":"6196bf63846ea7c085e146ae","condition":"contingent","relevant_dimensions":["antennae","legs"],"bee_group":{"antennae":"B","wings":"X","pattern":"X","legs":"F"},"bonus":0.9000000000000009},{"rt":3432,"stimulus":"bees-with-color/bee-B2DF.svg","response":1,"trial_type":"image-button-response","trial_index":83,"time_elapsed":645146,"internal_node_id":"0.0-4.0-0.38","subject_id":"6151cfe3ba49dd3ad62708ee","study_id":"60edd13110225f80f9f3709b","session_id":"6196bf63846ea7c085e146ae","condition":"contingent","relevant_dimensions":["antennae","legs"],"bee_group":{"antennae":"B","wings":"X","pattern":"X","legs":"F"},"action":"avoid","summary":"good-avoid","bonus":0.9000000000000009},{"rt":927,"stimulus":"\n                    <p><b>Action: <em>avoid</em></b></p>\n                    <p>This is the bee that you just saw.</p>\n                    <img src=\"bees-with-color/bee-B2DF.svg\" width=\"200\">\n                    <p><br>Your bonus pay is unchanged, and remains at $0.52.</p>\n            ","response":0,"trial_type":"html-button-response","trial_index":84,"time_elapsed":646074,"internal_node_id":"0.0-4.0-1.38","subject_id":"6151cfe3ba49dd3ad62708ee","study_id":"60edd13110225f80f9f3709b","session_id":"6196bf63846ea7c085e146ae","condition":"contingent","relevant_dimensions":["antennae","legs"],"bee_group":{"antennae":"B","wings":"X","pattern":"X","legs":"F"},"bonus":0.9000000000000009},{"rt":1007,"stimulus":"bees-with-color/bee-A2DF.svg","response":0,"trial_type":"image-button-response","trial_index":85,"time_elapsed":647082,"internal_node_id":"0.0-4.0-0.39","subject_id":"6151cfe3ba49dd3ad62708ee","study_id":"60edd13110225f80f9f3709b","session_id":"6196bf63846ea7c085e146ae","condition":"contingent","relevant_dimensions":["antennae","legs"],"bee_group":{"antennae":"B","wings":"X","pattern":"X","legs":"F"},"action":"harvest","summary":"good-harvest","bonus":0.9000000000000009},{"rt":727,"stimulus":"\n                    <p><b>Action: <em>harvest</em></b></p>\n                    <p>This is the bee that you just saw.</p>\n                    <img src=\"bees-with-color/bee-A2DF.svg\" width=\"200\">\n                    <p><span class=\"greenText\"><b>Successful harvest!</b></span><br>Your pay has increased by $0.02. Your bonus pay is now $0.54.</p>\n            ","response":0,"trial_type":"html-button-response","trial_index":86,"time_elapsed":647810,"internal_node_id":"0.0-4.0-1.39","subject_id":"6151cfe3ba49dd3ad62708ee","study_id":"60edd13110225f80f9f3709b","session_id":"6196bf63846ea7c085e146ae","condition":"contingent","relevant_dimensions":["antennae","legs"],"bee_group":{"antennae":"B","wings":"X","pattern":"X","legs":"F"},"bonus":0.9000000000000009},{"rt":2567,"stimulus":"bees-with-color/bee-B1SF.svg","response":1,"trial_type":"image-button-response","trial_index":87,"time_elapsed":650378,"internal_node_id":"0.0-4.0-0.40","subject_id":"6151cfe3ba49dd3ad62708ee","study_id":"60edd13110225f80f9f3709b","session_id":"6196bf63846ea7c085e146ae","condition":"contingent","relevant_dimensions":["antennae","legs"],"bee_group":{"antennae":"B","wings":"X","pattern":"X","legs":"F"},"action":"avoid","summary":"good-avoid","bonus":0.9000000000000009},{"rt":719,"stimulus":"\n                    <p><b>Action: <em>avoid</em></b></p>\n                    <p>This is the bee that you just saw.</p>\n                    <img src=\"bees-with-color/bee-B1SF.svg\" width=\"200\">\n                    <p><br>Your bonus pay is unchanged, and remains at $0.54.</p>\n            ","response":0,"trial_type":"html-button-response","trial_index":88,"time_elapsed":651098,"internal_node_id":"0.0-4.0-1.40","subject_id":"6151cfe3ba49dd3ad62708ee","study_id":"60edd13110225f80f9f3709b","session_id":"6196bf63846ea7c085e146ae","condition":"contingent","relevant_dimensions":["antennae","legs"],"bee_group":{"antennae":"B","wings":"X","pattern":"X","legs":"F"},"bonus":0.9000000000000009},{"rt":911,"stimulus":"bees-with-color/bee-A2SM.svg","response":0,"trial_type":"image-button-response","trial_index":89,"time_elapsed":652010,"internal_node_id":"0.0-4.0-0.41","subject_id":"6151cfe3ba49dd3ad62708ee","study_id":"60edd13110225f80f9f3709b","session_id":"6196bf63846ea7c085e146ae","condition":"contingent","relevant_dimensions":["antennae","legs"],"bee_group":{"antennae":"B","wings":"X","pattern":"X","legs":"F"},"action":"harvest","summary":"good-harvest","bonus":0.9000000000000009},{"rt":653,"stimulus":"\n                    <p><b>Action: <em>harvest</em></b></p>\n                    <p>This is the bee that you just saw.</p>\n                    <img src=\"bees-with-color/bee-A2SM.svg\" width=\"200\">\n                    <p><span class=\"greenText\"><b>Successful harvest!</b></span><br>Your pay has increased by $0.02. Your bonus pay is now $0.56.</p>\n            ","response":0,"trial_type":"html-button-response","trial_index":90,"time_elapsed":652665,"internal_node_id":"0.0-4.0-1.41","subject_id":"6151cfe3ba49dd3ad62708ee","study_id":"60edd13110225f80f9f3709b","session_id":"6196bf63846ea7c085e146ae","condition":"contingent","relevant_dimensions":["antennae","legs"],"bee_group":{"antennae":"B","wings":"X","pattern":"X","legs":"F"},"bonus":0.9000000000000009},{"rt":1176,"stimulus":"bees-with-color/bee-A1SM.svg","response":0,"trial_type":"image-button-response","trial_index":91,"time_elapsed":653842,"internal_node_id":"0.0-4.0-0.42","subject_id":"6151cfe3ba49dd3ad62708ee","study_id":"60edd13110225f80f9f3709b","session_id":"6196bf63846ea7c085e146ae","condition":"contingent","relevant_dimensions":["antennae","legs"],"bee_group":{"antennae":"B","wings":"X","pattern":"X","legs":"F"},"action":"harvest","summary":"good-harvest","bonus":0.9000000000000009},{"rt":775,"stimulus":"\n                    <p><b>Action: <em>harvest</em></b></p>\n                    <p>This is the bee that you just saw.</p>\n                    <img src=\"bees-with-color/bee-A1SM.svg\" width=\"200\">\n                    <p><span class=\"greenText\"><b>Successful harvest!</b></span><br>Your pay has increased by $0.02. Your bonus pay is now $0.58.</p>\n            ","response":0,"trial_type":"html-button-response","trial_index":92,"time_elapsed":654618,"internal_node_id":"0.0-4.0-1.42","subject_id":"6151cfe3ba49dd3ad62708ee","study_id":"60edd13110225f80f9f3709b","session_id":"6196bf63846ea7c085e146ae","condition":"contingent","relevant_dimensions":["antennae","legs"],"bee_group":{"antennae":"B","wings":"X","pattern":"X","legs":"F"},"bonus":0.9000000000000009},{"rt":3544,"stimulus":"bees-with-color/bee-B2SM.svg","response":0,"trial_type":"image-button-response","trial_index":93,"time_elapsed":658163,"internal_node_id":"0.0-4.0-0.43","subject_id":"6151cfe3ba49dd3ad62708ee","study_id":"60edd13110225f80f9f3709b","session_id":"6196bf63846ea7c085e146ae","condition":"contingent","relevant_dimensions":["antennae","legs"],"bee_group":{"antennae":"B","wings":"X","pattern":"X","legs":"F"},"action":"harvest","summary":"good-harvest","bonus":0.9000000000000009},{"rt":775,"stimulus":"\n                    <p><b>Action: <em>harvest</em></b></p>\n                    <p>This is the bee that you just saw.</p>\n                    <img src=\"bees-with-color/bee-B2SM.svg\" width=\"200\">\n                    <p><span class=\"greenText\"><b>Successful harvest!</b></span><br>Your pay has increased by $0.02. Your bonus pay is now $0.60.</p>\n            ","response":0,"trial_type":"html-button-response","trial_index":94,"time_elapsed":658937,"internal_node_id":"0.0-4.0-1.43","subject_id":"6151cfe3ba49dd3ad62708ee","study_id":"60edd13110225f80f9f3709b","session_id":"6196bf63846ea7c085e146ae","condition":"contingent","relevant_dimensions":["antennae","legs"],"bee_group":{"antennae":"B","wings":"X","pattern":"X","legs":"F"},"bonus":0.9000000000000009},{"rt":5063,"stimulus":"bees-with-color/bee-B2DM.svg","response":0,"trial_type":"image-button-response","trial_index":95,"time_elapsed":664002,"internal_node_id":"0.0-4.0-0.44","subject_id":"6151cfe3ba49dd3ad62708ee","study_id":"60edd13110225f80f9f3709b","session_id":"6196bf63846ea7c085e146ae","condition":"contingent","relevant_dimensions":["antennae","legs"],"bee_group":{"antennae":"B","wings":"X","pattern":"X","legs":"F"},"action":"harvest","summary":"good-harvest","bonus":0.9000000000000009},{"rt":815,"stimulus":"\n                    <p><b>Action: <em>harvest</em></b></p>\n                    <p>This is the bee that you just saw.</p>\n                    <img src=\"bees-with-color/bee-B2DM.svg\" width=\"200\">\n                    <p><span class=\"greenText\"><b>Successful harvest!</b></span><br>Your pay has increased by $0.02. Your bonus pay is now $0.62.</p>\n            ","response":0,"trial_type":"html-button-response","trial_index":96,"time_elapsed":664818,"internal_node_id":"0.0-4.0-1.44","subject_id":"6151cfe3ba49dd3ad62708ee","study_id":"60edd13110225f80f9f3709b","session_id":"6196bf63846ea7c085e146ae","condition":"contingent","relevant_dimensions":["antennae","legs"],"bee_group":{"antennae":"B","wings":"X","pattern":"X","legs":"F"},"bonus":0.9000000000000009},{"rt":975,"stimulus":"bees-with-color/bee-A1DF.svg","response":0,"trial_type":"image-button-response","trial_index":97,"time_elapsed":665795,"internal_node_id":"0.0-4.0-0.45","subject_id":"6151cfe3ba49dd3ad62708ee","study_id":"60edd13110225f80f9f3709b","session_id":"6196bf63846ea7c085e146ae","condition":"contingent","relevant_dimensions":["antennae","legs"],"bee_group":{"antennae":"B","wings":"X","pattern":"X","legs":"F"},"action":"harvest","summary":"good-harvest","bonus":0.9000000000000009},{"rt":815,"stimulus":"\n                    <p><b>Action: <em>harvest</em></b></p>\n                    <p>This is the bee that you just saw.</p>\n                    <img src=\"bees-with-color/bee-A1DF.svg\" width=\"200\">\n                    <p><span class=\"greenText\"><b>Successful harvest!</b></span><br>Your pay has increased by $0.02. Your bonus pay is now $0.64.</p>\n            ","response":0,"trial_type":"html-button-response","trial_index":98,"time_elapsed":666610,"internal_node_id":"0.0-4.0-1.45","subject_id":"6151cfe3ba49dd3ad62708ee","study_id":"60edd13110225f80f9f3709b","session_id":"6196bf63846ea7c085e146ae","condition":"contingent","relevant_dimensions":["antennae","legs"],"bee_group":{"antennae":"B","wings":"X","pattern":"X","legs":"F"},"bonus":0.9000000000000009},{"rt":887,"stimulus":"bees-with-color/bee-A1DM.svg","response":0,"trial_type":"image-button-response","trial_index":99,"time_elapsed":667499,"internal_node_id":"0.0-4.0-0.46","subject_id":"6151cfe3ba49dd3ad62708ee","study_id":"60edd13110225f80f9f3709b","session_id":"6196bf63846ea7c085e146ae","condition":"contingent","relevant_dimensions":["antennae","legs"],"bee_group":{"antennae":"B","wings":"X","pattern":"X","legs":"F"},"action":"harvest","summary":"good-harvest","bonus":0.9000000000000009},{"rt":655,"stimulus":"\n                    <p><b>Action: <em>harvest</em></b></p>\n                    <p>This is the bee that you just saw.</p>\n                    <img src=\"bees-with-color/bee-A1DM.svg\" width=\"200\">\n                    <p><span class=\"greenText\"><b>Successful harvest!</b></span><br>Your pay has increased by $0.02. Your bonus pay is now $0.66.</p>\n            ","response":0,"trial_type":"html-button-response","trial_index":100,"time_elapsed":668154,"internal_node_id":"0.0-4.0-1.46","subject_id":"6151cfe3ba49dd3ad62708ee","study_id":"60edd13110225f80f9f3709b","session_id":"6196bf63846ea7c085e146ae","condition":"contingent","relevant_dimensions":["antennae","legs"],"bee_group":{"antennae":"B","wings":"X","pattern":"X","legs":"F"},"bonus":0.9000000000000009},{"rt":1215,"stimulus":"bees-with-color/bee-B1DF.svg","response":1,"trial_type":"image-button-response","trial_index":101,"time_elapsed":669370,"internal_node_id":"0.0-4.0-0.47","subject_id":"6151cfe3ba49dd3ad62708ee","study_id":"60edd13110225f80f9f3709b","session_id":"6196bf63846ea7c085e146ae","condition":"contingent","relevant_dimensions":["antennae","legs"],"bee_group":{"antennae":"B","wings":"X","pattern":"X","legs":"F"},"action":"avoid","summary":"good-avoid","bonus":0.9000000000000009},{"rt":1295,"stimulus":"\n                    <p><b>Action: <em>avoid</em></b></p>\n                    <p>This is the bee that you just saw.</p>\n                    <img src=\"bees-with-color/bee-B1DF.svg\" width=\"200\">\n                    <p><br>Your bonus pay is unchanged, and remains at $0.66.</p>\n            ","response":0,"trial_type":"html-button-response","trial_index":102,"time_elapsed":670666,"internal_node_id":"0.0-4.0-1.47","subject_id":"6151cfe3ba49dd3ad62708ee","study_id":"60edd13110225f80f9f3709b","session_id":"6196bf63846ea7c085e146ae","condition":"contingent","relevant_dimensions":["antennae","legs"],"bee_group":{"antennae":"B","wings":"X","pattern":"X","legs":"F"},"bonus":0.9000000000000009},{"rt":3374,"stimulus":"bees-with-color/bee-A2SM.svg","response":0,"trial_type":"image-button-response","trial_index":103,"time_elapsed":674042,"internal_node_id":"0.0-4.0-0.48","subject_id":"6151cfe3ba49dd3ad62708ee","study_id":"60edd13110225f80f9f3709b","session_id":"6196bf63846ea7c085e146ae","condition":"contingent","relevant_dimensions":["antennae","legs"],"bee_group":{"antennae":"B","wings":"X","pattern":"X","legs":"F"},"action":"harvest","summary":"good-harvest","bonus":0.9000000000000009},{"rt":656,"stimulus":"\n                    <p><b>Action: <em>harvest</em></b></p>\n                    <p>This is the bee that you just saw.</p>\n                    <img src=\"bees-with-color/bee-A2SM.svg\" width=\"200\">\n                    <p><span class=\"greenText\"><b>Successful harvest!</b></span><br>Your pay has increased by $0.02. Your bonus pay is now $0.68.</p>\n            ","response":0,"trial_type":"html-button-response","trial_index":104,"time_elapsed":674699,"internal_node_id":"0.0-4.0-1.48","subject_id":"6151cfe3ba49dd3ad62708ee","study_id":"60edd13110225f80f9f3709b","session_id":"6196bf63846ea7c085e146ae","condition":"contingent","relevant_dimensions":["antennae","legs"],"bee_group":{"antennae":"B","wings":"X","pattern":"X","legs":"F"},"bonus":0.9000000000000009},{"rt":1238,"stimulus":"bees-with-color/bee-A1DF.svg","response":0,"trial_type":"image-button-response","trial_index":105,"time_elapsed":675938,"internal_node_id":"0.0-4.0-0.49","subject_id":"6151cfe3ba49dd3ad62708ee","study_id":"60edd13110225f80f9f3709b","session_id":"6196bf63846ea7c085e146ae","condition":"contingent","relevant_dimensions":["antennae","legs"],"bee_group":{"antennae":"B","wings":"X","pattern":"X","legs":"F"},"action":"harvest","summary":"good-harvest","bonus":0.9000000000000009},{"rt":639,"stimulus":"\n                    <p><b>Action: <em>harvest</em></b></p>\n                    <p>This is the bee that you just saw.</p>\n                    <img src=\"bees-with-color/bee-A1DF.svg\" width=\"200\">\n                    <p><span class=\"greenText\"><b>Successful harvest!</b></span><br>Your pay has increased by $0.02. Your bonus pay is now $0.70.</p>\n            ","response":0,"trial_type":"html-button-response","trial_index":106,"time_elapsed":676578,"internal_node_id":"0.0-4.0-1.49","subject_id":"6151cfe3ba49dd3ad62708ee","study_id":"60edd13110225f80f9f3709b","session_id":"6196bf63846ea7c085e146ae","condition":"contingent","relevant_dimensions":["antennae","legs"],"bee_group":{"antennae":"B","wings":"X","pattern":"X","legs":"F"},"bonus":0.9000000000000009},{"rt":1783,"stimulus":"bees-with-color/bee-B1DM.svg","response":1,"trial_type":"image-button-response","trial_index":107,"time_elapsed":678362,"internal_node_id":"0.0-4.0-0.50","subject_id":"6151cfe3ba49dd3ad62708ee","study_id":"60edd13110225f80f9f3709b","session_id":"6196bf63846ea7c085e146ae","condition":"contingent","relevant_dimensions":["antennae","legs"],"bee_group":{"antennae":"B","wings":"X","pattern":"X","legs":"F"},"action":"avoid","summary":"bad-avoid","bonus":0.9000000000000009},{"rt":863,"stimulus":"\n                    <p><b>Action: <em>avoid</em></b></p>\n                    <p>This is the bee that you just saw.</p>\n                    <img src=\"bees-with-color/bee-B1DM.svg\" width=\"200\">\n                    <p><br>Your bonus pay is unchanged, and remains at $0.70.</p>\n            ","response":0,"trial_type":"html-button-response","trial_index":108,"time_elapsed":679226,"internal_node_id":"0.0-4.0-1.50","subject_id":"6151cfe3ba49dd3ad62708ee","study_id":"60edd13110225f80f9f3709b","session_id":"6196bf63846ea7c085e146ae","condition":"contingent","relevant_dimensions":["antennae","legs"],"bee_group":{"antennae":"B","wings":"X","pattern":"X","legs":"F"},"bonus":0.9000000000000009},{"rt":2263,"stimulus":"bees-with-color/bee-B2SF.svg","response":1,"trial_type":"image-button-response","trial_index":109,"time_elapsed":681490,"internal_node_id":"0.0-4.0-0.51","subject_id":"6151cfe3ba49dd3ad62708ee","study_id":"60edd13110225f80f9f3709b","session_id":"6196bf63846ea7c085e146ae","condition":"contingent","relevant_dimensions":["antennae","legs"],"bee_group":{"antennae":"B","wings":"X","pattern":"X","legs":"F"},"action":"avoid","summary":"good-avoid","bonus":0.9000000000000009},{"rt":776,"stimulus":"\n                    <p><b>Action: <em>avoid</em></b></p>\n                    <p>This is the bee that you just saw.</p>\n                    <img src=\"bees-with-color/bee-B2SF.svg\" width=\"200\">\n                    <p><br>Your bonus pay is unchanged, and remains at $0.70.</p>\n            ","response":0,"trial_type":"html-button-response","trial_index":110,"time_elapsed":682266,"internal_node_id":"0.0-4.0-1.51","subject_id":"6151cfe3ba49dd3ad62708ee","study_id":"60edd13110225f80f9f3709b","session_id":"6196bf63846ea7c085e146ae","condition":"contingent","relevant_dimensions":["antennae","legs"],"bee_group":{"antennae":"B","wings":"X","pattern":"X","legs":"F"},"bonus":0.9000000000000009},{"rt":1288,"stimulus":"bees-with-color/bee-A1DM.svg","response":0,"trial_type":"image-button-response","trial_index":111,"time_elapsed":683555,"internal_node_id":"0.0-4.0-0.52","subject_id":"6151cfe3ba49dd3ad62708ee","study_id":"60edd13110225f80f9f3709b","session_id":"6196bf63846ea7c085e146ae","condition":"contingent","relevant_dimensions":["antennae","legs"],"bee_group":{"antennae":"B","wings":"X","pattern":"X","legs":"F"},"action":"harvest","summary":"good-harvest","bonus":0.9000000000000009},{"rt":669,"stimulus":"\n                    <p><b>Action: <em>harvest</em></b></p>\n                    <p>This is the bee that you just saw.</p>\n                    <img src=\"bees-with-color/bee-A1DM.svg\" width=\"200\">\n                    <p><span class=\"greenText\"><b>Successful harvest!</b></span><br>Your pay has increased by $0.02. Your bonus pay is now $0.72.</p>\n            ","response":0,"trial_type":"html-button-response","trial_index":112,"time_elapsed":684227,"internal_node_id":"0.0-4.0-1.52","subject_id":"6151cfe3ba49dd3ad62708ee","study_id":"60edd13110225f80f9f3709b","session_id":"6196bf63846ea7c085e146ae","condition":"contingent","relevant_dimensions":["antennae","legs"],"bee_group":{"antennae":"B","wings":"X","pattern":"X","legs":"F"},"bonus":0.9000000000000009},{"rt":1023,"stimulus":"bees-with-color/bee-A2DF.svg","response":0,"trial_type":"image-button-response","trial_index":113,"time_elapsed":685251,"internal_node_id":"0.0-4.0-0.53","subject_id":"6151cfe3ba49dd3ad62708ee","study_id":"60edd13110225f80f9f3709b","session_id":"6196bf63846ea7c085e146ae","condition":"contingent","relevant_dimensions":["antennae","legs"],"bee_group":{"antennae":"B","wings":"X","pattern":"X","legs":"F"},"action":"harvest","summary":"good-harvest","bonus":0.9000000000000009},{"rt":877,"stimulus":"\n                    <p><b>Action: <em>harvest</em></b></p>\n                    <p>This is the bee that you just saw.</p>\n                    <img src=\"bees-with-color/bee-A2DF.svg\" width=\"200\">\n                    <p><span class=\"greenText\"><b>Successful harvest!</b></span><br>Your pay has increased by $0.02. Your bonus pay is now $0.74.</p>\n            ","response":0,"trial_type":"html-button-response","trial_index":114,"time_elapsed":686130,"internal_node_id":"0.0-4.0-1.53","subject_id":"6151cfe3ba49dd3ad62708ee","study_id":"60edd13110225f80f9f3709b","session_id":"6196bf63846ea7c085e146ae","condition":"contingent","relevant_dimensions":["antennae","legs"],"bee_group":{"antennae":"B","wings":"X","pattern":"X","legs":"F"},"bonus":0.9000000000000009},{"rt":1368,"stimulus":"bees-with-color/bee-A2SF.svg","response":0,"trial_type":"image-button-response","trial_index":115,"time_elapsed":687498,"internal_node_id":"0.0-4.0-0.54","subject_id":"6151cfe3ba49dd3ad62708ee","study_id":"60edd13110225f80f9f3709b","session_id":"6196bf63846ea7c085e146ae","condition":"contingent","relevant_dimensions":["antennae","legs"],"bee_group":{"antennae":"B","wings":"X","pattern":"X","legs":"F"},"action":"harvest","summary":"good-harvest","bonus":0.9000000000000009},{"rt":687,"stimulus":"\n                    <p><b>Action: <em>harvest</em></b></p>\n                    <p>This is the bee that you just saw.</p>\n                    <img src=\"bees-with-color/bee-A2SF.svg\" width=\"200\">\n                    <p><span class=\"greenText\"><b>Successful harvest!</b></span><br>Your pay has increased by $0.02. Your bonus pay is now $0.76.</p>\n            ","response":0,"trial_type":"html-button-response","trial_index":116,"time_elapsed":688186,"internal_node_id":"0.0-4.0-1.54","subject_id":"6151cfe3ba49dd3ad62708ee","study_id":"60edd13110225f80f9f3709b","session_id":"6196bf63846ea7c085e146ae","condition":"contingent","relevant_dimensions":["antennae","legs"],"bee_group":{"antennae":"B","wings":"X","pattern":"X","legs":"F"},"bonus":0.9000000000000009},{"rt":3375,"stimulus":"bees-with-color/bee-B1DF.svg","response":1,"trial_type":"image-button-response","trial_index":117,"time_elapsed":691562,"internal_node_id":"0.0-4.0-0.55","subject_id":"6151cfe3ba49dd3ad62708ee","study_id":"60edd13110225f80f9f3709b","session_id":"6196bf63846ea7c085e146ae","condition":"contingent","relevant_dimensions":["antennae","legs"],"bee_group":{"antennae":"B","wings":"X","pattern":"X","legs":"F"},"action":"avoid","summary":"good-avoid","bonus":0.9000000000000009},{"rt":1439,"stimulus":"\n                    <p><b>Action: <em>avoid</em></b></p>\n                    <p>This is the bee that you just saw.</p>\n                    <img src=\"bees-with-color/bee-B1DF.svg\" width=\"200\">\n                    <p><br>Your bonus pay is unchanged, and remains at $0.76.</p>\n            ","response":0,"trial_type":"html-button-response","trial_index":118,"time_elapsed":693002,"internal_node_id":"0.0-4.0-1.55","subject_id":"6151cfe3ba49dd3ad62708ee","study_id":"60edd13110225f80f9f3709b","session_id":"6196bf63846ea7c085e146ae","condition":"contingent","relevant_dimensions":["antennae","legs"],"bee_group":{"antennae":"B","wings":"X","pattern":"X","legs":"F"},"bonus":0.9000000000000009},{"rt":3352,"stimulus":"bees-with-color/bee-B1SM.svg","response":1,"trial_type":"image-button-response","trial_index":119,"time_elapsed":696354,"internal_node_id":"0.0-4.0-0.56","subject_id":"6151cfe3ba49dd3ad62708ee","study_id":"60edd13110225f80f9f3709b","session_id":"6196bf63846ea7c085e146ae","condition":"contingent","relevant_dimensions":["antennae","legs"],"bee_group":{"antennae":"B","wings":"X","pattern":"X","legs":"F"},"action":"avoid","summary":"bad-avoid","bonus":0.9000000000000009},{"rt":735,"stimulus":"\n                    <p><b>Action: <em>avoid</em></b></p>\n                    <p>This is the bee that you just saw.</p>\n                    <img src=\"bees-with-color/bee-B1SM.svg\" width=\"200\">\n                    <p><br>Your bonus pay is unchanged, and remains at $0.76.</p>\n            ","response":0,"trial_type":"html-button-response","trial_index":120,"time_elapsed":697090,"internal_node_id":"0.0-4.0-1.56","subject_id":"6151cfe3ba49dd3ad62708ee","study_id":"60edd13110225f80f9f3709b","session_id":"6196bf63846ea7c085e146ae","condition":"contingent","relevant_dimensions":["antennae","legs"],"bee_group":{"antennae":"B","wings":"X","pattern":"X","legs":"F"},"bonus":0.9000000000000009},{"rt":1143,"stimulus":"bees-with-color/bee-A1SM.svg","response":0,"trial_type":"image-button-response","trial_index":121,"time_elapsed":698234,"internal_node_id":"0.0-4.0-0.57","subject_id":"6151cfe3ba49dd3ad62708ee","study_id":"60edd13110225f80f9f3709b","session_id":"6196bf63846ea7c085e146ae","condition":"contingent","relevant_dimensions":["antennae","legs"],"bee_group":{"antennae":"B","wings":"X","pattern":"X","legs":"F"},"action":"harvest","summary":"good-harvest","bonus":0.9000000000000009},{"rt":847,"stimulus":"\n                    <p><b>Action: <em>harvest</em></b></p>\n                    <p>This is the bee that you just saw.</p>\n                    <img src=\"bees-with-color/bee-A1SM.svg\" width=\"200\">\n                    <p><span class=\"greenText\"><b>Successful harvest!</b></span><br>Your pay has increased by $0.02. Your bonus pay is now $0.78.</p>\n            ","response":0,"trial_type":"html-button-response","trial_index":122,"time_elapsed":699082,"internal_node_id":"0.0-4.0-1.57","subject_id":"6151cfe3ba49dd3ad62708ee","study_id":"60edd13110225f80f9f3709b","session_id":"6196bf63846ea7c085e146ae","condition":"contingent","relevant_dimensions":["antennae","legs"],"bee_group":{"antennae":"B","wings":"X","pattern":"X","legs":"F"},"bonus":0.9000000000000009},{"rt":2655,"stimulus":"bees-with-color/bee-B2SM.svg","response":0,"trial_type":"image-button-response","trial_index":123,"time_elapsed":701738,"internal_node_id":"0.0-4.0-0.58","subject_id":"6151cfe3ba49dd3ad62708ee","study_id":"60edd13110225f80f9f3709b","session_id":"6196bf63846ea7c085e146ae","condition":"contingent","relevant_dimensions":["antennae","legs"],"bee_group":{"antennae":"B","wings":"X","pattern":"X","legs":"F"},"action":"harvest","summary":"good-harvest","bonus":0.9000000000000009},{"rt":1335,"stimulus":"\n                    <p><b>Action: <em>harvest</em></b></p>\n                    <p>This is the bee that you just saw.</p>\n                    <img src=\"bees-with-color/bee-B2SM.svg\" width=\"200\">\n                    <p><span class=\"greenText\"><b>Successful harvest!</b></span><br>Your pay has increased by $0.02. Your bonus pay is now $0.80.</p>\n            ","response":0,"trial_type":"html-button-response","trial_index":124,"time_elapsed":703075,"internal_node_id":"0.0-4.0-1.58","subject_id":"6151cfe3ba49dd3ad62708ee","study_id":"60edd13110225f80f9f3709b","session_id":"6196bf63846ea7c085e146ae","condition":"contingent","relevant_dimensions":["antennae","legs"],"bee_group":{"antennae":"B","wings":"X","pattern":"X","legs":"F"},"bonus":0.9000000000000009},{"rt":1383,"stimulus":"bees-with-color/bee-A2DM.svg","response":0,"trial_type":"image-button-response","trial_index":125,"time_elapsed":704458,"internal_node_id":"0.0-4.0-0.59","subject_id":"6151cfe3ba49dd3ad62708ee","study_id":"60edd13110225f80f9f3709b","session_id":"6196bf63846ea7c085e146ae","condition":"contingent","relevant_dimensions":["antennae","legs"],"bee_group":{"antennae":"B","wings":"X","pattern":"X","legs":"F"},"action":"harvest","summary":"good-harvest","bonus":0.9000000000000009},{"rt":608,"stimulus":"\n                    <p><b>Action: <em>harvest</em></b></p>\n                    <p>This is the bee that you just saw.</p>\n                    <img src=\"bees-with-color/bee-A2DM.svg\" width=\"200\">\n                    <p><span class=\"greenText\"><b>Successful harvest!</b></span><br>Your pay has increased by $0.02. Your bonus pay is now $0.82.</p>\n            ","response":0,"trial_type":"html-button-response","trial_index":126,"time_elapsed":705066,"internal_node_id":"0.0-4.0-1.59","subject_id":"6151cfe3ba49dd3ad62708ee","study_id":"60edd13110225f80f9f3709b","session_id":"6196bf63846ea7c085e146ae","condition":"contingent","relevant_dimensions":["antennae","legs"],"bee_group":{"antennae":"B","wings":"X","pattern":"X","legs":"F"},"bonus":0.9000000000000009},{"rt":888,"stimulus":"bees-with-color/bee-A1SF.svg","response":0,"trial_type":"image-button-response","trial_index":127,"time_elapsed":705954,"internal_node_id":"0.0-4.0-0.60","subject_id":"6151cfe3ba49dd3ad62708ee","study_id":"60edd13110225f80f9f3709b","session_id":"6196bf63846ea7c085e146ae","condition":"contingent","relevant_dimensions":["antennae","legs"],"bee_group":{"antennae":"B","wings":"X","pattern":"X","legs":"F"},"action":"harvest","summary":"good-harvest","bonus":0.9000000000000009},{"rt":639,"stimulus":"\n                    <p><b>Action: <em>harvest</em></b></p>\n                    <p>This is the bee that you just saw.</p>\n                    <img src=\"bees-with-color/bee-A1SF.svg\" width=\"200\">\n                    <p><span class=\"greenText\"><b>Successful harvest!</b></span><br>Your pay has increased by $0.02. Your bonus pay is now $0.84.</p>\n            ","response":0,"trial_type":"html-button-response","trial_index":128,"time_elapsed":706595,"internal_node_id":"0.0-4.0-1.60","subject_id":"6151cfe3ba49dd3ad62708ee","study_id":"60edd13110225f80f9f3709b","session_id":"6196bf63846ea7c085e146ae","condition":"contingent","relevant_dimensions":["antennae","legs"],"bee_group":{"antennae":"B","wings":"X","pattern":"X","legs":"F"},"bonus":0.9000000000000009},{"rt":1295,"stimulus":"bees-with-color/bee-B1SF.svg","response":1,"trial_type":"image-button-response","trial_index":129,"time_elapsed":707890,"internal_node_id":"0.0-4.0-0.61","subject_id":"6151cfe3ba49dd3ad62708ee","study_id":"60edd13110225f80f9f3709b","session_id":"6196bf63846ea7c085e146ae","condition":"contingent","relevant_dimensions":["antennae","legs"],"bee_group":{"antennae":"B","wings":"X","pattern":"X","legs":"F"},"action":"avoid","summary":"good-avoid","bonus":0.9000000000000009},{"rt":847,"stimulus":"\n                    <p><b>Action: <em>avoid</em></b></p>\n                    <p>This is the bee that you just saw.</p>\n                    <img src=\"bees-with-color/bee-B1SF.svg\" width=\"200\">\n                    <p><br>Your bonus pay is unchanged, and remains at $0.84.</p>\n            ","response":0,"trial_type":"html-button-response","trial_index":130,"time_elapsed":708738,"internal_node_id":"0.0-4.0-1.61","subject_id":"6151cfe3ba49dd3ad62708ee","study_id":"60edd13110225f80f9f3709b","session_id":"6196bf63846ea7c085e146ae","condition":"contingent","relevant_dimensions":["antennae","legs"],"bee_group":{"antennae":"B","wings":"X","pattern":"X","legs":"F"},"bonus":0.9000000000000009},{"rt":903,"stimulus":"bees-with-color/bee-B2DF.svg","response":1,"trial_type":"image-button-response","trial_index":131,"time_elapsed":709642,"internal_node_id":"0.0-4.0-0.62","subject_id":"6151cfe3ba49dd3ad62708ee","study_id":"60edd13110225f80f9f3709b","session_id":"6196bf63846ea7c085e146ae","condition":"contingent","relevant_dimensions":["antennae","legs"],"bee_group":{"antennae":"B","wings":"X","pattern":"X","legs":"F"},"action":"avoid","summary":"good-avoid","bonus":0.9000000000000009},{"rt":655,"stimulus":"\n                    <p><b>Action: <em>avoid</em></b></p>\n                    <p>This is the bee that you just saw.</p>\n                    <img src=\"bees-with-color/bee-B2DF.svg\" width=\"200\">\n                    <p><br>Your bonus pay is unchanged, and remains at $0.84.</p>\n            ","response":0,"trial_type":"html-button-response","trial_index":132,"time_elapsed":710298,"internal_node_id":"0.0-4.0-1.62","subject_id":"6151cfe3ba49dd3ad62708ee","study_id":"60edd13110225f80f9f3709b","session_id":"6196bf63846ea7c085e146ae","condition":"contingent","relevant_dimensions":["antennae","legs"],"bee_group":{"antennae":"B","wings":"X","pattern":"X","legs":"F"},"bonus":0.9000000000000009},{"rt":1503,"stimulus":"bees-with-color/bee-B2DM.svg","response":0,"trial_type":"image-button-response","trial_index":133,"time_elapsed":711803,"internal_node_id":"0.0-4.0-0.63","subject_id":"6151cfe3ba49dd3ad62708ee","study_id":"60edd13110225f80f9f3709b","session_id":"6196bf63846ea7c085e146ae","condition":"contingent","relevant_dimensions":["antennae","legs"],"bee_group":{"antennae":"B","wings":"X","pattern":"X","legs":"F"},"action":"harvest","summary":"good-harvest","bonus":0.9000000000000009},{"rt":767,"stimulus":"\n                    <p><b>Action: <em>harvest</em></b></p>\n                    <p>This is the bee that you just saw.</p>\n                    <img src=\"bees-with-color/bee-B2DM.svg\" width=\"200\">\n                    <p><span class=\"greenText\"><b>Successful harvest!</b></span><br>Your pay has increased by $0.02. Your bonus pay is now $0.86.</p>\n            ","response":0,"trial_type":"html-button-response","trial_index":134,"time_elapsed":712570,"internal_node_id":"0.0-4.0-1.63","subject_id":"6151cfe3ba49dd3ad62708ee","study_id":"60edd13110225f80f9f3709b","session_id":"6196bf63846ea7c085e146ae","condition":"contingent","relevant_dimensions":["antennae","legs"],"bee_group":{"antennae":"B","wings":"X","pattern":"X","legs":"F"},"bonus":0.9000000000000009},{"rt":11392,"stimulus":"You have completed the first part of this experiment.<br><br>You will now begin a shorter second part, in which you will receive no feedback.<br>The same rules regarding bonus pay apply.<br><br>Press any key to begin.","response":" ","trial_type":"html-keyboard-response","trial_index":135,"time_elapsed":723962,"internal_node_id":"0.0-5.0","subject_id":"6151cfe3ba49dd3ad62708ee","study_id":"60edd13110225f80f9f3709b","session_id":"6196bf63846ea7c085e146ae","condition":"contingent","relevant_dimensions":["antennae","legs"],"bee_group":{"antennae":"B","wings":"X","pattern":"X","legs":"F"},"bonus":0.9000000000000009},{"rt":6631,"stimulus":"bees-with-color/bee-B2SM.svg","response":0,"trial_type":"image-button-response","trial_index":136,"time_elapsed":730594,"internal_node_id":"0.0-6.0-0.0","subject_id":"6151cfe3ba49dd3ad62708ee","study_id":"60edd13110225f80f9f3709b","session_id":"6196bf63846ea7c085e146ae","condition":"contingent","relevant_dimensions":["antennae","legs"],"bee_group":{"antennae":"B","wings":"X","pattern":"X","legs":"F"},"bonus":0.9000000000000009},{"rt":5630,"stimulus":"bees-with-color/bee-A1DF.svg","response":1,"trial_type":"image-button-response","trial_index":137,"time_elapsed":736226,"internal_node_id":"0.0-6.0-0.1","subject_id":"6151cfe3ba49dd3ad62708ee","study_id":"60edd13110225f80f9f3709b","session_id":"6196bf63846ea7c085e146ae","condition":"contingent","relevant_dimensions":["antennae","legs"],"bee_group":{"antennae":"B","wings":"X","pattern":"X","legs":"F"},"bonus":0.9000000000000009},{"rt":6528,"stimulus":"bees-with-color/bee-B2DM.svg","response":1,"trial_type":"image-button-response","trial_index":138,"time_elapsed":742754,"internal_node_id":"0.0-6.0-0.2","subject_id":"6151cfe3ba49dd3ad62708ee","study_id":"60edd13110225f80f9f3709b","session_id":"6196bf63846ea7c085e146ae","condition":"contingent","relevant_dimensions":["antennae","legs"],"bee_group":{"antennae":"B","wings":"X","pattern":"X","legs":"F"},"bonus":0.9000000000000009},{"rt":551,"stimulus":"bees-with-color/bee-B2DF.svg","response":1,"trial_type":"image-button-response","trial_index":139,"time_elapsed":743306,"internal_node_id":"0.0-6.0-0.3","subject_id":"6151cfe3ba49dd3ad62708ee","study_id":"60edd13110225f80f9f3709b","session_id":"6196bf63846ea7c085e146ae","condition":"contingent","relevant_dimensions":["antennae","legs"],"bee_group":{"antennae":"B","wings":"X","pattern":"X","legs":"F"},"bonus":0.9000000000000009},{"rt":231,"stimulus":"bees-with-color/bee-A2DM.svg","response":1,"trial_type":"image-button-response","trial_index":140,"time_elapsed":743538,"internal_node_id":"0.0-6.0-0.4","subject_id":"6151cfe3ba49dd3ad62708ee","study_id":"60edd13110225f80f9f3709b","session_id":"6196bf63846ea7c085e146ae","condition":"contingent","relevant_dimensions":["antennae","legs"],"bee_group":{"antennae":"B","wings":"X","pattern":"X","legs":"F"},"bonus":0.9000000000000009},{"rt":183,"stimulus":"bees-with-color/bee-B1SF.svg","response":1,"trial_type":"image-button-response","trial_index":141,"time_elapsed":743723,"internal_node_id":"0.0-6.0-0.5","subject_id":"6151cfe3ba49dd3ad62708ee","study_id":"60edd13110225f80f9f3709b","session_id":"6196bf63846ea7c085e146ae","condition":"contingent","relevant_dimensions":["antennae","legs"],"bee_group":{"antennae":"B","wings":"X","pattern":"X","legs":"F"},"bonus":0.9000000000000009},{"rt":214,"stimulus":"bees-with-color/bee-A2DF.svg","response":1,"trial_type":"image-button-response","trial_index":142,"time_elapsed":743938,"internal_node_id":"0.0-6.0-0.6","subject_id":"6151cfe3ba49dd3ad62708ee","study_id":"60edd13110225f80f9f3709b","session_id":"6196bf63846ea7c085e146ae","condition":"contingent","relevant_dimensions":["antennae","legs"],"bee_group":{"antennae":"B","wings":"X","pattern":"X","legs":"F"},"bonus":0.9000000000000009},{"rt":494,"stimulus":"bees-with-color/bee-B1SM.svg","response":1,"trial_type":"image-button-response","trial_index":143,"time_elapsed":744435,"internal_node_id":"0.0-6.0-0.7","subject_id":"6151cfe3ba49dd3ad62708ee","study_id":"60edd13110225f80f9f3709b","session_id":"6196bf63846ea7c085e146ae","condition":"contingent","relevant_dimensions":["antennae","legs"],"bee_group":{"antennae":"B","wings":"X","pattern":"X","legs":"F"},"bonus":0.9000000000000009},{"rt":967,"stimulus":"bees-with-color/bee-A1SM.svg","response":1,"trial_type":"image-button-response","trial_index":144,"time_elapsed":745402,"internal_node_id":"0.0-6.0-0.8","subject_id":"6151cfe3ba49dd3ad62708ee","study_id":"60edd13110225f80f9f3709b","session_id":"6196bf63846ea7c085e146ae","condition":"contingent","relevant_dimensions":["antennae","legs"],"bee_group":{"antennae":"B","wings":"X","pattern":"X","legs":"F"},"bonus":0.9000000000000009},{"rt":1726,"stimulus":"bees-with-color/bee-A1DM.svg","response":0,"trial_type":"image-button-response","trial_index":145,"time_elapsed":747130,"internal_node_id":"0.0-6.0-0.9","subject_id":"6151cfe3ba49dd3ad62708ee","study_id":"60edd13110225f80f9f3709b","session_id":"6196bf63846ea7c085e146ae","condition":"contingent","relevant_dimensions":["antennae","legs"],"bee_group":{"antennae":"B","wings":"X","pattern":"X","legs":"F"},"bonus":0.9000000000000009},{"rt":448,"stimulus":"bees-with-color/bee-A1SF.svg","response":1,"trial_type":"image-button-response","trial_index":146,"time_elapsed":747578,"internal_node_id":"0.0-6.0-0.10","subject_id":"6151cfe3ba49dd3ad62708ee","study_id":"60edd13110225f80f9f3709b","session_id":"6196bf63846ea7c085e146ae","condition":"contingent","relevant_dimensions":["antennae","legs"],"bee_group":{"antennae":"B","wings":"X","pattern":"X","legs":"F"},"bonus":0.9000000000000009},{"rt":175,"stimulus":"bees-with-color/bee-B2SF.svg","response":1,"trial_type":"image-button-response","trial_index":147,"time_elapsed":747755,"internal_node_id":"0.0-6.0-0.11","subject_id":"6151cfe3ba49dd3ad62708ee","study_id":"60edd13110225f80f9f3709b","session_id":"6196bf63846ea7c085e146ae","condition":"contingent","relevant_dimensions":["antennae","legs"],"bee_group":{"antennae":"B","wings":"X","pattern":"X","legs":"F"},"bonus":0.9000000000000009},{"rt":159,"stimulus":"bees-with-color/bee-A2SF.svg","response":1,"trial_type":"image-button-response","trial_index":148,"time_elapsed":747915,"internal_node_id":"0.0-6.0-0.12","subject_id":"6151cfe3ba49dd3ad62708ee","study_id":"60edd13110225f80f9f3709b","session_id":"6196bf63846ea7c085e146ae","condition":"contingent","relevant_dimensions":["antennae","legs"],"bee_group":{"antennae":"B","wings":"X","pattern":"X","legs":"F"},"bonus":0.9000000000000009},{"rt":175,"stimulus":"bees-with-color/bee-B1DF.svg","response":1,"trial_type":"image-button-response","trial_index":149,"time_elapsed":748090,"internal_node_id":"0.0-6.0-0.13","subject_id":"6151cfe3ba49dd3ad62708ee","study_id":"60edd13110225f80f9f3709b","session_id":"6196bf63846ea7c085e146ae","condition":"contingent","relevant_dimensions":["antennae","legs"],"bee_group":{"antennae":"B","wings":"X","pattern":"X","legs":"F"},"bonus":0.9000000000000009},{"rt":167,"stimulus":"bees-with-color/bee-A2SM.svg","response":1,"trial_type":"image-button-response","trial_index":150,"time_elapsed":748259,"internal_node_id":"0.0-6.0-0.14","subject_id":"6151cfe3ba49dd3ad62708ee","study_id":"60edd13110225f80f9f3709b","session_id":"6196bf63846ea7c085e146ae","condition":"contingent","relevant_dimensions":["antennae","legs"],"bee_group":{"antennae":"B","wings":"X","pattern":"X","legs":"F"},"bonus":0.9000000000000009},{"rt":151,"stimulus":"bees-with-color/bee-B1DM.svg","response":1,"trial_type":"image-button-response","trial_index":151,"time_elapsed":748410,"internal_node_id":"0.0-6.0-0.15","subject_id":"6151cfe3ba49dd3ad62708ee","study_id":"60edd13110225f80f9f3709b","session_id":"6196bf63846ea7c085e146ae","condition":"contingent","relevant_dimensions":["antennae","legs"],"bee_group":{"antennae":"B","wings":"X","pattern":"X","legs":"F"},"bonus":0.9000000000000009},{"rt":167,"stimulus":"bees-with-color/bee-A1SF.svg","response":1,"trial_type":"image-button-response","trial_index":152,"time_elapsed":748578,"internal_node_id":"0.0-6.0-0.16","subject_id":"6151cfe3ba49dd3ad62708ee","study_id":"60edd13110225f80f9f3709b","session_id":"6196bf63846ea7c085e146ae","condition":"contingent","relevant_dimensions":["antennae","legs"],"bee_group":{"antennae":"B","wings":"X","pattern":"X","legs":"F"},"bonus":0.9000000000000009},{"rt":175,"stimulus":"bees-with-color/bee-B1DM.svg","response":1,"trial_type":"image-button-response","trial_index":153,"time_elapsed":748755,"internal_node_id":"0.0-6.0-0.17","subject_id":"6151cfe3ba49dd3ad62708ee","study_id":"60edd13110225f80f9f3709b","session_id":"6196bf63846ea7c085e146ae","condition":"contingent","relevant_dimensions":["antennae","legs"],"bee_group":{"antennae":"B","wings":"X","pattern":"X","legs":"F"},"bonus":0.9000000000000009},{"rt":183,"stimulus":"bees-with-color/bee-A2DF.svg","response":1,"trial_type":"image-button-response","trial_index":154,"time_elapsed":748939,"internal_node_id":"0.0-6.0-0.18","subject_id":"6151cfe3ba49dd3ad62708ee","study_id":"60edd13110225f80f9f3709b","session_id":"6196bf63846ea7c085e146ae","condition":"contingent","relevant_dimensions":["antennae","legs"],"bee_group":{"antennae":"B","wings":"X","pattern":"X","legs":"F"},"bonus":0.9000000000000009},{"rt":182,"stimulus":"bees-with-color/bee-B1SM.svg","response":1,"trial_type":"image-button-response","trial_index":155,"time_elapsed":749123,"internal_node_id":"0.0-6.0-0.19","subject_id":"6151cfe3ba49dd3ad62708ee","study_id":"60edd13110225f80f9f3709b","session_id":"6196bf63846ea7c085e146ae","condition":"contingent","relevant_dimensions":["antennae","legs"],"bee_group":{"antennae":"B","wings":"X","pattern":"X","legs":"F"},"bonus":0.9000000000000009},{"rt":176,"stimulus":"bees-with-color/bee-B2SF.svg","response":1,"trial_type":"image-button-response","trial_index":156,"time_elapsed":749299,"internal_node_id":"0.0-6.0-0.20","subject_id":"6151cfe3ba49dd3ad62708ee","study_id":"60edd13110225f80f9f3709b","session_id":"6196bf63846ea7c085e146ae","condition":"contingent","relevant_dimensions":["antennae","legs"],"bee_group":{"antennae":"B","wings":"X","pattern":"X","legs":"F"},"bonus":0.9000000000000009},{"rt":174,"stimulus":"bees-with-color/bee-B2DF.svg","response":1,"trial_type":"image-button-response","trial_index":157,"time_elapsed":749474,"internal_node_id":"0.0-6.0-0.21","subject_id":"6151cfe3ba49dd3ad62708ee","study_id":"60edd13110225f80f9f3709b","session_id":"6196bf63846ea7c085e146ae","condition":"contingent","relevant_dimensions":["antennae","legs"],"bee_group":{"antennae":"B","wings":"X","pattern":"X","legs":"F"},"bonus":0.9000000000000009},{"rt":270,"stimulus":"bees-with-color/bee-A2DM.svg","response":1,"trial_type":"image-button-response","trial_index":158,"time_elapsed":749746,"internal_node_id":"0.0-6.0-0.22","subject_id":"6151cfe3ba49dd3ad62708ee","study_id":"60edd13110225f80f9f3709b","session_id":"6196bf63846ea7c085e146ae","condition":"contingent","relevant_dimensions":["antennae","legs"],"bee_group":{"antennae":"B","wings":"X","pattern":"X","legs":"F"},"bonus":0.9000000000000009},{"rt":239,"stimulus":"bees-with-color/bee-A2SF.svg","response":1,"trial_type":"image-button-response","trial_index":159,"time_elapsed":749987,"internal_node_id":"0.0-6.0-0.23","subject_id":"6151cfe3ba49dd3ad62708ee","study_id":"60edd13110225f80f9f3709b","session_id":"6196bf63846ea7c085e146ae","condition":"contingent","relevant_dimensions":["antennae","legs"],"bee_group":{"antennae":"B","wings":"X","pattern":"X","legs":"F"},"bonus":0.9000000000000009},{"rt":247,"stimulus":"bees-with-color/bee-A1DM.svg","response":1,"trial_type":"image-button-response","trial_index":160,"time_elapsed":750234,"internal_node_id":"0.0-6.0-0.24","subject_id":"6151cfe3ba49dd3ad62708ee","study_id":"60edd13110225f80f9f3709b","session_id":"6196bf63846ea7c085e146ae","condition":"contingent","relevant_dimensions":["antennae","legs"],"bee_group":{"antennae":"B","wings":"X","pattern":"X","legs":"F"},"bonus":0.9000000000000009},{"rt":247,"stimulus":"bees-with-color/bee-B1DF.svg","response":1,"trial_type":"image-button-response","trial_index":161,"time_elapsed":750483,"internal_node_id":"0.0-6.0-0.25","subject_id":"6151cfe3ba49dd3ad62708ee","study_id":"60edd13110225f80f9f3709b","session_id":"6196bf63846ea7c085e146ae","condition":"contingent","relevant_dimensions":["antennae","legs"],"bee_group":{"antennae":"B","wings":"X","pattern":"X","legs":"F"},"bonus":0.9000000000000009},{"rt":216,"stimulus":"bees-with-color/bee-B2SM.svg","response":1,"trial_type":"image-button-response","trial_index":162,"time_elapsed":750699,"internal_node_id":"0.0-6.0-0.26","subject_id":"6151cfe3ba49dd3ad62708ee","study_id":"60edd13110225f80f9f3709b","session_id":"6196bf63846ea7c085e146ae","condition":"contingent","relevant_dimensions":["antennae","legs"],"bee_group":{"antennae":"B","wings":"X","pattern":"X","legs":"F"},"bonus":0.9000000000000009},{"rt":222,"stimulus":"bees-with-color/bee-B1SF.svg","response":1,"trial_type":"image-button-response","trial_index":163,"time_elapsed":750922,"internal_node_id":"0.0-6.0-0.27","subject_id":"6151cfe3ba49dd3ad62708ee","study_id":"60edd13110225f80f9f3709b","session_id":"6196bf63846ea7c085e146ae","condition":"contingent","relevant_dimensions":["antennae","legs"],"bee_group":{"antennae":"B","wings":"X","pattern":"X","legs":"F"},"bonus":0.9000000000000009},{"rt":238,"stimulus":"bees-with-color/bee-A1DF.svg","response":1,"trial_type":"image-button-response","trial_index":164,"time_elapsed":751162,"internal_node_id":"0.0-6.0-0.28","subject_id":"6151cfe3ba49dd3ad62708ee","study_id":"60edd13110225f80f9f3709b","session_id":"6196bf63846ea7c085e146ae","condition":"contingent","relevant_dimensions":["antennae","legs"],"bee_group":{"antennae":"B","wings":"X","pattern":"X","legs":"F"},"bonus":0.9000000000000009},{"rt":231,"stimulus":"bees-with-color/bee-B2DM.svg","response":1,"trial_type":"image-button-response","trial_index":165,"time_elapsed":751395,"internal_node_id":"0.0-6.0-0.29","subject_id":"6151cfe3ba49dd3ad62708ee","study_id":"60edd13110225f80f9f3709b","session_id":"6196bf63846ea7c085e146ae","condition":"contingent","relevant_dimensions":["antennae","legs"],"bee_group":{"antennae":"B","wings":"X","pattern":"X","legs":"F"},"bonus":0.9000000000000009},{"rt":206,"stimulus":"bees-with-color/bee-A2SM.svg","response":1,"trial_type":"image-button-response","trial_index":166,"time_elapsed":751603,"internal_node_id":"0.0-6.0-0.30","subject_id":"6151cfe3ba49dd3ad62708