[{"success":true,"trial_type":"fullscreen","trial_index":0,"time_elapsed":5409,"internal_node_id":"0.0-0.0","subject_id":"61703fdd71715e01647e8aae","study_id":"60edd13110225f80f9f3709b","session_id":"6196c701aa85b596f57e1a34","condition":"contingent","relevant_dimensions":["wings","pattern"],"bee_group":{"antennae":"X","wings":"2","pattern":"S","legs":"X"},"bonus":1.7800000000000014},{"success":true,"timeout":false,"failed_images":[],"failed_audio":[],"failed_video":[],"trial_type":"preload","trial_index":1,"time_elapsed":7300,"internal_node_id":"0.0-1.0","subject_id":"61703fdd71715e01647e8aae","study_id":"60edd13110225f80f9f3709b","session_id":"6196c701aa85b596f57e1a34","condition":"contingent","relevant_dimensions":["wings","pattern"],"bee_group":{"antennae":"X","wings":"2","pattern":"S","legs":"X"},"bonus":1.7800000000000014},{"rt":1752.9000000357628,"stimulus":"Welcome! Press any key to begin.","response":" ","trial_type":"html-keyboard-response","trial_index":2,"time_elapsed":9054,"internal_node_id":"0.0-2.0","subject_id":"61703fdd71715e01647e8aae","study_id":"60edd13110225f80f9f3709b","session_id":"6196c701aa85b596f57e1a34","condition":"contingent","relevant_dimensions":["wings","pattern"],"bee_group":{"antennae":"X","wings":"2","pattern":"S","legs":"X"},"bonus":1.7800000000000014},{"view_history":[{"page_index":0,"viewing_time":4861.600000023842},{"page_index":1,"viewing_time":12025.099999964237},{"page_index":2,"viewing_time":12143.900000035763},{"page_index":3,"viewing_time":21849.30000001192},{"page_index":4,"viewing_time":6925.799999952316},{"page_index":5,"viewing_time":13994.900000035763},{"page_index":6,"viewing_time":10912.899999976158},{"page_index":7,"viewing_time":8199.300000011921},{"page_index":8,"viewing_time":10992.399999976158},{"page_index":9,"viewing_time":14517.700000047684},{"page_index":10,"viewing_time":3270.7999999523163},{"page_index":11,"viewing_time":9575.800000011921},{"page_index":12,"viewing_time":9484.100000023842},{"page_index":13,"viewing_time":1699.5},{"page_index":14,"viewing_time":1737.0999999642372}],"rt":142190.60000002384,"trial_type":"instructions","trial_index":3,"time_elapsed":151246,"internal_node_id":"0.0-3.0-0.0","subject_id":"61703fdd71715e01647e8aae","study_id":"60edd13110225f80f9f3709b","session_id":"6196c701aa85b596f57e1a34","condition":"contingent","relevant_dimensions":["wings","pattern"],"bee_group":{"antennae":"X","wings":"2","pattern":"S","legs":"X"},"bonus":1.7800000000000014},{"rt":14563.100000023842,"response":{"Q0":["Two or six legs","Stripes or spots on body","Single or double wings","Antennae or no antennae"]},"question_order":[0],"trial_type":"survey-multi-select","trial_index":4,"time_elapsed":165813,"internal_node_id":"0.0-3.0-1.0","subject_id":"61703fdd71715e01647e8aae","study_id":"60edd13110225f80f9f3709b","session_id":"6196c701aa85b596f57e1a34","condition":"contingent","relevant_dimensions":["wings","pattern"],"bee_group":{"antennae":"X","wings":"2","pattern":"S","legs":"X"},"correct":true,"bonus":1.7800000000000014},{"rt":58309.80000001192,"response":{"Q1":"No.","Q2":"Based on the four features of the bee.","Q3":"You do not learn if it was friendly or dangerous, and do not alter your bonus."},"question_order":[0,1,2],"trial_type":"survey-multi-choice","trial_index":5,"time_elapsed":224126,"internal_node_id":"0.0-3.0-2.0","subject_id":"61703fdd71715e01647e8aae","study_id":"60edd13110225f80f9f3709b","session_id":"6196c701aa85b596f57e1a34","condition":"contingent","relevant_dimensions":["wings","pattern"],"bee_group":{"antennae":"X","wings":"2","pattern":"S","legs":"X"},"correct":true,"bonus":1.7800000000000014},{"rt":4342,"stimulus":"<p>Congrats, you got everything right<br>When you're ready, click the button below to continue to the experiment.</p>","response":0,"trial_type":"html-button-response","trial_index":6,"time_elapsed":228471,"internal_node_id":"0.0-3.0-3.0","subject_id":"61703fdd71715e01647e8aae","study_id":"60edd13110225f80f9f3709b","session_id":"6196c701aa85b596f57e1a34","condition":"contingent","relevant_dimensions":["wings","pattern"],"bee_group":{"antennae":"X","wings":"2","pattern":"S","legs":"X"},"bonus":1.7800000000000014},{"rt":8598.300000011921,"stimulus":"bees-with-color/bee-B1SF.svg","response":0,"trial_type":"image-button-response","trial_index":7,"time_elapsed":237072,"internal_node_id":"0.0-4.0-0.0","subject_id":"61703fdd71715e01647e8aae","study_id":"60edd13110225f80f9f3709b","session_id":"6196c701aa85b596f57e1a34","condition":"contingent","relevant_dimensions":["wings","pattern"],"bee_group":{"antennae":"X","wings":"2","pattern":"S","legs":"X"},"action":"harvest","summary":"good-harvest","bonus":1.7800000000000014},{"rt":12794,"stimulus":"\n                    <p><b>Action: <em>harvest</em></b></p>\n                    <p>This is the bee that you just saw.</p>\n                    <img src=\"bees-with-color/bee-B1SF.svg\" width=\"200\">\n                    <p><span class=\"greenText\"><b>Successful harvest!</b></span><br>Your pay has increased by $0.02. Your bonus pay is now $0.56.</p>\n            ","response":0,"trial_type":"html-button-response","trial_index":8,"time_elapsed":249870,"internal_node_id":"0.0-4.0-1.0","subject_id":"61703fdd71715e01647e8aae","study_id":"60edd13110225f80f9f3709b","session_id":"6196c701aa85b596f57e1a34","condition":"contingent","relevant_dimensions":["wings","pattern"],"bee_group":{"antennae":"X","wings":"2","pattern":"S","legs":"X"},"bonus":1.7800000000000014},{"rt":4511.699999988079,"stimulus":"bees-with-color/bee-B2SF.svg","response":0,"trial_type":"image-button-response","trial_index":9,"time_elapsed":254384,"internal_node_id":"0.0-4.0-0.1","subject_id":"61703fdd71715e01647e8aae","study_id":"60edd13110225f80f9f3709b","session_id":"6196c701aa85b596f57e1a34","condition":"contingent","relevant_dimensions":["wings","pattern"],"bee_group":{"antennae":"X","wings":"2","pattern":"S","legs":"X"},"action":"harvest","summary":"bad-harvest","bonus":1.7800000000000014},{"rt":6005.600000023842,"stimulus":"\n                    <p><b>Action: <em>harvest</em></b></p>\n                    <p>This is the bee that you just saw.</p>\n                    <img src=\"bees-with-color/bee-B2SF.svg\" width=\"200\">\n                    <p><span class=\"redText\">Bad choice, the bee was angry.</span><br><b>You have been stung!</b><br>Your pay has been decreased by $0.10. Your bonus pay is now $0.46.</p>\n            ","response":0,"trial_type":"html-button-response","trial_index":10,"time_elapsed":260392,"internal_node_id":"0.0-4.0-1.1","subject_id":"61703fdd71715e01647e8aae","study_id":"60edd13110225f80f9f3709b","session_id":"6196c701aa85b596f57e1a34","condition":"contingent","relevant_dimensions":["wings","pattern"],"bee_group":{"antennae":"X","wings":"2","pattern":"S","legs":"X"},"bonus":1.7800000000000014},{"rt":4321.5,"stimulus":"bees-with-color/bee-A2DM.svg","response":0,"trial_type":"image-button-response","trial_index":11,"time_elapsed":264716,"internal_node_id":"0.0-4.0-0.2","subject_id":"61703fdd71715e01647e8aae","study_id":"60edd13110225f80f9f3709b","session_id":"6196c701aa85b596f57e1a34","condition":"contingent","relevant_dimensions":["wings","pattern"],"bee_group":{"antennae":"X","wings":"2","pattern":"S","legs":"X"},"action":"harvest","summary":"good-harvest","bonus":1.7800000000000014},{"rt":38280.09999996424,"stimulus":"\n                    <p><b>Action: <em>harvest</em></b></p>\n                    <p>This is the bee that you just saw.</p>\n                    <img src=\"bees-with-color/bee-A2DM.svg\" width=\"200\">\n                    <p><span class=\"greenText\"><b>Successful harvest!</b></span><br>Your pay has increased by $0.02. Your bonus pay is now $0.48.</p>\n            ","response":0,"trial_type":"html-button-response","trial_index":12,"time_elapsed":303000,"internal_node_id":"0.0-4.0-1.2","subject_id":"61703fdd71715e01647e8aae","study_id":"60edd13110225f80f9f3709b","session_id":"6196c701aa85b596f57e1a34","condition":"contingent","relevant_dimensions":["wings","pattern"],"bee_group":{"antennae":"X","wings":"2","pattern":"S","legs":"X"},"bonus":1.7800000000000014},{"rt":2124.7999999523163,"stimulus":"bees-with-color/bee-B2DF.svg","response":0,"trial_type":"image-button-response","trial_index":13,"time_elapsed":305127,"internal_node_id":"0.0-4.0-0.3","subject_id":"61703fdd71715e01647e8aae","study_id":"60edd13110225f80f9f3709b","session_id":"6196c701aa85b596f57e1a34","condition":"contingent","relevant_dimensions":["wings","pattern"],"bee_group":{"antennae":"X","wings":"2","pattern":"S","legs":"X"},"action":"harvest","summary":"good-harvest","bonus":1.7800000000000014},{"rt":15726,"stimulus":"\n                    <p><b>Action: <em>harvest</em></b></p>\n                    <p>This is the bee that you just saw.</p>\n                    <img src=\"bees-with-color/bee-B2DF.svg\" width=\"200\">\n                    <p><span class=\"greenText\"><b>Successful harvest!</b></span><br>Your pay has increased by $0.02. Your bonus pay is now $0.50.</p>\n            ","response":0,"trial_type":"html-button-response","trial_index":14,"time_elapsed":320854,"internal_node_id":"0.0-4.0-1.3","subject_id":"61703fdd71715e01647e8aae","study_id":"60edd13110225f80f9f3709b","session_id":"6196c701aa85b596f57e1a34","condition":"contingent","relevant_dimensions":["wings","pattern"],"bee_group":{"antennae":"X","wings":"2","pattern":"S","legs":"X"},"bonus":1.7800000000000014},{"rt":2791.800000011921,"stimulus":"bees-with-color/bee-A1DF.svg","response":0,"trial_type":"image-button-response","trial_index":15,"time_elapsed":323649,"internal_node_id":"0.0-4.0-0.4","subject_id":"61703fdd71715e01647e8aae","study_id":"60edd13110225f80f9f3709b","session_id":"6196c701aa85b596f57e1a34","condition":"contingent","relevant_dimensions":["wings","pattern"],"bee_group":{"antennae":"X","wings":"2","pattern":"S","legs":"X"},"action":"harvest","summary":"good-harvest","bonus":1.7800000000000014},{"rt":5277.200000047684,"stimulus":"\n                    <p><b>Action: <em>harvest</em></b></p>\n                    <p>This is the bee that you just saw.</p>\n                    <img src=\"bees-with-color/bee-A1DF.svg\" width=\"200\">\n                    <p><span class=\"greenText\"><b>Successful harvest!</b></span><br>Your pay has increased by $0.02. Your bonus pay is now $0.52.</p>\n            ","response":0,"trial_type":"html-button-response","trial_index":16,"time_elapsed":328928,"internal_node_id":"0.0-4.0-1.4","subject_id":"61703fdd71715e01647e8aae","study_id":"60edd13110225f80f9f3709b","session_id":"6196c701aa85b596f57e1a34","condition":"contingent","relevant_dimensions":["wings","pattern"],"bee_group":{"antennae":"X","wings":"2","pattern":"S","legs":"X"},"bonus":1.7800000000000014},{"rt":6137.700000047684,"stimulus":"bees-with-color/bee-B2SM.svg","response":0,"trial_type":"image-button-response","trial_index":17,"time_elapsed":335068,"internal_node_id":"0.0-4.0-0.5","subject_id":"61703fdd71715e01647e8aae","study_id":"60edd13110225f80f9f3709b","session_id":"6196c701aa85b596f57e1a34","condition":"contingent","relevant_dimensions":["wings","pattern"],"bee_group":{"antennae":"X","wings":"2","pattern":"S","legs":"X"},"action":"harvest","summary":"bad-harvest","bonus":1.7800000000000014},{"rt":3517.7000000476837,"stimulus":"\n                    <p><b>Action: <em>harvest</em></b></p>\n                    <p>This is the bee that you just saw.</p>\n                    <img src=\"bees-with-color/bee-B2SM.svg\" width=\"200\">\n                    <p><span class=\"redText\">Bad choice, the bee was angry.</span><br><b>You have been stung!</b><br>Your pay has been decreased by $0.10. Your bonus pay is now $0.42.</p>\n            ","response":0,"trial_type":"html-button-response","trial_index":18,"time_elapsed":338587,"internal_node_id":"0.0-4.0-1.5","subject_id":"61703fdd71715e01647e8aae","study_id":"60edd13110225f80f9f3709b","session_id":"6196c701aa85b596f57e1a34","condition":"contingent","relevant_dimensions":["wings","pattern"],"bee_group":{"antennae":"X","wings":"2","pattern":"S","legs":"X"},"bonus":1.7800000000000014},{"rt":1625.699999988079,"stimulus":"bees-with-color/bee-A1DM.svg","response":0,"trial_type":"image-button-response","trial_index":19,"time_elapsed":340215,"internal_node_id":"0.0-4.0-0.6","subject_id":"61703fdd71715e01647e8aae","study_id":"60edd13110225f80f9f3709b","session_id":"6196c701aa85b596f57e1a34","condition":"contingent","relevant_dimensions":["wings","pattern"],"bee_group":{"antennae":"X","wings":"2","pattern":"S","legs":"X"},"action":"harvest","summary":"good-harvest","bonus":1.7800000000000014},{"rt":1351.9000000357628,"stimulus":"\n                    <p><b>Action: <em>harvest</em></b></p>\n                    <p>This is the bee that you just saw.</p>\n                    <img src=\"bees-with-color/bee-A1DM.svg\" width=\"200\">\n                    <p><span class=\"greenText\"><b>Successful harvest!</b></span><br>Your pay has increased by $0.02. Your bonus pay is now $0.44.</p>\n            ","response":0,"trial_type":"html-button-response","trial_index":20,"time_elapsed":341569,"internal_node_id":"0.0-4.0-1.6","subject_id":"61703fdd71715e01647e8aae","study_id":"60edd13110225f80f9f3709b","session_id":"6196c701aa85b596f57e1a34","condition":"contingent","relevant_dimensions":["wings","pattern"],"bee_group":{"antennae":"X","wings":"2","pattern":"S","legs":"X"},"bonus":1.7800000000000014},{"rt":1761.9000000357628,"stimulus":"bees-with-color/bee-A1SF.svg","response":0,"trial_type":"image-button-response","trial_index":21,"time_elapsed":343333,"internal_node_id":"0.0-4.0-0.7","subject_id":"61703fdd71715e01647e8aae","study_id":"60edd13110225f80f9f3709b","session_id":"6196c701aa85b596f57e1a34","condition":"contingent","relevant_dimensions":["wings","pattern"],"bee_group":{"antennae":"X","wings":"2","pattern":"S","legs":"X"},"action":"harvest","summary":"good-harvest","bonus":1.7800000000000014},{"rt":1200.5,"stimulus":"\n                    <p><b>Action: <em>harvest</em></b></p>\n                    <p>This is the bee that you just saw.</p>\n                    <img src=\"bees-with-color/bee-A1SF.svg\" width=\"200\">\n                    <p><span class=\"greenText\"><b>Successful harvest!</b></span><br>Your pay has increased by $0.02. Your bonus pay is now $0.46.</p>\n            ","response":0,"trial_type":"html-button-response","trial_index":22,"time_elapsed":344535,"internal_node_id":"0.0-4.0-1.7","subject_id":"61703fdd71715e01647e8aae","study_id":"60edd13110225f80f9f3709b","session_id":"6196c701aa85b596f57e1a34","condition":"contingent","relevant_dimensions":["wings","pattern"],"bee_group":{"antennae":"X","wings":"2","pattern":"S","legs":"X"},"bonus":1.7800000000000014},{"rt":1716.1000000238419,"stimulus":"bees-with-color/bee-A2DF.svg","response":0,"trial_type":"image-button-response","trial_index":23,"time_elapsed":346254,"internal_node_id":"0.0-4.0-0.8","subject_id":"61703fdd71715e01647e8aae","study_id":"60edd13110225f80f9f3709b","session_id":"6196c701aa85b596f57e1a34","condition":"contingent","relevant_dimensions":["wings","pattern"],"bee_group":{"antennae":"X","wings":"2","pattern":"S","legs":"X"},"action":"harvest","summary":"good-harvest","bonus":1.7800000000000014},{"rt":1294.300000011921,"stimulus":"\n                    <p><b>Action: <em>harvest</em></b></p>\n                    <p>This is the bee that you just saw.</p>\n                    <img src=\"bees-with-color/bee-A2DF.svg\" width=\"200\">\n                    <p><span class=\"greenText\"><b>Successful harvest!</b></span><br>Your pay has increased by $0.02. Your bonus pay is now $0.48.</p>\n            ","response":0,"trial_type":"html-button-response","trial_index":24,"time_elapsed":347550,"internal_node_id":"0.0-4.0-1.8","subject_id":"61703fdd71715e01647e8aae","study_id":"60edd13110225f80f9f3709b","session_id":"6196c701aa85b596f57e1a34","condition":"contingent","relevant_dimensions":["wings","pattern"],"bee_group":{"antennae":"X","wings":"2","pattern":"S","legs":"X"},"bonus":1.7800000000000014},{"rt":2094.899999976158,"stimulus":"bees-with-color/bee-A1SM.svg","response":0,"trial_type":"image-button-response","trial_index":25,"time_elapsed":349646,"internal_node_id":"0.0-4.0-0.9","subject_id":"61703fdd71715e01647e8aae","study_id":"60edd13110225f80f9f3709b","session_id":"6196c701aa85b596f57e1a34","condition":"contingent","relevant_dimensions":["wings","pattern"],"bee_group":{"antennae":"X","wings":"2","pattern":"S","legs":"X"},"action":"harvest","summary":"good-harvest","bonus":1.7800000000000014},{"rt":1391.699999988079,"stimulus":"\n                    <p><b>Action: <em>harvest</em></b></p>\n                    <p>This is the bee that you just saw.</p>\n                    <img src=\"bees-with-color/bee-A1SM.svg\" width=\"200\">\n                    <p><span class=\"greenText\"><b>Successful harvest!</b></span><br>Your pay has increased by $0.02. Your bonus pay is now $0.50.</p>\n            ","response":0,"trial_type":"html-button-response","trial_index":26,"time_elapsed":351039,"internal_node_id":"0.0-4.0-1.9","subject_id":"61703fdd71715e01647e8aae","study_id":"60edd13110225f80f9f3709b","session_id":"6196c701aa85b596f57e1a34","condition":"contingent","relevant_dimensions":["wings","pattern"],"bee_group":{"antennae":"X","wings":"2","pattern":"S","legs":"X"},"bonus":1.7800000000000014},{"rt":8645,"stimulus":"bees-with-color/bee-A2SM.svg","response":1,"trial_type":"image-button-response","trial_index":27,"time_elapsed":359686,"internal_node_id":"0.0-4.0-0.10","subject_id":"61703fdd71715e01647e8aae","study_id":"60edd13110225f80f9f3709b","session_id":"6196c701aa85b596f57e1a34","condition":"contingent","relevant_dimensions":["wings","pattern"],"bee_group":{"antennae":"X","wings":"2","pattern":"S","legs":"X"},"action":"avoid","summary":"good-avoid","bonus":1.7800000000000014},{"rt":2650.100000023842,"stimulus":"\n                    <p><b>Action: <em>avoid</em></b></p>\n                    <p>This is the bee that you just saw.</p>\n                    <img src=\"bees-with-color/bee-A2SM.svg\" width=\"200\">\n                    <p><br>Your bonus pay is unchanged, and remains at $0.50.</p>\n            ","response":0,"trial_type":"html-button-response","trial_index":28,"time_elapsed":362338,"internal_node_id":"0.0-4.0-1.10","subject_id":"61703fdd71715e01647e8aae","study_id":"60edd13110225f80f9f3709b","session_id":"6196c701aa85b596f57e1a34","condition":"contingent","relevant_dimensions":["wings","pattern"],"bee_group":{"antennae":"X","wings":"2","pattern":"S","legs":"X"},"bonus":1.7800000000000014},{"rt":1509.699999988079,"stimulus":"bees-with-color/bee-B1DM.svg","response":0,"trial_type":"image-button-response","trial_index":29,"time_elapsed":363850,"internal_node_id":"0.0-4.0-0.11","subject_id":"61703fdd71715e01647e8aae","study_id":"60edd13110225f80f9f3709b","session_id":"6196c701aa85b596f57e1a34","condition":"contingent","relevant_dimensions":["wings","pattern"],"bee_group":{"antennae":"X","wings":"2","pattern":"S","legs":"X"},"action":"harvest","summary":"good-harvest","bonus":1.7800000000000014},{"rt":1133.699999988079,"stimulus":"\n                    <p><b>Action: <em>harvest</em></b></p>\n                    <p>This is the bee that you just saw.</p>\n                    <img src=\"bees-with-color/bee-B1DM.svg\" width=\"200\">\n                    <p><span class=\"greenText\"><b>Successful harvest!</b></span><br>Your pay has increased by $0.02. Your bonus pay is now $0.52.</p>\n            ","response":0,"trial_type":"html-button-response","trial_index":30,"time_elapsed":364985,"internal_node_id":"0.0-4.0-1.11","subject_id":"61703fdd71715e01647e8aae","study_id":"60edd13110225f80f9f3709b","session_id":"6196c701aa85b596f57e1a34","condition":"contingent","relevant_dimensions":["wings","pattern"],"bee_group":{"antennae":"X","wings":"2","pattern":"S","legs":"X"},"bonus":1.7800000000000014},{"rt":1293.3999999761581,"stimulus":"bees-with-color/bee-B2DM.svg","response":0,"trial_type":"image-button-response","trial_index":31,"time_elapsed":366280,"internal_node_id":"0.0-4.0-0.12","subject_id":"61703fdd71715e01647e8aae","study_id":"60edd13110225f80f9f3709b","session_id":"6196c701aa85b596f57e1a34","condition":"contingent","relevant_dimensions":["wings","pattern"],"bee_group":{"antennae":"X","wings":"2","pattern":"S","legs":"X"},"action":"harvest","summary":"good-harvest","bonus":1.7800000000000014},{"rt":1784.5,"stimulus":"\n                    <p><b>Action: <em>harvest</em></b></p>\n                    <p>This is the bee that you just saw.</p>\n                    <img src=\"bees-with-color/bee-B2DM.svg\" width=\"200\">\n                    <p><span class=\"greenText\"><b>Successful harvest!</b></span><br>Your pay has increased by $0.02. Your bonus pay is now $0.54.</p>\n            ","response":0,"trial_type":"html-button-response","trial_index":32,"time_elapsed":368066,"internal_node_id":"0.0-4.0-1.12","subject_id":"61703fdd71715e01647e8aae","study_id":"60edd13110225f80f9f3709b","session_id":"6196c701aa85b596f57e1a34","condition":"contingent","relevant_dimensions":["wings","pattern"],"bee_group":{"antennae":"X","wings":"2","pattern":"S","legs":"X"},"bonus":1.7800000000000014},{"rt":1504,"stimulus":"bees-with-color/bee-B1SM.svg","response":0,"trial_type":"image-button-response","trial_index":33,"time_elapsed":369572,"internal_node_id":"0.0-4.0-0.13","subject_id":"61703fdd71715e01647e8aae","study_id":"60edd13110225f80f9f3709b","session_id":"6196c701aa85b596f57e1a34","condition":"contingent","relevant_dimensions":["wings","pattern"],"bee_group":{"antennae":"X","wings":"2","pattern":"S","legs":"X"},"action":"harvest","summary":"good-harvest","bonus":1.7800000000000014},{"rt":1219.8999999761581,"stimulus":"\n                    <p><b>Action: <em>harvest</em></b></p>\n                    <p>This is the bee that you just saw.</p>\n                    <img src=\"bees-with-color/bee-B1SM.svg\" width=\"200\">\n                    <p><span class=\"greenText\"><b>Successful harvest!</b></span><br>Your pay has increased by $0.02. Your bonus pay is now $0.56.</p>\n            ","response":0,"trial_type":"html-button-response","trial_index":34,"time_elapsed":370794,"internal_node_id":"0.0-4.0-1.13","subject_id":"61703fdd71715e01647e8aae","study_id":"60edd13110225f80f9f3709b","session_id":"6196c701aa85b596f57e1a34","condition":"contingent","relevant_dimensions":["wings","pattern"],"bee_group":{"antennae":"X","wings":"2","pattern":"S","legs":"X"},"bonus":1.7800000000000014},{"rt":1479.800000011921,"stimulus":"bees-with-color/bee-B1DF.svg","response":0,"trial_type":"image-button-response","trial_index":35,"time_elapsed":372276,"internal_node_id":"0.0-4.0-0.14","subject_id":"61703fdd71715e01647e8aae","study_id":"60edd13110225f80f9f3709b","session_id":"6196c701aa85b596f57e1a34","condition":"contingent","relevant_dimensions":["wings","pattern"],"bee_group":{"antennae":"X","wings":"2","pattern":"S","legs":"X"},"action":"harvest","summary":"good-harvest","bonus":1.7800000000000014},{"rt":1444.800000011921,"stimulus":"\n                    <p><b>Action: <em>harvest</em></b></p>\n                    <p>This is the bee that you just saw.</p>\n                    <img src=\"bees-with-color/bee-B1DF.svg\" width=\"200\">\n                    <p><span class=\"greenText\"><b>Successful harvest!</b></span><br>Your pay has increased by $0.02. Your bonus pay is now $0.58.</p>\n            ","response":0,"trial_type":"html-button-response","trial_index":36,"time_elapsed":373723,"internal_node_id":"0.0-4.0-1.14","subject_id":"61703fdd71715e01647e8aae","study_id":"60edd13110225f80f9f3709b","session_id":"6196c701aa85b596f57e1a34","condition":"contingent","relevant_dimensions":["wings","pattern"],"bee_group":{"antennae":"X","wings":"2","pattern":"S","legs":"X"},"bonus":1.7800000000000014},{"rt":1748.6000000238419,"stimulus":"bees-with-color/bee-A2SF.svg","response":1,"trial_type":"image-button-response","trial_index":37,"time_elapsed":375473,"internal_node_id":"0.0-4.0-0.15","subject_id":"61703fdd71715e01647e8aae","study_id":"60edd13110225f80f9f3709b","session_id":"6196c701aa85b596f57e1a34","condition":"contingent","relevant_dimensions":["wings","pattern"],"bee_group":{"antennae":"X","wings":"2","pattern":"S","legs":"X"},"action":"avoid","summary":"good-avoid","bonus":1.7800000000000014},{"rt":1317.0999999642372,"stimulus":"\n                    <p><b>Action: <em>avoid</em></b></p>\n                    <p>This is the bee that you just saw.</p>\n                    <img src=\"bees-with-color/bee-A2SF.svg\" width=\"200\">\n                    <p><br>Your bonus pay is unchanged, and remains at $0.58.</p>\n            ","response":0,"trial_type":"html-button-response","trial_index":38,"time_elapsed":376792,"internal_node_id":"0.0-4.0-1.15","subject_id":"61703fdd71715e01647e8aae","study_id":"60edd13110225f80f9f3709b","session_id":"6196c701aa85b596f57e1a34","condition":"contingent","relevant_dimensions":["wings","pattern"],"bee_group":{"antennae":"X","wings":"2","pattern":"S","legs":"X"},"bonus":1.7800000000000014},{"rt":1868.6000000238419,"stimulus":"bees-with-color/bee-B2SM.svg","response":1,"trial_type":"image-button-response","trial_index":39,"time_elapsed":378663,"internal_node_id":"0.0-4.0-0.16","subject_id":"61703fdd71715e01647e8aae","study_id":"60edd13110225f80f9f3709b","session_id":"6196c701aa85b596f57e1a34","condition":"contingent","relevant_dimensions":["wings","pattern"],"bee_group":{"antennae":"X","wings":"2","pattern":"S","legs":"X"},"action":"avoid","summary":"good-avoid","bonus":1.7800000000000014},{"rt":1153.8999999761581,"stimulus":"\n                    <p><b>Action: <em>avoid</em></b></p>\n                    <p>This is the bee that you just saw.</p>\n                    <img src=\"bees-with-color/bee-B2SM.svg\" width=\"200\">\n                    <p><br>Your bonus pay is unchanged, and remains at $0.58.</p>\n            ","response":0,"trial_type":"html-button-response","trial_index":40,"time_elapsed":379819,"internal_node_id":"0.0-4.0-1.16","subject_id":"61703fdd71715e01647e8aae","study_id":"60edd13110225f80f9f3709b","session_id":"6196c701aa85b596f57e1a34","condition":"contingent","relevant_dimensions":["wings","pattern"],"bee_group":{"antennae":"X","wings":"2","pattern":"S","legs":"X"},"bonus":1.7800000000000014},{"rt":1452.199999988079,"stimulus":"bees-with-color/bee-A2DF.svg","response":0,"trial_type":"image-button-response","trial_index":41,"time_elapsed":381274,"internal_node_id":"0.0-4.0-0.17","subject_id":"61703fdd71715e01647e8aae","study_id":"60edd13110225f80f9f3709b","session_id":"6196c701aa85b596f57e1a34","condition":"contingent","relevant_dimensions":["wings","pattern"],"bee_group":{"antennae":"X","wings":"2","pattern":"S","legs":"X"},"action":"harvest","summary":"good-harvest","bonus":1.7800000000000014},{"rt":1054.5,"stimulus":"\n                    <p><b>Action: <em>harvest</em></b></p>\n                    <p>This is the bee that you just saw.</p>\n                    <img src=\"bees-with-color/bee-A2DF.svg\" width=\"200\">\n                    <p><span class=\"greenText\"><b>Successful harvest!</b></span><br>Your pay has increased by $0.02. Your bonus pay is now $0.60.</p>\n            ","response":0,"trial_type":"html-button-response","trial_index":42,"time_elapsed":382330,"internal_node_id":"0.0-4.0-1.17","subject_id":"61703fdd71715e01647e8aae","study_id":"60edd13110225f80f9f3709b","session_id":"6196c701aa85b596f57e1a34","condition":"contingent","relevant_dimensions":["wings","pattern"],"bee_group":{"antennae":"X","wings":"2","pattern":"S","legs":"X"},"bonus":1.7800000000000014},{"rt":2158.599999964237,"stimulus":"bees-with-color/bee-A1SF.svg","response":0,"trial_type":"image-button-response","trial_index":43,"time_elapsed":384491,"internal_node_id":"0.0-4.0-0.18","subject_id":"61703fdd71715e01647e8aae","study_id":"60edd13110225f80f9f3709b","session_id":"6196c701aa85b596f57e1a34","condition":"contingent","relevant_dimensions":["wings","pattern"],"bee_group":{"antennae":"X","wings":"2","pattern":"S","legs":"X"},"action":"harvest","summary":"good-harvest","bonus":1.7800000000000014},{"rt":1136.800000011921,"stimulus":"\n                    <p><b>Action: <em>harvest</em></b></p>\n                    <p>This is the bee that you just saw.</p>\n                    <img src=\"bees-with-color/bee-A1SF.svg\" width=\"200\">\n                    <p><span class=\"greenText\"><b>Successful harvest!</b></span><br>Your pay has increased by $0.02. Your bonus pay is now $0.62.</p>\n            ","response":0,"trial_type":"html-button-response","trial_index":44,"time_elapsed":385629,"internal_node_id":"0.0-4.0-1.18","subject_id":"61703fdd71715e01647e8aae","study_id":"60edd13110225f80f9f3709b","session_id":"6196c701aa85b596f57e1a34","condition":"contingent","relevant_dimensions":["wings","pattern"],"bee_group":{"antennae":"X","wings":"2","pattern":"S","legs":"X"},"bonus":1.7800000000000014},{"rt":1827.8999999761581,"stimulus":"bees-with-color/bee-B1SF.svg","response":0,"trial_type":"image-button-response","trial_index":45,"time_elapsed":387459,"internal_node_id":"0.0-4.0-0.19","subject_id":"61703fdd71715e01647e8aae","study_id":"60edd13110225f80f9f3709b","session_id":"6196c701aa85b596f57e1a34","condition":"contingent","relevant_dimensions":["wings","pattern"],"bee_group":{"antennae":"X","wings":"2","pattern":"S","legs":"X"},"action":"harvest","summary":"good-harvest","bonus":1.7800000000000014},{"rt":1236.6000000238419,"stimulus":"\n                    <p><b>Action: <em>harvest</em></b></p>\n                    <p>This is the bee that you just saw.</p>\n                    <img src=\"bees-with-color/bee-B1SF.svg\" width=\"200\">\n                    <p><span class=\"greenText\"><b>Successful harvest!</b></span><br>Your pay has increased by $0.02. Your bonus pay is now $0.64.</p>\n            ","response":0,"trial_type":"html-button-response","trial_index":46,"time_elapsed":388698,"internal_node_id":"0.0-4.0-1.19","subject_id":"61703fdd71715e01647e8aae","study_id":"60edd13110225f80f9f3709b","session_id":"6196c701aa85b596f57e1a34","condition":"contingent","relevant_dimensions":["wings","pattern"],"bee_group":{"antennae":"X","wings":"2","pattern":"S","legs":"X"},"bonus":1.7800000000000014},{"rt":1312.5,"stimulus":"bees-with-color/bee-B1DF.svg","response":0,"trial_type":"image-button-response","trial_index":47,"time_elapsed":390012,"internal_node_id":"0.0-4.0-0.20","subject_id":"61703fdd71715e01647e8aae","study_id":"60edd13110225f80f9f3709b","session_id":"6196c701aa85b596f57e1a34","condition":"contingent","relevant_dimensions":["wings","pattern"],"bee_group":{"antennae":"X","wings":"2","pattern":"S","legs":"X"},"action":"harvest","summary":"good-harvest","bonus":1.7800000000000014},{"rt":1389.699999988079,"stimulus":"\n                    <p><b>Action: <em>harvest</em></b></p>\n                    <p>This is the bee that you just saw.</p>\n                    <img src=\"bees-with-color/bee-B1DF.svg\" width=\"200\">\n                    <p><span class=\"greenText\"><b>Successful harvest!</b></span><br>Your pay has increased by $0.02. Your bonus pay is now $0.66.</p>\n            ","response":0,"trial_type":"html-button-response","trial_index":48,"time_elapsed":391404,"internal_node_id":"0.0-4.0-1.20","subject_id":"61703fdd71715e01647e8aae","study_id":"60edd13110225f80f9f3709b","session_id":"6196c701aa85b596f57e1a34","condition":"contingent","relevant_dimensions":["wings","pattern"],"bee_group":{"antennae":"X","wings":"2","pattern":"S","legs":"X"},"bonus":1.7800000000000014},{"rt":2124.699999988079,"stimulus":"bees-with-color/bee-A2SF.svg","response":1,"trial_type":"image-button-response","trial_index":49,"time_elapsed":393531,"internal_node_id":"0.0-4.0-0.21","subject_id":"61703fdd71715e01647e8aae","study_id":"60edd13110225f80f9f3709b","session_id":"6196c701aa85b596f57e1a34","condition":"contingent","relevant_dimensions":["wings","pattern"],"bee_group":{"antennae":"X","wings":"2","pattern":"S","legs":"X"},"action":"avoid","summary":"good-avoid","bonus":1.7800000000000014},{"rt":1056.2999999523163,"stimulus":"\n                    <p><b>Action: <em>avoid</em></b></p>\n                    <p>This is the bee that you just saw.</p>\n                    <img src=\"bees-with-color/bee-A2SF.svg\" width=\"200\">\n                    <p><br>Your bonus pay is unchanged, and remains at $0.66.</p>\n            ","response":0,"trial_type":"html-button-response","trial_index":50,"time_elapsed":394590,"internal_node_id":"0.0-4.0-1.21","subject_id":"61703fdd71715e01647e8aae","study_id":"60edd13110225f80f9f3709b","session_id":"6196c701aa85b596f57e1a34","condition":"contingent","relevant_dimensions":["wings","pattern"],"bee_group":{"antennae":"X","wings":"2","pattern":"S","legs":"X"},"bonus":1.7800000000000014},{"rt":1439.1000000238419,"stimulus":"bees-with-color/bee-A1SM.svg","response":0,"trial_type":"image-button-response","trial_index":51,"time_elapsed":396031,"internal_node_id":"0.0-4.0-0.22","subject_id":"61703fdd71715e01647e8aae","study_id":"60edd13110225f80f9f3709b","session_id":"6196c701aa85b596f57e1a34","condition":"contingent","relevant_dimensions":["wings","pattern"],"bee_group":{"antennae":"X","wings":"2","pattern":"S","legs":"X"},"action":"harvest","summary":"good-harvest","bonus":1.7800000000000014},{"rt":1134.300000011921,"stimulus":"\n                    <p><b>Action: <em>harvest</em></b></p>\n                    <p>This is the bee that you just saw.</p>\n                    <img src=\"bees-with-color/bee-A1SM.svg\" width=\"200\">\n                    <p><span class=\"greenText\"><b>Successful harvest!</b></span><br>Your pay has increased by $0.02. Your bonus pay is now $0.68.</p>\n            ","response":0,"trial_type":"html-button-response","trial_index":52,"time_elapsed":397169,"internal_node_id":"0.0-4.0-1.22","subject_id":"61703fdd71715e01647e8aae","study_id":"60edd13110225f80f9f3709b","session_id":"6196c701aa85b596f57e1a34","condition":"contingent","relevant_dimensions":["wings","pattern"],"bee_group":{"antennae":"X","wings":"2","pattern":"S","legs":"X"},"bonus":1.7800000000000014},{"rt":1293.1000000238419,"stimulus":"bees-with-color/bee-B1SM.svg","response":0,"trial_type":"image-button-response","trial_index":53,"time_elapsed":398464,"internal_node_id":"0.0-4.0-0.23","subject_id":"61703fdd71715e01647e8aae","study_id":"60edd13110225f80f9f3709b","session_id":"6196c701aa85b596f57e1a34","condition":"contingent","relevant_dimensions":["wings","pattern"],"bee_group":{"antennae":"X","wings":"2","pattern":"S","legs":"X"},"action":"harvest","summary":"good-harvest","bonus":1.7800000000000014},{"rt":1011.5,"stimulus":"\n                    <p><b>Action: <em>harvest</em></b></p>\n                    <p>This is the bee that you just saw.</p>\n                    <img src=\"bees-with-color/bee-B1SM.svg\" width=\"200\">\n                    <p><span class=\"greenText\"><b>Successful harvest!</b></span><br>Your pay has increased by $0.02. Your bonus pay is now $0.70.</p>\n            ","response":0,"trial_type":"html-button-response","trial_index":54,"time_elapsed":399477,"internal_node_id":"0.0-4.0-1.23","subject_id":"61703fdd71715e01647e8aae","study_id":"60edd13110225f80f9f3709b","session_id":"6196c701aa85b596f57e1a34","condition":"contingent","relevant_dimensions":["wings","pattern"],"bee_group":{"antennae":"X","wings":"2","pattern":"S","legs":"X"},"bonus":1.7800000000000014},{"rt":1295.5999999642372,"stimulus":"bees-with-color/bee-A1DM.svg","response":0,"trial_type":"image-button-response","trial_index":55,"time_elapsed":400774,"internal_node_id":"0.0-4.0-0.24","subject_id":"61703fdd71715e01647e8aae","study_id":"60edd13110225f80f9f3709b","session_id":"6196c701aa85b596f57e1a34","condition":"contingent","relevant_dimensions":["wings","pattern"],"bee_group":{"antennae":"X","wings":"2","pattern":"S","legs":"X"},"action":"harvest","summary":"good-harvest","bonus":1.7800000000000014},{"rt":974.1000000238419,"stimulus":"\n                    <p><b>Action: <em>harvest</em></b></p>\n                    <p>This is the bee that you just saw.</p>\n                    <img src=\"bees-with-color/bee-A1DM.svg\" width=\"200\">\n                    <p><span class=\"greenText\"><b>Successful harvest!</b></span><br>Your pay has increased by $0.02. Your bonus pay is now $0.72.</p>\n            ","response":0,"trial_type":"html-button-response","trial_index":56,"time_elapsed":401749,"internal_node_id":"0.0-4.0-1.24","subject_id":"61703fdd71715e01647e8aae","study_id":"60edd13110225f80f9f3709b","session_id":"6196c701aa85b596f57e1a34","condition":"contingent","relevant_dimensions":["wings","pattern"],"bee_group":{"antennae":"X","wings":"2","pattern":"S","legs":"X"},"bonus":1.7800000000000014},{"rt":1546.7000000476837,"stimulus":"bees-with-color/bee-A2SM.svg","response":1,"trial_type":"image-button-response","trial_index":57,"time_elapsed":403298,"internal_node_id":"0.0-4.0-0.25","subject_id":"61703fdd71715e01647e8aae","study_id":"60edd13110225f80f9f3709b","session_id":"6196c701aa85b596f57e1a34","condition":"contingent","relevant_dimensions":["wings","pattern"],"bee_group":{"antennae":"X","wings":"2","pattern":"S","legs":"X"},"action":"avoid","summary":"good-avoid","bonus":1.7800000000000014},{"rt":1058.800000011921,"stimulus":"\n                    <p><b>Action: <em>avoid</em></b></p>\n                    <p>This is the bee that you just saw.</p>\n                    <img src=\"bees-with-color/bee-A2SM.svg\" width=\"200\">\n                    <p><br>Your bonus pay is unchanged, and remains at $0.72.</p>\n            ","response":0,"trial_type":"html-button-response","trial_index":58,"time_elapsed":404358,"internal_node_id":"0.0-4.0-1.25","subject_id":"61703fdd71715e01647e8aae","study_id":"60edd13110225f80f9f3709b","session_id":"6196c701aa85b596f57e1a34","condition":"contingent","relevant_dimensions":["wings","pattern"],"bee_group":{"antennae":"X","wings":"2","pattern":"S","legs":"X"},"bonus":1.7800000000000014},{"rt":1456.0999999642372,"stimulus":"bees-with-color/bee-B2DF.svg","response":0,"trial_type":"image-button-response","trial_index":59,"time_elapsed":405816,"internal_node_id":"0.0-4.0-0.26","subject_id":"61703fdd71715e01647e8aae","study_id":"60edd13110225f80f9f3709b","session_id":"6196c701aa85b596f57e1a34","condition":"contingent","relevant_dimensions":["wings","pattern"],"bee_group":{"antennae":"X","wings":"2","pattern":"S","legs":"X"},"action":"harvest","summary":"good-harvest","bonus":1.7800000000000014},{"rt":1200,"stimulus":"\n                    <p><b>Action: <em>harvest</em></b></p>\n                    <p>This is the bee that you just saw.</p>\n                    <img src=\"bees-with-color/bee-B2DF.svg\" width=\"200\">\n                    <p><span class=\"greenText\"><b>Successful harvest!</b></span><br>Your pay has increased by $0.02. Your bonus pay is now $0.74.</p>\n            ","response":0,"trial_type":"html-button-response","trial_index":60,"time_elapsed":407017,"internal_node_id":"0.0-4.0-1.26","subject_id":"61703fdd71715e01647e8aae","study_id":"60edd13110225f80f9f3709b","session_id":"6196c701aa85b596f57e1a34","condition":"contingent","relevant_dimensions":["wings","pattern"],"bee_group":{"antennae":"X","wings":"2","pattern":"S","legs":"X"},"bonus":1.7800000000000014},{"rt":1186.4000000357628,"stimulus":"bees-with-color/bee-B2DM.svg","response":0,"trial_type":"image-button-response","trial_index":61,"time_elapsed":408205,"internal_node_id":"0.0-4.0-0.27","subject_id":"61703fdd71715e01647e8aae","study_id":"60edd13110225f80f9f3709b","session_id":"6196c701aa85b596f57e1a34","condition":"contingent","relevant_dimensions":["wings","pattern"],"bee_group":{"antennae":"X","wings":"2","pattern":"S","legs":"X"},"action":"harvest","summary":"good-harvest","bonus":1.7800000000000014},{"rt":1247,"stimulus":"\n                    <p><b>Action: <em>harvest</em></b></p>\n                    <p>This is the bee that you just saw.</p>\n                    <img src=\"bees-with-color/bee-B2DM.svg\" width=\"200\">\n                    <p><span class=\"greenText\"><b>Successful harvest!</b></span><br>Your pay has increased by $0.02. Your bonus pay is now $0.76.</p>\n            ","response":0,"trial_type":"html-button-response","trial_index":62,"time_elapsed":409454,"internal_node_id":"0.0-4.0-1.27","subject_id":"61703fdd71715e01647e8aae","study_id":"60edd13110225f80f9f3709b","session_id":"6196c701aa85b596f57e1a34","condition":"contingent","relevant_dimensions":["wings","pattern"],"bee_group":{"antennae":"X","wings":"2","pattern":"S","legs":"X"},"bonus":1.7800000000000014},{"rt":1434.5,"stimulus":"bees-with-color/bee-B1DM.svg","response":0,"trial_type":"image-button-response","trial_index":63,"time_elapsed":410890,"internal_node_id":"0.0-4.0-0.28","subject_id":"61703fdd71715e01647e8aae","study_id":"60edd13110225f80f9f3709b","session_id":"6196c701aa85b596f57e1a34","condition":"contingent","relevant_dimensions":["wings","pattern"],"bee_group":{"antennae":"X","wings":"2","pattern":"S","legs":"X"},"action":"harvest","summary":"good-harvest","bonus":1.7800000000000014},{"rt":1166.8999999761581,"stimulus":"\n                    <p><b>Action: <em>harvest</em></b></p>\n                    <p>This is the bee that you just saw.</p>\n                    <img src=\"bees-with-color/bee-B1DM.svg\" width=\"200\">\n                    <p><span class=\"greenText\"><b>Successful harvest!</b></span><br>Your pay has increased by $0.02. Your bonus pay is now $0.78.</p>\n            ","response":0,"trial_type":"html-button-response","trial_index":64,"time_elapsed":412059,"internal_node_id":"0.0-4.0-1.28","subject_id":"61703fdd71715e01647e8aae","study_id":"60edd13110225f80f9f3709b","session_id":"6196c701aa85b596f57e1a34","condition":"contingent","relevant_dimensions":["wings","pattern"],"bee_group":{"antennae":"X","wings":"2","pattern":"S","legs":"X"},"bonus":1.7800000000000014},{"rt":1263.2000000476837,"stimulus":"bees-with-color/bee-A2DM.svg","response":0,"trial_type":"image-button-response","trial_index":65,"time_elapsed":413324,"internal_node_id":"0.0-4.0-0.29","subject_id":"61703fdd71715e01647e8aae","study_id":"60edd13110225f80f9f3709b","session_id":"6196c701aa85b596f57e1a34","condition":"contingent","relevant_dimensions":["wings","pattern"],"bee_group":{"antennae":"X","wings":"2","pattern":"S","legs":"X"},"action":"harvest","summary":"good-harvest","bonus":1.7800000000000014},{"rt":1040.1000000238419,"stimulus":"\n                    <p><b>Action: <em>harvest</em></b></p>\n                    <p>This is the bee that you just saw.</p>\n                    <img src=\"bees-with-color/bee-A2DM.svg\" width=\"200\">\n                    <p><span class=\"greenText\"><b>Successful harvest!</b></span><br>Your pay has increased by $0.02. Your bonus pay is now $0.80.</p>\n            ","response":0,"trial_type":"html-button-response","trial_index":66,"time_elapsed":414366,"internal_node_id":"0.0-4.0-1.29","subject_id":"61703fdd71715e01647e8aae","study_id":"60edd13110225f80f9f3709b","session_id":"6196c701aa85b596f57e1a34","condition":"contingent","relevant_dimensions":["wings","pattern"],"bee_group":{"antennae":"X","wings":"2","pattern":"S","legs":"X"},"bonus":1.7800000000000014},{"rt":1307,"stimulus":"bees-with-color/bee-A1DF.svg","response":0,"trial_type":"image-button-response","trial_index":67,"time_elapsed":415675,"internal_node_id":"0.0-4.0-0.30","subject_id":"61703fdd71715e01647e8aae","study_id":"60edd13110225f80f9f3709b","session_id":"6196c701aa85b596f57e1a34","condition":"contingent","relevant_dimensions":["wings","pattern"],"bee_group":{"antennae":"X","wings":"2","pattern":"S","legs":"X"},"action":"harvest","summary":"good-harvest","bonus":1.7800000000000014},{"rt":1086,"stimulus":"\n                    <p><b>Action: <em>harvest</em></b></p>\n                    <p>This is the bee that you just saw.</p>\n                    <img src=\"bees-with-color/bee-A1DF.svg\" width=\"200\">\n                    <p><span class=\"greenText\"><b>Successful harvest!</b></span><br>Your pay has increased by $0.02. Your bonus pay is now $0.82.</p>\n            ","response":0,"trial_type":"html-button-response","trial_index":68,"time_elapsed":416763,"internal_node_id":"0.0-4.0-1.30","subject_id":"61703fdd71715e01647e8aae","study_id":"60edd13110225f80f9f3709b","session_id":"6196c701aa85b596f57e1a34","condition":"contingent","relevant_dimensions":["wings","pattern"],"bee_group":{"antennae":"X","wings":"2","pattern":"S","legs":"X"},"bonus":1.7800000000000014},{"rt":1649.300000011921,"stimulus":"bees-with-color/bee-B2SF.svg","response":1,"trial_type":"image-button-response","trial_index":69,"time_elapsed":418414,"internal_node_id":"0.0-4.0-0.31","subject_id":"61703fdd71715e01647e8aae","study_id":"60edd13110225f80f9f3709b","session_id":"6196c701aa85b596f57e1a34","condition":"contingent","relevant_dimensions":["wings","pattern"],"bee_group":{"antennae":"X","wings":"2","pattern":"S","legs":"X"},"action":"avoid","summary":"good-avoid","bonus":1.7800000000000014},{"rt":1118.7000000476837,"stimulus":"\n                    <p><b>Action: <em>avoid</em></b></p>\n                    <p>This is the bee that you just saw.</p>\n                    <img src=\"bees-with-color/bee-B2SF.svg\" width=\"200\">\n                    <p><br>Your bonus pay is unchanged, and remains at $0.82.</p>\n            ","response":0,"trial_type":"html-button-response","trial_index":70,"time_elapsed":419535,"internal_node_id":"0.0-4.0-1.31","subject_id":"61703fdd71715e01647e8aae","study_id":"60edd13110225f80f9f3709b","session_id":"6196c701aa85b596f57e1a34","condition":"contingent","relevant_dimensions":["wings","pattern"],"bee_group":{"antennae":"X","wings":"2","pattern":"S","legs":"X"},"bonus":1.7800000000000014},{"rt":1385.699999988079,"stimulus":"bees-with-color/bee-B2DF.svg","response":0,"trial_type":"image-button-response","trial_index":71,"time_elapsed":420922,"internal_node_id":"0.0-4.0-0.32","subject_id":"61703fdd71715e01647e8aae","study_id":"60edd13110225f80f9f3709b","session_id":"6196c701aa85b596f57e1a34","condition":"contingent","relevant_dimensions":["wings","pattern"],"bee_group":{"antennae":"X","wings":"2","pattern":"S","legs":"X"},"action":"harvest","summary":"good-harvest","bonus":1.7800000000000014},{"rt":2055,"stimulus":"\n                    <p><b>Action: <em>harvest</em></b></p>\n                    <p>This is the bee that you just saw.</p>\n                    <img src=\"bees-with-color/bee-B2DF.svg\" width=\"200\">\n                    <p><span class=\"greenText\"><b>Successful harvest!</b></span><br>Your pay has increased by $0.02. Your bonus pay is now $0.84.</p>\n            ","response":0,"trial_type":"html-button-response","trial_index":72,"time_elapsed":422978,"internal_node_id":"0.0-4.0-1.32","subject_id":"61703fdd71715e01647e8aae","study_id":"60edd13110225f80f9f3709b","session_id":"6196c701aa85b596f57e1a34","condition":"contingent","relevant_dimensions":["wings","pattern"],"bee_group":{"antennae":"X","wings":"2","pattern":"S","legs":"X"},"bonus":1.7800000000000014},{"rt":1576,"stimulus":"bees-with-color/bee-B2SM.svg","response":1,"trial_type":"image-button-response","trial_index":73,"time_elapsed":424556,"internal_node_id":"0.0-4.0-0.33","subject_id":"61703fdd71715e01647e8aae","study_id":"60edd13110225f80f9f3709b","session_id":"6196c701aa85b596f57e1a34","condition":"contingent","relevant_dimensions":["wings","pattern"],"bee_group":{"antennae":"X","wings":"2","pattern":"S","legs":"X"},"action":"avoid","summary":"good-avoid","bonus":1.7800000000000014},{"rt":1356.6000000238419,"stimulus":"\n                    <p><b>Action: <em>avoid</em></b></p>\n                    <p>This is the bee that you just saw.</p>\n                    <img src=\"bees-with-color/bee-B2SM.svg\" width=\"200\">\n                    <p><br>Your bonus pay is unchanged, and remains at $0.84.</p>\n            ","response":0,"trial_type":"html-button-response","trial_index":74,"time_elapsed":425914,"internal_node_id":"0.0-4.0-1.33","subject_id":"61703fdd71715e01647e8aae","study_id":"60edd13110225f80f9f3709b","session_id":"6196c701aa85b596f57e1a34","condition":"contingent","relevant_dimensions":["wings","pattern"],"bee_group":{"antennae":"X","wings":"2","pattern":"S","legs":"X"},"bonus":1.7800000000000014},{"rt":1605.8999999761581,"stimulus":"bees-with-color/bee-B1SM.svg","response":0,"trial_type":"image-button-response","trial_index":75,"time_elapsed":427521,"internal_node_id":"0.0-4.0-0.34","subject_id":"61703fdd71715e01647e8aae","study_id":"60edd13110225f80f9f3709b","session_id":"6196c701aa85b596f57e1a34","condition":"contingent","relevant_dimensions":["wings","pattern"],"bee_group":{"antennae":"X","wings":"2","pattern":"S","legs":"X"},"action":"harvest","summary":"good-harvest","bonus":1.7800000000000014},{"rt":1719.2000000476837,"stimulus":"\n                    <p><b>Action: <em>harvest</em></b></p>\n                    <p>This is the bee that you just saw.</p>\n                    <img src=\"bees-with-color/bee-B1SM.svg\" width=\"200\">\n                    <p><span class=\"greenText\"><b>Successful harvest!</b></span><br>Your pay has increased by $0.02. Your bonus pay is now $0.86.</p>\n            ","response":0,"trial_type":"html-button-response","trial_index":76,"time_elapsed":429242,"internal_node_id":"0.0-4.0-1.34","subject_id":"61703fdd71715e01647e8aae","study_id":"60edd13110225f80f9f3709b","session_id":"6196c701aa85b596f57e1a34","condition":"contingent","relevant_dimensions":["wings","pattern"],"bee_group":{"antennae":"X","wings":"2","pattern":"S","legs":"X"},"bonus":1.7800000000000014},{"rt":2442.300000011921,"stimulus":"bees-with-color/bee-A1SF.svg","response":0,"trial_type":"image-button-response","trial_index":77,"time_elapsed":431687,"internal_node_id":"0.0-4.0-0.35","subject_id":"61703fdd71715e01647e8aae","study_id":"60edd13110225f80f9f3709b","session_id":"6196c701aa85b596f57e1a34","condition":"contingent","relevant_dimensions":["wings","pattern"],"bee_group":{"antennae":"X","wings":"2","pattern":"S","legs":"X"},"action":"harvest","summary":"good-harvest","bonus":1.7800000000000014},{"rt":1429.699999988079,"stimulus":"\n                    <p><b>Action: <em>harvest</em></b></p>\n                    <p>This is the bee that you just saw.</p>\n                    <img src=\"bees-with-color/bee-A1SF.svg\" width=\"200\">\n                    <p><span class=\"greenText\"><b>Successful harvest!</b></span><br>Your pay has increased by $0.02. Your bonus pay is now $0.88.</p>\n            ","response":0,"trial_type":"html-button-response","trial_index":78,"time_elapsed":433119,"internal_node_id":"0.0-4.0-1.35","subject_id":"61703fdd71715e01647e8aae","study_id":"60edd13110225f80f9f3709b","session_id":"6196c701aa85b596f57e1a34","condition":"contingent","relevant_dimensions":["wings","pattern"],"bee_group":{"antennae":"X","wings":"2","pattern":"S","legs":"X"},"bonus":1.7800000000000014},{"rt":1741.699999988079,"stimulus":"bees-with-color/bee-B1DM.svg","response":0,"trial_type":"image-button-response","trial_index":79,"time_elapsed":434863,"internal_node_id":"0.0-4.0-0.36","subject_id":"61703fdd71715e01647e8aae","study_id":"60edd13110225f80f9f3709b","session_id":"6196c701aa85b596f57e1a34","condition":"contingent","relevant_dimensions":["wings","pattern"],"bee_group":{"antennae":"X","wings":"2","pattern":"S","legs":"X"},"action":"harvest","summary":"good-harvest","bonus":1.7800000000000014},{"rt":1280.2000000476837,"stimulus":"\n                    <p><b>Action: <em>harvest</em></b></p>\n                    <p>This is the bee that you just saw.</p>\n                    <img src=\"bees-with-color/bee-B1DM.svg\" width=\"200\">\n                    <p><span class=\"greenText\"><b>Successful harvest!</b></span><br>Your pay has increased by $0.02. Your bonus pay is now $0.90.</p>\n            ","response":0,"trial_type":"html-button-response","trial_index":80,"time_elapsed":436145,"internal_node_id":"0.0-4.0-1.36","subject_id":"61703fdd71715e01647e8aae","study_id":"60edd13110225f80f9f3709b","session_id":"6196c701aa85b596f57e1a34","condition":"contingent","relevant_dimensions":["wings","pattern"],"bee_group":{"antennae":"X","wings":"2","pattern":"S","legs":"X"},"bonus":1.7800000000000014},{"rt":1731.199999988079,"stimulus":"bees-with-color/bee-A2DM.svg","response":0,"trial_type":"image-button-response","trial_index":81,"time_elapsed":437879,"internal_node_id":"0.0-4.0-0.37","subject_id":"61703fdd71715e01647e8aae","study_id":"60edd13110225f80f9f3709b","session_id":"6196c701aa85b596f57e1a34","condition":"contingent","relevant_dimensions":["wings","pattern"],"bee_group":{"antennae":"X","wings":"2","pattern":"S","legs":"X"},"action":"harvest","summary":"good-harvest","bonus":1.7800000000000014},{"rt":1089.699999988079,"stimulus":"\n                    <p><b>Action: <em>harvest</em></b></p>\n                    <p>This is the bee that you just saw.</p>\n                    <img src=\"bees-with-color/bee-A2DM.svg\" width=\"200\">\n                    <p><span class=\"greenText\"><b>Successful harvest!</b></span><br>Your pay has increased by $0.02. Your bonus pay is now $0.92.</p>\n            ","response":0,"trial_type":"html-button-response","trial_index":82,"time_elapsed":438970,"internal_node_id":"0.0-4.0-1.37","subject_id":"61703fdd71715e01647e8aae","study_id":"60edd13110225f80f9f3709b","session_id":"6196c701aa85b596f57e1a34","condition":"contingent","relevant_dimensions":["wings","pattern"],"bee_group":{"antennae":"X","wings":"2","pattern":"S","legs":"X"},"bonus":1.7800000000000014},{"rt":1426.800000011921,"stimulus":"bees-with-color/bee-A2SF.svg","response":1,"trial_type":"image-button-response","trial_index":83,"time_elapsed":440400,"internal_node_id":"0.0-4.0-0.38","subject_id":"61703fdd71715e01647e8aae","study_id":"60edd13110225f80f9f3709b","session_id":"6196c701aa85b596f57e1a34","condition":"contingent","relevant_dimensions":["wings","pattern"],"bee_group":{"antennae":"X","wings":"2","pattern":"S","legs":"X"},"action":"avoid","summary":"good-avoid","bonus":1.7800000000000014},{"rt":1403.5,"stimulus":"\n                    <p><b>Action: <em>avoid</em></b></p>\n                    <p>This is the bee that you just saw.</p>\n                    <img src=\"bees-with-color/bee-A2SF.svg\" width=\"200\">\n                    <p><br>Your bonus pay is unchanged, and remains at $0.92.</p>\n            ","response":0,"trial_type":"html-button-response","trial_index":84,"time_elapsed":441805,"internal_node_id":"0.0-4.0-1.38","subject_id":"61703fdd71715e01647e8aae","study_id":"60edd13110225f80f9f3709b","session_id":"6196c701aa85b596f57e1a34","condition":"contingent","relevant_dimensions":["wings","pattern"],"bee_group":{"antennae":"X","wings":"2","pattern":"S","legs":"X"},"bonus":1.7800000000000014},{"rt":1200.5,"stimulus":"bees-with-color/bee-B2DM.svg","response":0,"trial_type":"image-button-response","trial_index":85,"time_elapsed":443007,"internal_node_id":"0.0-4.0-0.39","subject_id":"61703fdd71715e01647e8aae","study_id":"60edd13110225f80f9f3709b","session_id":"6196c701aa85b596f57e1a34","condition":"contingent","relevant_dimensions":["wings","pattern"],"bee_group":{"antennae":"X","wings":"2","pattern":"S","legs":"X"},"action":"harvest","summary":"good-harvest","bonus":1.7800000000000014},{"rt":1241.1000000238419,"stimulus":"\n                    <p><b>Action: <em>harvest</em></b></p>\n                    <p>This is the bee that you just saw.</p>\n                    <img src=\"bees-with-color/bee-B2DM.svg\" width=\"200\">\n                    <p><span class=\"greenText\"><b>Successful harvest!</b></span><br>Your pay has increased by $0.02. Your bonus pay is now $0.94.</p>\n            ","response":0,"trial_type":"html-button-response","trial_index":86,"time_elapsed":444249,"internal_node_id":"0.0-4.0-1.39","subject_id":"61703fdd71715e01647e8aae","study_id":"60edd13110225f80f9f3709b","session_id":"6196c701aa85b596f57e1a34","condition":"contingent","relevant_dimensions":["wings","pattern"],"bee_group":{"antennae":"X","wings":"2","pattern":"S","legs":"X"},"bonus":1.7800000000000014},{"rt":1229,"stimulus":"bees-with-color/bee-B1DF.svg","response":0,"trial_type":"image-button-response","trial_index":87,"time_elapsed":445480,"internal_node_id":"0.0-4.0-0.40","subject_id":"61703fdd71715e01647e8aae","study_id":"60edd13110225f80f9f3709b","session_id":"6196c701aa85b596f57e1a34","condition":"contingent","relevant_dimensions":["wings","pattern"],"bee_group":{"antennae":"X","wings":"2","pattern":"S","legs":"X"},"action":"harvest","summary":"good-harvest","bonus":1.7800000000000014},{"rt":1728.800000011921,"stimulus":"\n                    <p><b>Action: <em>harvest</em></b></p>\n                    <p>This is the bee that you just saw.</p>\n                    <img src=\"bees-with-color/bee-B1DF.svg\" width=\"200\">\n                    <p><span class=\"greenText\"><b>Successful harvest!</b></span><br>Your pay has increased by $0.02. Your bonus pay is now $0.96.</p>\n            ","response":0,"trial_type":"html-button-response","trial_index":88,"time_elapsed":447211,"internal_node_id":"0.0-4.0-1.40","subject_id":"61703fdd71715e01647e8aae","study_id":"60edd13110225f80f9f3709b","session_id":"6196c701aa85b596f57e1a34","condition":"contingent","relevant_dimensions":["wings","pattern"],"bee_group":{"antennae":"X","wings":"2","pattern":"S","legs":"X"},"bonus":1.7800000000000014},{"rt":1241.199999988079,"stimulus":"bees-with-color/bee-A1DF.svg","response":0,"trial_type":"image-button-response","trial_index":89,"time_elapsed":448455,"internal_node_id":"0.0-4.0-0.41","subject_id":"61703fdd71715e01647e8aae","study_id":"60edd13110225f80f9f3709b","session_id":"6196c701aa85b596f57e1a34","condition":"contingent","relevant_dimensions":["wings","pattern"],"bee_group":{"antennae":"X","wings":"2","pattern":"S","legs":"X"},"action":"harvest","summary":"good-harvest","bonus":1.7800000000000014},{"rt":1274.1000000238419,"stimulus":"\n                    <p><b>Action: <em>harvest</em></b></p>\n                    <p>This is the bee that you just saw.</p>\n                    <img src=\"bees-with-color/bee-A1DF.svg\" width=\"200\">\n                    <p><span class=\"greenText\"><b>Successful harvest!</b></span><br>Your pay has increased by $0.02. Your bonus pay is now $0.98.</p>\n            ","response":0,"trial_type":"html-button-response","trial_index":90,"time_elapsed":449731,"internal_node_id":"0.0-4.0-1.41","subject_id":"61703fdd71715e01647e8aae","study_id":"60edd13110225f80f9f3709b","session_id":"6196c701aa85b596f57e1a34","condition":"contingent","relevant_dimensions":["wings","pattern"],"bee_group":{"antennae":"X","wings":"2","pattern":"S","legs":"X"},"bonus":1.7800000000000014},{"rt":1330.9000000357628,"stimulus":"bees-with-color/bee-B2SF.svg","response":1,"trial_type":"image-button-response","trial_index":91,"time_elapsed":451064,"internal_node_id":"0.0-4.0-0.42","subject_id":"61703fdd71715e01647e8aae","study_id":"60edd13110225f80f9f3709b","session_id":"6196c701aa85b596f57e1a34","condition":"contingent","relevant_dimensions":["wings","pattern"],"bee_group":{"antennae":"X","wings":"2","pattern":"S","legs":"X"},"action":"avoid","summary":"good-avoid","bonus":1.7800000000000014},{"rt":1132.300000011921,"stimulus":"\n                    <p><b>Action: <em>avoid</em></b></p>\n                    <p>This is the bee that you just saw.</p>\n                    <img src=\"bees-with-color/bee-B2SF.svg\" width=\"200\">\n                    <p><br>Your bonus pay is unchanged, and remains at $0.98.</p>\n            ","response":0,"trial_type":"html-button-response","trial_index":92,"time_elapsed":452199,"internal_node_id":"0.0-4.0-1.42","subject_id":"61703fdd71715e01647e8aae","study_id":"60edd13110225f80f9f3709b","session_id":"6196c701aa85b596f57e1a34","condition":"contingent","relevant_dimensions":["wings","pattern"],"bee_group":{"antennae":"X","wings":"2","pattern":"S","legs":"X"},"bonus":1.7800000000000014},{"rt":1476.9000000357628,"stimulus":"bees-with-color/bee-A2DF.svg","response":0,"trial_type":"image-button-response","trial_index":93,"time_elapsed":453678,"internal_node_id":"0.0-4.0-0.43","subject_id":"61703fdd71715e01647e8aae","study_id":"60edd13110225f80f9f3709b","session_id":"6196c701aa85b596f57e1a34","condition":"contingent","relevant_dimensions":["wings","pattern"],"bee_group":{"antennae":"X","wings":"2","pattern":"S","legs":"X"},"action":"harvest","summary":"good-harvest","bonus":1.7800000000000014},{"rt":1384.300000011921,"stimulus":"\n                    <p><b>Action: <em>harvest</em></b></p>\n                    <p>This is the bee that you just saw.</p>\n                    <img src=\"bees-with-color/bee-A2DF.svg\" width=\"200\">\n                    <p><span class=\"greenText\"><b>Successful harvest!</b></span><br>Your pay has increased by $0.02. Your bonus pay is now $1.00.</p>\n            ","response":0,"trial_type":"html-button-response","trial_index":94,"time_elapsed":455064,"internal_node_id":"0.0-4.0-1.43","subject_id":"61703fdd71715e01647e8aae","study_id":"60edd13110225f80f9f3709b","session_id":"6196c701aa85b596f57e1a34","condition":"contingent","relevant_dimensions":["wings","pattern"],"bee_group":{"antennae":"X","wings":"2","pattern":"S","legs":"X"},"bonus":1.7800000000000014},{"rt":1760.1000000238419,"stimulus":"bees-with-color/bee-A1DM.svg","response":0,"trial_type":"image-button-response","trial_index":95,"time_elapsed":456826,"internal_node_id":"0.0-4.0-0.44","subject_id":"61703fdd71715e01647e8aae","study_id":"60edd13110225f80f9f3709b","session_id":"6196c701aa85b596f57e1a34","condition":"contingent","relevant_dimensions":["wings","pattern"],"bee_group":{"antennae":"X","wings":"2","pattern":"S","legs":"X"},"action":"harvest","summary":"good-harvest","bonus":1.7800000000000014},{"rt":1081.8999999761581,"stimulus":"\n                    <p><b>Action: <em>harvest</em></b></p>\n                    <p>This is the bee that you just saw.</p>\n                    <img src=\"bees-with-color/bee-A1DM.svg\" width=\"200\">\n                    <p><span class=\"greenText\"><b>Successful harvest!</b></span><br>Your pay has increased by $0.02. Your bonus pay is now $1.02.</p>\n            ","response":0,"trial_type":"html-button-response","trial_index":96,"time_elapsed":457910,"internal_node_id":"0.0-4.0-1.44","subject_id":"61703fdd71715e01647e8aae","study_id":"60edd13110225f80f9f3709b","session_id":"6196c701aa85b596f57e1a34","condition":"contingent","relevant_dimensions":["wings","pattern"],"bee_group":{"antennae":"X","wings":"2","pattern":"S","legs":"X"},"bonus":1.7800000000000014},{"rt":1740.300000011921,"stimulus":"bees-with-color/bee-A1SM.svg","response":0,"trial_type":"image-button-response","trial_index":97,"time_elapsed":459651,"internal_node_id":"0.0-4.0-0.45","subject_id":"61703fdd71715e01647e8aae","study_id":"60edd13110225f80f9f3709b","session_id":"6196c701aa85b596f57e1a34","condition":"contingent","relevant_dimensions":["wings","pattern"],"bee_group":{"antennae":"X","wings":"2","pattern":"S","legs":"X"},"action":"harvest","summary":"good-harvest","bonus":1.7800000000000014},{"rt":1322.4000000357628,"stimulus":"\n                    <p><b>Action: <em>harvest</em></b></p>\n                    <p>This is the bee that you just saw.</p>\n                    <img src=\"bees-with-color/bee-A1SM.svg\" width=\"200\">\n                    <p><span class=\"greenText\"><b>Successful harvest!</b></span><br>Your pay has increased by $0.02. Your bonus pay is now $1.04.</p>\n            ","response":0,"trial_type":"html-button-response","trial_index":98,"time_elapsed":460976,"internal_node_id":"0.0-4.0-1.45","subject_id":"61703fdd71715e01647e8aae","study_id":"60edd13110225f80f9f3709b","session_id":"6196c701aa85b596f57e1a34","condition":"contingent","relevant_dimensions":["wings","pattern"],"bee_group":{"antennae":"X","wings":"2","pattern":"S","legs":"X"},"bonus":1.7800000000000014},{"rt":1857.3999999761581,"stimulus":"bees-with-color/bee-A2SM.svg","response":1,"trial_type":"image-button-response","trial_index":99,"time_elapsed":462835,"internal_node_id":"0.0-4.0-0.46","subject_id":"61703fdd71715e01647e8aae","study_id":"60edd13110225f80f9f3709b","session_id":"6196c701aa85b596f57e1a34","condition":"contingent","relevant_dimensions":["wings","pattern"],"bee_group":{"antennae":"X","wings":"2","pattern":"S","legs":"X"},"action":"avoid","summary":"good-avoid","bonus":1.7800000000000014},{"rt":1845.6000000238419,"stimulus":"\n                    <p><b>Action: <em>avoid</em></b></p>\n                    <p>This is the bee that you just saw.</p>\n                    <img src=\"bees-with-color/bee-A2SM.svg\" width=\"200\">\n                    <p><br>Your bonus pay is unchanged, and remains at $1.04.</p>\n            ","response":0,"trial_type":"html-button-response","trial_index":100,"time_elapsed":464682,"internal_node_id":"0.0-4.0-1.46","subject_id":"61703fdd71715e01647e8aae","study_id":"60edd13110225f80f9f3709b","session_id":"6196c701aa85b596f57e1a34","condition":"contingent","relevant_dimensions":["wings","pattern"],"bee_group":{"antennae":"X","wings":"2","pattern":"S","legs":"X"},"bonus":1.7800000000000014},{"rt":1444.800000011921,"stimulus":"bees-with-color/bee-B1SF.svg","response":0,"trial_type":"image-button-response","trial_index":101,"time_elapsed":466128,"internal_node_id":"0.0-4.0-0.47","subject_id":"61703fdd71715e01647e8aae","study_id":"60edd13110225f80f9f3709b","session_id":"6196c701aa85b596f57e1a34","condition":"contingent","relevant_dimensions":["wings","pattern"],"bee_group":{"antennae":"X","wings":"2","pattern":"S","legs":"X"},"action":"harvest","summary":"good-harvest","bonus":1.7800000000000014},{"rt":1274.7000000476837,"stimulus":"\n                    <p><b>Action: <em>harvest</em></b></p>\n                    <p>This is the bee that you just saw.</p>\n                    <img src=\"bees-with-color/bee-B1SF.svg\" width=\"200\">\n                    <p><span class=\"greenText\"><b>Successful harvest!</b></span><br>Your pay has increased by $0.02. Your bonus pay is now $1.06.</p>\n            ","response":0,"trial_type":"html-button-response","trial_index":102,"time_elapsed":467404,"internal_node_id":"0.0-4.0-1.47","subject_id":"61703fdd71715e01647e8aae","study_id":"60edd13110225f80f9f3709b","session_id":"6196c701aa85b596f57e1a34","condition":"contingent","relevant_dimensions":["wings","pattern"],"bee_group":{"antennae":"X","wings":"2","pattern":"S","legs":"X"},"bonus":1.7800000000000014},{"rt":1630.800000011921,"stimulus":"bees-with-color/bee-B2SF.svg","response":1,"trial_type":"image-button-response","trial_index":103,"time_elapsed":469037,"internal_node_id":"0.0-4.0-0.48","subject_id":"61703fdd71715e01647e8aae","study_id":"60edd13110225f80f9f3709b","session_id":"6196c701aa85b596f57e1a34","condition":"contingent","relevant_dimensions":["wings","pattern"],"bee_group":{"antennae":"X","wings":"2","pattern":"S","legs":"X"},"action":"avoid","summary":"good-avoid","bonus":1.7800000000000014},{"rt":1208.5999999642372,"stimulus":"\n                    <p><b>Action: <em>avoid</em></b></p>\n                    <p>This is the bee that you just saw.</p>\n                    <img src=\"bees-with-color/bee-B2SF.svg\" width=\"200\">\n                    <p><br>Your bonus pay is unchanged, and remains at $1.06.</p>\n            ","response":0,"trial_type":"html-button-response","trial_index":104,"time_elapsed":470247,"internal_node_id":"0.0-4.0-1.48","subject_id":"61703fdd71715e01647e8aae","study_id":"60edd13110225f80f9f3709b","session_id":"6196c701aa85b596f57e1a34","condition":"contingent","relevant_dimensions":["wings","pattern"],"bee_group":{"antennae":"X","wings":"2","pattern":"S","legs":"X"},"bonus":1.7800000000000014},{"rt":1357.800000011921,"stimulus":"bees-with-color/bee-A2DF.svg","response":0,"trial_type":"image-button-response","trial_index":105,"time_elapsed":471606,"internal_node_id":"0.0-4.0-0.49","subject_id":"61703fdd71715e01647e8aae","study_id":"60edd13110225f80f9f3709b","session_id":"6196c701aa85b596f57e1a34","condition":"contingent","relevant_dimensions":["wings","pattern"],"bee_group":{"antennae":"X","wings":"2","pattern":"S","legs":"X"},"action":"harvest","summary":"good-harvest","bonus":1.7800000000000014},{"rt":1069.1000000238419,"stimulus":"\n                    <p><b>Action: <em>harvest</em></b></p>\n                    <p>This is the bee that you just saw.</p>\n                    <img src=\"bees-with-color/bee-A2DF.svg\" width=\"200\">\n                    <p><span class=\"greenText\"><b>Successful harvest!</b></span><br>Your pay has increased by $0.02. Your bonus pay is now $1.08.</p>\n            ","response":0,"trial_type":"html-button-response","trial_index":106,"time_elapsed":472677,"internal_node_id":"0.0-4.0-1.49","subject_id":"61703fdd71715e01647e8aae","study_id":"60edd13110225f80f9f3709b","session_id":"6196c701aa85b596f57e1a34","condition":"contingent","relevant_dimensions":["wings","pattern"],"bee_group":{"antennae":"X","wings":"2","pattern":"S","legs":"X"},"bonus":1.7800000000000014},{"rt":1340.7999999523163,"stimulus":"bees-with-color/bee-B1DM.svg","response":0,"trial_type":"image-button-response","trial_index":107,"time_elapsed":474021,"internal_node_id":"0.0-4.0-0.50","subject_id":"61703fdd71715e01647e8aae","study_id":"60edd13110225f80f9f3709b","session_id":"6196c701aa85b596f57e1a34","condition":"contingent","relevant_dimensions":["wings","pattern"],"bee_group":{"antennae":"X","wings":"2","pattern":"S","legs":"X"},"action":"harvest","summary":"good-harvest","bonus":1.7800000000000014},{"rt":1292.9000000357628,"stimulus":"\n                    <p><b>Action: <em>harvest</em></b></p>\n                    <p>This is the bee that you just saw.</p>\n                    <img src=\"bees-with-color/bee-B1DM.svg\" width=\"200\">\n                    <p><span class=\"greenText\"><b>Successful harvest!</b></span><br>Your pay has increased by $0.02. Your bonus pay is now $1.10.</p>\n            ","response":0,"trial_type":"html-button-response","trial_index":108,"time_elapsed":475315,"internal_node_id":"0.0-4.0-1.50","subject_id":"61703fdd71715e01647e8aae","study_id":"60edd13110225f80f9f3709b","session_id":"6196c701aa85b596f57e1a34","condition":"contingent","relevant_dimensions":["wings","pattern"],"bee_group":{"antennae":"X","wings":"2","pattern":"S","legs":"X"},"bonus":1.7800000000000014},{"rt":1544.7000000476837,"stimulus":"bees-with-color/bee-A1DF.svg","response":0,"trial_type":"image-button-response","trial_index":109,"time_elapsed":476861,"internal_node_id":"0.0-4.0-0.51","subject_id":"61703fdd71715e01647e8aae","study_id":"60edd13110225f80f9f3709b","session_id":"6196c701aa85b596f57e1a34","condition":"contingent","relevant_dimensions":["wings","pattern"],"bee_group":{"antennae":"X","wings":"2","pattern":"S","legs":"X"},"action":"harvest","summary":"good-harvest","bonus":1.7800000000000014},{"rt":1101.9000000357628,"stimulus":"\n                    <p><b>Action: <em>harvest</em></b></p>\n                    <p>This is the bee that you just saw.</p>\n                    <img src=\"bees-with-color/bee-A1DF.svg\" width=\"200\">\n                    <p><span class=\"greenText\"><b>Successful harvest!</b></span><br>Your pay has increased by $0.02. Your bonus pay is now $1.12.</p>\n            ","response":0,"trial_type":"html-button-response","trial_index":110,"time_elapsed":477965,"internal_node_id":"0.0-4.0-1.51","subject_id":"61703fdd71715e01647e8aae","study_id":"60edd13110225f80f9f3709b","session_id":"6196c701aa85b596f57e1a34","condition":"contingent","relevant_dimensions":["wings","pattern"],"bee_group":{"antennae":"X","wings":"2","pattern":"S","legs":"X"},"bonus":1.7800000000000014},{"rt":1399.300000011921,"stimulus":"bees-with-color/bee-B2DF.svg","response":0,"trial_type":"image-button-response","trial_index":111,"time_elapsed":479366,"internal_node_id":"0.0-4.0-0.52","subject_id":"61703fdd71715e01647e8aae","study_id":"60edd13110225f80f9f3709b","session_id":"6196c701aa85b596f57e1a34","condition":"contingent","relevant_dimensions":["wings","pattern"],"bee_group":{"antennae":"X","wings":"2","pattern":"S","legs":"X"},"action":"harvest","summary":"good-harvest","bonus":1.7800000000000014},{"rt":1116.2000000476837,"stimulus":"\n                    <p><b>Action: <em>harvest</em></b></p>\n                    <p>This is the bee that you just saw.</p>\n                    <img src=\"bees-with-color/bee-B2DF.svg\" width=\"200\">\n                    <p><span class=\"greenText\"><b>Successful harvest!</b></span><br>Your pay has increased by $0.02. Your bonus pay is now $1.14.</p>\n            ","response":0,"trial_type":"html-button-response","trial_index":112,"time_elapsed":480484,"internal_node_id":"0.0-4.0-1.52","subject_id":"61703fdd71715e01647e8aae","study_id":"60edd13110225f80f9f3709b","session_id":"6196c701aa85b596f57e1a34","condition":"contingent","relevant_dimensions":["wings","pattern"],"bee_group":{"antennae":"X","wings":"2","pattern":"S","legs":"X"},"bonus":1.7800000000000014},{"rt":1197.300000011921,"stimulus":"bees-with-color/bee-A1DM.svg","response":0,"trial_type":"image-button-response","trial_index":113,"time_elapsed":481683,"internal_node_id":"0.0-4.0-0.53","subject_id":"61703fdd71715e01647e8aae","study_id":"60edd13110225f80f9f3709b","session_id":"6196c701aa85b596f57e1a34","condition":"contingent","relevant_dimensions":["wings","pattern"],"bee_group":{"antennae":"X","wings":"2","pattern":"S","legs":"X"},"action":"harvest","summary":"good-harvest","bonus":1.7800000000000014},{"rt":1884,"stimulus":"\n                    <p><b>Action: <em>harvest</em></b></p>\n                    <p>This is the bee that you just saw.</p>\n                    <img src=\"bees-with-color/bee-A1DM.svg\" width=\"200\">\n                    <p><span class=\"greenText\"><b>Successful harvest!</b></span><br>Your pay has increased by $0.02. Your bonus pay is now $1.16.</p>\n            ","response":0,"trial_type":"html-button-response","trial_index":114,"time_elapsed":483569,"internal_node_id":"0.0-4.0-1.53","subject_id":"61703fdd71715e01647e8aae","study_id":"60edd13110225f80f9f3709b","session_id":"6196c701aa85b596f57e1a34","condition":"contingent","relevant_dimensions":["wings","pattern"],"bee_group":{"antennae":"X","wings":"2","pattern":"S","legs":"X"},"bonus":1.7800000000000014},{"rt":1346.7000000476837,"stimulus":"bees-with-color/bee-B2SM.svg","response":1,"trial_type":"image-button-response","trial_index":115,"time_elapsed":484917,"internal_node_id":"0.0-4.0-0.54","subject_id":"61703fdd71715e01647e8aae","study_id":"60edd13110225f80f9f3709b","session_id":"6196c701aa85b596f57e1a34","condition":"contingent","relevant_dimensions":["wings","pattern"],"bee_group":{"antennae":"X","wings":"2","pattern":"S","legs":"X"},"action":"avoid","summary":"good-avoid","bonus":1.7800000000000014},{"rt":1350.699999988079,"stimulus":"\n                    <p><b>Action: <em>avoid</em></b></p>\n                    <p>This is the bee that you just saw.</p>\n                    <img src=\"bees-with-color/bee-B2SM.svg\" width=\"200\">\n                    <p><br>Your bonus pay is unchanged, and remains at $1.16.</p>\n            ","response":0,"trial_type":"html-button-response","trial_index":116,"time_elapsed":486269,"internal_node_id":"0.0-4.0-1.54","subject_id":"61703fdd71715e01647e8aae","study_id":"60edd13110225f80f9f3709b","session_id":"6196c701aa85b596f57e1a34","condition":"contingent","relevant_dimensions":["wings","pattern"],"bee_group":{"antennae":"X","wings":"2","pattern":"S","legs":"X"},"bonus":1.7800000000000014},{"rt":1597.5,"stimulus":"bees-with-color/bee-B1SM.svg","response":0,"trial_type":"image-button-response","trial_index":117,"time_elapsed":487869,"internal_node_id":"0.0-4.0-0.55","subject_id":"61703fdd71715e01647e8aae","study_id":"60edd13110225f80f9f3709b","session_id":"6196c701aa85b596f57e1a34","condition":"contingent","relevant_dimensions":["wings","pattern"],"bee_group":{"antennae":"X","wings":"2","pattern":"S","legs":"X"},"action":"harvest","summary":"good-harvest","bonus":1.7800000000000014},{"rt":1009.6999999880791,"stimulus":"\n                    <p><b>Action: <em>harvest</em></b></p>\n                    <p>This is the bee that you just saw.</p>\n                    <img src=\"bees-with-color/bee-B1SM.svg\" width=\"200\">\n                    <p><span class=\"greenText\"><b>Successful harvest!</b></span><br>Your pay has increased by $0.02. Your bonus pay is now $1.18.</p>\n            ","response":0,"trial_type":"html-button-response","trial_index":118,"time_elapsed":488880,"internal_node_id":"0.0-4.0-1.55","subject_id":"61703fdd71715e01647e8aae","study_id":"60edd13110225f80f9f3709b","session_id":"6196c701aa85b596f57e1a34","condition":"contingent","relevant_dimensions":["wings","pattern"],"bee_group":{"antennae":"X","wings":"2","pattern":"S","legs":"X"},"bonus":1.7800000000000014},{"rt":1775.5,"stimulus":"bees-with-color/bee-B1SF.svg","response":0,"trial_type":"image-button-response","trial_index":119,"time_elapsed":490658,"internal_node_id":"0.0-4.0-0.56","subject_id":"61703fdd71715e01647e8aae","study_id":"60edd13110225f80f9f3709b","session_id":"6196c701aa85b596f57e1a34","condition":"contingent","relevant_dimensions":["wings","pattern"],"bee_group":{"antennae":"X","wings":"2","pattern":"S","legs":"X"},"action":"harvest","summary":"good-harvest","bonus":1.7800000000000014},{"rt":1171,"stimulus":"\n                    <p><b>Action: <em>harvest</em></b></p>\n                    <p>This is the bee that you just saw.</p>\n                    <img src=\"bees-with-color/bee-B1SF.svg\" width=\"200\">\n                    <p><span class=\"greenText\"><b>Successful harvest!</b></span><br>Your pay has increased by $0.02. Your bonus pay is now $1.20.</p>\n            ","response":0,"trial_type":"html-button-response","trial_index":120,"time_elapsed":491831,"internal_node_id":"0.0-4.0-1.56","subject_id":"61703fdd71715e01647e8aae","study_id":"60edd13110225f80f9f3709b","session_id":"6196c701aa85b596f57e1a34","condition":"contingent","relevant_dimensions":["wings","pattern"],"bee_group":{"antennae":"X","wings":"2","pattern":"S","legs":"X"},"bonus":1.7800000000000014},{"rt":1581.3999999761581,"stimulus":"bees-with-color/bee-A2DM.svg","response":0,"trial_type":"image-button-response","trial_index":121,"time_elapsed":493414,"internal_node_id":"0.0-4.0-0.57","subject_id":"61703fdd71715e01647e8aae","study_id":"60edd13110225f80f9f3709b","session_id":"6196c701aa85b596f57e1a34","condition":"contingent","relevant_dimensions":["wings","pattern"],"bee_group":{"antennae":"X","wings":"2","pattern":"S","legs":"X"},"action":"harvest","summary":"good-harvest","bonus":1.7800000000000014},{"rt":1472.3999999761581,"stimulus":"\n                    <p><b>Action: <em>harvest</em></b></p>\n                    <p>This is the bee that you just saw.</p>\n                    <img src=\"bees-with-color/bee-A2DM.svg\" width=\"200\">\n                    <p><span class=\"greenText\"><b>Successful harvest!</b></span><br>Your pay has increased by $0.02. Your bonus pay is now $1.22.</p>\n            ","response":0,"trial_type":"html-button-response","trial_index":122,"time_elapsed":494888,"internal_node_id":"0.0-4.0-1.57","subject_id":"61703fdd71715e01647e8aae","study_id":"60edd13110225f80f9f3709b","session_id":"6196c701aa85b596f57e1a34","condition":"contingent","relevant_dimensions":["wings","pattern"],"bee_group":{"antennae":"X","wings":"2","pattern":"S","legs":"X"},"bonus":1.7800000000000014},{"rt":1621.0999999642372,"stimulus":"bees-with-color/bee-A1SF.svg","response":0,"trial_type":"image-button-response","trial_index":123,"time_elapsed":496512,"internal_node_id":"0.0-4.0-0.58","subject_id":"61703fdd71715e01647e8aae","study_id":"60edd13110225f80f9f3709b","session_id":"6196c701aa85b596f57e1a34","condition":"contingent","relevant_dimensions":["wings","pattern"],"bee_group":{"antennae":"X","wings":"2","pattern":"S","legs":"X"},"action":"harvest","summary":"good-harvest","bonus":1.7800000000000014},{"rt":1324.5,"stimulus":"\n                    <p><b>Action: <em>harvest</em></b></p>\n                    <p>This is the bee that you just saw.</p>\n                    <img src=\"bees-with-color/bee-A1SF.svg\" width=\"200\">\n                    <p><span class=\"greenText\"><b>Successful harvest!</b></span><br>Your pay has increased by $0.02. Your bonus pay is now $1.24.</p>\n            ","response":0,"trial_type":"html-button-response","trial_index":124,"time_elapsed":497838,"internal_node_id":"0.0-4.0-1.58","subject_id":"61703fdd71715e01647e8aae","study_id":"60edd13110225f80f9f3709b","session_id":"6196c701aa85b596f57e1a34","condition":"contingent","relevant_dimensions":["wings","pattern"],"bee_group":{"antennae":"X","wings":"2","pattern":"S","legs":"X"},"bonus":1.7800000000000014},{"rt":5899.200000047684,"stimulus":"bees-with-color/bee-A1SM.svg","response":0,"trial_type":"image-button-response","trial_index":125,"time_elapsed":503739,"internal_node_id":"0.0-4.0-0.59","subject_id":"61703fdd71715e01647e8aae","study_id":"60edd13110225f80f9f3709b","session_id":"6196c701aa85b596f57e1a34","condition":"contingent","relevant_dimensions":["wings","pattern"],"bee_group":{"antennae":"X","wings":"2","pattern":"S","legs":"X"},"action":"harvest","summary":"good-harvest","bonus":1.7800000000000014},{"rt":1702.4000000357628,"stimulus":"\n                    <p><b>Action: <em>harvest</em></b></p>\n                    <p>This is the bee that you just saw.</p>\n                    <img src=\"bees-with-color/bee-A1SM.svg\" width=\"200\">\n                    <p><span class=\"greenText\"><b>Successful harvest!</b></span><br>Your pay has increased by $0.02. Your bonus pay is now $1.26.</p>\n            ","response":0,"trial_type":"html-button-response","trial_index":126,"time_elapsed":505443,"internal_node_id":"0.0-4.0-1.59","subject_id":"61703fdd71715e01647e8aae","study_id":"60edd13110225f80f9f3709b","session_id":"6196c701aa85b596f57e1a34","condition":"contingent","relevant_dimensions":["wings","pattern"],"bee_group":{"antennae":"X","wings":"2","pattern":"S","legs":"X"},"bonus":1.7800000000000014},{"rt":1963.4000000357628,"stimulus":"bees-with-color/bee-A2SM.svg","response":1,"trial_type":"image-button-response","trial_index":127,"time_elapsed":507409,"internal_node_id":"0.0-4.0-0.60","subject_id":"61703fdd71715e01647e8aae","study_id":"60edd13110225f80f9f3709b","session_id":"6196c701aa85b596f57e1a34","condition":"contingent","relevant_dimensions":["wings","pattern"],"bee_group":{"antennae":"X","wings":"2","pattern":"S","legs":"X"},"action":"avoid","summary":"good-avoid","bonus":1.7800000000000014},{"rt":1146.199999988079,"stimulus":"\n                    <p><b>Action: <em>avoid</em></b></p>\n                    <p>This is the bee that you just saw.</p>\n                    <img src=\"bees-with-color/bee-A2SM.svg\" width=\"200\">\n                    <p><br>Your bonus pay is unchanged, and remains at $1.26.</p>\n            ","response":0,"trial_type":"html-button-response","trial_index":128,"time_elapsed":508558,"internal_node_id":"0.0-4.0-1.60","subject_id":"61703fdd71715e01647e8aae","study_id":"60edd13110225f80f9f3709b","session_id":"6196c701aa85b596f57e1a34","condition":"contingent","relevant_dimensions":["wings","pattern"],"bee_group":{"antennae":"X","wings":"2","pattern":"S","legs":"X"},"bonus":1.7800000000000014},{"rt":1641.199999988079,"stimulus":"bees-with-color/bee-B1DF.svg","response":0,"trial_type":"image-button-response","trial_index":129,"time_elapsed":510201,"internal_node_id":"0.0-4.0-0.61","subject_id":"61703fdd71715e01647e8aae","study_id":"60edd13110225f80f9f3709b","session_id":"6196c701aa85b596f57e1a34","condition":"contingent","relevant_dimensions":["wings","pattern"],"bee_group":{"antennae":"X","wings":"2","pattern":"S","legs":"X"},"action":"harvest","summary":"good-harvest","bonus":1.7800000000000014},{"rt":1065.7000000476837,"stimulus":"\n                    <p><b>Action: <em>harvest</em></b></p>\n                    <p>This is the bee that you just saw.</p>\n                    <img src=\"bees-with-color/bee-B1DF.svg\" width=\"200\">\n                    <p><span class=\"greenText\"><b>Successful harvest!</b></span><br>Your pay has increased by $0.02. Your bonus pay is now $1.28.</p>\n            ","response":0,"trial_type":"html-button-response","trial_index":130,"time_elapsed":511269,"internal_node_id":"0.0-4.0-1.61","subject_id":"61703fdd71715e01647e8aae","study_id":"60edd13110225f80f9f3709b","session_id":"6196c701aa85b596f57e1a34","condition":"contingent","relevant_dimensions":["wings","pattern"],"bee_group":{"antennae":"X","wings":"2","pattern":"S","legs":"X"},"bonus":1.7800000000000014},{"rt":1147.300000011921,"stimulus":"bees-with-color/bee-B2DM.svg","response":0,"trial_type":"image-button-response","trial_index":131,"time_elapsed":512419,"internal_node_id":"0.0-4.0-0.62","subject_id":"61703fdd71715e01647e8aae","study_id":"60edd13110225f80f9f3709b","session_id":"6196c701aa85b596f57e1a34","condition":"contingent","relevant_dimensions":["wings","pattern"],"bee_group":{"antennae":"X","wings":"2","pattern":"S","legs":"X"},"action":"harvest","summary":"good-harvest","bonus":1.7800000000000014},{"rt":1178,"stimulus":"\n                    <p><b>Action: <em>harvest</em></b></p>\n                    <p>This is the bee that you just saw.</p>\n                    <img src=\"bees-with-color/bee-B2DM.svg\" width=\"200\">\n                    <p><span class=\"greenText\"><b>Successful harvest!</b></span><br>Your pay has increased by $0.02. Your bonus pay is now $1.30.</p>\n            ","response":0,"trial_type":"html-button-response","trial_index":132,"time_elapsed":513599,"internal_node_id":"0.0-4.0-1.62","subject_id":"61703fdd71715e01647e8aae","study_id":"60edd13110225f80f9f3709b","session_id":"6196c701aa85b596f57e1a34","condition":"contingent","relevant_dimensions":["wings","pattern"],"bee_group":{"antennae":"X","wings":"2","pattern":"S","legs":"X"},"bonus":1.7800000000000014},{"rt":1828,"stimulus":"bees-with-color/bee-A2SF.svg","response":1,"trial_type":"image-button-response","trial_index":133,"time_elapsed":515429,"internal_node_id":"0.0-4.0-0.63","subject_id":"61703fdd71715e01647e8aae","study_id":"60edd13110225f80f9f3709b","session_id":"6196c701aa85b596f57e1a34","condition":"contingent","relevant_dimensions":["wings","pattern"],"bee_group":{"antennae":"X","wings":"2","pattern":"S","legs":"X"},"action":"avoid","summary":"good-avoid","bonus":1.7800000000000014},{"rt":1056.199999988079,"stimulus":"\n                    <p><b>Action: <em>avoid</em></b></p>\n                    <p>This is the bee that you just saw.</p>\n                    <img src=\"bees-with-color/bee-A2SF.svg\" width=\"200\">\n                    <p><br>Your bonus pay is unchanged, and remains at $1.30.</p>\n            ","response":0,"trial_type":"html-button-response","trial_index":134,"time_elapsed":516488,"internal_node_id":"0.0-4.0-1.63","subject_id":"61703fdd71715e01647e8aae","study_id":"60edd13110225f80f9f3709b","session_id":"6196c701aa85b596f57e1a34","condition":"contingent","relevant_dimensions":["wings","pattern"],"bee_group":{"antennae":"X","wings":"2","pattern":"S","legs":"X"},"bonus":1.7800000000000014},{"rt":15801.400000035763,"stimulus":"You have completed the first part of this experiment.<br><br>You will now begin a shorter second part, in which you will receive no feedback.<br>The same rules regarding bonus pay apply.<br><br>Press any key to begin.","response":" ","trial_type":"html-keyboard-response","trial_index":135,"time_elapsed":532291,"internal_node_id":"0.0-5.0","subject_id":"61703fdd71715e01647e8aae","study_id":"60edd13110225f80f9f3709b","session_id":"6196c701aa85b596f57e1a34","condition":"contingent","relevant_dimensions":["wings","pattern"],"bee_group":{"antennae":"X","wings":"2","pattern":"S","legs":"X"},"bonus":1.7800000000000014},{"rt":2562.199999988079,"stimulus":"bees-with-color/bee-A2DF.svg","response":0,"trial_type":"image-button-response","trial_index":136,"time_elapsed":534866,"internal_node_id":"0.0-6.0-0.0","subject_id":"61703fdd71715e01647e8aae","study_id":"60edd13110225f80f9f3709b","session_id":"6196c701aa85b596f57e1a34","condition":"contingent","relevant_dimensions":["wings","pattern"],"bee_group":{"antennae":"X","wings":"2","pattern":"S","legs":"X"},"bonus":1.7800000000000014},{"rt":8115.600000023842,"stimulus":"bees-with-color/bee-A1DM.svg","response":0,"trial_type":"image-button-response","trial_index":137,"time_elapsed":542984,"internal_node_id":"0.0-6.0-0.1","subject_id":"61703fdd71715e01647e8aae","study_id":"60edd13110225f80f9f3709b","session_id":"6196c701aa85b596f57e1a34","condition":"contingent","relevant_dimensions":["wings","pattern"],"bee_group":{"antennae":"X","wings":"2","pattern":"S","legs":"X"},"bonus":1.7800000000000014},{"rt":1623,"stimulus":"bees-with-color/bee-A2SF.svg","response":1,"trial_type":"image-button-response","trial_index":138,"time_elapsed":544611,"internal_node_id":"0.0-6.0-0.2","subject_id":"61703fdd71715e01647e8aae","study_id":"60edd13110225f80f9f3709b","session_id":"6196c701aa85b596f57e1a34","condition":"contingent","relevant_dimensions":["wings","pattern"],"bee_group":{"antennae":"X","wings":"2","pattern":"S","legs":"X"},"bonus":1.7800000000000014},{"rt":1291.7000000476837,"stimulus":"bees-with-color/bee-B2SF.svg","response":1,"trial_type":"image-button-response","trial_index":139,"time_elapsed":545906,"internal_node_id":"0.0-6.0-0.3","subject_id":"61703fdd71715e01647e8aae","study_id":"60edd13110225f80f9f3709b","session_id":"6196c701aa85b596f57e1a34","condition":"contingent","relevant_dimensions":["wings","pattern"],"bee_group":{"antennae":"X","wings":"2","pattern":"S","legs":"X"},"bonus":1.7800000000000014},{"rt":1471.8999999761581,"stimulus":"bees-with-color/bee-A1SM.svg","response":0,"trial_type":"image-button-response","trial_index":140,"time_elapsed":547380,"internal_node_id":"0.0-6.0-0.4","subject_id":"61703fdd71715e01647e8aae","study_id":"60edd13110225f80f9f3709b","session_id":"6196c701aa85b596f57e1a34","condition":"contingent","relevant_dimensions":["wings","pattern"],"bee_group":{"antennae":"X","wings":"2","pattern":"S","legs":"X"},"bonus":1.7800000000000014},{"rt":1051.5,"stimulus":"bees-with-color/bee-B1DM.svg","response":0,"trial_type":"image-button-response","trial_index":141,"time_elapsed":548435,"internal_node_id":"0.0-6.0-0.5","subject_id":"61703fdd71715e01647e8aae","study_id":"60edd13110225f80f9f3709b","session_id":"6196c701aa85b596f57e1a34","condition":"contingent","relevant_dimensions":["wings","pattern"],"bee_group":{"antennae":"X","wings":"2","pattern":"S","legs":"X"},"bonus":1.7800000000000014},{"rt":992.5,"stimulus":"bees-with-color/bee-B1DF.svg","response":0,"trial_type":"image-button-response","trial_index":142,"time_elapsed":549430,"internal_node_id":"0.0-6.0-0.6","subject_id":"61703fdd71715e01647e8aae","study_id":"60edd13110225f80f9f3709b","session_id":"6196c701aa85b596f57e1a34","condition":"contingent","relevant_dimensions":["wings","pattern"],"bee_group":{"antennae":"X","wings":"2","pattern":"S","legs":"X"},"bonus":1.7800000000000014},{"rt":1763.7999999523163,"stimulus":"bees-with-color/bee-A1SF.svg","response":0,"trial_type":"image-button-response","trial_index":143,"time_elapsed":551196,"internal_node_id":"0.0-6.0-0.7","subject_id":"61703fdd71715e01647e8aae","study_id":"60edd13110225f80f9f3709b","session_id":"6196c701aa85b596f57e1a34","condition":"contingent","relevant_dimensions":["wings","pattern"],"bee_group":{"antennae":"X","wings":"2","pattern":"S","legs":"X"},"bonus":1.7800000000000014},{"rt":1583.5,"stimulus":"bees-with-color/bee-B2SM.svg","response":1,"trial_type":"image-button-response","trial_index":144,"time_elapsed":552784,"internal_node_id":"0.0-6.0-0.8","subject_id":"61703fdd71715e01647e8aae","study_id":"60edd13110225f80f9f3709b","session_id":"6196c701aa85b596f57e1a34","condition":"contingent","relevant_dimensions":["wings","pattern"],"bee_group":{"antennae":"X","wings":"2","pattern":"S","legs":"X"},"bonus":1.7800000000000014},{"rt":1528.3999999761581,"stimulus":"bees-with-color/bee-A2DM.svg","response":0,"trial_type":"image-button-response","trial_index":145,"time_elapsed":554316,"internal_node_id":"0.0-6.0-0.9","subject_id":"61703fdd71715e01647e8aae","study_id":"60edd13110225f80f9f3709b","session_id":"6196c701aa85b596f57e1a34","condition":"contingent","relevant_dimensions":["wings","pattern"],"bee_group":{"antennae":"X","wings":"2","pattern":"S","legs":"X"},"bonus":1.7800000000000014},{"rt":1090.8999999761581,"stimulus":"bees-with-color/bee-B2DM.svg","response":0,"trial_type":"image-button-response","trial_index":146,"time_elapsed":555409,"internal_node_id":"0.0-6.0-0.10","subject_id":"61703fdd71715e01647e8aae","study_id":"60edd13110225f80f9f3709b","session_id":"6196c701aa85b596f57e1a34","condition":"contingent","relevant_dimensions":["wings","pattern"],"bee_group":{"antennae":"X","wings":"2","pattern":"S","legs":"X"},"bonus":1.7800000000000014},{"rt":1151.8999999761581,"stimulus":"bees-with-color/bee-B1SM.svg","response":0,"trial_type":"image-button-response","trial_index":147,"time_elapsed":556563,"internal_node_id":"0.0-6.0-0.11","subject_id":"61703fdd71715e01647e8aae","study_id":"60edd13110225f80f9f3709b","session_id":"6196c701aa85b596f57e1a34","condition":"contingent","relevant_dimensions":["wings","pattern"],"bee_group":{"antennae":"X","wings":"2","pattern":"S","legs":"X"},"bonus":1.7800000000000014},{"rt":1947.800000011921,"stimulus":"bees-with-color/bee-A2SM.svg","response":1,"trial_type":"image-button-response","trial_index":148,"time_elapsed":558513,"internal_node_id":"0.0-6.0-0.12","subject_id":"61703fdd71715e01647e8aae","study_id":"60edd13110225f80f9f3709b","session_id":"6196c701aa85b596f57e1a34","condition":"contingent","relevant_dimensions":["wings","pattern"],"bee_group":{"antennae":"X","wings":"2","pattern":"S","legs":"X"},"bonus":1.7800000000000014},{"rt":1413.800000011921,"stimulus":"bees-with-color/bee-B1SF.svg","response":0,"trial_type":"image-button-response","trial_index":149,"time_elapsed":559930,"internal_node_id":"0.0-6.0-0.13","subject_id":"61703fdd71715e01647e8aae","study_id":"60edd13110225f80f9f3709b","session_id":"6196c701aa85b596f57e1a34","condition":"contingent","relevant_dimensions":["wings","pattern"],"bee_group":{"antennae":"X","wings":"2","pattern":"S","legs":"X"},"bonus":1.7800000000000014},{"rt":1149.6000000238419,"stimulus":"bees-with-color/bee-B2DF.svg","response":0,"trial_type":"image-button-response","trial_index":150,"time_elapsed":561082,"internal_node_id":"0.0-6.0-0.14","subject_id":"61703fdd71715e01647e8aae","study_id":"60edd13110225f80f9f3709b","session_id":"6196c701aa85b596f57e1a34","condition":"contingent","relevant_dimensions":["wings","pattern"],"bee_group":{"antennae":"X","wings":"2","pattern":"S","legs":"X"},"bonus":1.7800000000000014},{"rt":1052.699999988079,"stimulus":"bees-with-color/bee-A1DF.svg","response":0,"trial_type":"image-button-response","trial_index":151,"time_elapsed":562137,"internal_node_id":"0.0-6.0-0.15","subject_id":"61703fdd71715e01647e8aae","study_id":"60edd13110225f80f9f3709b","session_id":"6196c701aa85b596f57e1a34","condition":"contingent","relevant_dimensions":["wings","pattern"],"bee_group":{"antennae":"X","wings":"2","pattern":"S","legs":"X"},"bonus":1.7800000000000014},{"rt":1241.699999988079,"stimulus":"bees-with-color/bee-A2DF.svg","response":0,"trial_type":"image-button-response","trial_index":152,"time_elapsed":563381,"internal_node_id":"0.0-6.0-0.16","subject_id":"61703fdd71715e01647e8aae","study_id":"60edd13110225f80f9f3709b","session_id":"6196c701aa85b596f57e1a34","condition":"contingent","relevant_dimensions":["wings","pattern"],"bee_group":{"antennae":"X","wings":"2","pattern":"S","legs":"X"},"bonus":1.7800000000000014},{"rt":943.3000000119209,"stimulus":"bees-with-color/bee-A1DM.svg","response":0,"trial_type":"image-button-response","trial_index":153,"time_elapsed":564327,"internal_node_id":"0.0-6.0-0.17","subject_id":"61703fdd71715e01647e8aae","study_id":"60edd13110225f80f9f3709b","session_id":"6196c701aa85b596f57e1a34","condition":"contingent","relevant_dimensions":["wings","pattern"],"bee_group":{"antennae":"X","wings":"2","pattern":"S","legs":"X"},"bonus":1.7800000000000014},{"rt":850.1999999880791,"stimulus":"bees-with-color/bee-B1DF.svg","response":0,"trial_type":"image-button-response","trial_index":154,"time_elapsed":565179,"internal_node_id":"0.0-6.0-0.18","subject_id":"61703fdd71715e01647e8aae","study_id":"60edd13110225f80f9f3709b","session_id":"6196c701aa85b596f57e1a34","condition":"contingent","relevant_dimensions":["wings","pattern"],"bee_group":{"antennae":"X","wings":"2","pattern":"S","legs":"X"},"bonus":1.7800000000000014},{"rt":1008.3000000119209,"stimulus":"bees-with-color/bee-B2DM.svg","response":0,"trial_type":"image-button-response","trial_index":155,"time_elapsed":566189,"internal_node_id":"0.0-6.0-0.19","subject_id":"61703fdd71715e01647e8aae","study_id":"60edd13110225f80f9f3709b","session_id":"6196c701aa85b596f57e1a34","condition":"contingent","relevant_dimensions":["wings","pattern"],"bee_group":{"antennae":"X","wings":"2","pattern":"S","legs":"X"},"bonus":1.7800000000000014},{"rt":1796.6000000238419,"stimulus":"bees-with-color/bee-B2SF.svg","response":1,"trial_type":"image-button-response","trial_index":156,"time_elapsed":567987,"internal_node_id":"0.0-6.0-0.20","subject_id":"61703fdd71715e01647e8aae","study_id":"60edd13110225f80f9f3709b","session_id":"6196c701aa85b596f57e1a34","condition":"contingent","relevant_dimensions":["wings","pattern"],"bee_group":{"antennae":"X","wings":"2","pattern":"S","legs":"X"},"bonus":1.7800000000000014},{"rt":1220.4000000357628,"stimulus":"bees-with-color/bee-B1DM.svg","response":0,"trial_type":"image-button-response","trial_index":157,"time_elapsed":569210,"internal_node_id":"0.0-6.0-0.21","subject_id":"61703fdd71715e01647e8aae","study_id":"60edd13110225f80f9f3709b","session_id":"6196c701aa85b596f57e1a34","condition":"contingent","relevant_dimensions":["wings","pattern"],"bee_group":{"antennae":"X","wings":"2","pattern":"S","legs":"X"},"bonus":1.7800000000000014},{"rt":1842.300000011921,"stimulus":"bees-with-color/bee-A2SF.svg","response":1,"trial_type":"image-button-response","trial_index":158,"time_elapsed":571054,"internal_node_id":"0.0-6.0-0.22","subject_id":"61703fdd71715e01647e8aae","study_id":"60edd13110225f80f9f3709b","session_id":"6196c701aa85b596f57e1a34","condition":"contingent","relevant_dimensions":["wings","pattern"],"bee_group":{"antennae":"X","wings":"2","pattern":"S","legs":"X"},"bonus":1.7800000000000014},{"rt":1593.5999999642372,"stimulus":"bees-with-color/bee-A1SM.svg","response":0,"trial_type":"image-button-response","trial_index":159,"time_elapsed":572651,"internal_node_id":"0.0-6.0-0.23","subject_id":"61703fdd71715e01647e8aae","study_id":"60edd13110225f80f9f3709b","session_id":"6196c701aa85b596f57e1a34","condition":"contingent","relevant_dimensions":["wings","pattern"],"bee_group":{"antennae":"X","wings":"2","pattern":"S","legs":"X"},"bonus":1.7800000000000014},{"rt":979.8999999761581,"stimulus":"bees-with-color/bee-B1SF.svg","response":0,"trial_type":"image-button-response","trial_index":160,"time_elapsed":573632,"internal_node_id":"0.0-6.0-0.24","subject_id":"61703fdd71715e01647e8aae","study_id":"60edd13110225f80f9f3709b","session_id":"6196c701aa85b596f57e1a34","condition":"contingent","relevant_dimensions":["wings","pattern"],"bee_group":{"antennae":"X","wings":"2","pattern":"S","legs":"X"},"bonus":1.7800000000000014},{"rt":957.5999999642372,"stimulus":"bees-with-color/bee-A1DF.svg","response":0,"trial_type":"image-button-response","trial_index":161,"time_elapsed":574592,"internal_node_id":"0.0-6.0-0.25","subject_id":"61703fdd71715e01647e8aae","study_id":"60edd13110225f80f9f3709b","session_id":"6196c701aa85b596f57e1a34","