[{"success":true,"trial_type":"fullscreen","trial_index":0,"time_elapsed":4690,"internal_node_id":"0.0-0.0","subject_id":"610ae3ea1341878837b4e646","study_id":"6197b3f67c2b5cd3b6d9596a","session_id":"619c1dd92ffa36c9e73c58ac","condition":"contingent","relevant_dimensions":["antennae","legs"],"bee_group":{"antennae":"A","wings":"X","pattern":"X","legs":"M"},"bonus":1.7800000000000014},{"success":true,"timeout":false,"failed_images":[],"failed_audio":[],"failed_video":[],"trial_type":"preload","trial_index":1,"time_elapsed":7636,"internal_node_id":"0.0-1.0","subject_id":"610ae3ea1341878837b4e646","study_id":"6197b3f67c2b5cd3b6d9596a","session_id":"619c1dd92ffa36c9e73c58ac","condition":"contingent","relevant_dimensions":["antennae","legs"],"bee_group":{"antennae":"A","wings":"X","pattern":"X","legs":"M"},"bonus":1.7800000000000014},{"rt":3486.2000000001863,"stimulus":"Welcome! Press any key to begin.","response":"enter","trial_type":"html-keyboard-response","trial_index":2,"time_elapsed":11123,"internal_node_id":"0.0-2.0","subject_id":"610ae3ea1341878837b4e646","study_id":"6197b3f67c2b5cd3b6d9596a","session_id":"619c1dd92ffa36c9e73c58ac","condition":"contingent","relevant_dimensions":["antennae","legs"],"bee_group":{"antennae":"A","wings":"X","pattern":"X","legs":"M"},"bonus":1.7800000000000014},{"view_history":[{"page_index":0,"viewing_time":5330.200000000186},{"page_index":1,"viewing_time":36403.59999999963},{"page_index":2,"viewing_time":29447.300000000745},{"page_index":3,"viewing_time":25407.89999999944},{"page_index":4,"viewing_time":16245},{"page_index":5,"viewing_time":23621},{"page_index":6,"viewing_time":12145},{"page_index":7,"viewing_time":11633.900000000373},{"page_index":8,"viewing_time":6310.299999999814},{"page_index":9,"viewing_time":6618.799999999814},{"page_index":10,"viewing_time":4478.700000000186},{"page_index":11,"viewing_time":12710.299999999814},{"page_index":12,"viewing_time":13467.700000000186},{"page_index":13,"viewing_time":1546.2999999998137},{"page_index":14,"viewing_time":3098.7999999998137}],"rt":208465.2000000002,"trial_type":"instructions","trial_index":3,"time_elapsed":219590,"internal_node_id":"0.0-3.0-0.0","subject_id":"610ae3ea1341878837b4e646","study_id":"6197b3f67c2b5cd3b6d9596a","session_id":"619c1dd92ffa36c9e73c58ac","condition":"contingent","relevant_dimensions":["antennae","legs"],"bee_group":{"antennae":"A","wings":"X","pattern":"X","legs":"M"},"bonus":1.7800000000000014},{"rt":35106.299999999814,"response":{"Q0":["Two or six legs","Stripes or spots on body","Single or double wings","Antennae or no antennae"]},"question_order":[0],"trial_type":"survey-multi-select","trial_index":4,"time_elapsed":254700,"internal_node_id":"0.0-3.0-1.0","subject_id":"610ae3ea1341878837b4e646","study_id":"6197b3f67c2b5cd3b6d9596a","session_id":"619c1dd92ffa36c9e73c58ac","condition":"contingent","relevant_dimensions":["antennae","legs"],"bee_group":{"antennae":"A","wings":"X","pattern":"X","legs":"M"},"correct":true,"bonus":1.7800000000000014},{"rt":21959.400000000373,"response":{"Q1":"No.","Q2":"Based on the four features of the bee.","Q3":"You do not learn if it was friendly or dangerous, and do not alter your bonus."},"question_order":[0,1,2],"trial_type":"survey-multi-choice","trial_index":5,"time_elapsed":276662,"internal_node_id":"0.0-3.0-2.0","subject_id":"610ae3ea1341878837b4e646","study_id":"6197b3f67c2b5cd3b6d9596a","session_id":"619c1dd92ffa36c9e73c58ac","condition":"contingent","relevant_dimensions":["antennae","legs"],"bee_group":{"antennae":"A","wings":"X","pattern":"X","legs":"M"},"correct":true,"bonus":1.7800000000000014},{"rt":9599.400000000373,"stimulus":"<p>Congrats, you got everything right<br>When you're ready, click the button below to continue to the experiment.</p>","response":0,"trial_type":"html-button-response","trial_index":6,"time_elapsed":286263,"internal_node_id":"0.0-3.0-3.0","subject_id":"610ae3ea1341878837b4e646","study_id":"6197b3f67c2b5cd3b6d9596a","session_id":"619c1dd92ffa36c9e73c58ac","condition":"contingent","relevant_dimensions":["antennae","legs"],"bee_group":{"antennae":"A","wings":"X","pattern":"X","legs":"M"},"bonus":1.7800000000000014},{"rt":16505.900000000373,"stimulus":"bees-with-color/bee-A1SF.svg","response":0,"trial_type":"image-button-response","trial_index":7,"time_elapsed":302771,"internal_node_id":"0.0-4.0-0.0","subject_id":"610ae3ea1341878837b4e646","study_id":"6197b3f67c2b5cd3b6d9596a","session_id":"619c1dd92ffa36c9e73c58ac","condition":"contingent","relevant_dimensions":["antennae","legs"],"bee_group":{"antennae":"A","wings":"X","pattern":"X","legs":"M"},"action":"harvest","summary":"good-harvest","bonus":1.7800000000000014},{"rt":13446.799999999814,"stimulus":"\n                    <p><b>Action: <em>harvest</em></b></p>\n                    <p>This is the bee that you just saw.</p>\n                    <img src=\"bees-with-color/bee-A1SF.svg\" width=\"200\">\n                    <p><span class=\"greenText\"><b>Successful harvest!</b></span><br>Your pay has increased by $0.02. Your bonus pay is now $0.56.</p>\n            ","response":0,"trial_type":"html-button-response","trial_index":8,"time_elapsed":316222,"internal_node_id":"0.0-4.0-1.0","subject_id":"610ae3ea1341878837b4e646","study_id":"6197b3f67c2b5cd3b6d9596a","session_id":"619c1dd92ffa36c9e73c58ac","condition":"contingent","relevant_dimensions":["antennae","legs"],"bee_group":{"antennae":"A","wings":"X","pattern":"X","legs":"M"},"bonus":1.7800000000000014},{"rt":12501.299999999814,"stimulus":"bees-with-color/bee-A1DM.svg","response":1,"trial_type":"image-button-response","trial_index":9,"time_elapsed":328725,"internal_node_id":"0.0-4.0-0.1","subject_id":"610ae3ea1341878837b4e646","study_id":"6197b3f67c2b5cd3b6d9596a","session_id":"619c1dd92ffa36c9e73c58ac","condition":"contingent","relevant_dimensions":["antennae","legs"],"bee_group":{"antennae":"A","wings":"X","pattern":"X","legs":"M"},"action":"avoid","summary":"good-avoid","bonus":1.7800000000000014},{"rt":10974.200000000186,"stimulus":"\n                    <p><b>Action: <em>avoid</em></b></p>\n                    <p>This is the bee that you just saw.</p>\n                    <img src=\"bees-with-color/bee-A1DM.svg\" width=\"200\">\n                    <p><br>Your bonus pay is unchanged, and remains at $0.56.</p>\n            ","response":0,"trial_type":"html-button-response","trial_index":10,"time_elapsed":339701,"internal_node_id":"0.0-4.0-1.1","subject_id":"610ae3ea1341878837b4e646","study_id":"6197b3f67c2b5cd3b6d9596a","session_id":"619c1dd92ffa36c9e73c58ac","condition":"contingent","relevant_dimensions":["antennae","legs"],"bee_group":{"antennae":"A","wings":"X","pattern":"X","legs":"M"},"bonus":1.7800000000000014},{"rt":3513.899999999441,"stimulus":"bees-with-color/bee-B2DF.svg","response":0,"trial_type":"image-button-response","trial_index":11,"time_elapsed":343217,"internal_node_id":"0.0-4.0-0.2","subject_id":"610ae3ea1341878837b4e646","study_id":"6197b3f67c2b5cd3b6d9596a","session_id":"619c1dd92ffa36c9e73c58ac","condition":"contingent","relevant_dimensions":["antennae","legs"],"bee_group":{"antennae":"A","wings":"X","pattern":"X","legs":"M"},"action":"harvest","summary":"good-harvest","bonus":1.7800000000000014},{"rt":5095,"stimulus":"\n                    <p><b>Action: <em>harvest</em></b></p>\n                    <p>This is the bee that you just saw.</p>\n                    <img src=\"bees-with-color/bee-B2DF.svg\" width=\"200\">\n                    <p><span class=\"greenText\"><b>Successful harvest!</b></span><br>Your pay has increased by $0.02. Your bonus pay is now $0.58.</p>\n            ","response":0,"trial_type":"html-button-response","trial_index":12,"time_elapsed":348314,"internal_node_id":"0.0-4.0-1.2","subject_id":"610ae3ea1341878837b4e646","study_id":"6197b3f67c2b5cd3b6d9596a","session_id":"619c1dd92ffa36c9e73c58ac","condition":"contingent","relevant_dimensions":["antennae","legs"],"bee_group":{"antennae":"A","wings":"X","pattern":"X","legs":"M"},"bonus":1.7800000000000014},{"rt":14905.299999999814,"stimulus":"bees-with-color/bee-A1DF.svg","response":0,"trial_type":"image-button-response","trial_index":13,"time_elapsed":363221,"internal_node_id":"0.0-4.0-0.3","subject_id":"610ae3ea1341878837b4e646","study_id":"6197b3f67c2b5cd3b6d9596a","session_id":"619c1dd92ffa36c9e73c58ac","condition":"contingent","relevant_dimensions":["antennae","legs"],"bee_group":{"antennae":"A","wings":"X","pattern":"X","legs":"M"},"action":"harvest","summary":"good-harvest","bonus":1.7800000000000014},{"rt":8076.700000000186,"stimulus":"\n                    <p><b>Action: <em>harvest</em></b></p>\n                    <p>This is the bee that you just saw.</p>\n                    <img src=\"bees-with-color/bee-A1DF.svg\" width=\"200\">\n                    <p><span class=\"greenText\"><b>Successful harvest!</b></span><br>Your pay has increased by $0.02. Your bonus pay is now $0.60.</p>\n            ","response":0,"trial_type":"html-button-response","trial_index":14,"time_elapsed":371299,"internal_node_id":"0.0-4.0-1.3","subject_id":"610ae3ea1341878837b4e646","study_id":"6197b3f67c2b5cd3b6d9596a","session_id":"619c1dd92ffa36c9e73c58ac","condition":"contingent","relevant_dimensions":["antennae","legs"],"bee_group":{"antennae":"A","wings":"X","pattern":"X","legs":"M"},"bonus":1.7800000000000014},{"rt":8189.0999999996275,"stimulus":"bees-with-color/bee-A1SM.svg","response":0,"trial_type":"image-button-response","trial_index":15,"time_elapsed":379490,"internal_node_id":"0.0-4.0-0.4","subject_id":"610ae3ea1341878837b4e646","study_id":"6197b3f67c2b5cd3b6d9596a","session_id":"619c1dd92ffa36c9e73c58ac","condition":"contingent","relevant_dimensions":["antennae","legs"],"bee_group":{"antennae":"A","wings":"X","pattern":"X","legs":"M"},"action":"harvest","summary":"bad-harvest","bonus":1.7800000000000014},{"rt":9119.300000000745,"stimulus":"\n                    <p><b>Action: <em>harvest</em></b></p>\n                    <p>This is the bee that you just saw.</p>\n                    <img src=\"bees-with-color/bee-A1SM.svg\" width=\"200\">\n                    <p><span class=\"redText\">Bad choice, the bee was angry.</span><br><b>You have been stung!</b><br>Your pay has been decreased by $0.10. Your bonus pay is now $0.50.</p>\n            ","response":0,"trial_type":"html-button-response","trial_index":16,"time_elapsed":388611,"internal_node_id":"0.0-4.0-1.4","subject_id":"610ae3ea1341878837b4e646","study_id":"6197b3f67c2b5cd3b6d9596a","session_id":"619c1dd92ffa36c9e73c58ac","condition":"contingent","relevant_dimensions":["antennae","legs"],"bee_group":{"antennae":"A","wings":"X","pattern":"X","legs":"M"},"bonus":1.7800000000000014},{"rt":3350.4000000003725,"stimulus":"bees-with-color/bee-B2DM.svg","response":0,"trial_type":"image-button-response","trial_index":17,"time_elapsed":391963,"internal_node_id":"0.0-4.0-0.5","subject_id":"610ae3ea1341878837b4e646","study_id":"6197b3f67c2b5cd3b6d9596a","session_id":"619c1dd92ffa36c9e73c58ac","condition":"contingent","relevant_dimensions":["antennae","legs"],"bee_group":{"antennae":"A","wings":"X","pattern":"X","legs":"M"},"action":"harvest","summary":"good-harvest","bonus":1.7800000000000014},{"rt":3086.399999999441,"stimulus":"\n                    <p><b>Action: <em>harvest</em></b></p>\n                    <p>This is the bee that you just saw.</p>\n                    <img src=\"bees-with-color/bee-B2DM.svg\" width=\"200\">\n                    <p><span class=\"greenText\"><b>Successful harvest!</b></span><br>Your pay has increased by $0.02. Your bonus pay is now $0.52.</p>\n            ","response":0,"trial_type":"html-button-response","trial_index":18,"time_elapsed":395051,"internal_node_id":"0.0-4.0-1.5","subject_id":"610ae3ea1341878837b4e646","study_id":"6197b3f67c2b5cd3b6d9596a","session_id":"619c1dd92ffa36c9e73c58ac","condition":"contingent","relevant_dimensions":["antennae","legs"],"bee_group":{"antennae":"A","wings":"X","pattern":"X","legs":"M"},"bonus":1.7800000000000014},{"rt":10040,"stimulus":"bees-with-color/bee-B2SM.svg","response":0,"trial_type":"image-button-response","trial_index":19,"time_elapsed":405093,"internal_node_id":"0.0-4.0-0.6","subject_id":"610ae3ea1341878837b4e646","study_id":"6197b3f67c2b5cd3b6d9596a","session_id":"619c1dd92ffa36c9e73c58ac","condition":"contingent","relevant_dimensions":["antennae","legs"],"bee_group":{"antennae":"A","wings":"X","pattern":"X","legs":"M"},"action":"harvest","summary":"good-harvest","bonus":1.7800000000000014},{"rt":6990.200000000186,"stimulus":"\n                    <p><b>Action: <em>harvest</em></b></p>\n                    <p>This is the bee that you just saw.</p>\n                    <img src=\"bees-with-color/bee-B2SM.svg\" width=\"200\">\n                    <p><span class=\"greenText\"><b>Successful harvest!</b></span><br>Your pay has increased by $0.02. Your bonus pay is now $0.54.</p>\n            ","response":0,"trial_type":"html-button-response","trial_index":20,"time_elapsed":412085,"internal_node_id":"0.0-4.0-1.6","subject_id":"610ae3ea1341878837b4e646","study_id":"6197b3f67c2b5cd3b6d9596a","session_id":"619c1dd92ffa36c9e73c58ac","condition":"contingent","relevant_dimensions":["antennae","legs"],"bee_group":{"antennae":"A","wings":"X","pattern":"X","legs":"M"},"bonus":1.7800000000000014},{"rt":2890.4000000003725,"stimulus":"bees-with-color/bee-B1SF.svg","response":0,"trial_type":"image-button-response","trial_index":21,"time_elapsed":414977,"internal_node_id":"0.0-4.0-0.7","subject_id":"610ae3ea1341878837b4e646","study_id":"6197b3f67c2b5cd3b6d9596a","session_id":"619c1dd92ffa36c9e73c58ac","condition":"contingent","relevant_dimensions":["antennae","legs"],"bee_group":{"antennae":"A","wings":"X","pattern":"X","legs":"M"},"action":"harvest","summary":"good-harvest","bonus":1.7800000000000014},{"rt":5064.4000000003725,"stimulus":"\n                    <p><b>Action: <em>harvest</em></b></p>\n                    <p>This is the bee that you just saw.</p>\n                    <img src=\"bees-with-color/bee-B1SF.svg\" width=\"200\">\n                    <p><span class=\"greenText\"><b>Successful harvest!</b></span><br>Your pay has increased by $0.02. Your bonus pay is now $0.56.</p>\n            ","response":0,"trial_type":"html-button-response","trial_index":22,"time_elapsed":420043,"internal_node_id":"0.0-4.0-1.7","subject_id":"610ae3ea1341878837b4e646","study_id":"6197b3f67c2b5cd3b6d9596a","session_id":"619c1dd92ffa36c9e73c58ac","condition":"contingent","relevant_dimensions":["antennae","legs"],"bee_group":{"antennae":"A","wings":"X","pattern":"X","legs":"M"},"bonus":1.7800000000000014},{"rt":3979.5,"stimulus":"bees-with-color/bee-B1SM.svg","response":0,"trial_type":"image-button-response","trial_index":23,"time_elapsed":424025,"internal_node_id":"0.0-4.0-0.8","subject_id":"610ae3ea1341878837b4e646","study_id":"6197b3f67c2b5cd3b6d9596a","session_id":"619c1dd92ffa36c9e73c58ac","condition":"contingent","relevant_dimensions":["antennae","legs"],"bee_group":{"antennae":"A","wings":"X","pattern":"X","legs":"M"},"action":"harvest","summary":"good-harvest","bonus":1.7800000000000014},{"rt":3258.300000000745,"stimulus":"\n                    <p><b>Action: <em>harvest</em></b></p>\n                    <p>This is the bee that you just saw.</p>\n                    <img src=\"bees-with-color/bee-B1SM.svg\" width=\"200\">\n                    <p><span class=\"greenText\"><b>Successful harvest!</b></span><br>Your pay has increased by $0.02. Your bonus pay is now $0.58.</p>\n            ","response":0,"trial_type":"html-button-response","trial_index":24,"time_elapsed":427285,"internal_node_id":"0.0-4.0-1.8","subject_id":"610ae3ea1341878837b4e646","study_id":"6197b3f67c2b5cd3b6d9596a","session_id":"619c1dd92ffa36c9e73c58ac","condition":"contingent","relevant_dimensions":["antennae","legs"],"bee_group":{"antennae":"A","wings":"X","pattern":"X","legs":"M"},"bonus":1.7800000000000014},{"rt":17813.5,"stimulus":"bees-with-color/bee-B2SF.svg","response":0,"trial_type":"image-button-response","trial_index":25,"time_elapsed":445101,"internal_node_id":"0.0-4.0-0.9","subject_id":"610ae3ea1341878837b4e646","study_id":"6197b3f67c2b5cd3b6d9596a","session_id":"619c1dd92ffa36c9e73c58ac","condition":"contingent","relevant_dimensions":["antennae","legs"],"bee_group":{"antennae":"A","wings":"X","pattern":"X","legs":"M"},"action":"harvest","summary":"good-harvest","bonus":1.7800000000000014},{"rt":1137.2999999998137,"stimulus":"\n                    <p><b>Action: <em>harvest</em></b></p>\n                    <p>This is the bee that you just saw.</p>\n                    <img src=\"bees-with-color/bee-B2SF.svg\" width=\"200\">\n                    <p><span class=\"greenText\"><b>Successful harvest!</b></span><br>Your pay has increased by $0.02. Your bonus pay is now $0.60.</p>\n            ","response":0,"trial_type":"html-button-response","trial_index":26,"time_elapsed":446240,"internal_node_id":"0.0-4.0-1.9","subject_id":"610ae3ea1341878837b4e646","study_id":"6197b3f67c2b5cd3b6d9596a","session_id":"619c1dd92ffa36c9e73c58ac","condition":"contingent","relevant_dimensions":["antennae","legs"],"bee_group":{"antennae":"A","wings":"X","pattern":"X","legs":"M"},"bonus":1.7800000000000014},{"rt":6359.100000000559,"stimulus":"bees-with-color/bee-A2DM.svg","response":0,"trial_type":"image-button-response","trial_index":27,"time_elapsed":452601,"internal_node_id":"0.0-4.0-0.10","subject_id":"610ae3ea1341878837b4e646","study_id":"6197b3f67c2b5cd3b6d9596a","session_id":"619c1dd92ffa36c9e73c58ac","condition":"contingent","relevant_dimensions":["antennae","legs"],"bee_group":{"antennae":"A","wings":"X","pattern":"X","legs":"M"},"action":"harvest","summary":"bad-harvest","bonus":1.7800000000000014},{"rt":15188.299999999814,"stimulus":"\n                    <p><b>Action: <em>harvest</em></b></p>\n                    <p>This is the bee that you just saw.</p>\n                    <img src=\"bees-with-color/bee-A2DM.svg\" width=\"200\">\n                    <p><span class=\"redText\">Bad choice, the bee was angry.</span><br><b>You have been stung!</b><br>Your pay has been decreased by $0.10. Your bonus pay is now $0.50.</p>\n            ","response":0,"trial_type":"html-button-response","trial_index":28,"time_elapsed":467791,"internal_node_id":"0.0-4.0-1.10","subject_id":"610ae3ea1341878837b4e646","study_id":"6197b3f67c2b5cd3b6d9596a","session_id":"619c1dd92ffa36c9e73c58ac","condition":"contingent","relevant_dimensions":["antennae","legs"],"bee_group":{"antennae":"A","wings":"X","pattern":"X","legs":"M"},"bonus":1.7800000000000014},{"rt":2060.2000000001863,"stimulus":"bees-with-color/bee-A2SF.svg","response":0,"trial_type":"image-button-response","trial_index":29,"time_elapsed":469853,"internal_node_id":"0.0-4.0-0.11","subject_id":"610ae3ea1341878837b4e646","study_id":"6197b3f67c2b5cd3b6d9596a","session_id":"619c1dd92ffa36c9e73c58ac","condition":"contingent","relevant_dimensions":["antennae","legs"],"bee_group":{"antennae":"A","wings":"X","pattern":"X","legs":"M"},"action":"harvest","summary":"good-harvest","bonus":1.7800000000000014},{"rt":889.7000000001863,"stimulus":"\n                    <p><b>Action: <em>harvest</em></b></p>\n                    <p>This is the bee that you just saw.</p>\n                    <img src=\"bees-with-color/bee-A2SF.svg\" width=\"200\">\n                    <p><span class=\"greenText\"><b>Successful harvest!</b></span><br>Your pay has increased by $0.02. Your bonus pay is now $0.52.</p>\n            ","response":0,"trial_type":"html-button-response","trial_index":30,"time_elapsed":470744,"internal_node_id":"0.0-4.0-1.11","subject_id":"610ae3ea1341878837b4e646","study_id":"6197b3f67c2b5cd3b6d9596a","session_id":"619c1dd92ffa36c9e73c58ac","condition":"contingent","relevant_dimensions":["antennae","legs"],"bee_group":{"antennae":"A","wings":"X","pattern":"X","legs":"M"},"bonus":1.7800000000000014},{"rt":3738.7999999998137,"stimulus":"bees-with-color/bee-B1DF.svg","response":0,"trial_type":"image-button-response","trial_index":31,"time_elapsed":474484,"internal_node_id":"0.0-4.0-0.12","subject_id":"610ae3ea1341878837b4e646","study_id":"6197b3f67c2b5cd3b6d9596a","session_id":"619c1dd92ffa36c9e73c58ac","condition":"contingent","relevant_dimensions":["antennae","legs"],"bee_group":{"antennae":"A","wings":"X","pattern":"X","legs":"M"},"action":"harvest","summary":"good-harvest","bonus":1.7800000000000014},{"rt":854.7000000001863,"stimulus":"\n                    <p><b>Action: <em>harvest</em></b></p>\n                    <p>This is the bee that you just saw.</p>\n                    <img src=\"bees-with-color/bee-B1DF.svg\" width=\"200\">\n                    <p><span class=\"greenText\"><b>Successful harvest!</b></span><br>Your pay has increased by $0.02. Your bonus pay is now $0.54.</p>\n            ","response":0,"trial_type":"html-button-response","trial_index":32,"time_elapsed":475340,"internal_node_id":"0.0-4.0-1.12","subject_id":"610ae3ea1341878837b4e646","study_id":"6197b3f67c2b5cd3b6d9596a","session_id":"619c1dd92ffa36c9e73c58ac","condition":"contingent","relevant_dimensions":["antennae","legs"],"bee_group":{"antennae":"A","wings":"X","pattern":"X","legs":"M"},"bonus":1.7800000000000014},{"rt":13066.199999999255,"stimulus":"bees-with-color/bee-A2SM.svg","response":1,"trial_type":"image-button-response","trial_index":33,"time_elapsed":488408,"internal_node_id":"0.0-4.0-0.13","subject_id":"610ae3ea1341878837b4e646","study_id":"6197b3f67c2b5cd3b6d9596a","session_id":"619c1dd92ffa36c9e73c58ac","condition":"contingent","relevant_dimensions":["antennae","legs"],"bee_group":{"antennae":"A","wings":"X","pattern":"X","legs":"M"},"action":"avoid","summary":"good-avoid","bonus":1.7800000000000014},{"rt":1751.699999999255,"stimulus":"\n                    <p><b>Action: <em>avoid</em></b></p>\n                    <p>This is the bee that you just saw.</p>\n                    <img src=\"bees-with-color/bee-A2SM.svg\" width=\"200\">\n                    <p><br>Your bonus pay is unchanged, and remains at $0.54.</p>\n            ","response":0,"trial_type":"html-button-response","trial_index":34,"time_elapsed":490161,"internal_node_id":"0.0-4.0-1.13","subject_id":"610ae3ea1341878837b4e646","study_id":"6197b3f67c2b5cd3b6d9596a","session_id":"619c1dd92ffa36c9e73c58ac","condition":"contingent","relevant_dimensions":["antennae","legs"],"bee_group":{"antennae":"A","wings":"X","pattern":"X","legs":"M"},"bonus":1.7800000000000014},{"rt":2372.2999999998137,"stimulus":"bees-with-color/bee-A2DF.svg","response":0,"trial_type":"image-button-response","trial_index":35,"time_elapsed":492535,"internal_node_id":"0.0-4.0-0.14","subject_id":"610ae3ea1341878837b4e646","study_id":"6197b3f67c2b5cd3b6d9596a","session_id":"619c1dd92ffa36c9e73c58ac","condition":"contingent","relevant_dimensions":["antennae","legs"],"bee_group":{"antennae":"A","wings":"X","pattern":"X","legs":"M"},"action":"harvest","summary":"good-harvest","bonus":1.7800000000000014},{"rt":863.5999999996275,"stimulus":"\n                    <p><b>Action: <em>harvest</em></b></p>\n                    <p>This is the bee that you just saw.</p>\n                    <img src=\"bees-with-color/bee-A2DF.svg\" width=\"200\">\n                    <p><span class=\"greenText\"><b>Successful harvest!</b></span><br>Your pay has increased by $0.02. Your bonus pay is now $0.56.</p>\n            ","response":0,"trial_type":"html-button-response","trial_index":36,"time_elapsed":493400,"internal_node_id":"0.0-4.0-1.14","subject_id":"610ae3ea1341878837b4e646","study_id":"6197b3f67c2b5cd3b6d9596a","session_id":"619c1dd92ffa36c9e73c58ac","condition":"contingent","relevant_dimensions":["antennae","legs"],"bee_group":{"antennae":"A","wings":"X","pattern":"X","legs":"M"},"bonus":1.7800000000000014},{"rt":12809.799999999814,"stimulus":"bees-with-color/bee-B1DM.svg","response":0,"trial_type":"image-button-response","trial_index":37,"time_elapsed":506211,"internal_node_id":"0.0-4.0-0.15","subject_id":"610ae3ea1341878837b4e646","study_id":"6197b3f67c2b5cd3b6d9596a","session_id":"619c1dd92ffa36c9e73c58ac","condition":"contingent","relevant_dimensions":["antennae","legs"],"bee_group":{"antennae":"A","wings":"X","pattern":"X","legs":"M"},"action":"harvest","summary":"good-harvest","bonus":1.7800000000000014},{"rt":3848.5,"stimulus":"\n                    <p><b>Action: <em>harvest</em></b></p>\n                    <p>This is the bee that you just saw.</p>\n                    <img src=\"bees-with-color/bee-B1DM.svg\" width=\"200\">\n                    <p><span class=\"greenText\"><b>Successful harvest!</b></span><br>Your pay has increased by $0.02. Your bonus pay is now $0.58.</p>\n            ","response":0,"trial_type":"html-button-response","trial_index":38,"time_elapsed":510061,"internal_node_id":"0.0-4.0-1.15","subject_id":"610ae3ea1341878837b4e646","study_id":"6197b3f67c2b5cd3b6d9596a","session_id":"619c1dd92ffa36c9e73c58ac","condition":"contingent","relevant_dimensions":["antennae","legs"],"bee_group":{"antennae":"A","wings":"X","pattern":"X","legs":"M"},"bonus":1.7800000000000014},{"rt":5896.199999999255,"stimulus":"bees-with-color/bee-A1DM.svg","response":1,"trial_type":"image-button-response","trial_index":39,"time_elapsed":515960,"internal_node_id":"0.0-4.0-0.16","subject_id":"610ae3ea1341878837b4e646","study_id":"6197b3f67c2b5cd3b6d9596a","session_id":"619c1dd92ffa36c9e73c58ac","condition":"contingent","relevant_dimensions":["antennae","legs"],"bee_group":{"antennae":"A","wings":"X","pattern":"X","legs":"M"},"action":"avoid","summary":"good-avoid","bonus":1.7800000000000014},{"rt":1720.6000000005588,"stimulus":"\n                    <p><b>Action: <em>avoid</em></b></p>\n                    <p>This is the bee that you just saw.</p>\n                    <img src=\"bees-with-color/bee-A1DM.svg\" width=\"200\">\n                    <p><br>Your bonus pay is unchanged, and remains at $0.58.</p>\n            ","response":0,"trial_type":"html-button-response","trial_index":40,"time_elapsed":517682,"internal_node_id":"0.0-4.0-1.16","subject_id":"610ae3ea1341878837b4e646","study_id":"6197b3f67c2b5cd3b6d9596a","session_id":"619c1dd92ffa36c9e73c58ac","condition":"contingent","relevant_dimensions":["antennae","legs"],"bee_group":{"antennae":"A","wings":"X","pattern":"X","legs":"M"},"bonus":1.7800000000000014},{"rt":3206.199999999255,"stimulus":"bees-with-color/bee-B2DM.svg","response":0,"trial_type":"image-button-response","trial_index":41,"time_elapsed":520889,"internal_node_id":"0.0-4.0-0.17","subject_id":"610ae3ea1341878837b4e646","study_id":"6197b3f67c2b5cd3b6d9596a","session_id":"619c1dd92ffa36c9e73c58ac","condition":"contingent","relevant_dimensions":["antennae","legs"],"bee_group":{"antennae":"A","wings":"X","pattern":"X","legs":"M"},"action":"harvest","summary":"good-harvest","bonus":1.7800000000000014},{"rt":856.4000000003725,"stimulus":"\n                    <p><b>Action: <em>harvest</em></b></p>\n                    <p>This is the bee that you just saw.</p>\n                    <img src=\"bees-with-color/bee-B2DM.svg\" width=\"200\">\n                    <p><span class=\"greenText\"><b>Successful harvest!</b></span><br>Your pay has increased by $0.02. Your bonus pay is now $0.60.</p>\n            ","response":0,"trial_type":"html-button-response","trial_index":42,"time_elapsed":521748,"internal_node_id":"0.0-4.0-1.17","subject_id":"610ae3ea1341878837b4e646","study_id":"6197b3f67c2b5cd3b6d9596a","session_id":"619c1dd92ffa36c9e73c58ac","condition":"contingent","relevant_dimensions":["antennae","legs"],"bee_group":{"antennae":"A","wings":"X","pattern":"X","legs":"M"},"bonus":1.7800000000000014},{"rt":2180,"stimulus":"bees-with-color/bee-B2DF.svg","response":0,"trial_type":"image-button-response","trial_index":43,"time_elapsed":523929,"internal_node_id":"0.0-4.0-0.18","subject_id":"610ae3ea1341878837b4e646","study_id":"6197b3f67c2b5cd3b6d9596a","session_id":"619c1dd92ffa36c9e73c58ac","condition":"contingent","relevant_dimensions":["antennae","legs"],"bee_group":{"antennae":"A","wings":"X","pattern":"X","legs":"M"},"action":"harvest","summary":"good-harvest","bonus":1.7800000000000014},{"rt":748.5999999996275,"stimulus":"\n                    <p><b>Action: <em>harvest</em></b></p>\n                    <p>This is the bee that you just saw.</p>\n                    <img src=\"bees-with-color/bee-B2DF.svg\" width=\"200\">\n                    <p><span class=\"greenText\"><b>Successful harvest!</b></span><br>Your pay has increased by $0.02. Your bonus pay is now $0.62.</p>\n            ","response":0,"trial_type":"html-button-response","trial_index":44,"time_elapsed":524680,"internal_node_id":"0.0-4.0-1.18","subject_id":"610ae3ea1341878837b4e646","study_id":"6197b3f67c2b5cd3b6d9596a","session_id":"619c1dd92ffa36c9e73c58ac","condition":"contingent","relevant_dimensions":["antennae","legs"],"bee_group":{"antennae":"A","wings":"X","pattern":"X","legs":"M"},"bonus":1.7800000000000014},{"rt":2028,"stimulus":"bees-with-color/bee-B1DF.svg","response":0,"trial_type":"image-button-response","trial_index":45,"time_elapsed":526709,"internal_node_id":"0.0-4.0-0.19","subject_id":"610ae3ea1341878837b4e646","study_id":"6197b3f67c2b5cd3b6d9596a","session_id":"619c1dd92ffa36c9e73c58ac","condition":"contingent","relevant_dimensions":["antennae","legs"],"bee_group":{"antennae":"A","wings":"X","pattern":"X","legs":"M"},"action":"harvest","summary":"good-harvest","bonus":1.7800000000000014},{"rt":988.6000000005588,"stimulus":"\n                    <p><b>Action: <em>harvest</em></b></p>\n                    <p>This is the bee that you just saw.</p>\n                    <img src=\"bees-with-color/bee-B1DF.svg\" width=\"200\">\n                    <p><span class=\"greenText\"><b>Successful harvest!</b></span><br>Your pay has increased by $0.02. Your bonus pay is now $0.64.</p>\n            ","response":0,"trial_type":"html-button-response","trial_index":46,"time_elapsed":527699,"internal_node_id":"0.0-4.0-1.19","subject_id":"610ae3ea1341878837b4e646","study_id":"6197b3f67c2b5cd3b6d9596a","session_id":"619c1dd92ffa36c9e73c58ac","condition":"contingent","relevant_dimensions":["antennae","legs"],"bee_group":{"antennae":"A","wings":"X","pattern":"X","legs":"M"},"bonus":1.7800000000000014},{"rt":1488,"stimulus":"bees-with-color/bee-A1SF.svg","response":0,"trial_type":"image-button-response","trial_index":47,"time_elapsed":529189,"internal_node_id":"0.0-4.0-0.20","subject_id":"610ae3ea1341878837b4e646","study_id":"6197b3f67c2b5cd3b6d9596a","session_id":"619c1dd92ffa36c9e73c58ac","condition":"contingent","relevant_dimensions":["antennae","legs"],"bee_group":{"antennae":"A","wings":"X","pattern":"X","legs":"M"},"action":"harvest","summary":"good-harvest","bonus":1.7800000000000014},{"rt":694.7999999998137,"stimulus":"\n                    <p><b>Action: <em>harvest</em></b></p>\n                    <p>This is the bee that you just saw.</p>\n                    <img src=\"bees-with-color/bee-A1SF.svg\" width=\"200\">\n                    <p><span class=\"greenText\"><b>Successful harvest!</b></span><br>Your pay has increased by $0.02. Your bonus pay is now $0.66.</p>\n            ","response":0,"trial_type":"html-button-response","trial_index":48,"time_elapsed":529885,"internal_node_id":"0.0-4.0-1.20","subject_id":"610ae3ea1341878837b4e646","study_id":"6197b3f67c2b5cd3b6d9596a","session_id":"619c1dd92ffa36c9e73c58ac","condition":"contingent","relevant_dimensions":["antennae","legs"],"bee_group":{"antennae":"A","wings":"X","pattern":"X","legs":"M"},"bonus":1.7800000000000014},{"rt":1612.0999999996275,"stimulus":"bees-with-color/bee-A2DF.svg","response":0,"trial_type":"image-button-response","trial_index":49,"time_elapsed":531499,"internal_node_id":"0.0-4.0-0.21","subject_id":"610ae3ea1341878837b4e646","study_id":"6197b3f67c2b5cd3b6d9596a","session_id":"619c1dd92ffa36c9e73c58ac","condition":"contingent","relevant_dimensions":["antennae","legs"],"bee_group":{"antennae":"A","wings":"X","pattern":"X","legs":"M"},"action":"harvest","summary":"good-harvest","bonus":1.7800000000000014},{"rt":536.1000000005588,"stimulus":"\n                    <p><b>Action: <em>harvest</em></b></p>\n                    <p>This is the bee that you just saw.</p>\n                    <img src=\"bees-with-color/bee-A2DF.svg\" width=\"200\">\n                    <p><span class=\"greenText\"><b>Successful harvest!</b></span><br>Your pay has increased by $0.02. Your bonus pay is now $0.68.</p>\n            ","response":0,"trial_type":"html-button-response","trial_index":50,"time_elapsed":532036,"internal_node_id":"0.0-4.0-1.21","subject_id":"610ae3ea1341878837b4e646","study_id":"6197b3f67c2b5cd3b6d9596a","session_id":"619c1dd92ffa36c9e73c58ac","condition":"contingent","relevant_dimensions":["antennae","legs"],"bee_group":{"antennae":"A","wings":"X","pattern":"X","legs":"M"},"bonus":1.7800000000000014},{"rt":4385.9000000003725,"stimulus":"bees-with-color/bee-A1DF.svg","response":0,"trial_type":"image-button-response","trial_index":51,"time_elapsed":536424,"internal_node_id":"0.0-4.0-0.22","subject_id":"610ae3ea1341878837b4e646","study_id":"6197b3f67c2b5cd3b6d9596a","session_id":"619c1dd92ffa36c9e73c58ac","condition":"contingent","relevant_dimensions":["antennae","legs"],"bee_group":{"antennae":"A","wings":"X","pattern":"X","legs":"M"},"action":"harvest","summary":"good-harvest","bonus":1.7800000000000014},{"rt":973.1000000005588,"stimulus":"\n                    <p><b>Action: <em>harvest</em></b></p>\n                    <p>This is the bee that you just saw.</p>\n                    <img src=\"bees-with-color/bee-A1DF.svg\" width=\"200\">\n                    <p><span class=\"greenText\"><b>Successful harvest!</b></span><br>Your pay has increased by $0.02. Your bonus pay is now $0.70.</p>\n            ","response":0,"trial_type":"html-button-response","trial_index":52,"time_elapsed":537398,"internal_node_id":"0.0-4.0-1.22","subject_id":"610ae3ea1341878837b4e646","study_id":"6197b3f67c2b5cd3b6d9596a","session_id":"619c1dd92ffa36c9e73c58ac","condition":"contingent","relevant_dimensions":["antennae","legs"],"bee_group":{"antennae":"A","wings":"X","pattern":"X","legs":"M"},"bonus":1.7800000000000014},{"rt":3825.399999999441,"stimulus":"bees-with-color/bee-A1SM.svg","response":1,"trial_type":"image-button-response","trial_index":53,"time_elapsed":541226,"internal_node_id":"0.0-4.0-0.23","subject_id":"610ae3ea1341878837b4e646","study_id":"6197b3f67c2b5cd3b6d9596a","session_id":"619c1dd92ffa36c9e73c58ac","condition":"contingent","relevant_dimensions":["antennae","legs"],"bee_group":{"antennae":"A","wings":"X","pattern":"X","legs":"M"},"action":"avoid","summary":"good-avoid","bonus":1.7800000000000014},{"rt":594.3999999994412,"stimulus":"\n                    <p><b>Action: <em>avoid</em></b></p>\n                    <p>This is the bee that you just saw.</p>\n                    <img src=\"bees-with-color/bee-A1SM.svg\" width=\"200\">\n                    <p><br>Your bonus pay is unchanged, and remains at $0.70.</p>\n            ","response":0,"trial_type":"html-button-response","trial_index":54,"time_elapsed":541822,"internal_node_id":"0.0-4.0-1.23","subject_id":"610ae3ea1341878837b4e646","study_id":"6197b3f67c2b5cd3b6d9596a","session_id":"619c1dd92ffa36c9e73c58ac","condition":"contingent","relevant_dimensions":["antennae","legs"],"bee_group":{"antennae":"A","wings":"X","pattern":"X","legs":"M"},"bonus":1.7800000000000014},{"rt":1407.4000000003725,"stimulus":"bees-with-color/bee-B2SF.svg","response":0,"trial_type":"image-button-response","trial_index":55,"time_elapsed":543231,"internal_node_id":"0.0-4.0-0.24","subject_id":"610ae3ea1341878837b4e646","study_id":"6197b3f67c2b5cd3b6d9596a","session_id":"619c1dd92ffa36c9e73c58ac","condition":"contingent","relevant_dimensions":["antennae","legs"],"bee_group":{"antennae":"A","wings":"X","pattern":"X","legs":"M"},"action":"harvest","summary":"good-harvest","bonus":1.7800000000000014},{"rt":545.7000000001863,"stimulus":"\n                    <p><b>Action: <em>harvest</em></b></p>\n                    <p>This is the bee that you just saw.</p>\n                    <img src=\"bees-with-color/bee-B2SF.svg\" width=\"200\">\n                    <p><span class=\"greenText\"><b>Successful harvest!</b></span><br>Your pay has increased by $0.02. Your bonus pay is now $0.72.</p>\n            ","response":0,"trial_type":"html-button-response","trial_index":56,"time_elapsed":543778,"internal_node_id":"0.0-4.0-1.24","subject_id":"610ae3ea1341878837b4e646","study_id":"6197b3f67c2b5cd3b6d9596a","session_id":"619c1dd92ffa36c9e73c58ac","condition":"contingent","relevant_dimensions":["antennae","legs"],"bee_group":{"antennae":"A","wings":"X","pattern":"X","legs":"M"},"bonus":1.7800000000000014},{"rt":1979.5999999996275,"stimulus":"bees-with-color/bee-B1DM.svg","response":0,"trial_type":"image-button-response","trial_index":57,"time_elapsed":545759,"internal_node_id":"0.0-4.0-0.25","subject_id":"610ae3ea1341878837b4e646","study_id":"6197b3f67c2b5cd3b6d9596a","session_id":"619c1dd92ffa36c9e73c58ac","condition":"contingent","relevant_dimensions":["antennae","legs"],"bee_group":{"antennae":"A","wings":"X","pattern":"X","legs":"M"},"action":"harvest","summary":"good-harvest","bonus":1.7800000000000014},{"rt":516.3999999994412,"stimulus":"\n                    <p><b>Action: <em>harvest</em></b></p>\n                    <p>This is the bee that you just saw.</p>\n                    <img src=\"bees-with-color/bee-B1DM.svg\" width=\"200\">\n                    <p><span class=\"greenText\"><b>Successful harvest!</b></span><br>Your pay has increased by $0.02. Your bonus pay is now $0.74.</p>\n            ","response":0,"trial_type":"html-button-response","trial_index":58,"time_elapsed":546277,"internal_node_id":"0.0-4.0-1.25","subject_id":"610ae3ea1341878837b4e646","study_id":"6197b3f67c2b5cd3b6d9596a","session_id":"619c1dd92ffa36c9e73c58ac","condition":"contingent","relevant_dimensions":["antennae","legs"],"bee_group":{"antennae":"A","wings":"X","pattern":"X","legs":"M"},"bonus":1.7800000000000014},{"rt":2212.2999999998137,"stimulus":"bees-with-color/bee-B1SM.svg","response":0,"trial_type":"image-button-response","trial_index":59,"time_elapsed":548490,"internal_node_id":"0.0-4.0-0.26","subject_id":"610ae3ea1341878837b4e646","study_id":"6197b3f67c2b5cd3b6d9596a","session_id":"619c1dd92ffa36c9e73c58ac","condition":"contingent","relevant_dimensions":["antennae","legs"],"bee_group":{"antennae":"A","wings":"X","pattern":"X","legs":"M"},"action":"harvest","summary":"good-harvest","bonus":1.7800000000000014},{"rt":450.70000000018626,"stimulus":"\n                    <p><b>Action: <em>harvest</em></b></p>\n                    <p>This is the bee that you just saw.</p>\n                    <img src=\"bees-with-color/bee-B1SM.svg\" width=\"200\">\n                    <p><span class=\"greenText\"><b>Successful harvest!</b></span><br>Your pay has increased by $0.02. Your bonus pay is now $0.76.</p>\n            ","response":0,"trial_type":"html-button-response","trial_index":60,"time_elapsed":548942,"internal_node_id":"0.0-4.0-1.26","subject_id":"610ae3ea1341878837b4e646","study_id":"6197b3f67c2b5cd3b6d9596a","session_id":"619c1dd92ffa36c9e73c58ac","condition":"contingent","relevant_dimensions":["antennae","legs"],"bee_group":{"antennae":"A","wings":"X","pattern":"X","legs":"M"},"bonus":1.7800000000000014},{"rt":1367.7999999998137,"stimulus":"bees-with-color/bee-A2SF.svg","response":0,"trial_type":"image-button-response","trial_index":61,"time_elapsed":550312,"internal_node_id":"0.0-4.0-0.27","subject_id":"610ae3ea1341878837b4e646","study_id":"6197b3f67c2b5cd3b6d9596a","session_id":"619c1dd92ffa36c9e73c58ac","condition":"contingent","relevant_dimensions":["antennae","legs"],"bee_group":{"antennae":"A","wings":"X","pattern":"X","legs":"M"},"action":"harvest","summary":"good-harvest","bonus":1.7800000000000014},{"rt":453.5,"stimulus":"\n                    <p><b>Action: <em>harvest</em></b></p>\n                    <p>This is the bee that you just saw.</p>\n                    <img src=\"bees-with-color/bee-A2SF.svg\" width=\"200\">\n                    <p><span class=\"greenText\"><b>Successful harvest!</b></span><br>Your pay has increased by $0.02. Your bonus pay is now $0.78.</p>\n            ","response":0,"trial_type":"html-button-response","trial_index":62,"time_elapsed":550766,"internal_node_id":"0.0-4.0-1.27","subject_id":"610ae3ea1341878837b4e646","study_id":"6197b3f67c2b5cd3b6d9596a","session_id":"619c1dd92ffa36c9e73c58ac","condition":"contingent","relevant_dimensions":["antennae","legs"],"bee_group":{"antennae":"A","wings":"X","pattern":"X","legs":"M"},"bonus":1.7800000000000014},{"rt":1312.7999999998137,"stimulus":"bees-with-color/bee-B1SF.svg","response":0,"trial_type":"image-button-response","trial_index":63,"time_elapsed":552081,"internal_node_id":"0.0-4.0-0.28","subject_id":"610ae3ea1341878837b4e646","study_id":"6197b3f67c2b5cd3b6d9596a","session_id":"619c1dd92ffa36c9e73c58ac","condition":"contingent","relevant_dimensions":["antennae","legs"],"bee_group":{"antennae":"A","wings":"X","pattern":"X","legs":"M"},"action":"harvest","summary":"good-harvest","bonus":1.7800000000000014},{"rt":520.5999999996275,"stimulus":"\n                    <p><b>Action: <em>harvest</em></b></p>\n                    <p>This is the bee that you just saw.</p>\n                    <img src=\"bees-with-color/bee-B1SF.svg\" width=\"200\">\n                    <p><span class=\"greenText\"><b>Successful harvest!</b></span><br>Your pay has increased by $0.02. Your bonus pay is now $0.80.</p>\n            ","response":0,"trial_type":"html-button-response","trial_index":64,"time_elapsed":552603,"internal_node_id":"0.0-4.0-1.28","subject_id":"610ae3ea1341878837b4e646","study_id":"6197b3f67c2b5cd3b6d9596a","session_id":"619c1dd92ffa36c9e73c58ac","condition":"contingent","relevant_dimensions":["antennae","legs"],"bee_group":{"antennae":"A","wings":"X","pattern":"X","legs":"M"},"bonus":1.7800000000000014},{"rt":4141.299999999814,"stimulus":"bees-with-color/bee-A2SM.svg","response":1,"trial_type":"image-button-response","trial_index":65,"time_elapsed":556745,"internal_node_id":"0.0-4.0-0.29","subject_id":"610ae3ea1341878837b4e646","study_id":"6197b3f67c2b5cd3b6d9596a","session_id":"619c1dd92ffa36c9e73c58ac","condition":"contingent","relevant_dimensions":["antennae","legs"],"bee_group":{"antennae":"A","wings":"X","pattern":"X","legs":"M"},"action":"avoid","summary":"good-avoid","bonus":1.7800000000000014},{"rt":667.7999999998137,"stimulus":"\n                    <p><b>Action: <em>avoid</em></b></p>\n                    <p>This is the bee that you just saw.</p>\n                    <img src=\"bees-with-color/bee-A2SM.svg\" width=\"200\">\n                    <p><br>Your bonus pay is unchanged, and remains at $0.80.</p>\n            ","response":0,"trial_type":"html-button-response","trial_index":66,"time_elapsed":557415,"internal_node_id":"0.0-4.0-1.29","subject_id":"610ae3ea1341878837b4e646","study_id":"6197b3f67c2b5cd3b6d9596a","session_id":"619c1dd92ffa36c9e73c58ac","condition":"contingent","relevant_dimensions":["antennae","legs"],"bee_group":{"antennae":"A","wings":"X","pattern":"X","legs":"M"},"bonus":1.7800000000000014},{"rt":5088.0999999996275,"stimulus":"bees-with-color/bee-A2DM.svg","response":1,"trial_type":"image-button-response","trial_index":67,"time_elapsed":562505,"internal_node_id":"0.0-4.0-0.30","subject_id":"610ae3ea1341878837b4e646","study_id":"6197b3f67c2b5cd3b6d9596a","session_id":"619c1dd92ffa36c9e73c58ac","condition":"contingent","relevant_dimensions":["antennae","legs"],"bee_group":{"antennae":"A","wings":"X","pattern":"X","legs":"M"},"action":"avoid","summary":"good-avoid","bonus":1.7800000000000014},{"rt":548.4000000003725,"stimulus":"\n                    <p><b>Action: <em>avoid</em></b></p>\n                    <p>This is the bee that you just saw.</p>\n                    <img src=\"bees-with-color/bee-A2DM.svg\" width=\"200\">\n                    <p><br>Your bonus pay is unchanged, and remains at $0.80.</p>\n            ","response":0,"trial_type":"html-button-response","trial_index":68,"time_elapsed":563054,"internal_node_id":"0.0-4.0-1.30","subject_id":"610ae3ea1341878837b4e646","study_id":"6197b3f67c2b5cd3b6d9596a","session_id":"619c1dd92ffa36c9e73c58ac","condition":"contingent","relevant_dimensions":["antennae","legs"],"bee_group":{"antennae":"A","wings":"X","pattern":"X","legs":"M"},"bonus":1.7800000000000014},{"rt":1904.3999999994412,"stimulus":"bees-with-color/bee-B2SM.svg","response":0,"trial_type":"image-button-response","trial_index":69,"time_elapsed":564961,"internal_node_id":"0.0-4.0-0.31","subject_id":"610ae3ea1341878837b4e646","study_id":"6197b3f67c2b5cd3b6d9596a","session_id":"619c1dd92ffa36c9e73c58ac","condition":"contingent","relevant_dimensions":["antennae","legs"],"bee_group":{"antennae":"A","wings":"X","pattern":"X","legs":"M"},"action":"harvest","summary":"good-harvest","bonus":1.7800000000000014},{"rt":548.4000000003725,"stimulus":"\n                    <p><b>Action: <em>harvest</em></b></p>\n                    <p>This is the bee that you just saw.</p>\n                    <img src=\"bees-with-color/bee-B2SM.svg\" width=\"200\">\n                    <p><span class=\"greenText\"><b>Successful harvest!</b></span><br>Your pay has increased by $0.02. Your bonus pay is now $0.82.</p>\n            ","response":0,"trial_type":"html-button-response","trial_index":70,"time_elapsed":565510,"internal_node_id":"0.0-4.0-1.31","subject_id":"610ae3ea1341878837b4e646","study_id":"6197b3f67c2b5cd3b6d9596a","session_id":"619c1dd92ffa36c9e73c58ac","condition":"contingent","relevant_dimensions":["antennae","legs"],"bee_group":{"antennae":"A","wings":"X","pattern":"X","legs":"M"},"bonus":1.7800000000000014},{"rt":2491.7000000001863,"stimulus":"bees-with-color/bee-A1SM.svg","response":1,"trial_type":"image-button-response","trial_index":71,"time_elapsed":568004,"internal_node_id":"0.0-4.0-0.32","subject_id":"610ae3ea1341878837b4e646","study_id":"6197b3f67c2b5cd3b6d9596a","session_id":"619c1dd92ffa36c9e73c58ac","condition":"contingent","relevant_dimensions":["antennae","legs"],"bee_group":{"antennae":"A","wings":"X","pattern":"X","legs":"M"},"action":"avoid","summary":"good-avoid","bonus":1.7800000000000014},{"rt":546.3000000007451,"stimulus":"\n                    <p><b>Action: <em>avoid</em></b></p>\n                    <p>This is the bee that you just saw.</p>\n                    <img src=\"bees-with-color/bee-A1SM.svg\" width=\"200\">\n                    <p><br>Your bonus pay is unchanged, and remains at $0.82.</p>\n            ","response":0,"trial_type":"html-button-response","trial_index":72,"time_elapsed":568551,"internal_node_id":"0.0-4.0-1.32","subject_id":"610ae3ea1341878837b4e646","study_id":"6197b3f67c2b5cd3b6d9596a","session_id":"619c1dd92ffa36c9e73c58ac","condition":"contingent","relevant_dimensions":["antennae","legs"],"bee_group":{"antennae":"A","wings":"X","pattern":"X","legs":"M"},"bonus":1.7800000000000014},{"rt":1502.5,"stimulus":"bees-with-color/bee-A1DF.svg","response":0,"trial_type":"image-button-response","trial_index":73,"time_elapsed":570056,"internal_node_id":"0.0-4.0-0.33","subject_id":"610ae3ea1341878837b4e646","study_id":"6197b3f67c2b5cd3b6d9596a","session_id":"619c1dd92ffa36c9e73c58ac","condition":"contingent","relevant_dimensions":["antennae","legs"],"bee_group":{"antennae":"A","wings":"X","pattern":"X","legs":"M"},"action":"harvest","summary":"good-harvest","bonus":1.7800000000000014},{"rt":522.3000000007451,"stimulus":"\n                    <p><b>Action: <em>harvest</em></b></p>\n                    <p>This is the bee that you just saw.</p>\n                    <img src=\"bees-with-color/bee-A1DF.svg\" width=\"200\">\n                    <p><span class=\"greenText\"><b>Successful harvest!</b></span><br>Your pay has increased by $0.02. Your bonus pay is now $0.84.</p>\n            ","response":0,"trial_type":"html-button-response","trial_index":74,"time_elapsed":570579,"internal_node_id":"0.0-4.0-1.33","subject_id":"610ae3ea1341878837b4e646","study_id":"6197b3f67c2b5cd3b6d9596a","session_id":"619c1dd92ffa36c9e73c58ac","condition":"contingent","relevant_dimensions":["antennae","legs"],"bee_group":{"antennae":"A","wings":"X","pattern":"X","legs":"M"},"bonus":1.7800000000000014},{"rt":1296.8999999994412,"stimulus":"bees-with-color/bee-B2SF.svg","response":0,"trial_type":"image-button-response","trial_index":75,"time_elapsed":571878,"internal_node_id":"0.0-4.0-0.34","subject_id":"610ae3ea1341878837b4e646","study_id":"6197b3f67c2b5cd3b6d9596a","session_id":"619c1dd92ffa36c9e73c58ac","condition":"contingent","relevant_dimensions":["antennae","legs"],"bee_group":{"antennae":"A","wings":"X","pattern":"X","legs":"M"},"action":"harvest","summary":"good-harvest","bonus":1.7800000000000014},{"rt":485.09999999962747,"stimulus":"\n                    <p><b>Action: <em>harvest</em></b></p>\n                    <p>This is the bee that you just saw.</p>\n                    <img src=\"bees-with-color/bee-B2SF.svg\" width=\"200\">\n                    <p><span class=\"greenText\"><b>Successful harvest!</b></span><br>Your pay has increased by $0.02. Your bonus pay is now $0.86.</p>\n            ","response":0,"trial_type":"html-button-response","trial_index":76,"time_elapsed":572364,"internal_node_id":"0.0-4.0-1.34","subject_id":"610ae3ea1341878837b4e646","study_id":"6197b3f67c2b5cd3b6d9596a","session_id":"619c1dd92ffa36c9e73c58ac","condition":"contingent","relevant_dimensions":["antennae","legs"],"bee_group":{"antennae":"A","wings":"X","pattern":"X","legs":"M"},"bonus":1.7800000000000014},{"rt":2566.7999999998137,"stimulus":"bees-with-color/bee-B2DM.svg","response":0,"trial_type":"image-button-response","trial_index":77,"time_elapsed":574932,"internal_node_id":"0.0-4.0-0.35","subject_id":"610ae3ea1341878837b4e646","study_id":"6197b3f67c2b5cd3b6d9596a","session_id":"619c1dd92ffa36c9e73c58ac","condition":"contingent","relevant_dimensions":["antennae","legs"],"bee_group":{"antennae":"A","wings":"X","pattern":"X","legs":"M"},"action":"harvest","summary":"good-harvest","bonus":1.7800000000000014},{"rt":486.19999999925494,"stimulus":"\n                    <p><b>Action: <em>harvest</em></b></p>\n                    <p>This is the bee that you just saw.</p>\n                    <img src=\"bees-with-color/bee-B2DM.svg\" width=\"200\">\n                    <p><span class=\"greenText\"><b>Successful harvest!</b></span><br>Your pay has increased by $0.02. Your bonus pay is now $0.88.</p>\n            ","response":0,"trial_type":"html-button-response","trial_index":78,"time_elapsed":575420,"internal_node_id":"0.0-4.0-1.35","subject_id":"610ae3ea1341878837b4e646","study_id":"6197b3f67c2b5cd3b6d9596a","session_id":"619c1dd92ffa36c9e73c58ac","condition":"contingent","relevant_dimensions":["antennae","legs"],"bee_group":{"antennae":"A","wings":"X","pattern":"X","legs":"M"},"bonus":1.7800000000000014},{"rt":1879.5999999996275,"stimulus":"bees-with-color/bee-B1SM.svg","response":0,"trial_type":"image-button-response","trial_index":79,"time_elapsed":577301,"internal_node_id":"0.0-4.0-0.36","subject_id":"610ae3ea1341878837b4e646","study_id":"6197b3f67c2b5cd3b6d9596a","session_id":"619c1dd92ffa36c9e73c58ac","condition":"contingent","relevant_dimensions":["antennae","legs"],"bee_group":{"antennae":"A","wings":"X","pattern":"X","legs":"M"},"action":"harvest","summary":"good-harvest","bonus":1.7800000000000014},{"rt":491.5,"stimulus":"\n                    <p><b>Action: <em>harvest</em></b></p>\n                    <p>This is the bee that you just saw.</p>\n                    <img src=\"bees-with-color/bee-B1SM.svg\" width=\"200\">\n                    <p><span class=\"greenText\"><b>Successful harvest!</b></span><br>Your pay has increased by $0.02. Your bonus pay is now $0.90.</p>\n            ","response":0,"trial_type":"html-button-response","trial_index":80,"time_elapsed":577794,"internal_node_id":"0.0-4.0-1.36","subject_id":"610ae3ea1341878837b4e646","study_id":"6197b3f67c2b5cd3b6d9596a","session_id":"619c1dd92ffa36c9e73c58ac","condition":"contingent","relevant_dimensions":["antennae","legs"],"bee_group":{"antennae":"A","wings":"X","pattern":"X","legs":"M"},"bonus":1.7800000000000014},{"rt":1898,"stimulus":"bees-with-color/bee-A2SM.svg","response":1,"trial_type":"image-button-response","trial_index":81,"time_elapsed":579694,"internal_node_id":"0.0-4.0-0.37","subject_id":"610ae3ea1341878837b4e646","study_id":"6197b3f67c2b5cd3b6d9596a","session_id":"619c1dd92ffa36c9e73c58ac","condition":"contingent","relevant_dimensions":["antennae","legs"],"bee_group":{"antennae":"A","wings":"X","pattern":"X","legs":"M"},"action":"avoid","summary":"good-avoid","bonus":1.7800000000000014},{"rt":827.7999999998137,"stimulus":"\n                    <p><b>Action: <em>avoid</em></b></p>\n                    <p>This is the bee that you just saw.</p>\n                    <img src=\"bees-with-color/bee-A2SM.svg\" width=\"200\">\n                    <p><br>Your bonus pay is unchanged, and remains at $0.90.</p>\n            ","response":0,"trial_type":"html-button-response","trial_index":82,"time_elapsed":580523,"internal_node_id":"0.0-4.0-1.37","subject_id":"610ae3ea1341878837b4e646","study_id":"6197b3f67c2b5cd3b6d9596a","session_id":"619c1dd92ffa36c9e73c58ac","condition":"contingent","relevant_dimensions":["antennae","legs"],"bee_group":{"antennae":"A","wings":"X","pattern":"X","legs":"M"},"bonus":1.7800000000000014},{"rt":1151.4000000003725,"stimulus":"bees-with-color/bee-B2DF.svg","response":0,"trial_type":"image-button-response","trial_index":83,"time_elapsed":581676,"internal_node_id":"0.0-4.0-0.38","subject_id":"610ae3ea1341878837b4e646","study_id":"6197b3f67c2b5cd3b6d9596a","session_id":"619c1dd92ffa36c9e73c58ac","condition":"contingent","relevant_dimensions":["antennae","legs"],"bee_group":{"antennae":"A","wings":"X","pattern":"X","legs":"M"},"action":"harvest","summary":"good-harvest","bonus":1.7800000000000014},{"rt":466.59999999962747,"stimulus":"\n                    <p><b>Action: <em>harvest</em></b></p>\n                    <p>This is the bee that you just saw.</p>\n                    <img src=\"bees-with-color/bee-B2DF.svg\" width=\"200\">\n                    <p><span class=\"greenText\"><b>Successful harvest!</b></span><br>Your pay has increased by $0.02. Your bonus pay is now $0.92.</p>\n            ","response":0,"trial_type":"html-button-response","trial_index":84,"time_elapsed":582144,"internal_node_id":"0.0-4.0-1.38","subject_id":"610ae3ea1341878837b4e646","study_id":"6197b3f67c2b5cd3b6d9596a","session_id":"619c1dd92ffa36c9e73c58ac","condition":"contingent","relevant_dimensions":["antennae","legs"],"bee_group":{"antennae":"A","wings":"X","pattern":"X","legs":"M"},"bonus":1.7800000000000014},{"rt":1596.5999999996275,"stimulus":"bees-with-color/bee-B2SM.svg","response":0,"trial_type":"image-button-response","trial_index":85,"time_elapsed":583742,"internal_node_id":"0.0-4.0-0.39","subject_id":"610ae3ea1341878837b4e646","study_id":"6197b3f67c2b5cd3b6d9596a","session_id":"619c1dd92ffa36c9e73c58ac","condition":"contingent","relevant_dimensions":["antennae","legs"],"bee_group":{"antennae":"A","wings":"X","pattern":"X","legs":"M"},"action":"harvest","summary":"good-harvest","bonus":1.7800000000000014},{"rt":467.70000000018626,"stimulus":"\n                    <p><b>Action: <em>harvest</em></b></p>\n                    <p>This is the bee that you just saw.</p>\n                    <img src=\"bees-with-color/bee-B2SM.svg\" width=\"200\">\n                    <p><span class=\"greenText\"><b>Successful harvest!</b></span><br>Your pay has increased by $0.02. Your bonus pay is now $0.94.</p>\n            ","response":0,"trial_type":"html-button-response","trial_index":86,"time_elapsed":584211,"internal_node_id":"0.0-4.0-1.39","subject_id":"610ae3ea1341878837b4e646","study_id":"6197b3f67c2b5cd3b6d9596a","session_id":"619c1dd92ffa36c9e73c58ac","condition":"contingent","relevant_dimensions":["antennae","legs"],"bee_group":{"antennae":"A","wings":"X","pattern":"X","legs":"M"},"bonus":1.7800000000000014},{"rt":1916.7000000001863,"stimulus":"bees-with-color/bee-A2DF.svg","response":0,"trial_type":"image-button-response","trial_index":87,"time_elapsed":586129,"internal_node_id":"0.0-4.0-0.40","subject_id":"610ae3ea1341878837b4e646","study_id":"6197b3f67c2b5cd3b6d9596a","session_id":"619c1dd92ffa36c9e73c58ac","condition":"contingent","relevant_dimensions":["antennae","legs"],"bee_group":{"antennae":"A","wings":"X","pattern":"X","legs":"M"},"action":"harvest","summary":"good-harvest","bonus":1.7800000000000014},{"rt":438.29999999981374,"stimulus":"\n                    <p><b>Action: <em>harvest</em></b></p>\n                    <p>This is the bee that you just saw.</p>\n                    <img src=\"bees-with-color/bee-A2DF.svg\" width=\"200\">\n                    <p><span class=\"greenText\"><b>Successful harvest!</b></span><br>Your pay has increased by $0.02. Your bonus pay is now $0.96.</p>\n            ","response":0,"trial_type":"html-button-response","trial_index":88,"time_elapsed":586568,"internal_node_id":"0.0-4.0-1.40","subject_id":"610ae3ea1341878837b4e646","study_id":"6197b3f67c2b5cd3b6d9596a","session_id":"619c1dd92ffa36c9e73c58ac","condition":"contingent","relevant_dimensions":["antennae","legs"],"bee_group":{"antennae":"A","wings":"X","pattern":"X","legs":"M"},"bonus":1.7800000000000014},{"rt":841.9000000003725,"stimulus":"bees-with-color/bee-A1SF.svg","response":0,"trial_type":"image-button-response","trial_index":89,"time_elapsed":587411,"internal_node_id":"0.0-4.0-0.41","subject_id":"610ae3ea1341878837b4e646","study_id":"6197b3f67c2b5cd3b6d9596a","session_id":"619c1dd92ffa36c9e73c58ac","condition":"contingent","relevant_dimensions":["antennae","legs"],"bee_group":{"antennae":"A","wings":"X","pattern":"X","legs":"M"},"action":"harvest","summary":"good-harvest","bonus":1.7800000000000014},{"rt":1160.800000000745,"stimulus":"\n                    <p><b>Action: <em>harvest</em></b></p>\n                    <p>This is the bee that you just saw.</p>\n                    <img src=\"bees-with-color/bee-A1SF.svg\" width=\"200\">\n                    <p><span class=\"greenText\"><b>Successful harvest!</b></span><br>Your pay has increased by $0.02. Your bonus pay is now $0.98.</p>\n            ","response":0,"trial_type":"html-button-response","trial_index":90,"time_elapsed":588574,"internal_node_id":"0.0-4.0-1.41","subject_id":"610ae3ea1341878837b4e646","study_id":"6197b3f67c2b5cd3b6d9596a","session_id":"619c1dd92ffa36c9e73c58ac","condition":"contingent","relevant_dimensions":["antennae","legs"],"bee_group":{"antennae":"A","wings":"X","pattern":"X","legs":"M"},"bonus":1.7800000000000014},{"rt":860.6999999992549,"stimulus":"bees-with-color/bee-A2SF.svg","response":0,"trial_type":"image-button-response","trial_index":91,"time_elapsed":589436,"internal_node_id":"0.0-4.0-0.42","subject_id":"610ae3ea1341878837b4e646","study_id":"6197b3f67c2b5cd3b6d9596a","session_id":"619c1dd92ffa36c9e73c58ac","condition":"contingent","relevant_dimensions":["antennae","legs"],"bee_group":{"antennae":"A","wings":"X","pattern":"X","legs":"M"},"action":"harvest","summary":"good-harvest","bonus":1.7800000000000014},{"rt":567.5999999996275,"stimulus":"\n                    <p><b>Action: <em>harvest</em></b></p>\n                    <p>This is the bee that you just saw.</p>\n                    <img src=\"bees-with-color/bee-A2SF.svg\" width=\"200\">\n                    <p><span class=\"greenText\"><b>Successful harvest!</b></span><br>Your pay has increased by $0.02. Your bonus pay is now $1.00.</p>\n            ","response":0,"trial_type":"html-button-response","trial_index":92,"time_elapsed":590005,"internal_node_id":"0.0-4.0-1.42","subject_id":"610ae3ea1341878837b4e646","study_id":"6197b3f67c2b5cd3b6d9596a","session_id":"619c1dd92ffa36c9e73c58ac","condition":"contingent","relevant_dimensions":["antennae","legs"],"bee_group":{"antennae":"A","wings":"X","pattern":"X","legs":"M"},"bonus":1.7800000000000014},{"rt":2569.600000000559,"stimulus":"bees-with-color/bee-A1DM.svg","response":1,"trial_type":"image-button-response","trial_index":93,"time_elapsed":592576,"internal_node_id":"0.0-4.0-0.43","subject_id":"610ae3ea1341878837b4e646","study_id":"6197b3f67c2b5cd3b6d9596a","session_id":"619c1dd92ffa36c9e73c58ac","condition":"contingent","relevant_dimensions":["antennae","legs"],"bee_group":{"antennae":"A","wings":"X","pattern":"X","legs":"M"},"action":"avoid","summary":"good-avoid","bonus":1.7800000000000014},{"rt":1049.5999999996275,"stimulus":"\n                    <p><b>Action: <em>avoid</em></b></p>\n                    <p>This is the bee that you just saw.</p>\n                    <img src=\"bees-with-color/bee-A1DM.svg\" width=\"200\">\n                    <p><br>Your bonus pay is unchanged, and remains at $1.00.</p>\n            ","response":0,"trial_type":"html-button-response","trial_index":94,"time_elapsed":593627,"internal_node_id":"0.0-4.0-1.43","subject_id":"610ae3ea1341878837b4e646","study_id":"6197b3f67c2b5cd3b6d9596a","session_id":"619c1dd92ffa36c9e73c58ac","condition":"contingent","relevant_dimensions":["antennae","legs"],"bee_group":{"antennae":"A","wings":"X","pattern":"X","legs":"M"},"bonus":1.7800000000000014},{"rt":2724.300000000745,"stimulus":"bees-with-color/bee-A2DM.svg","response":1,"trial_type":"image-button-response","trial_index":95,"time_elapsed":596353,"internal_node_id":"0.0-4.0-0.44","subject_id":"610ae3ea1341878837b4e646","study_id":"6197b3f67c2b5cd3b6d9596a","session_id":"619c1dd92ffa36c9e73c58ac","condition":"contingent","relevant_dimensions":["antennae","legs"],"bee_group":{"antennae":"A","wings":"X","pattern":"X","legs":"M"},"action":"avoid","summary":"good-avoid","bonus":1.7800000000000014},{"rt":546.5,"stimulus":"\n                    <p><b>Action: <em>avoid</em></b></p>\n                    <p>This is the bee that you just saw.</p>\n                    <img src=\"bees-with-color/bee-A2DM.svg\" width=\"200\">\n                    <p><br>Your bonus pay is unchanged, and remains at $1.00.</p>\n            ","response":0,"trial_type":"html-button-response","trial_index":96,"time_elapsed":596901,"internal_node_id":"0.0-4.0-1.44","subject_id":"610ae3ea1341878837b4e646","study_id":"6197b3f67c2b5cd3b6d9596a","session_id":"619c1dd92ffa36c9e73c58ac","condition":"contingent","relevant_dimensions":["antennae","legs"],"bee_group":{"antennae":"A","wings":"X","pattern":"X","legs":"M"},"bonus":1.7800000000000014},{"rt":1282.5999999996275,"stimulus":"bees-with-color/bee-B1DM.svg","response":0,"trial_type":"image-button-response","trial_index":97,"time_elapsed":598185,"internal_node_id":"0.0-4.0-0.45","subject_id":"610ae3ea1341878837b4e646","study_id":"6197b3f67c2b5cd3b6d9596a","session_id":"619c1dd92ffa36c9e73c58ac","condition":"contingent","relevant_dimensions":["antennae","legs"],"bee_group":{"antennae":"A","wings":"X","pattern":"X","legs":"M"},"action":"harvest","summary":"good-harvest","bonus":1.7800000000000014},{"rt":907.4000000003725,"stimulus":"\n                    <p><b>Action: <em>harvest</em></b></p>\n                    <p>This is the bee that you just saw.</p>\n                    <img src=\"bees-with-color/bee-B1DM.svg\" width=\"200\">\n                    <p><span class=\"greenText\"><b>Successful harvest!</b></span><br>Your pay has increased by $0.02. Your bonus pay is now $1.02.</p>\n            ","response":0,"trial_type":"html-button-response","trial_index":98,"time_elapsed":599094,"internal_node_id":"0.0-4.0-1.45","subject_id":"610ae3ea1341878837b4e646","study_id":"6197b3f67c2b5cd3b6d9596a","session_id":"619c1dd92ffa36c9e73c58ac","condition":"contingent","relevant_dimensions":["antennae","legs"],"bee_group":{"antennae":"A","wings":"X","pattern":"X","legs":"M"},"bonus":1.7800000000000014},{"rt":950.3999999994412,"stimulus":"bees-with-color/bee-B1DF.svg","response":0,"trial_type":"image-button-response","trial_index":99,"time_elapsed":600045,"internal_node_id":"0.0-4.0-0.46","subject_id":"610ae3ea1341878837b4e646","study_id":"6197b3f67c2b5cd3b6d9596a","session_id":"619c1dd92ffa36c9e73c58ac","condition":"contingent","relevant_dimensions":["antennae","legs"],"bee_group":{"antennae":"A","wings":"X","pattern":"X","legs":"M"},"action":"harvest","summary":"good-harvest","bonus":1.7800000000000014},{"rt":1413.199999999255,"stimulus":"\n                    <p><b>Action: <em>harvest</em></b></p>\n                    <p>This is the bee that you just saw.</p>\n                    <img src=\"bees-with-color/bee-B1DF.svg\" width=\"200\">\n                    <p><span class=\"greenText\"><b>Successful harvest!</b></span><br>Your pay has increased by $0.02. Your bonus pay is now $1.04.</p>\n            ","response":0,"trial_type":"html-button-response","trial_index":100,"time_elapsed":601460,"internal_node_id":"0.0-4.0-1.46","subject_id":"610ae3ea1341878837b4e646","study_id":"6197b3f67c2b5cd3b6d9596a","session_id":"619c1dd92ffa36c9e73c58ac","condition":"contingent","relevant_dimensions":["antennae","legs"],"bee_group":{"antennae":"A","wings":"X","pattern":"X","legs":"M"},"bonus":1.7800000000000014},{"rt":2036.199999999255,"stimulus":"bees-with-color/bee-B1SF.svg","response":0,"trial_type":"image-button-response","trial_index":101,"time_elapsed":603498,"internal_node_id":"0.0-4.0-0.47","subject_id":"610ae3ea1341878837b4e646","study_id":"6197b3f67c2b5cd3b6d9596a","session_id":"619c1dd92ffa36c9e73c58ac","condition":"contingent","relevant_dimensions":["antennae","legs"],"bee_group":{"antennae":"A","wings":"X","pattern":"X","legs":"M"},"action":"harvest","summary":"good-harvest","bonus":1.7800000000000014},{"rt":768.0999999996275,"stimulus":"\n                    <p><b>Action: <em>harvest</em></b></p>\n                    <p>This is the bee that you just saw.</p>\n                    <img src=\"bees-with-color/bee-B1SF.svg\" width=\"200\">\n                    <p><span class=\"greenText\"><b>Successful harvest!</b></span><br>Your pay has increased by $0.02. Your bonus pay is now $1.06.</p>\n            ","response":0,"trial_type":"html-button-response","trial_index":102,"time_elapsed":604268,"internal_node_id":"0.0-4.0-1.47","subject_id":"610ae3ea1341878837b4e646","study_id":"6197b3f67c2b5cd3b6d9596a","session_id":"619c1dd92ffa36c9e73c58ac","condition":"contingent","relevant_dimensions":["antennae","legs"],"bee_group":{"antennae":"A","wings":"X","pattern":"X","legs":"M"},"bonus":1.7800000000000014},{"rt":2165.300000000745,"stimulus":"bees-with-color/bee-A1SM.svg","response":1,"trial_type":"image-button-response","trial_index":103,"time_elapsed":606435,"internal_node_id":"0.0-4.0-0.48","subject_id":"610ae3ea1341878837b4e646","study_id":"6197b3f67c2b5cd3b6d9596a","session_id":"619c1dd92ffa36c9e73c58ac","condition":"contingent","relevant_dimensions":["antennae","legs"],"bee_group":{"antennae":"A","wings":"X","pattern":"X","legs":"M"},"action":"avoid","summary":"good-avoid","bonus":1.7800000000000014},{"rt":731.7999999998137,"stimulus":"\n                    <p><b>Action: <em>avoid</em></b></p>\n                    <p>This is the bee that you just saw.</p>\n                    <img src=\"bees-with-color/bee-A1SM.svg\" width=\"200\">\n                    <p><br>Your bonus pay is unchanged, and remains at $1.06.</p>\n            ","response":0,"trial_type":"html-button-response","trial_index":104,"time_elapsed":607168,"internal_node_id":"0.0-4.0-1.48","subject_id":"610ae3ea1341878837b4e646","study_id":"6197b3f67c2b5cd3b6d9596a","session_id":"619c1dd92ffa36c9e73c58ac","condition":"contingent","relevant_dimensions":["antennae","legs"],"bee_group":{"antennae":"A","wings":"X","pattern":"X","legs":"M"},"bonus":1.7800000000000014},{"rt":3233.5,"stimulus":"bees-with-color/bee-B1SF.svg","response":0,"trial_type":"image-button-response","trial_index":105,"time_elapsed":610403,"internal_node_id":"0.0-4.0-0.49","subject_id":"610ae3ea1341878837b4e646","study_id":"6197b3f67c2b5cd3b6d9596a","session_id":"619c1dd92ffa36c9e73c58ac","condition":"contingent","relevant_dimensions":["antennae","legs"],"bee_group":{"antennae":"A","wings":"X","pattern":"X","legs":"M"},"action":"harvest","summary":"good-harvest","bonus":1.7800000000000014},{"rt":721.4000000003725,"stimulus":"\n                    <p><b>Action: <em>harvest</em></b></p>\n                    <p>This is the bee that you just saw.</p>\n                    <img src=\"bees-with-color/bee-B1SF.svg\" width=\"200\">\n                    <p><span class=\"greenText\"><b>Successful harvest!</b></span><br>Your pay has increased by $0.02. Your bonus pay is now $1.08.</p>\n            ","response":0,"trial_type":"html-button-response","trial_index":106,"time_elapsed":611126,"internal_node_id":"0.0-4.0-1.49","subject_id":"610ae3ea1341878837b4e646","study_id":"6197b3f67c2b5cd3b6d9596a","session_id":"619c1dd92ffa36c9e73c58ac","condition":"contingent","relevant_dimensions":["antennae","legs"],"bee_group":{"antennae":"A","wings":"X","pattern":"X","legs":"M"},"bonus":1.7800000000000014},{"rt":2219.2000000001863,"stimulus":"bees-with-color/bee-A2DF.svg","response":0,"trial_type":"image-button-response","trial_index":107,"time_elapsed":613347,"internal_node_id":"0.0-4.0-0.50","subject_id":"610ae3ea1341878837b4e646","study_id":"6197b3f67c2b5cd3b6d9596a","session_id":"619c1dd92ffa36c9e73c58ac","condition":"contingent","relevant_dimensions":["antennae","legs"],"bee_group":{"antennae":"A","wings":"X","pattern":"X","legs":"M"},"action":"harvest","summary":"good-harvest","bonus":1.7800000000000014},{"rt":480.20000000018626,"stimulus":"\n                    <p><b>Action: <em>harvest</em></b></p>\n                    <p>This is the bee that you just saw.</p>\n                    <img src=\"bees-with-color/bee-A2DF.svg\" width=\"200\">\n                    <p><span class=\"greenText\"><b>Successful harvest!</b></span><br>Your pay has increased by $0.02. Your bonus pay is now $1.10.</p>\n            ","response":0,"trial_type":"html-button-response","trial_index":108,"time_elapsed":613829,"internal_node_id":"0.0-4.0-1.50","subject_id":"610ae3ea1341878837b4e646","study_id":"6197b3f67c2b5cd3b6d9596a","session_id":"619c1dd92ffa36c9e73c58ac","condition":"contingent","relevant_dimensions":["antennae","legs"],"bee_group":{"antennae":"A","wings":"X","pattern":"X","legs":"M"},"bonus":1.7800000000000014},{"rt":1053,"stimulus":"bees-with-color/bee-A2SF.svg","response":0,"trial_type":"image-button-response","trial_index":109,"time_elapsed":614883,"internal_node_id":"0.0-4.0-0.51","subject_id":"610ae3ea1341878837b4e646","study_id":"6197b3f67c2b5cd3b6d9596a","session_id":"619c1dd92ffa36c9e73c58ac","condition":"contingent","relevant_dimensions":["antennae","legs"],"bee_group":{"antennae":"A","wings":"X","pattern":"X","legs":"M"},"action":"harvest","summary":"good-harvest","bonus":1.7800000000000014},{"rt":523.6999999992549,"stimulus":"\n                    <p><b>Action: <em>harvest</em></b></p>\n                    <p>This is the bee that you just saw.</p>\n                    <img src=\"bees-with-color/bee-A2SF.svg\" width=\"200\">\n                    <p><span class=\"greenText\"><b>Successful harvest!</b></span><br>Your pay has increased by $0.02. Your bonus pay is now $1.12.</p>\n            ","response":0,"trial_type":"html-button-response","trial_index":110,"time_elapsed":615408,"internal_node_id":"0.0-4.0-1.51","subject_id":"610ae3ea1341878837b4e646","study_id":"6197b3f67c2b5cd3b6d9596a","session_id":"619c1dd92ffa36c9e73c58ac","condition":"contingent","relevant_dimensions":["antennae","legs"],"bee_group":{"antennae":"A","wings":"X","pattern":"X","legs":"M"},"bonus":1.7800000000000014},{"rt":998.6000000005588,"stimulus":"bees-with-color/bee-A1SF.svg","response":0,"trial_type":"image-button-response","trial_index":111,"time_elapsed":616407,"internal_node_id":"0.0-4.0-0.52","subject_id":"610ae3ea1341878837b4e646","study_id":"6197b3f67c2b5cd3b6d9596a","session_id":"619c1dd92ffa36c9e73c58ac","condition":"contingent","relevant_dimensions":["antennae","legs"],"bee_group":{"antennae":"A","wings":"X","pattern":"X","legs":"M"},"action":"harvest","summary":"good-harvest","bonus":1.7800000000000014},{"rt":498.79999999981374,"stimulus":"\n                    <p><b>Action: <em>harvest</em></b></p>\n                    <p>This is the bee that you just saw.</p>\n                    <img src=\"bees-with-color/bee-A1SF.svg\" width=\"200\">\n                    <p><span class=\"greenText\"><b>Successful harvest!</b></span><br>Your pay has increased by $0.02. Your bonus pay is now $1.14.</p>\n            ","response":0,"trial_type":"html-button-response","trial_index":112,"time_elapsed":616908,"internal_node_id":"0.0-4.0-1.52","subject_id":"610ae3ea1341878837b4e646","study_id":"6197b3f67c2b5cd3b6d9596a","session_id":"619c1dd92ffa36c9e73c58ac","condition":"contingent","relevant_dimensions":["antennae","legs"],"bee_group":{"antennae":"A","wings":"X","pattern":"X","legs":"M"},"bonus":1.7800000000000014},{"rt":700.8999999994412,"stimulus":"bees-with-color/bee-A1DF.svg","response":0,"trial_type":"image-button-response","trial_index":113,"time_elapsed":617610,"internal_node_id":"0.0-4.0-0.53","subject_id":"610ae3ea1341878837b4e646","study_id":"6197b3f67c2b5cd3b6d9596a","session_id":"619c1dd92ffa36c9e73c58ac","condition":"contingent","relevant_dimensions":["antennae","legs"],"bee_group":{"antennae":"A","wings":"X","pattern":"X","legs":"M"},"action":"harvest","summary":"good-harvest","bonus":1.7800000000000014},{"rt":684.3000000007451,"stimulus":"\n                    <p><b>Action: <em>harvest</em></b></p>\n                    <p>This is the bee that you just saw.</p>\n                    <img src=\"bees-with-color/bee-A1DF.svg\" width=\"200\">\n                    <p><span class=\"greenText\"><b>Successful harvest!</b></span><br>Your pay has increased by $0.02. Your bonus pay is now $1.16.</p>\n            ","response":0,"trial_type":"html-button-response","trial_index":114,"time_elapsed":618296,"internal_node_id":"0.0-4.0-1.53","subject_id":"610ae3ea1341878837b4e646","study_id":"6197b3f67c2b5cd3b6d9596a","session_id":"619c1dd92ffa36c9e73c58ac","condition":"contingent","relevant_dimensions":["antennae","legs"],"bee_group":{"antennae":"A","wings":"X","pattern":"X","legs":"M"},"bonus":1.7800000000000014},{"rt":1481.2000000001863,"stimulus":"bees-with-color/bee-A1DM.svg","response":1,"trial_type":"image-button-response","trial_index":115,"time_elapsed":619778,"internal_node_id":"0.0-4.0-0.54","subject_id":"610ae3ea1341878837b4e646","study_id":"6197b3f67c2b5cd3b6d9596a","session_id":"619c1dd92ffa36c9e73c58ac","condition":"contingent","relevant_dimensions":["antennae","legs"],"bee_group":{"antennae":"A","wings":"X","pattern":"X","legs":"M"},"action":"avoid","summary":"good-avoid","bonus":1.7800000000000014},{"rt":536.4000000003725,"stimulus":"\n                    <p><b>Action: <em>avoid</em></b></p>\n                    <p>This is the bee that you just saw.</p>\n                    <img src=\"bees-with-color/bee-A1DM.svg\" width=\"200\">\n                    <p><br>Your bonus pay is unchanged, and remains at $1.16.</p>\n            ","response":0,"trial_type":"html-button-response","trial_index":116,"time_elapsed":620316,"internal_node_id":"0.0-4.0-1.54","subject_id":"610ae3ea1341878837b4e646","study_id":"6197b3f67c2b5cd3b6d9596a","session_id":"619c1dd92ffa36c9e73c58ac","condition":"contingent","relevant_dimensions":["antennae","legs"],"bee_group":{"antennae":"A","wings":"X","pattern":"X","legs":"M"},"bonus":1.7800000000000014},{"rt":2780.7999999998137,"stimulus":"bees-with-color/bee-B2DF.svg","response":0,"trial_type":"image-button-response","trial_index":117,"time_elapsed":623098,"internal_node_id":"0.0-4.0-0.55","subject_id":"610ae3ea1341878837b4e646","study_id":"6197b3f67c2b5cd3b6d9596a","session_id":"619c1dd92ffa36c9e73c58ac","condition":"contingent","relevant_dimensions":["antennae","legs"],"bee_group":{"antennae":"A","wings":"X","pattern":"X","legs":"M"},"action":"harvest","summary":"good-harvest","bonus":1.7800000000000014},{"rt":889.9000000003725,"stimulus":"\n                    <p><b>Action: <em>harvest</em></b></p>\n                    <p>This is the bee that you just saw.</p>\n                    <img src=\"bees-with-color/bee-B2DF.svg\" width=\"200\">\n                    <p><span class=\"greenText\"><b>Successful harvest!</b></span><br>Your pay has increased by $0.02. Your bonus pay is now $1.18.</p>\n            ","response":0,"trial_type":"html-button-response","trial_index":118,"time_elapsed":623989,"internal_node_id":"0.0-4.0-1.55","subject_id":"610ae3ea1341878837b4e646","study_id":"6197b3f67c2b5cd3b6d9596a","session_id":"619c1dd92ffa36c9e73c58ac","condition":"contingent","relevant_dimensions":["antennae","legs"],"bee_group":{"antennae":"A","wings":"X","pattern":"X","legs":"M"},"bonus":1.7800000000000014},{"rt":918.7000000001863,"stimulus":"bees-with-color/bee-B2SF.svg","response":0,"trial_type":"image-button-response","trial_index":119,"time_elapsed":624909,"internal_node_id":"0.0-4.0-0.56","subject_id":"610ae3ea1341878837b4e646","study_id":"6197b3f67c2b5cd3b6d9596a","session_id":"619c1dd92ffa36c9e73c58ac","condition":"contingent","relevant_dimensions":["antennae","legs"],"bee_group":{"antennae":"A","wings":"X","pattern":"X","legs":"M"},"action":"harvest","summary":"good-harvest","bonus":1.7800000000000014},{"rt":676,"stimulus":"\n                    <p><b>Action: <em>harvest</em></b></p>\n                    <p>This is the bee that you just saw.</p>\n                    <img src=\"bees-with-color/bee-B2SF.svg\" width=\"200\">\n                    <p><span class=\"greenText\"><b>Successful harvest!</b></span><br>Your pay has increased by $0.02. Your bonus pay is now $1.20.</p>\n            ","response":0,"trial_type":"html-button-response","trial_index":120,"time_elapsed":625586,"internal_node_id":"0.0-4.0-1.56","subject_id":"610ae3ea1341878837b4e646","study_id":"6197b3f67c2b5cd3b6d9596a","session_id":"619c1dd92ffa36c9e73c58ac","condition":"contingent","relevant_dimensions":["antennae","legs"],"bee_group":{"antennae":"A","wings":"X","pattern":"X","legs":"M"},"bonus":1.7800000000000014},{"rt":1330,"stimulus":"bees-with-color/bee-A2SM.svg","response":1,"trial_type":"image-button-response","trial_index":121,"time_elapsed":626918,"internal_node_id":"0.0-4.0-0.57","subject_id":"610ae3ea1341878837b4e646","study_id":"6197b3f67c2b5cd3b6d9596a","session_id":"619c1dd92ffa36c9e73c58ac","condition":"contingent","relevant_dimensions":["antennae","legs"],"bee_group":{"antennae":"A","wings":"X","pattern":"X","legs":"M"},"action":"avoid","summary":"good-avoid","bonus":1.7800000000000014},{"rt":501.79999999981374,"stimulus":"\n                    <p><b>Action: <em>avoid</em></b></p>\n                    <p>This is the bee that you just saw.</p>\n                    <img src=\"bees-with-color/bee-A2SM.svg\" width=\"200\">\n                    <p><br>Your bonus pay is unchanged, and remains at $1.20.</p>\n            ","response":0,"trial_type":"html-button-response","trial_index":122,"time_elapsed":627421,"internal_node_id":"0.0-4.0-1.57","subject_id":"610ae3ea1341878837b4e646","study_id":"6197b3f67c2b5cd3b6d9596a","session_id":"619c1dd92ffa36c9e73c58ac","condition":"contingent","relevant_dimensions":["antennae","legs"],"bee_group":{"antennae":"A","wings":"X","pattern":"X","legs":"M"},"bonus":1.7800000000000014},{"rt":1131.699999999255,"stimulus":"bees-with-color/bee-B2DM.svg","response":0,"trial_type":"image-button-response","trial_index":123,"time_elapsed":628554,"internal_node_id":"0.0-4.0-0.58","subject_id":"610ae3ea1341878837b4e646","study_id":"6197b3f67c2b5cd3b6d9596a","session_id":"619c1dd92ffa36c9e73c58ac","condition":"contingent","relevant_dimensions":["antennae","legs"],"bee_group":{"antennae":"A","wings":"X","pattern":"X","legs":"M"},"action":"harvest","summary":"good-harvest","bonus":1.7800000000000014},{"rt":451.40000000037253,"stimulus":"\n                    <p><b>Action: <em>harvest</em></b></p>\n                    <p>This is the bee that you just saw.</p>\n                    <img src=\"bees-with-color/bee-B2DM.svg\" width=\"200\">\n                    <p><span class=\"greenText\"><b>Successful harvest!</b></span><br>Your pay has increased by $0.02. Your bonus pay is now $1.22.</p>\n            ","response":0,"trial_type":"html-button-response","trial_index":124,"time_elapsed":629007,"internal_node_id":"0.0-4.0-1.58","subject_id":"610ae3ea1341878837b4e646","study_id":"6197b3f67c2b5cd3b6d9596a","session_id":"619c1dd92ffa36c9e73c58ac","condition":"contingent","relevant_dimensions":["antennae","legs"],"bee_group":{"antennae":"A","wings":"X","pattern":"X","legs":"M"},"bonus":1.7800000000000014},{"rt":1150.699999999255,"stimulus":"bees-with-color/bee-B1DM.svg","response":0,"trial_type":"image-button-response","trial_index":125,"time_elapsed":630159,"internal_node_id":"0.0-4.0-0.59","subject_id":"610ae3ea1341878837b4e646","study_id":"6197b3f67c2b5cd3b6d9596a","session_id":"619c1dd92ffa36c9e73c58ac","condition":"contingent","relevant_dimensions":["antennae","legs"],"bee_group":{"antennae":"A","wings":"X","pattern":"X","legs":"M"},"action":"harvest","summary":"good-harvest","bonus":1.7800000000000014},{"rt":501.29999999981374,"stimulus":"\n                    <p><b>Action: <em>harvest</em></b></p>\n                    <p>This is the bee that you just saw.</p>\n                    <img src=\"bees-with-color/bee-B1DM.svg\" width=\"200\">\n                    <p><span class=\"greenText\"><b>Successful harvest!</b></span><br>Your pay has increased by $0.02. Your bonus pay is now $1.24.</p>\n            ","response":0,"trial_type":"html-button-response","trial_index":126,"time_elapsed":630662,"internal_node_id":"0.0-4.0-1.59","subject_id":"610ae3ea1341878837b4e646","study_id":"6197b3f67c2b5cd3b6d9596a","session_id":"619c1dd92ffa36c9e73c58ac","condition":"contingent","relevant_dimensions":["antennae","legs"],"bee_group":{"antennae":"A","wings":"X","pattern":"X","legs":"M"},"bonus":1.7800000000000014},{"rt":1276.6000000005588,"stimulus":"bees-with-color/bee-B1SM.svg","response":0,"trial_type":"image-button-response","trial_index":127,"time_elapsed":631940,"internal_node_id":"0.0-4.0-0.60","subject_id":"610ae3ea1341878837b4e646","study_id":"6197b3f67c2b5cd3b6d9596a","session_id":"619c1dd92ffa36c9e73c58ac","condition":"contingent","relevant_dimensions":["antennae","legs"],"bee_group":{"antennae":"A","wings":"X","pattern":"X","legs":"M"},"action":"harvest","summary":"good-harvest","bonus":1.7800000000000014},{"rt":510.69999999925494,"stimulus":"\n                    <p><b>Action: <em>harvest</em></b></p>\n                    <p>This is the bee that you just saw.</p>\n                    <img src=\"bees-with-color/bee-B1SM.svg\" width=\"200\">\n                    <p><span class=\"greenText\"><b>Successful harvest!</b></span><br>Your pay has increased by $0.02. Your bonus pay is now $1.26.</p>\n            ","response":0,"trial_type":"html-button-response","trial_index":128,"time_elapsed":632452,"internal_node_id":"0.0-4.0-1.60","subject_id":"610ae3ea1341878837b4e646","study_id":"6197b3f67c2b5cd3b6d9596a","session_id":"619c1dd92ffa36c9e73c58ac","condition":"contingent","relevant_dimensions":["antennae","legs"],"bee_group":{"antennae":"A","wings":"X","pattern":"X","legs":"M"},"bonus":1.7800000000000014},{"rt":1163.6000000005588,"stimulus":"bees-with-color/bee-A2DM.svg","response":1,"trial_type":"image-button-response","trial_index":129,"time_elapsed":633616,"internal_node_id":"0.0-4.0-0.61","subject_id":"610ae3ea1341878837b4e646","study_id":"6197b3f67c2b5cd3b6d9596a","session_id":"619c1dd92ffa36c9e73c58ac","condition":"contingent","relevant_dimensions":["antennae","legs"],"bee_group":{"antennae":"A","wings":"X","pattern":"X","legs":"M"},"action":"avoid","summary":"good-avoid","bonus":1.7800000000000014},{"rt":451.59999999962747,"stimulus":"\n                    <p><b>Action: <em>avoid</em></b></p>\n                    <p>This is the bee that you just saw.</p>\n                    <img src=\"bees-with-color/bee-A2DM.svg\" width=\"200\">\n                    <p><br>Your bonus pay is unchanged, and remains at $1.26.</p>\n            ","response":0,"trial_type":"html-button-response","trial_index":130,"time_elapsed":634070,"internal_node_id":"0.0-4.0-1.61","subject_id":"610ae3ea1341878837b4e646","study_id":"6197b3f67c2b5cd3b6d9596a","session_id":"619c1dd92ffa36c9e73c58ac","condition":"contingent","relevant_dimensions":["antennae","legs"],"bee_group":{"antennae":"A","wings":"X","pattern":"X","legs":"M"},"bonus":1.7800000000000014},{"rt":2077.7999999998137,"stimulus":"bees-with-color/bee-B2SM.svg","response":0,"trial_type":"image-button-response","trial_index":131,"time_elapsed":636149,"internal_node_id":"0.0-4.0-0.62","subject_id":"610ae3ea1341878837b4e646","study_id":"6197b3f67c2b5cd3b6d9596a","session_id":"619c1dd92ffa36c9e73c58ac","condition":"contingent","relevant_dimensions":["antennae","legs"],"bee_group":{"antennae":"A","wings":"X","pattern":"X","legs":"M"},"action":"harvest","summary":"good-harvest","bonus":1.7800000000000014},{"rt":472.20000000018626,"stimulus":"\n                    <p><b>Action: <em>harvest</em></b></p>\n                    <p>This is the bee that you just saw.</p>\n                    <img src=\"bees-with-color/bee-B2SM.svg\" width=\"200\">\n                    <p><span class=\"greenText\"><b>Successful harvest!</b></span><br>Your pay has increased by $0.02. Your bonus pay is now $1.28.</p>\n            ","response":0,"trial_type":"html-button-response","trial_index":132,"time_elapsed":636623,"internal_node_id":"0.0-4.0-1.62","subject_id":"610ae3ea1341878837b4e646","study_id":"6197b3f67c2b5cd3b6d9596a","session_id":"619c1dd92ffa36c9e73c58ac","condition":"contingent","relevant_dimensions":["antennae","legs"],"bee_group":{"antennae":"A","wings":"X","pattern":"X","legs":"M"},"bonus":1.7800000000000014},{"rt":1684.5,"stimulus":"bees-with-color/bee-B1DF.svg","response":0,"trial_type":"image-button-response","trial_index":133,"time_elapsed":638309,"internal_node_id":"0.0-4.0-0.63","subject_id":"610ae3ea1341878837b4e646","study_id":"6197b3f67c2b5cd3b6d9596a","session_id":"619c1dd92ffa36c9e73c58ac","condition":"contingent","relevant_dimensions":["antennae","legs"],"bee_group":{"antennae":"A","wings":"X","pattern":"X","legs":"M"},"action":"harvest","summary":"good-harvest","bonus":1.7800000000000014},{"rt":858.5,"stimulus":"\n                    <p><b>Action: <em>harvest</em></b></p>\n                    <p>This is the bee that you just saw.</p>\n                    <img src=\"bees-with-color/bee-B1DF.svg\" width=\"200\">\n                    <p><span class=\"greenText\"><b>Successful harvest!</b></span><br>Your pay has increased by $0.02. Your bonus pay is now $1.30.</p>\n            ","response":0,"trial_type":"html-button-response","trial_index":134,"time_elapsed":639169,"internal_node_id":"0.0-4.0-1.63","subject_id":"610ae3ea1341878837b4e646","study_id":"6197b3f67c2b5cd3b6d9596a","session_id":"619c1dd92ffa36c9e73c58ac","condition":"contingent","relevant_dimensions":["antennae","legs"],"bee_group":{"antennae":"A","wings":"X","pattern":"X","legs":"M"},"bonus":1.7800000000000014},{"rt":18577.200000000186,"stimulus":"You have completed the first part of this experiment.<br><br>You will now begin a shorter second part, in which you will receive no feedback.<br>The same rules regarding bonus pay apply.<br><br>Press any key to begin.","response":"arrowright","trial_type":"html-keyboard-response","trial_index":135,"time_elapsed":657747,"internal_node_id":"0.0-5.0","subject_id":"610ae3ea1341878837b4e646","study_id":"6197b3f67c2b5cd3b6d9596a","session_id":"619c1dd92ffa36c9e73c58ac","condition":"contingent","relevant_dimensions":["antennae","legs"],"bee_group":{"antennae":"A","wings":"X","pattern":"X","legs":"M"},"bonus":1.7800000000000014},{"rt":2045.3999999994412,"stimulus":"bees-with-color/bee-A1SF.svg","response":0,"trial_type":"image-button-response","trial_index":136,"time_elapsed":659803,"internal_node_id":"0.0-6.0-0.0","subject_id":"610ae3ea1341878837b4e646","study_id":"6197b3f67c2b5cd3b6d9596a","session_id":"619c1dd92ffa36c9e73c58ac","condition":"contingent","relevant_dimensions":["antennae","legs"],"bee_group":{"antennae":"A","wings":"X","pattern":"X","legs":"M"},"bonus":1.7800000000000014},{"rt":6333,"stimulus":"bees-with-color/bee-B1SM.svg","response":0,"trial_type":"image-button-response","trial_index":137,"time_elapsed":666138,"internal_node_id":"0.0-6.0-0.1","subject_id":"610ae3ea1341878837b4e646","study_id":"6197b3f67c2b5cd3b6d9596a","session_id":"619c1dd92ffa36c9e73c58ac","condition":"contingent","relevant_dimensions":["antennae","legs"],"bee_group":{"antennae":"A","wings":"X","pattern":"X","legs":"M"},"bonus":1.7800000000000014},{"rt":990.3999999994412,"stimulus":"bees-with-color/bee-B2SF.svg","response":0,"trial_type":"image-button-response","trial_index":138,"time_elapsed":667131,"internal_node_id":"0.0-6.0-0.2","subject_id":"610ae3ea1341878837b4e646","study_id":"6197b3f67c2b5cd3b6d9596a","session_id":"619c1dd92ffa36c9e73c58ac","condition":"contingent","relevant_dimensions":["antennae","legs"],"bee_group":{"antennae":"A","wings":"X","pattern":"X","legs":"M"},"bonus":1.7800000000000014},{"rt":939.1999999992549,"stimulus":"bees-with-color/bee-B2SM.svg","response":0,"trial_type":"image-button-response","trial_index":139,"time_elapsed":668072,"internal_node_id":"0.0-6.0-0.3","subject_id":"610ae3ea1341878837b4e646","study_id":"6197b3f67c2b5cd3b6d9596a","session_id":"619c1dd92ffa36c9e73c58ac","condition":"contingent","relevant_dimensions":["antennae","legs"],"bee_group":{"antennae":"A","wings":"X","pattern":"X","legs":"M"},"bonus":1.7800000000000014},{"rt":1060.2000000001863,"stimulus":"bees-with-color/bee-A2DM.svg","response":1,"trial_type":"image-button-response","trial_index":140,"time_elapsed":669134,"internal_node_id":"0.0-6.0-0.4","subject_id":"610ae3ea1341878837b4e646","study_id":"6197b3f67c2b5cd3b6d9596a","session_id":"619c1dd92ffa36c9e73c58ac","condition":"contingent","relevant_dimensions":["antennae","legs"],"bee_group":{"antennae":"A","wings":"X","pattern":"X","legs":"M"},"bonus":1.7800000000000014},{"rt":1047,"stimulus":"bees-with-color/bee-A1DM.svg","response":1,"trial_type":"image-button-response","trial_index":141,"time_elapsed":670183,"internal_node_id":"0.0-6.0-0.5","subject_id":"610ae3ea1341878837b4e646","study_id":"6197b3f67c2b5cd3b6d9596a","session_id":"619c1dd92ffa36c9e73c58ac","condition":"contingent","relevant_dimensions":["antennae","legs"],"bee_group":{"antennae":"A","wings":"X","pattern":"X","legs":"M"},"bonus":1.7800000000000014},{"rt":1113.7000000001863,"stimulus":"bees-with-color/bee-B1SF.svg","response":0,"trial_type":"image-button-response","trial_index":142,"time_elapsed":671298,"internal_node_id":"0.0-6.0-0.6","subject_id":"610ae3ea1341878837b4e646","study_id":"6197b3f67c2b5cd3b6d9596a","session_id":"619c1dd92ffa36c9e73c58ac","condition":"contingent","relevant_dimensions":["antennae","legs"],"bee_group":{"antennae":"A","wings":"X","pattern":"X","legs":"M"},"bonus":1.7800000000000014},{"rt":1129.2999999998137,"stimulus":"bees-with-color/bee-B1DM.svg","response":0,"trial_type":"image-button-response","trial_index":143,"time_elapsed":672430,"internal_node_id":"0.0-6.0-0.7","subject_id":"610ae3ea1341878837b4e646","study_id":"6197b3f67c2b5cd3b6d9596a","session_id":"619c1dd92ffa36c9e73c58ac","condition":"contingent","relevant_dimensions":["antennae","legs"],"bee_group":{"antennae":"A","wings":"X","pattern":"X","legs":"M"},"bonus":1.7800000000000014},{"rt":1419.199999999255,"stimulus":"bees-with-color/bee-B1DF.svg","response":0,"trial_type":"image-button-response","trial_index":144,"time_elapsed":673851,"internal_node_id":"0.0-6.0-0.8","subject_id":"610ae3ea1341878837b4e646","study_id":"6197b3f67c2b5cd3b6d9596a","session_id":"619c1dd92ffa36c9e73c58ac","condition":"contingent","relevant_dimensions":["antennae","legs"],"bee_group":{"antennae":"A","wings":"X","pattern":"X","legs":"M"},"bonus":1.7800000000000014},{"rt":1252.7000000001863,"stimulus":"bees-with-color/bee-B2DM.svg","response":0,"trial_type":"image-button-response","trial_index":145,"time_elapsed":675106,"internal_node_id":"0.0-6.0-0.9","subject_id":"610ae3ea1341878837b4e646","study_id":"6197b3f67c2b5cd3b6d9596a","session_id":"619c1dd92ffa36c9e73c58ac","condition":"contingent","relevant_dimensions":["antennae","legs"],"bee_group":{"antennae":"A","wings":"X","pattern":"X","legs":"M"},"bonus":1.7800000000000014},{"rt":1393,"stimulus":"bees-with-color/bee-A2SM.svg","response":1,"trial_type":"image-button-response","trial_index":146,"time_elapsed":676501,"internal_node_id":"0.0-6.0-0.10","subject_id":"610ae3ea1341878837b4e646","study_id":"6197b3f67c2b5cd3b6d9596a","session_id":"619c1dd92ffa36c9e73c58ac","condition":"contingent","relevant_dimensions":["antennae","legs"],"bee_group":{"antennae":"A","wings":"X","pattern":"X","legs":"M"},"bonus":1.7800000000000014},{"rt":3729.7000000001863,"stimulus":"bees-with-color/bee-A2SF.svg","response":0,"trial_type":"image-button-response","trial_index":147,"time_elapsed":680232,"internal_node_id":"0.0-6.0-0.11","subject_id":"610ae3ea1341878837b4e646","study_id":"6197b3f67c2b5cd3b6d9596a","session_id":"619c1dd92ffa36c9e73c58ac","condition":"contingent","relevant_dimensions":["antennae","legs"],"bee_group":{"antennae":"A","wings":"X","pattern":"X","legs":"M"},"bonus":1.7800000000000014},{"rt":752.6000000005588,"stimulus":"bees-with-color/bee-A1DF.svg","response":0,"trial_type":"image-button-response","trial_index":148,"time_elapsed":680987,"internal_node_id":"0.0-6.0-0.12","subject_id":"610ae3ea1341878837b4e646","study_id":"6197b3f67c2b5cd3b6d9596a","session_id":"619c1dd92ffa36c9e73c58ac","condition":"contingent","relevant_dimensions":["antennae","legs"],"bee_group":{"antennae":"A","wings":"X","pattern":"X","legs":"M"},"bonus":1.7800000000000014},{"rt":732.2999999998137,"stimulus":"bees-with-color/bee-B2DF.svg","response":0,"trial_type":"image-button-response","trial_index":149,"time_elapsed":681722,"internal_node_id":"0.0-6.0-0.13","subject_id":"610ae3ea1341878837b4e646","study_id":"6197b3f67c2b5cd3b6d9596a","session_id":"619c1dd92ffa36c9e73c58ac","condition":"contingent","relevant_dimensions":["antennae","legs"],"bee_group":{"antennae":"A","wings":"X","pattern":"X","legs":"M"},"bonus":1.7800000000000014},{"rt":651.5999999996275,"stimulus":"bees-with-color/bee-A2DF.svg","response":0,"trial_type":"image-button-response","trial_index":150,"time_elapsed":682375,"internal_node_id":"0.0-6.0-0.14","subject_id":"610ae3ea1341878837b4e646","study_id":"6197b3f67c2b5cd3b6d9596a","session_id":"619c1dd92ffa36c9e73c58ac","condition":"contingent","relevant_dimensions":["antennae","legs"],"bee_group":{"antennae":"A","wings":"X","pattern":"X","legs":"M"},"bonus":1.7800000000000014},{"rt":1548.0999999996275,"stimulus":"bees-with-color/bee-A1SM.svg","response":1,"trial_type":"image-button-response","trial_index":151,"time_elapsed":683926,"internal_node_id":"0.0-6.0-0.15","subject_id":"610ae3ea1341878837b4e646","study_id":"6197b3f67c2b5cd3b6d9596a","session_id":"619c1dd92ffa36c9e73c58ac","condition":"contingent","relevant_dimensions":["antennae","legs"],"bee_group":{"antennae":"A","wings":"X","pattern":"X","legs":"M"},"bonus":1.7800000000000014},{"rt":2548.2000000001863,"stimulus":"bees-with-color/bee-A1SM.svg","response":1,"trial_type":"image-button-response","trial_index":152,"time_elapsed":686475,"internal_node_id":"0.0-6.0-0.16","subject_id":"610ae3ea1341878837b4e646","study_id":"6197b3f67c2b5cd3b6d9596a","session_id":"619c1dd92ffa36c9e73c58ac","condition":"contingent","relevant_dimensions":["antennae","legs"],"bee_group":{"antennae":"A","wings":"X","pattern":"X","legs":"M"},"bonus":1.7800000000000014},{"rt":1203.2000000001863,"stimulus":"bees-with-color/bee-B1DF.svg","response":0,"trial_type":"image-button-response","trial_index":153,"time_elapsed":687681,"internal_node_id":"0.0-6.0-0.17","subject_id":"610ae3ea1341878837b4e646","study_id":"6197b3f67c2b5cd3b6d9596a","session_id":"619c1dd92ffa36c9e73c58ac","condition":"contingent","relevant_dimensions":["antennae","legs"],"bee_group":{"antennae":"A","wings":"X","pattern":"X","legs":"M"},"bonus":1.7800000000000014},{"rt":1250.2999999998137,"stimulus":"bees-with-color/bee-B2DM.svg","response":0,"trial_type":"image-button-response","trial_index":154,"time_elapsed":688933,"internal_node_id":"0.0-6.0-0.18","subject_id":"610ae3ea1341878837b4e646","study_id":"6197b3f67c2b5cd3b6d9596a","session_id":"619c1dd92ffa36c9e73c58ac","condition":"contingent","relevant_dimensions":["antennae","legs"],"bee_group":{"antennae":"A","wings":"X","pattern":"X","legs":"M"},"bonus":1.7800000000000014},{"rt":1408.199999999255,"stimulus":"bees-with-color/bee-A1DF.svg","response":0,"trial_type":"image-button-response","trial_index":155,"time_elapsed":690343,"internal_node_id":"0.0-6.0-0.19","subject_id":"610ae3ea1341878837b4e646","study_id":"6197b3f67c2b5cd3b6d9596a","session_id":"619c1dd92ffa36c9e73c58ac","condition":"contingent","relevant_dimensions":["antennae","legs"],"bee_group":{"antennae":"A","wings":"X","pattern":"X","legs":"M"},"bonus":1.7800000000000014},{"rt":594,"stimulus":"bees-with-color/bee-A2DF.svg","response":0,"trial_type":"image-button-response","trial_index":156,"time_elapsed":690938,"internal_node_id":"0.0-6.0-0.20","subject_id":"610ae3ea1341878837b4e646","study_id":"6197b3f67c2b5cd3b6d9596a","session_id":"619c1dd92ffa36c9e73c58ac","condition":"contingent","relevant_dimensions":["antennae","legs"],"bee_group":{"antennae":"A","wings":"X","pattern":"X","legs":"M"},"bonus":1.7800000000000014},{"rt":1684.2999999998137,"stimulus":"bees-with-color/bee-A2DM.svg","response":1,"trial_type":"image-button-response","trial_index":157,"time_elapsed":692625,"internal_node_id":"0.0-6.0-0.21","subject_id":"610ae3ea1341878837b4e646","study_id":"6197b3f67c2b5cd3b6d9596a","session_id":"619c1dd92ffa36c9e73c58ac","condition":"contingent","relevant_dimensions":["antennae","legs"],"bee_group":{"antennae":"A","wings":"X","pattern":"X","legs":"M"},"bonus":1.7800000000000014},{"rt":1327.300000000745,"stimulus":"bees-with-color/bee-A2SF.svg","response":0,"trial_type":"image-button-response","trial_index":158,"time_elapsed":693954,"internal_node_id":"0.0-6.0-0.22","subject_id":"610ae3ea1341878837b4e646","study_id":"6197b3f67c2b5cd3b6d9596a","session_id":"619c1dd92ffa36c9e73c58ac","condition":"contingent","relevant_dimensions":["antennae","legs"],"bee_group":{"antennae":"A","wings":"X","pattern":"X","legs":"M"},"bonus":1.7800000000000014},{"rt":960.5,"stimulus":"bees-with-color/bee-A1SF.svg","response":0,"trial_type":"image-button-response","trial_index":159,"time_elapsed":694916,"internal_node_id":"0.0-6.0-0.23","subject_id":"610ae3ea1341878837b4e646","study_id":"6197b3f67c2b5cd3b6d9596a","session_id":"619c1dd92ffa36c9e73c58ac","condition":"contingent","relevant_dimensions":["antennae","legs"],"bee_group":{"antennae":"A","wings":"X","pattern":"X","legs":"M"},"bonus":1.7800000000000014},{"rt":1238.2999999998137,"stimulus":"bees-with-color/bee-B1SM.svg","response":0,"trial_type":"image-button-response","trial_index":160,"time_elapsed":696156,"internal_node_id":"0.0-6.0-0.24","subject_id":"610ae3ea1341878837b4e646","study_id":"6197b3f67c2b5cd3b6d9596a","session_id":"619c1dd92ffa36c9e73c58ac","condition":"contingent","relevant_dimensions":["antennae","legs"],"bee_group":{"antennae":"A","wings":"X","pattern":"X","legs":"M"},"bonus":1.7800000000000014},{"rt":870.6999999992549,"stimulus":"bees-with-color/bee-B2SM.svg","response":0,"trial_type":"image-button-response","trial_index":161,"time_elapsed":697028,"internal_node_id":"0.0-6.0-0.25","subject_id":"610ae3ea1341878837b4e646"