[{"success":true,"trial_type":"fullscreen","trial_index":0,"time_elapsed":21576,"internal_node_id":"0.0-0.0","subject_id":"61086ec3f37a76918f7c2094","study_id":"60edd13110225f80f9f3709b","session_id":"6196c4a12ee6c28695b28825","condition":"full-information","relevant_dimensions":["pattern","legs"],"bee_group":{"antennae":"X","wings":"X","pattern":"S","legs":"F"},"bonus":0.6000000000000011},{"success":true,"timeout":false,"failed_images":[],"failed_audio":[],"failed_video":[],"trial_type":"preload","trial_index":1,"time_elapsed":23216,"internal_node_id":"0.0-1.0","subject_id":"61086ec3f37a76918f7c2094","study_id":"60edd13110225f80f9f3709b","session_id":"6196c4a12ee6c28695b28825","condition":"full-information","relevant_dimensions":["pattern","legs"],"bee_group":{"antennae":"X","wings":"X","pattern":"S","legs":"F"},"bonus":0.6000000000000011},{"rt":3163.600000023842,"stimulus":"Welcome! Press any key to begin.","response":" ","trial_type":"html-keyboard-response","trial_index":2,"time_elapsed":26380,"internal_node_id":"0.0-2.0","subject_id":"61086ec3f37a76918f7c2094","study_id":"60edd13110225f80f9f3709b","session_id":"6196c4a12ee6c28695b28825","condition":"full-information","relevant_dimensions":["pattern","legs"],"bee_group":{"antennae":"X","wings":"X","pattern":"S","legs":"F"},"bonus":0.6000000000000011},{"view_history":[{"page_index":0,"viewing_time":13264.800000011921},{"page_index":1,"viewing_time":29703.900000035763},{"page_index":2,"viewing_time":33807.799999952316},{"page_index":3,"viewing_time":17592.400000035763},{"page_index":4,"viewing_time":15791.699999988079},{"page_index":5,"viewing_time":7719.899999976158},{"page_index":6,"viewing_time":8632.300000011921},{"page_index":7,"viewing_time":4135.699999988079},{"page_index":6,"viewing_time":1576.300000011921},{"page_index":7,"viewing_time":4095.900000035763},{"page_index":8,"viewing_time":3095.7999999523163},{"page_index":9,"viewing_time":2480},{"page_index":10,"viewing_time":2360.300000011921},{"page_index":11,"viewing_time":8031.699999988079},{"page_index":12,"viewing_time":28616.30000001192},{"page_index":13,"viewing_time":1639.9000000357628},{"page_index":14,"viewing_time":2000.2999999523163}],"rt":184545.30000001192,"trial_type":"instructions","trial_index":3,"time_elapsed":210926,"internal_node_id":"0.0-3.0-0.0","subject_id":"61086ec3f37a76918f7c2094","study_id":"60edd13110225f80f9f3709b","session_id":"6196c4a12ee6c28695b28825","condition":"full-information","relevant_dimensions":["pattern","legs"],"bee_group":{"antennae":"X","wings":"X","pattern":"S","legs":"F"},"bonus":0.6000000000000011},{"rt":17509.899999976158,"response":{"Q0":["Two or six legs","Stripes or spots on body","Single or double wings","Antennae or no antennae"]},"question_order":[0],"trial_type":"survey-multi-select","trial_index":4,"time_elapsed":228438,"internal_node_id":"0.0-3.0-1.0","subject_id":"61086ec3f37a76918f7c2094","study_id":"60edd13110225f80f9f3709b","session_id":"6196c4a12ee6c28695b28825","condition":"full-information","relevant_dimensions":["pattern","legs"],"bee_group":{"antennae":"X","wings":"X","pattern":"S","legs":"F"},"correct":true,"bonus":0.6000000000000011},{"rt":19844.900000035763,"response":{"Q1":"No.","Q2":"Based on the four features of the bee.","Q3":"You learn if it was friendly or dangerous, but do not alter your bonus."},"question_order":[0,1,2],"trial_type":"survey-multi-choice","trial_index":5,"time_elapsed":248285,"internal_node_id":"0.0-3.0-2.0","subject_id":"61086ec3f37a76918f7c2094","study_id":"60edd13110225f80f9f3709b","session_id":"6196c4a12ee6c28695b28825","condition":"full-information","relevant_dimensions":["pattern","legs"],"bee_group":{"antennae":"X","wings":"X","pattern":"S","legs":"F"},"correct":true,"bonus":0.6000000000000011},{"rt":3261.5,"stimulus":"<p>Congrats, you got everything right<br>When you're ready, click the button below to continue to the experiment.</p>","response":0,"trial_type":"html-button-response","trial_index":6,"time_elapsed":251549,"internal_node_id":"0.0-3.0-3.0","subject_id":"61086ec3f37a76918f7c2094","study_id":"60edd13110225f80f9f3709b","session_id":"6196c4a12ee6c28695b28825","condition":"full-information","relevant_dimensions":["pattern","legs"],"bee_group":{"antennae":"X","wings":"X","pattern":"S","legs":"F"},"bonus":0.6000000000000011},{"rt":4454.5,"stimulus":"bees-with-color/bee-A1DM.svg","response":1,"trial_type":"image-button-response","trial_index":7,"time_elapsed":256005,"internal_node_id":"0.0-4.0-0.0","subject_id":"61086ec3f37a76918f7c2094","study_id":"60edd13110225f80f9f3709b","session_id":"6196c4a12ee6c28695b28825","condition":"full-information","relevant_dimensions":["pattern","legs"],"bee_group":{"antennae":"X","wings":"X","pattern":"S","legs":"F"},"action":"avoid","summary":"bad-avoid","bonus":0.6000000000000011},{"rt":23854.099999964237,"stimulus":"\n                    <p><b>Action: <em>avoid</em></b></p>\n                    <p>This is the bee that you just saw.</p>\n                    <img src=\"bees-with-color/bee-A1DM.svg\" width=\"200\">\n                    <p><span class=\"redText\">Bad choice,</span> the bee was friendly.<br>Your bonus pay is unchanged, and remains at $0.54.</p>\n            ","response":0,"trial_type":"html-button-response","trial_index":8,"time_elapsed":279861,"internal_node_id":"0.0-4.0-1.0","subject_id":"61086ec3f37a76918f7c2094","study_id":"60edd13110225f80f9f3709b","session_id":"6196c4a12ee6c28695b28825","condition":"full-information","relevant_dimensions":["pattern","legs"],"bee_group":{"antennae":"X","wings":"X","pattern":"S","legs":"F"},"bonus":0.6000000000000011},{"rt":2398.800000011921,"stimulus":"bees-with-color/bee-A1DF.svg","response":0,"trial_type":"image-button-response","trial_index":9,"time_elapsed":282261,"internal_node_id":"0.0-4.0-0.1","subject_id":"61086ec3f37a76918f7c2094","study_id":"60edd13110225f80f9f3709b","session_id":"6196c4a12ee6c28695b28825","condition":"full-information","relevant_dimensions":["pattern","legs"],"bee_group":{"antennae":"X","wings":"X","pattern":"S","legs":"F"},"action":"harvest","summary":"good-harvest","bonus":0.6000000000000011},{"rt":3766.899999976158,"stimulus":"\n                    <p><b>Action: <em>harvest</em></b></p>\n                    <p>This is the bee that you just saw.</p>\n                    <img src=\"bees-with-color/bee-A1DF.svg\" width=\"200\">\n                    <p><span class=\"greenText\"><b>Successful harvest!</b></span><br>Your pay has increased by $0.02. Your bonus pay is now $0.56.</p>\n            ","response":0,"trial_type":"html-button-response","trial_index":10,"time_elapsed":286029,"internal_node_id":"0.0-4.0-1.1","subject_id":"61086ec3f37a76918f7c2094","study_id":"60edd13110225f80f9f3709b","session_id":"6196c4a12ee6c28695b28825","condition":"full-information","relevant_dimensions":["pattern","legs"],"bee_group":{"antennae":"X","wings":"X","pattern":"S","legs":"F"},"bonus":0.6000000000000011},{"rt":1663.1000000238419,"stimulus":"bees-with-color/bee-A1SF.svg","response":1,"trial_type":"image-button-response","trial_index":11,"time_elapsed":287693,"internal_node_id":"0.0-4.0-0.2","subject_id":"61086ec3f37a76918f7c2094","study_id":"60edd13110225f80f9f3709b","session_id":"6196c4a12ee6c28695b28825","condition":"full-information","relevant_dimensions":["pattern","legs"],"bee_group":{"antennae":"X","wings":"X","pattern":"S","legs":"F"},"action":"avoid","summary":"good-avoid","bonus":0.6000000000000011},{"rt":24094.899999976158,"stimulus":"\n                    <p><b>Action: <em>avoid</em></b></p>\n                    <p>This is the bee that you just saw.</p>\n                    <img src=\"bees-with-color/bee-A1SF.svg\" width=\"200\">\n                    <p><span class=\"greenText\">Good choice!</span>  This bee would have stung you.<br>Your bonus pay is unchanged, and remains at $0.56.</p>\n            ","response":0,"trial_type":"html-button-response","trial_index":12,"time_elapsed":311789,"internal_node_id":"0.0-4.0-1.2","subject_id":"61086ec3f37a76918f7c2094","study_id":"60edd13110225f80f9f3709b","session_id":"6196c4a12ee6c28695b28825","condition":"full-information","relevant_dimensions":["pattern","legs"],"bee_group":{"antennae":"X","wings":"X","pattern":"S","legs":"F"},"bonus":0.6000000000000011},{"rt":2535.100000023842,"stimulus":"bees-with-color/bee-B2DM.svg","response":1,"trial_type":"image-button-response","trial_index":13,"time_elapsed":314325,"internal_node_id":"0.0-4.0-0.3","subject_id":"61086ec3f37a76918f7c2094","study_id":"60edd13110225f80f9f3709b","session_id":"6196c4a12ee6c28695b28825","condition":"full-information","relevant_dimensions":["pattern","legs"],"bee_group":{"antennae":"X","wings":"X","pattern":"S","legs":"F"},"action":"avoid","summary":"bad-avoid","bonus":0.6000000000000011},{"rt":32407.30000001192,"stimulus":"\n                    <p><b>Action: <em>avoid</em></b></p>\n                    <p>This is the bee that you just saw.</p>\n                    <img src=\"bees-with-color/bee-B2DM.svg\" width=\"200\">\n                    <p><span class=\"redText\">Bad choice,</span> the bee was friendly.<br>Your bonus pay is unchanged, and remains at $0.56.</p>\n            ","response":0,"trial_type":"html-button-response","trial_index":14,"time_elapsed":346734,"internal_node_id":"0.0-4.0-1.3","subject_id":"61086ec3f37a76918f7c2094","study_id":"60edd13110225f80f9f3709b","session_id":"6196c4a12ee6c28695b28825","condition":"full-information","relevant_dimensions":["pattern","legs"],"bee_group":{"antennae":"X","wings":"X","pattern":"S","legs":"F"},"bonus":0.6000000000000011},{"rt":7542.900000035763,"stimulus":"bees-with-color/bee-A2SF.svg","response":1,"trial_type":"image-button-response","trial_index":15,"time_elapsed":354278,"internal_node_id":"0.0-4.0-0.4","subject_id":"61086ec3f37a76918f7c2094","study_id":"60edd13110225f80f9f3709b","session_id":"6196c4a12ee6c28695b28825","condition":"full-information","relevant_dimensions":["pattern","legs"],"bee_group":{"antennae":"X","wings":"X","pattern":"S","legs":"F"},"action":"avoid","summary":"good-avoid","bonus":0.6000000000000011},{"rt":8806.899999976158,"stimulus":"\n                    <p><b>Action: <em>avoid</em></b></p>\n                    <p>This is the bee that you just saw.</p>\n                    <img src=\"bees-with-color/bee-A2SF.svg\" width=\"200\">\n                    <p><span class=\"greenText\">Good choice!</span>  This bee would have stung you.<br>Your bonus pay is unchanged, and remains at $0.56.</p>\n            ","response":0,"trial_type":"html-button-response","trial_index":16,"time_elapsed":363086,"internal_node_id":"0.0-4.0-1.4","subject_id":"61086ec3f37a76918f7c2094","study_id":"60edd13110225f80f9f3709b","session_id":"6196c4a12ee6c28695b28825","condition":"full-information","relevant_dimensions":["pattern","legs"],"bee_group":{"antennae":"X","wings":"X","pattern":"S","legs":"F"},"bonus":0.6000000000000011},{"rt":3438.300000011921,"stimulus":"bees-with-color/bee-B1DM.svg","response":1,"trial_type":"image-button-response","trial_index":17,"time_elapsed":366526,"internal_node_id":"0.0-4.0-0.5","subject_id":"61086ec3f37a76918f7c2094","study_id":"60edd13110225f80f9f3709b","session_id":"6196c4a12ee6c28695b28825","condition":"full-information","relevant_dimensions":["pattern","legs"],"bee_group":{"antennae":"X","wings":"X","pattern":"S","legs":"F"},"action":"avoid","summary":"bad-avoid","bonus":0.6000000000000011},{"rt":8046.900000035763,"stimulus":"\n                    <p><b>Action: <em>avoid</em></b></p>\n                    <p>This is the bee that you just saw.</p>\n                    <img src=\"bees-with-color/bee-B1DM.svg\" width=\"200\">\n                    <p><span class=\"redText\">Bad choice,</span> the bee was friendly.<br>Your bonus pay is unchanged, and remains at $0.56.</p>\n            ","response":0,"trial_type":"html-button-response","trial_index":18,"time_elapsed":374573,"internal_node_id":"0.0-4.0-1.5","subject_id":"61086ec3f37a76918f7c2094","study_id":"60edd13110225f80f9f3709b","session_id":"6196c4a12ee6c28695b28825","condition":"full-information","relevant_dimensions":["pattern","legs"],"bee_group":{"antennae":"X","wings":"X","pattern":"S","legs":"F"},"bonus":0.6000000000000011},{"rt":1439.2000000476837,"stimulus":"bees-with-color/bee-B2DF.svg","response":0,"trial_type":"image-button-response","trial_index":19,"time_elapsed":376014,"internal_node_id":"0.0-4.0-0.6","subject_id":"61086ec3f37a76918f7c2094","study_id":"60edd13110225f80f9f3709b","session_id":"6196c4a12ee6c28695b28825","condition":"full-information","relevant_dimensions":["pattern","legs"],"bee_group":{"antennae":"X","wings":"X","pattern":"S","legs":"F"},"action":"harvest","summary":"good-harvest","bonus":0.6000000000000011},{"rt":1718.2999999523163,"stimulus":"\n                    <p><b>Action: <em>harvest</em></b></p>\n                    <p>This is the bee that you just saw.</p>\n                    <img src=\"bees-with-color/bee-B2DF.svg\" width=\"200\">\n                    <p><span class=\"greenText\"><b>Successful harvest!</b></span><br>Your pay has increased by $0.02. Your bonus pay is now $0.58.</p>\n            ","response":0,"trial_type":"html-button-response","trial_index":20,"time_elapsed":377733,"internal_node_id":"0.0-4.0-1.6","subject_id":"61086ec3f37a76918f7c2094","study_id":"60edd13110225f80f9f3709b","session_id":"6196c4a12ee6c28695b28825","condition":"full-information","relevant_dimensions":["pattern","legs"],"bee_group":{"antennae":"X","wings":"X","pattern":"S","legs":"F"},"bonus":0.6000000000000011},{"rt":5671.400000035763,"stimulus":"bees-with-color/bee-A1SM.svg","response":1,"trial_type":"image-button-response","trial_index":21,"time_elapsed":383406,"internal_node_id":"0.0-4.0-0.7","subject_id":"61086ec3f37a76918f7c2094","study_id":"60edd13110225f80f9f3709b","session_id":"6196c4a12ee6c28695b28825","condition":"full-information","relevant_dimensions":["pattern","legs"],"bee_group":{"antennae":"X","wings":"X","pattern":"S","legs":"F"},"action":"avoid","summary":"bad-avoid","bonus":0.6000000000000011},{"rt":4270.900000035763,"stimulus":"\n                    <p><b>Action: <em>avoid</em></b></p>\n                    <p>This is the bee that you just saw.</p>\n                    <img src=\"bees-with-color/bee-A1SM.svg\" width=\"200\">\n                    <p><span class=\"redText\">Bad choice,</span> the bee was friendly.<br>Your bonus pay is unchanged, and remains at $0.58.</p>\n            ","response":0,"trial_type":"html-button-response","trial_index":22,"time_elapsed":387677,"internal_node_id":"0.0-4.0-1.7","subject_id":"61086ec3f37a76918f7c2094","study_id":"60edd13110225f80f9f3709b","session_id":"6196c4a12ee6c28695b28825","condition":"full-information","relevant_dimensions":["pattern","legs"],"bee_group":{"antennae":"X","wings":"X","pattern":"S","legs":"F"},"bonus":0.6000000000000011},{"rt":1423.6000000238419,"stimulus":"bees-with-color/bee-B2SM.svg","response":1,"trial_type":"image-button-response","trial_index":23,"time_elapsed":389102,"internal_node_id":"0.0-4.0-0.8","subject_id":"61086ec3f37a76918f7c2094","study_id":"60edd13110225f80f9f3709b","session_id":"6196c4a12ee6c28695b28825","condition":"full-information","relevant_dimensions":["pattern","legs"],"bee_group":{"antennae":"X","wings":"X","pattern":"S","legs":"F"},"action":"avoid","summary":"bad-avoid","bonus":0.6000000000000011},{"rt":2574.5,"stimulus":"\n                    <p><b>Action: <em>avoid</em></b></p>\n                    <p>This is the bee that you just saw.</p>\n                    <img src=\"bees-with-color/bee-B2SM.svg\" width=\"200\">\n                    <p><span class=\"redText\">Bad choice,</span> the bee was friendly.<br>Your bonus pay is unchanged, and remains at $0.58.</p>\n            ","response":0,"trial_type":"html-button-response","trial_index":24,"time_elapsed":391678,"internal_node_id":"0.0-4.0-1.8","subject_id":"61086ec3f37a76918f7c2094","study_id":"60edd13110225f80f9f3709b","session_id":"6196c4a12ee6c28695b28825","condition":"full-information","relevant_dimensions":["pattern","legs"],"bee_group":{"antennae":"X","wings":"X","pattern":"S","legs":"F"},"bonus":0.6000000000000011},{"rt":2551,"stimulus":"bees-with-color/bee-B1SF.svg","response":0,"trial_type":"image-button-response","trial_index":25,"time_elapsed":394229,"internal_node_id":"0.0-4.0-0.9","subject_id":"61086ec3f37a76918f7c2094","study_id":"60edd13110225f80f9f3709b","session_id":"6196c4a12ee6c28695b28825","condition":"full-information","relevant_dimensions":["pattern","legs"],"bee_group":{"antennae":"X","wings":"X","pattern":"S","legs":"F"},"action":"harvest","summary":"bad-harvest","bonus":0.6000000000000011},{"rt":2311.399999976158,"stimulus":"\n                    <p><b>Action: <em>harvest</em></b></p>\n                    <p>This is the bee that you just saw.</p>\n                    <img src=\"bees-with-color/bee-B1SF.svg\" width=\"200\">\n                    <p><span class=\"redText\">Bad choice, the bee was angry.</span><br><b>You have been stung!</b><br>Your pay has been decreased by $0.10. Your bonus pay is now $0.48.</p>\n            ","response":0,"trial_type":"html-button-response","trial_index":26,"time_elapsed":396542,"internal_node_id":"0.0-4.0-1.9","subject_id":"61086ec3f37a76918f7c2094","study_id":"60edd13110225f80f9f3709b","session_id":"6196c4a12ee6c28695b28825","condition":"full-information","relevant_dimensions":["pattern","legs"],"bee_group":{"antennae":"X","wings":"X","pattern":"S","legs":"F"},"bonus":0.6000000000000011},{"rt":8670.900000035763,"stimulus":"bees-with-color/bee-A2SM.svg","response":1,"trial_type":"image-button-response","trial_index":27,"time_elapsed":405214,"internal_node_id":"0.0-4.0-0.10","subject_id":"61086ec3f37a76918f7c2094","study_id":"60edd13110225f80f9f3709b","session_id":"6196c4a12ee6c28695b28825","condition":"full-information","relevant_dimensions":["pattern","legs"],"bee_group":{"antennae":"X","wings":"X","pattern":"S","legs":"F"},"action":"avoid","summary":"bad-avoid","bonus":0.6000000000000011},{"rt":2566.699999988079,"stimulus":"\n                    <p><b>Action: <em>avoid</em></b></p>\n                    <p>This is the bee that you just saw.</p>\n                    <img src=\"bees-with-color/bee-A2SM.svg\" width=\"200\">\n                    <p><span class=\"redText\">Bad choice,</span> the bee was friendly.<br>Your bonus pay is unchanged, and remains at $0.48.</p>\n            ","response":0,"trial_type":"html-button-response","trial_index":28,"time_elapsed":407781,"internal_node_id":"0.0-4.0-1.10","subject_id":"61086ec3f37a76918f7c2094","study_id":"60edd13110225f80f9f3709b","session_id":"6196c4a12ee6c28695b28825","condition":"full-information","relevant_dimensions":["pattern","legs"],"bee_group":{"antennae":"X","wings":"X","pattern":"S","legs":"F"},"bonus":0.6000000000000011},{"rt":2870.800000011921,"stimulus":"bees-with-color/bee-B2SF.svg","response":1,"trial_type":"image-button-response","trial_index":29,"time_elapsed":410654,"internal_node_id":"0.0-4.0-0.11","subject_id":"61086ec3f37a76918f7c2094","study_id":"60edd13110225f80f9f3709b","session_id":"6196c4a12ee6c28695b28825","condition":"full-information","relevant_dimensions":["pattern","legs"],"bee_group":{"antennae":"X","wings":"X","pattern":"S","legs":"F"},"action":"avoid","summary":"good-avoid","bonus":0.6000000000000011},{"rt":19479,"stimulus":"\n                    <p><b>Action: <em>avoid</em></b></p>\n                    <p>This is the bee that you just saw.</p>\n                    <img src=\"bees-with-color/bee-B2SF.svg\" width=\"200\">\n                    <p><span class=\"greenText\">Good choice!</span>  This bee would have stung you.<br>Your bonus pay is unchanged, and remains at $0.48.</p>\n            ","response":0,"trial_type":"html-button-response","trial_index":30,"time_elapsed":430133,"internal_node_id":"0.0-4.0-1.11","subject_id":"61086ec3f37a76918f7c2094","study_id":"60edd13110225f80f9f3709b","session_id":"6196c4a12ee6c28695b28825","condition":"full-information","relevant_dimensions":["pattern","legs"],"bee_group":{"antennae":"X","wings":"X","pattern":"S","legs":"F"},"bonus":0.6000000000000011},{"rt":4678.899999976158,"stimulus":"bees-with-color/bee-B1SM.svg","response":1,"trial_type":"image-button-response","trial_index":31,"time_elapsed":434813,"internal_node_id":"0.0-4.0-0.12","subject_id":"61086ec3f37a76918f7c2094","study_id":"60edd13110225f80f9f3709b","session_id":"6196c4a12ee6c28695b28825","condition":"full-information","relevant_dimensions":["pattern","legs"],"bee_group":{"antennae":"X","wings":"X","pattern":"S","legs":"F"},"action":"avoid","summary":"bad-avoid","bonus":0.6000000000000011},{"rt":5479.199999988079,"stimulus":"\n                    <p><b>Action: <em>avoid</em></b></p>\n                    <p>This is the bee that you just saw.</p>\n                    <img src=\"bees-with-color/bee-B1SM.svg\" width=\"200\">\n                    <p><span class=\"redText\">Bad choice,</span> the bee was friendly.<br>Your bonus pay is unchanged, and remains at $0.48.</p>\n            ","response":0,"trial_type":"html-button-response","trial_index":32,"time_elapsed":440293,"internal_node_id":"0.0-4.0-1.12","subject_id":"61086ec3f37a76918f7c2094","study_id":"60edd13110225f80f9f3709b","session_id":"6196c4a12ee6c28695b28825","condition":"full-information","relevant_dimensions":["pattern","legs"],"bee_group":{"antennae":"X","wings":"X","pattern":"S","legs":"F"},"bonus":0.6000000000000011},{"rt":6151.199999988079,"stimulus":"bees-with-color/bee-A2DM.svg","response":1,"trial_type":"image-button-response","trial_index":33,"time_elapsed":446445,"internal_node_id":"0.0-4.0-0.13","subject_id":"61086ec3f37a76918f7c2094","study_id":"60edd13110225f80f9f3709b","session_id":"6196c4a12ee6c28695b28825","condition":"full-information","relevant_dimensions":["pattern","legs"],"bee_group":{"antennae":"X","wings":"X","pattern":"S","legs":"F"},"action":"avoid","summary":"bad-avoid","bonus":0.6000000000000011},{"rt":1591.300000011921,"stimulus":"\n                    <p><b>Action: <em>avoid</em></b></p>\n                    <p>This is the bee that you just saw.</p>\n                    <img src=\"bees-with-color/bee-A2DM.svg\" width=\"200\">\n                    <p><span class=\"redText\">Bad choice,</span> the bee was friendly.<br>Your bonus pay is unchanged, and remains at $0.48.</p>\n            ","response":0,"trial_type":"html-button-response","trial_index":34,"time_elapsed":448037,"internal_node_id":"0.0-4.0-1.13","subject_id":"61086ec3f37a76918f7c2094","study_id":"60edd13110225f80f9f3709b","session_id":"6196c4a12ee6c28695b28825","condition":"full-information","relevant_dimensions":["pattern","legs"],"bee_group":{"antennae":"X","wings":"X","pattern":"S","legs":"F"},"bonus":0.6000000000000011},{"rt":2879.199999988079,"stimulus":"bees-with-color/bee-A2DF.svg","response":0,"trial_type":"image-button-response","trial_index":35,"time_elapsed":450917,"internal_node_id":"0.0-4.0-0.14","subject_id":"61086ec3f37a76918f7c2094","study_id":"60edd13110225f80f9f3709b","session_id":"6196c4a12ee6c28695b28825","condition":"full-information","relevant_dimensions":["pattern","legs"],"bee_group":{"antennae":"X","wings":"X","pattern":"S","legs":"F"},"action":"harvest","summary":"good-harvest","bonus":0.6000000000000011},{"rt":1623.0999999642372,"stimulus":"\n                    <p><b>Action: <em>harvest</em></b></p>\n                    <p>This is the bee that you just saw.</p>\n                    <img src=\"bees-with-color/bee-A2DF.svg\" width=\"200\">\n                    <p><span class=\"greenText\"><b>Successful harvest!</b></span><br>Your pay has increased by $0.02. Your bonus pay is now $0.50.</p>\n            ","response":0,"trial_type":"html-button-response","trial_index":36,"time_elapsed":452541,"internal_node_id":"0.0-4.0-1.14","subject_id":"61086ec3f37a76918f7c2094","study_id":"60edd13110225f80f9f3709b","session_id":"6196c4a12ee6c28695b28825","condition":"full-information","relevant_dimensions":["pattern","legs"],"bee_group":{"antennae":"X","wings":"X","pattern":"S","legs":"F"},"bonus":0.6000000000000011},{"rt":2094.599999964237,"stimulus":"bees-with-color/bee-B1DF.svg","response":0,"trial_type":"image-button-response","trial_index":37,"time_elapsed":454637,"internal_node_id":"0.0-4.0-0.15","subject_id":"61086ec3f37a76918f7c2094","study_id":"60edd13110225f80f9f3709b","session_id":"6196c4a12ee6c28695b28825","condition":"full-information","relevant_dimensions":["pattern","legs"],"bee_group":{"antennae":"X","wings":"X","pattern":"S","legs":"F"},"action":"harvest","summary":"good-harvest","bonus":0.6000000000000011},{"rt":1463.6000000238419,"stimulus":"\n                    <p><b>Action: <em>harvest</em></b></p>\n                    <p>This is the bee that you just saw.</p>\n                    <img src=\"bees-with-color/bee-B1DF.svg\" width=\"200\">\n                    <p><span class=\"greenText\"><b>Successful harvest!</b></span><br>Your pay has increased by $0.02. Your bonus pay is now $0.52.</p>\n            ","response":0,"trial_type":"html-button-response","trial_index":38,"time_elapsed":456101,"internal_node_id":"0.0-4.0-1.15","subject_id":"61086ec3f37a76918f7c2094","study_id":"60edd13110225f80f9f3709b","session_id":"6196c4a12ee6c28695b28825","condition":"full-information","relevant_dimensions":["pattern","legs"],"bee_group":{"antennae":"X","wings":"X","pattern":"S","legs":"F"},"bonus":0.6000000000000011},{"rt":1487.5,"stimulus":"bees-with-color/bee-A1DM.svg","response":0,"trial_type":"image-button-response","trial_index":39,"time_elapsed":457590,"internal_node_id":"0.0-4.0-0.16","subject_id":"61086ec3f37a76918f7c2094","study_id":"60edd13110225f80f9f3709b","session_id":"6196c4a12ee6c28695b28825","condition":"full-information","relevant_dimensions":["pattern","legs"],"bee_group":{"antennae":"X","wings":"X","pattern":"S","legs":"F"},"action":"harvest","summary":"good-harvest","bonus":0.6000000000000011},{"rt":1118.8999999761581,"stimulus":"\n                    <p><b>Action: <em>harvest</em></b></p>\n                    <p>This is the bee that you just saw.</p>\n                    <img src=\"bees-with-color/bee-A1DM.svg\" width=\"200\">\n                    <p><span class=\"greenText\"><b>Successful harvest!</b></span><br>Your pay has increased by $0.02. Your bonus pay is now $0.54.</p>\n            ","response":0,"trial_type":"html-button-response","trial_index":40,"time_elapsed":458709,"internal_node_id":"0.0-4.0-1.16","subject_id":"61086ec3f37a76918f7c2094","study_id":"60edd13110225f80f9f3709b","session_id":"6196c4a12ee6c28695b28825","condition":"full-information","relevant_dimensions":["pattern","legs"],"bee_group":{"antennae":"X","wings":"X","pattern":"S","legs":"F"},"bonus":0.6000000000000011},{"rt":3430.899999976158,"stimulus":"bees-with-color/bee-B1DF.svg","response":1,"trial_type":"image-button-response","trial_index":41,"time_elapsed":462141,"internal_node_id":"0.0-4.0-0.17","subject_id":"61086ec3f37a76918f7c2094","study_id":"60edd13110225f80f9f3709b","session_id":"6196c4a12ee6c28695b28825","condition":"full-information","relevant_dimensions":["pattern","legs"],"bee_group":{"antennae":"X","wings":"X","pattern":"S","legs":"F"},"action":"avoid","summary":"bad-avoid","bonus":0.6000000000000011},{"rt":1254.6000000238419,"stimulus":"\n                    <p><b>Action: <em>avoid</em></b></p>\n                    <p>This is the bee that you just saw.</p>\n                    <img src=\"bees-with-color/bee-B1DF.svg\" width=\"200\">\n                    <p><span class=\"redText\">Bad choice,</span> the bee was friendly.<br>Your bonus pay is unchanged, and remains at $0.54.</p>\n            ","response":0,"trial_type":"html-button-response","trial_index":42,"time_elapsed":463397,"internal_node_id":"0.0-4.0-1.17","subject_id":"61086ec3f37a76918f7c2094","study_id":"60edd13110225f80f9f3709b","session_id":"6196c4a12ee6c28695b28825","condition":"full-information","relevant_dimensions":["pattern","legs"],"bee_group":{"antennae":"X","wings":"X","pattern":"S","legs":"F"},"bonus":0.6000000000000011},{"rt":2471.399999976158,"stimulus":"bees-with-color/bee-A1SF.svg","response":1,"trial_type":"image-button-response","trial_index":43,"time_elapsed":465869,"internal_node_id":"0.0-4.0-0.18","subject_id":"61086ec3f37a76918f7c2094","study_id":"60edd13110225f80f9f3709b","session_id":"6196c4a12ee6c28695b28825","condition":"full-information","relevant_dimensions":["pattern","legs"],"bee_group":{"antennae":"X","wings":"X","pattern":"S","legs":"F"},"action":"avoid","summary":"good-avoid","bonus":0.6000000000000011},{"rt":1055.199999988079,"stimulus":"\n                    <p><b>Action: <em>avoid</em></b></p>\n                    <p>This is the bee that you just saw.</p>\n                    <img src=\"bees-with-color/bee-A1SF.svg\" width=\"200\">\n                    <p><span class=\"greenText\">Good choice!</span>  This bee would have stung you.<br>Your bonus pay is unchanged, and remains at $0.54.</p>\n            ","response":0,"trial_type":"html-button-response","trial_index":44,"time_elapsed":466925,"internal_node_id":"0.0-4.0-1.18","subject_id":"61086ec3f37a76918f7c2094","study_id":"60edd13110225f80f9f3709b","session_id":"6196c4a12ee6c28695b28825","condition":"full-information","relevant_dimensions":["pattern","legs"],"bee_group":{"antennae":"X","wings":"X","pattern":"S","legs":"F"},"bonus":0.6000000000000011},{"rt":1823.199999988079,"stimulus":"bees-with-color/bee-B1SM.svg","response":1,"trial_type":"image-button-response","trial_index":45,"time_elapsed":468749,"internal_node_id":"0.0-4.0-0.19","subject_id":"61086ec3f37a76918f7c2094","study_id":"60edd13110225f80f9f3709b","session_id":"6196c4a12ee6c28695b28825","condition":"full-information","relevant_dimensions":["pattern","legs"],"bee_group":{"antennae":"X","wings":"X","pattern":"S","legs":"F"},"action":"avoid","summary":"bad-avoid","bonus":0.6000000000000011},{"rt":799.0999999642372,"stimulus":"\n                    <p><b>Action: <em>avoid</em></b></p>\n                    <p>This is the bee that you just saw.</p>\n                    <img src=\"bees-with-color/bee-B1SM.svg\" width=\"200\">\n                    <p><span class=\"redText\">Bad choice,</span> the bee was friendly.<br>Your bonus pay is unchanged, and remains at $0.54.</p>\n            ","response":0,"trial_type":"html-button-response","trial_index":46,"time_elapsed":469549,"internal_node_id":"0.0-4.0-1.19","subject_id":"61086ec3f37a76918f7c2094","study_id":"60edd13110225f80f9f3709b","session_id":"6196c4a12ee6c28695b28825","condition":"full-information","relevant_dimensions":["pattern","legs"],"bee_group":{"antennae":"X","wings":"X","pattern":"S","legs":"F"},"bonus":0.6000000000000011},{"rt":1647.300000011921,"stimulus":"bees-with-color/bee-A1SM.svg","response":0,"trial_type":"image-button-response","trial_index":47,"time_elapsed":471197,"internal_node_id":"0.0-4.0-0.20","subject_id":"61086ec3f37a76918f7c2094","study_id":"60edd13110225f80f9f3709b","session_id":"6196c4a12ee6c28695b28825","condition":"full-information","relevant_dimensions":["pattern","legs"],"bee_group":{"antennae":"X","wings":"X","pattern":"S","legs":"F"},"action":"harvest","summary":"good-harvest","bonus":0.6000000000000011},{"rt":871.0999999642372,"stimulus":"\n                    <p><b>Action: <em>harvest</em></b></p>\n                    <p>This is the bee that you just saw.</p>\n                    <img src=\"bees-with-color/bee-A1SM.svg\" width=\"200\">\n                    <p><span class=\"greenText\"><b>Successful harvest!</b></span><br>Your pay has increased by $0.02. Your bonus pay is now $0.56.</p>\n            ","response":0,"trial_type":"html-button-response","trial_index":48,"time_elapsed":472069,"internal_node_id":"0.0-4.0-1.20","subject_id":"61086ec3f37a76918f7c2094","study_id":"60edd13110225f80f9f3709b","session_id":"6196c4a12ee6c28695b28825","condition":"full-information","relevant_dimensions":["pattern","legs"],"bee_group":{"antennae":"X","wings":"X","pattern":"S","legs":"F"},"bonus":0.6000000000000011},{"rt":2367.100000023842,"stimulus":"bees-with-color/bee-A2DF.svg","response":0,"trial_type":"image-button-response","trial_index":49,"time_elapsed":474438,"internal_node_id":"0.0-4.0-0.21","subject_id":"61086ec3f37a76918f7c2094","study_id":"60edd13110225f80f9f3709b","session_id":"6196c4a12ee6c28695b28825","condition":"full-information","relevant_dimensions":["pattern","legs"],"bee_group":{"antennae":"X","wings":"X","pattern":"S","legs":"F"},"action":"harvest","summary":"good-harvest","bonus":0.6000000000000011},{"rt":1031,"stimulus":"\n                    <p><b>Action: <em>harvest</em></b></p>\n                    <p>This is the bee that you just saw.</p>\n                    <img src=\"bees-with-color/bee-A2DF.svg\" width=\"200\">\n                    <p><span class=\"greenText\"><b>Successful harvest!</b></span><br>Your pay has increased by $0.02. Your bonus pay is now $0.58.</p>\n            ","response":0,"trial_type":"html-button-response","trial_index":50,"time_elapsed":475470,"internal_node_id":"0.0-4.0-1.21","subject_id":"61086ec3f37a76918f7c2094","study_id":"60edd13110225f80f9f3709b","session_id":"6196c4a12ee6c28695b28825","condition":"full-information","relevant_dimensions":["pattern","legs"],"bee_group":{"antennae":"X","wings":"X","pattern":"S","legs":"F"},"bonus":0.6000000000000011},{"rt":950.6999999880791,"stimulus":"bees-with-color/bee-A1DF.svg","response":0,"trial_type":"image-button-response","trial_index":51,"time_elapsed":476421,"internal_node_id":"0.0-4.0-0.22","subject_id":"61086ec3f37a76918f7c2094","study_id":"60edd13110225f80f9f3709b","session_id":"6196c4a12ee6c28695b28825","condition":"full-information","relevant_dimensions":["pattern","legs"],"bee_group":{"antennae":"X","wings":"X","pattern":"S","legs":"F"},"action":"harvest","summary":"good-harvest","bonus":0.6000000000000011},{"rt":654.6999999880791,"stimulus":"\n                    <p><b>Action: <em>harvest</em></b></p>\n                    <p>This is the bee that you just saw.</p>\n                    <img src=\"bees-with-color/bee-A1DF.svg\" width=\"200\">\n                    <p><span class=\"greenText\"><b>Successful harvest!</b></span><br>Your pay has increased by $0.02. Your bonus pay is now $0.60.</p>\n            ","response":0,"trial_type":"html-button-response","trial_index":52,"time_elapsed":477077,"internal_node_id":"0.0-4.0-1.22","subject_id":"61086ec3f37a76918f7c2094","study_id":"60edd13110225f80f9f3709b","session_id":"6196c4a12ee6c28695b28825","condition":"full-information","relevant_dimensions":["pattern","legs"],"bee_group":{"antennae":"X","wings":"X","pattern":"S","legs":"F"},"bonus":0.6000000000000011},{"rt":4303.399999976158,"stimulus":"bees-with-color/bee-B2SF.svg","response":0,"trial_type":"image-button-response","trial_index":53,"time_elapsed":481382,"internal_node_id":"0.0-4.0-0.23","subject_id":"61086ec3f37a76918f7c2094","study_id":"60edd13110225f80f9f3709b","session_id":"6196c4a12ee6c28695b28825","condition":"full-information","relevant_dimensions":["pattern","legs"],"bee_group":{"antennae":"X","wings":"X","pattern":"S","legs":"F"},"action":"harvest","summary":"bad-harvest","bonus":0.6000000000000011},{"rt":1798.3999999761581,"stimulus":"\n                    <p><b>Action: <em>harvest</em></b></p>\n                    <p>This is the bee that you just saw.</p>\n                    <img src=\"bees-with-color/bee-B2SF.svg\" width=\"200\">\n                    <p><span class=\"redText\">Bad choice, the bee was angry.</span><br><b>You have been stung!</b><br>Your pay has been decreased by $0.10. Your bonus pay is now $0.50.</p>\n            ","response":0,"trial_type":"html-button-response","trial_index":54,"time_elapsed":483181,"internal_node_id":"0.0-4.0-1.23","subject_id":"61086ec3f37a76918f7c2094","study_id":"60edd13110225f80f9f3709b","session_id":"6196c4a12ee6c28695b28825","condition":"full-information","relevant_dimensions":["pattern","legs"],"bee_group":{"antennae":"X","wings":"X","pattern":"S","legs":"F"},"bonus":0.6000000000000011},{"rt":2687.199999988079,"stimulus":"bees-with-color/bee-B2SM.svg","response":0,"trial_type":"image-button-response","trial_index":55,"time_elapsed":485870,"internal_node_id":"0.0-4.0-0.24","subject_id":"61086ec3f37a76918f7c2094","study_id":"60edd13110225f80f9f3709b","session_id":"6196c4a12ee6c28695b28825","condition":"full-information","relevant_dimensions":["pattern","legs"],"bee_group":{"antennae":"X","wings":"X","pattern":"S","legs":"F"},"action":"harvest","summary":"good-harvest","bonus":0.6000000000000011},{"rt":1030.8999999761581,"stimulus":"\n                    <p><b>Action: <em>harvest</em></b></p>\n                    <p>This is the bee that you just saw.</p>\n                    <img src=\"bees-with-color/bee-B2SM.svg\" width=\"200\">\n                    <p><span class=\"greenText\"><b>Successful harvest!</b></span><br>Your pay has increased by $0.02. Your bonus pay is now $0.52.</p>\n            ","response":0,"trial_type":"html-button-response","trial_index":56,"time_elapsed":486901,"internal_node_id":"0.0-4.0-1.24","subject_id":"61086ec3f37a76918f7c2094","study_id":"60edd13110225f80f9f3709b","session_id":"6196c4a12ee6c28695b28825","condition":"full-information","relevant_dimensions":["pattern","legs"],"bee_group":{"antennae":"X","wings":"X","pattern":"S","legs":"F"},"bonus":0.6000000000000011},{"rt":1975.0999999642372,"stimulus":"bees-with-color/bee-B1DM.svg","response":0,"trial_type":"image-button-response","trial_index":57,"time_elapsed":488877,"internal_node_id":"0.0-4.0-0.25","subject_id":"61086ec3f37a76918f7c2094","study_id":"60edd13110225f80f9f3709b","session_id":"6196c4a12ee6c28695b28825","condition":"full-information","relevant_dimensions":["pattern","legs"],"bee_group":{"antennae":"X","wings":"X","pattern":"S","legs":"F"},"action":"harvest","summary":"good-harvest","bonus":0.6000000000000011},{"rt":1174.800000011921,"stimulus":"\n                    <p><b>Action: <em>harvest</em></b></p>\n                    <p>This is the bee that you just saw.</p>\n                    <img src=\"bees-with-color/bee-B1DM.svg\" width=\"200\">\n                    <p><span class=\"greenText\"><b>Successful harvest!</b></span><br>Your pay has increased by $0.02. Your bonus pay is now $0.54.</p>\n            ","response":0,"trial_type":"html-button-response","trial_index":58,"time_elapsed":490053,"internal_node_id":"0.0-4.0-1.25","subject_id":"61086ec3f37a76918f7c2094","study_id":"60edd13110225f80f9f3709b","session_id":"6196c4a12ee6c28695b28825","condition":"full-information","relevant_dimensions":["pattern","legs"],"bee_group":{"antennae":"X","wings":"X","pattern":"S","legs":"F"},"bonus":0.6000000000000011},{"rt":3463.199999988079,"stimulus":"bees-with-color/bee-B1SF.svg","response":1,"trial_type":"image-button-response","trial_index":59,"time_elapsed":493518,"internal_node_id":"0.0-4.0-0.26","subject_id":"61086ec3f37a76918f7c2094","study_id":"60edd13110225f80f9f3709b","session_id":"6196c4a12ee6c28695b28825","condition":"full-information","relevant_dimensions":["pattern","legs"],"bee_group":{"antennae":"X","wings":"X","pattern":"S","legs":"F"},"action":"avoid","summary":"good-avoid","bonus":0.6000000000000011},{"rt":1070.7999999523163,"stimulus":"\n                    <p><b>Action: <em>avoid</em></b></p>\n                    <p>This is the bee that you just saw.</p>\n                    <img src=\"bees-with-color/bee-B1SF.svg\" width=\"200\">\n                    <p><span class=\"greenText\">Good choice!</span>  This bee would have stung you.<br>Your bonus pay is unchanged, and remains at $0.54.</p>\n            ","response":0,"trial_type":"html-button-response","trial_index":60,"time_elapsed":494590,"internal_node_id":"0.0-4.0-1.26","subject_id":"61086ec3f37a76918f7c2094","study_id":"60edd13110225f80f9f3709b","session_id":"6196c4a12ee6c28695b28825","condition":"full-information","relevant_dimensions":["pattern","legs"],"bee_group":{"antennae":"X","wings":"X","pattern":"S","legs":"F"},"bonus":0.6000000000000011},{"rt":1934.1000000238419,"stimulus":"bees-with-color/bee-A2DM.svg","response":0,"trial_type":"image-button-response","trial_index":61,"time_elapsed":496525,"internal_node_id":"0.0-4.0-0.27","subject_id":"61086ec3f37a76918f7c2094","study_id":"60edd13110225f80f9f3709b","session_id":"6196c4a12ee6c28695b28825","condition":"full-information","relevant_dimensions":["pattern","legs"],"bee_group":{"antennae":"X","wings":"X","pattern":"S","legs":"F"},"action":"harvest","summary":"good-harvest","bonus":0.6000000000000011},{"rt":935.2999999523163,"stimulus":"\n                    <p><b>Action: <em>harvest</em></b></p>\n                    <p>This is the bee that you just saw.</p>\n                    <img src=\"bees-with-color/bee-A2DM.svg\" width=\"200\">\n                    <p><span class=\"greenText\"><b>Successful harvest!</b></span><br>Your pay has increased by $0.02. Your bonus pay is now $0.56.</p>\n            ","response":0,"trial_type":"html-button-response","trial_index":62,"time_elapsed":497461,"internal_node_id":"0.0-4.0-1.27","subject_id":"61086ec3f37a76918f7c2094","study_id":"60edd13110225f80f9f3709b","session_id":"6196c4a12ee6c28695b28825","condition":"full-information","relevant_dimensions":["pattern","legs"],"bee_group":{"antennae":"X","wings":"X","pattern":"S","legs":"F"},"bonus":0.6000000000000011},{"rt":3271.399999976158,"stimulus":"bees-with-color/bee-A2SM.svg","response":1,"trial_type":"image-button-response","trial_index":63,"time_elapsed":500733,"internal_node_id":"0.0-4.0-0.28","subject_id":"61086ec3f37a76918f7c2094","study_id":"60edd13110225f80f9f3709b","session_id":"6196c4a12ee6c28695b28825","condition":"full-information","relevant_dimensions":["pattern","legs"],"bee_group":{"antennae":"X","wings":"X","pattern":"S","legs":"F"},"action":"avoid","summary":"bad-avoid","bonus":0.6000000000000011},{"rt":919.1999999880791,"stimulus":"\n                    <p><b>Action: <em>avoid</em></b></p>\n                    <p>This is the bee that you just saw.</p>\n                    <img src=\"bees-with-color/bee-A2SM.svg\" width=\"200\">\n                    <p><span class=\"redText\">Bad choice,</span> the bee was friendly.<br>Your bonus pay is unchanged, and remains at $0.56.</p>\n            ","response":0,"trial_type":"html-button-response","trial_index":64,"time_elapsed":501653,"internal_node_id":"0.0-4.0-1.28","subject_id":"61086ec3f37a76918f7c2094","study_id":"60edd13110225f80f9f3709b","session_id":"6196c4a12ee6c28695b28825","condition":"full-information","relevant_dimensions":["pattern","legs"],"bee_group":{"antennae":"X","wings":"X","pattern":"S","legs":"F"},"bonus":0.6000000000000011},{"rt":5551.300000011921,"stimulus":"bees-with-color/bee-A2SF.svg","response":0,"trial_type":"image-button-response","trial_index":65,"time_elapsed":507206,"internal_node_id":"0.0-4.0-0.29","subject_id":"61086ec3f37a76918f7c2094","study_id":"60edd13110225f80f9f3709b","session_id":"6196c4a12ee6c28695b28825","condition":"full-information","relevant_dimensions":["pattern","legs"],"bee_group":{"antennae":"X","wings":"X","pattern":"S","legs":"F"},"action":"harvest","summary":"bad-harvest","bonus":0.6000000000000011},{"rt":1478.699999988079,"stimulus":"\n                    <p><b>Action: <em>harvest</em></b></p>\n                    <p>This is the bee that you just saw.</p>\n                    <img src=\"bees-with-color/bee-A2SF.svg\" width=\"200\">\n                    <p><span class=\"redText\">Bad choice, the bee was angry.</span><br><b>You have been stung!</b><br>Your pay has been decreased by $0.10. Your bonus pay is now $0.46.</p>\n            ","response":0,"trial_type":"html-button-response","trial_index":66,"time_elapsed":508685,"internal_node_id":"0.0-4.0-1.29","subject_id":"61086ec3f37a76918f7c2094","study_id":"60edd13110225f80f9f3709b","session_id":"6196c4a12ee6c28695b28825","condition":"full-information","relevant_dimensions":["pattern","legs"],"bee_group":{"antennae":"X","wings":"X","pattern":"S","legs":"F"},"bonus":0.6000000000000011},{"rt":1431.300000011921,"stimulus":"bees-with-color/bee-B2DF.svg","response":0,"trial_type":"image-button-response","trial_index":67,"time_elapsed":510117,"internal_node_id":"0.0-4.0-0.30","subject_id":"61086ec3f37a76918f7c2094","study_id":"60edd13110225f80f9f3709b","session_id":"6196c4a12ee6c28695b28825","condition":"full-information","relevant_dimensions":["pattern","legs"],"bee_group":{"antennae":"X","wings":"X","pattern":"S","legs":"F"},"action":"harvest","summary":"good-harvest","bonus":0.6000000000000011},{"rt":1015.7000000476837,"stimulus":"\n                    <p><b>Action: <em>harvest</em></b></p>\n                    <p>This is the bee that you just saw.</p>\n                    <img src=\"bees-with-color/bee-B2DF.svg\" width=\"200\">\n                    <p><span class=\"greenText\"><b>Successful harvest!</b></span><br>Your pay has increased by $0.02. Your bonus pay is now $0.48.</p>\n            ","response":0,"trial_type":"html-button-response","trial_index":68,"time_elapsed":511134,"internal_node_id":"0.0-4.0-1.30","subject_id":"61086ec3f37a76918f7c2094","study_id":"60edd13110225f80f9f3709b","session_id":"6196c4a12ee6c28695b28825","condition":"full-information","relevant_dimensions":["pattern","legs"],"bee_group":{"antennae":"X","wings":"X","pattern":"S","legs":"F"},"bonus":0.6000000000000011},{"rt":846.3000000119209,"stimulus":"bees-with-color/bee-B2DM.svg","response":0,"trial_type":"image-button-response","trial_index":69,"time_elapsed":511981,"internal_node_id":"0.0-4.0-0.31","subject_id":"61086ec3f37a76918f7c2094","study_id":"60edd13110225f80f9f3709b","session_id":"6196c4a12ee6c28695b28825","condition":"full-information","relevant_dimensions":["pattern","legs"],"bee_group":{"antennae":"X","wings":"X","pattern":"S","legs":"F"},"action":"harvest","summary":"good-harvest","bonus":0.6000000000000011},{"rt":719.1999999880791,"stimulus":"\n                    <p><b>Action: <em>harvest</em></b></p>\n                    <p>This is the bee that you just saw.</p>\n                    <img src=\"bees-with-color/bee-B2DM.svg\" width=\"200\">\n                    <p><span class=\"greenText\"><b>Successful harvest!</b></span><br>Your pay has increased by $0.02. Your bonus pay is now $0.50.</p>\n            ","response":0,"trial_type":"html-button-response","trial_index":70,"time_elapsed":512702,"internal_node_id":"0.0-4.0-1.31","subject_id":"61086ec3f37a76918f7c2094","study_id":"60edd13110225f80f9f3709b","session_id":"6196c4a12ee6c28695b28825","condition":"full-information","relevant_dimensions":["pattern","legs"],"bee_group":{"antennae":"X","wings":"X","pattern":"S","legs":"F"},"bonus":0.6000000000000011},{"rt":1111.1000000238419,"stimulus":"bees-with-color/bee-A2DM.svg","response":0,"trial_type":"image-button-response","trial_index":71,"time_elapsed":513813,"internal_node_id":"0.0-4.0-0.32","subject_id":"61086ec3f37a76918f7c2094","study_id":"60edd13110225f80f9f3709b","session_id":"6196c4a12ee6c28695b28825","condition":"full-information","relevant_dimensions":["pattern","legs"],"bee_group":{"antennae":"X","wings":"X","pattern":"S","legs":"F"},"action":"harvest","summary":"good-harvest","bonus":0.6000000000000011},{"rt":1414.8999999761581,"stimulus":"\n                    <p><b>Action: <em>harvest</em></b></p>\n                    <p>This is the bee that you just saw.</p>\n                    <img src=\"bees-with-color/bee-A2DM.svg\" width=\"200\">\n                    <p><span class=\"greenText\"><b>Successful harvest!</b></span><br>Your pay has increased by $0.02. Your bonus pay is now $0.52.</p>\n            ","response":0,"trial_type":"html-button-response","trial_index":72,"time_elapsed":515229,"internal_node_id":"0.0-4.0-1.32","subject_id":"61086ec3f37a76918f7c2094","study_id":"60edd13110225f80f9f3709b","session_id":"6196c4a12ee6c28695b28825","condition":"full-information","relevant_dimensions":["pattern","legs"],"bee_group":{"antennae":"X","wings":"X","pattern":"S","legs":"F"},"bonus":0.6000000000000011},{"rt":3599.600000023842,"stimulus":"bees-with-color/bee-B1SF.svg","response":0,"trial_type":"image-button-response","trial_index":73,"time_elapsed":518830,"internal_node_id":"0.0-4.0-0.33","subject_id":"61086ec3f37a76918f7c2094","study_id":"60edd13110225f80f9f3709b","session_id":"6196c4a12ee6c28695b28825","condition":"full-information","relevant_dimensions":["pattern","legs"],"bee_group":{"antennae":"X","wings":"X","pattern":"S","legs":"F"},"action":"harvest","summary":"bad-harvest","bonus":0.6000000000000011},{"rt":1262.5999999642372,"stimulus":"\n                    <p><b>Action: <em>harvest</em></b></p>\n                    <p>This is the bee that you just saw.</p>\n                    <img src=\"bees-with-color/bee-B1SF.svg\" width=\"200\">\n                    <p><span class=\"redText\">Bad choice, the bee was angry.</span><br><b>You have been stung!</b><br>Your pay has been decreased by $0.10. Your bonus pay is now $0.42.</p>\n            ","response":0,"trial_type":"html-button-response","trial_index":74,"time_elapsed":520093,"internal_node_id":"0.0-4.0-1.33","subject_id":"61086ec3f37a76918f7c2094","study_id":"60edd13110225f80f9f3709b","session_id":"6196c4a12ee6c28695b28825","condition":"full-information","relevant_dimensions":["pattern","legs"],"bee_group":{"antennae":"X","wings":"X","pattern":"S","legs":"F"},"bonus":0.6000000000000011},{"rt":2102.699999988079,"stimulus":"bees-with-color/bee-B2SM.svg","response":1,"trial_type":"image-button-response","trial_index":75,"time_elapsed":522197,"internal_node_id":"0.0-4.0-0.34","subject_id":"61086ec3f37a76918f7c2094","study_id":"60edd13110225f80f9f3709b","session_id":"6196c4a12ee6c28695b28825","condition":"full-information","relevant_dimensions":["pattern","legs"],"bee_group":{"antennae":"X","wings":"X","pattern":"S","legs":"F"},"action":"avoid","summary":"bad-avoid","bonus":0.6000000000000011},{"rt":3751.199999988079,"stimulus":"\n                    <p><b>Action: <em>avoid</em></b></p>\n                    <p>This is the bee that you just saw.</p>\n                    <img src=\"bees-with-color/bee-B2SM.svg\" width=\"200\">\n                    <p><span class=\"redText\">Bad choice,</span> the bee was friendly.<br>Your bonus pay is unchanged, and remains at $0.42.</p>\n            ","response":0,"trial_type":"html-button-response","trial_index":76,"time_elapsed":525949,"internal_node_id":"0.0-4.0-1.34","subject_id":"61086ec3f37a76918f7c2094","study_id":"60edd13110225f80f9f3709b","session_id":"6196c4a12ee6c28695b28825","condition":"full-information","relevant_dimensions":["pattern","legs"],"bee_group":{"antennae":"X","wings":"X","pattern":"S","legs":"F"},"bonus":0.6000000000000011},{"rt":2566.900000035763,"stimulus":"bees-with-color/bee-A1SM.svg","response":0,"trial_type":"image-button-response","trial_index":77,"time_elapsed":528517,"internal_node_id":"0.0-4.0-0.35","subject_id":"61086ec3f37a76918f7c2094","study_id":"60edd13110225f80f9f3709b","session_id":"6196c4a12ee6c28695b28825","condition":"full-information","relevant_dimensions":["pattern","legs"],"bee_group":{"antennae":"X","wings":"X","pattern":"S","legs":"F"},"action":"harvest","summary":"good-harvest","bonus":0.6000000000000011},{"rt":1039.5,"stimulus":"\n                    <p><b>Action: <em>harvest</em></b></p>\n                    <p>This is the bee that you just saw.</p>\n                    <img src=\"bees-with-color/bee-A1SM.svg\" width=\"200\">\n                    <p><span class=\"greenText\"><b>Successful harvest!</b></span><br>Your pay has increased by $0.02. Your bonus pay is now $0.44.</p>\n            ","response":0,"trial_type":"html-button-response","trial_index":78,"time_elapsed":529557,"internal_node_id":"0.0-4.0-1.35","subject_id":"61086ec3f37a76918f7c2094","study_id":"60edd13110225f80f9f3709b","session_id":"6196c4a12ee6c28695b28825","condition":"full-information","relevant_dimensions":["pattern","legs"],"bee_group":{"antennae":"X","wings":"X","pattern":"S","legs":"F"},"bonus":0.6000000000000011},{"rt":982.9000000357628,"stimulus":"bees-with-color/bee-B1DM.svg","response":0,"trial_type":"image-button-response","trial_index":79,"time_elapsed":530541,"internal_node_id":"0.0-4.0-0.36","subject_id":"61086ec3f37a76918f7c2094","study_id":"60edd13110225f80f9f3709b","session_id":"6196c4a12ee6c28695b28825","condition":"full-information","relevant_dimensions":["pattern","legs"],"bee_group":{"antennae":"X","wings":"X","pattern":"S","legs":"F"},"action":"harvest","summary":"good-harvest","bonus":0.6000000000000011},{"rt":687,"stimulus":"\n                    <p><b>Action: <em>harvest</em></b></p>\n                    <p>This is the bee that you just saw.</p>\n                    <img src=\"bees-with-color/bee-B1DM.svg\" width=\"200\">\n                    <p><span class=\"greenText\"><b>Successful harvest!</b></span><br>Your pay has increased by $0.02. Your bonus pay is now $0.46.</p>\n            ","response":0,"trial_type":"html-button-response","trial_index":80,"time_elapsed":531229,"internal_node_id":"0.0-4.0-1.36","subject_id":"61086ec3f37a76918f7c2094","study_id":"60edd13110225f80f9f3709b","session_id":"6196c4a12ee6c28695b28825","condition":"full-information","relevant_dimensions":["pattern","legs"],"bee_group":{"antennae":"X","wings":"X","pattern":"S","legs":"F"},"bonus":0.6000000000000011},{"rt":703.1999999880791,"stimulus":"bees-with-color/bee-B1DF.svg","response":0,"trial_type":"image-button-response","trial_index":81,"time_elapsed":531933,"internal_node_id":"0.0-4.0-0.37","subject_id":"61086ec3f37a76918f7c2094","study_id":"60edd13110225f80f9f3709b","session_id":"6196c4a12ee6c28695b28825","condition":"full-information","relevant_dimensions":["pattern","legs"],"bee_group":{"antennae":"X","wings":"X","pattern":"S","legs":"F"},"action":"harvest","summary":"good-harvest","bonus":0.6000000000000011},{"rt":695,"stimulus":"\n                    <p><b>Action: <em>harvest</em></b></p>\n                    <p>This is the bee that you just saw.</p>\n                    <img src=\"bees-with-color/bee-B1DF.svg\" width=\"200\">\n                    <p><span class=\"greenText\"><b>Successful harvest!</b></span><br>Your pay has increased by $0.02. Your bonus pay is now $0.48.</p>\n            ","response":0,"trial_type":"html-button-response","trial_index":82,"time_elapsed":532629,"internal_node_id":"0.0-4.0-1.37","subject_id":"61086ec3f37a76918f7c2094","study_id":"60edd13110225f80f9f3709b","session_id":"6196c4a12ee6c28695b28825","condition":"full-information","relevant_dimensions":["pattern","legs"],"bee_group":{"antennae":"X","wings":"X","pattern":"S","legs":"F"},"bonus":0.6000000000000011},{"rt":1999,"stimulus":"bees-with-color/bee-A1SF.svg","response":1,"trial_type":"image-button-response","trial_index":83,"time_elapsed":534629,"internal_node_id":"0.0-4.0-0.38","subject_id":"61086ec3f37a76918f7c2094","study_id":"60edd13110225f80f9f3709b","session_id":"6196c4a12ee6c28695b28825","condition":"full-information","relevant_dimensions":["pattern","legs"],"bee_group":{"antennae":"X","wings":"X","pattern":"S","legs":"F"},"action":"avoid","summary":"good-avoid","bonus":0.6000000000000011},{"rt":959,"stimulus":"\n                    <p><b>Action: <em>avoid</em></b></p>\n                    <p>This is the bee that you just saw.</p>\n                    <img src=\"bees-with-color/bee-A1SF.svg\" width=\"200\">\n                    <p><span class=\"greenText\">Good choice!</span>  This bee would have stung you.<br>Your bonus pay is unchanged, and remains at $0.48.</p>\n            ","response":0,"trial_type":"html-button-response","trial_index":84,"time_elapsed":535589,"internal_node_id":"0.0-4.0-1.38","subject_id":"61086ec3f37a76918f7c2094","study_id":"60edd13110225f80f9f3709b","session_id":"6196c4a12ee6c28695b28825","condition":"full-information","relevant_dimensions":["pattern","legs"],"bee_group":{"antennae":"X","wings":"X","pattern":"S","legs":"F"},"bonus":0.6000000000000011},{"rt":1239.4000000357628,"stimulus":"bees-with-color/bee-A1DF.svg","response":0,"trial_type":"image-button-response","trial_index":85,"time_elapsed":536829,"internal_node_id":"0.0-4.0-0.39","subject_id":"61086ec3f37a76918f7c2094","study_id":"60edd13110225f80f9f3709b","session_id":"6196c4a12ee6c28695b28825","condition":"full-information","relevant_dimensions":["pattern","legs"],"bee_group":{"antennae":"X","wings":"X","pattern":"S","legs":"F"},"action":"harvest","summary":"good-harvest","bonus":0.6000000000000011},{"rt":575.0999999642372,"stimulus":"\n                    <p><b>Action: <em>harvest</em></b></p>\n                    <p>This is the bee that you just saw.</p>\n                    <img src=\"bees-with-color/bee-A1DF.svg\" width=\"200\">\n                    <p><span class=\"greenText\"><b>Successful harvest!</b></span><br>Your pay has increased by $0.02. Your bonus pay is now $0.50.</p>\n            ","response":0,"trial_type":"html-button-response","trial_index":86,"time_elapsed":537405,"internal_node_id":"0.0-4.0-1.39","subject_id":"61086ec3f37a76918f7c2094","study_id":"60edd13110225f80f9f3709b","session_id":"6196c4a12ee6c28695b28825","condition":"full-information","relevant_dimensions":["pattern","legs"],"bee_group":{"antennae":"X","wings":"X","pattern":"S","legs":"F"},"bonus":0.6000000000000011},{"rt":2374.600000023842,"stimulus":"bees-with-color/bee-B2SF.svg","response":1,"trial_type":"image-button-response","trial_index":87,"time_elapsed":539781,"internal_node_id":"0.0-4.0-0.40","subject_id":"61086ec3f37a76918f7c2094","study_id":"60edd13110225f80f9f3709b","session_id":"6196c4a12ee6c28695b28825","condition":"full-information","relevant_dimensions":["pattern","legs"],"bee_group":{"antennae":"X","wings":"X","pattern":"S","legs":"F"},"action":"avoid","summary":"good-avoid","bonus":0.6000000000000011},{"rt":775.1000000238419,"stimulus":"\n                    <p><b>Action: <em>avoid</em></b></p>\n                    <p>This is the bee that you just saw.</p>\n                    <img src=\"bees-with-color/bee-B2SF.svg\" width=\"200\">\n                    <p><span class=\"greenText\">Good choice!</span>  This bee would have stung you.<br>Your bonus pay is unchanged, and remains at $0.50.</p>\n            ","response":0,"trial_type":"html-button-response","trial_index":88,"time_elapsed":540558,"internal_node_id":"0.0-4.0-1.40","subject_id":"61086ec3f37a76918f7c2094","study_id":"60edd13110225f80f9f3709b","session_id":"6196c4a12ee6c28695b28825","condition":"full-information","relevant_dimensions":["pattern","legs"],"bee_group":{"antennae":"X","wings":"X","pattern":"S","legs":"F"},"bonus":0.6000000000000011},{"rt":1254.800000011921,"stimulus":"bees-with-color/bee-B2DF.svg","response":0,"trial_type":"image-button-response","trial_index":89,"time_elapsed":541813,"internal_node_id":"0.0-4.0-0.41","subject_id":"61086ec3f37a76918f7c2094","study_id":"60edd13110225f80f9f3709b","session_id":"6196c4a12ee6c28695b28825","condition":"full-information","relevant_dimensions":["pattern","legs"],"bee_group":{"antennae":"X","wings":"X","pattern":"S","legs":"F"},"action":"harvest","summary":"good-harvest","bonus":0.6000000000000011},{"rt":726.4000000357628,"stimulus":"\n                    <p><b>Action: <em>harvest</em></b></p>\n                    <p>This is the bee that you just saw.</p>\n                    <img src=\"bees-with-color/bee-B2DF.svg\" width=\"200\">\n                    <p><span class=\"greenText\"><b>Successful harvest!</b></span><br>Your pay has increased by $0.02. Your bonus pay is now $0.52.</p>\n            ","response":0,"trial_type":"html-button-response","trial_index":90,"time_elapsed":542541,"internal_node_id":"0.0-4.0-1.41","subject_id":"61086ec3f37a76918f7c2094","study_id":"60edd13110225f80f9f3709b","session_id":"6196c4a12ee6c28695b28825","condition":"full-information","relevant_dimensions":["pattern","legs"],"bee_group":{"antennae":"X","wings":"X","pattern":"S","legs":"F"},"bonus":0.6000000000000011},{"rt":1326.8999999761581,"stimulus":"bees-with-color/bee-A1DM.svg","response":0,"trial_type":"image-button-response","trial_index":91,"time_elapsed":543869,"internal_node_id":"0.0-4.0-0.42","subject_id":"61086ec3f37a76918f7c2094","study_id":"60edd13110225f80f9f3709b","session_id":"6196c4a12ee6c28695b28825","condition":"full-information","relevant_dimensions":["pattern","legs"],"bee_group":{"antennae":"X","wings":"X","pattern":"S","legs":"F"},"action":"harvest","summary":"good-harvest","bonus":0.6000000000000011},{"rt":638.8000000119209,"stimulus":"\n                    <p><b>Action: <em>harvest</em></b></p>\n                    <p>This is the bee that you just saw.</p>\n                    <img src=\"bees-with-color/bee-A1DM.svg\" width=\"200\">\n                    <p><span class=\"greenText\"><b>Successful harvest!</b></span><br>Your pay has increased by $0.02. Your bonus pay is now $0.54.</p>\n            ","response":0,"trial_type":"html-button-response","trial_index":92,"time_elapsed":544509,"internal_node_id":"0.0-4.0-1.42","subject_id":"61086ec3f37a76918f7c2094","study_id":"60edd13110225f80f9f3709b","session_id":"6196c4a12ee6c28695b28825","condition":"full-information","relevant_dimensions":["pattern","legs"],"bee_group":{"antennae":"X","wings":"X","pattern":"S","legs":"F"},"bonus":0.6000000000000011},{"rt":2535.100000023842,"stimulus":"bees-with-color/bee-B1SM.svg","response":1,"trial_type":"image-button-response","trial_index":93,"time_elapsed":547045,"internal_node_id":"0.0-4.0-0.43","subject_id":"61086ec3f37a76918f7c2094","study_id":"60edd13110225f80f9f3709b","session_id":"6196c4a12ee6c28695b28825","condition":"full-information","relevant_dimensions":["pattern","legs"],"bee_group":{"antennae":"X","wings":"X","pattern":"S","legs":"F"},"action":"avoid","summary":"bad-avoid","bonus":0.6000000000000011},{"rt":959.3000000119209,"stimulus":"\n                    <p><b>Action: <em>avoid</em></b></p>\n                    <p>This is the bee that you just saw.</p>\n                    <img src=\"bees-with-color/bee-B1SM.svg\" width=\"200\">\n                    <p><span class=\"redText\">Bad choice,</span> the bee was friendly.<br>Your bonus pay is unchanged, and remains at $0.54.</p>\n            ","response":0,"trial_type":"html-button-response","trial_index":94,"time_elapsed":548005,"internal_node_id":"0.0-4.0-1.43","subject_id":"61086ec3f37a76918f7c2094","study_id":"60edd13110225f80f9f3709b","session_id":"6196c4a12ee6c28695b28825","condition":"full-information","relevant_dimensions":["pattern","legs"],"bee_group":{"antennae":"X","wings":"X","pattern":"S","legs":"F"},"bonus":0.6000000000000011},{"rt":2639.399999976158,"stimulus":"bees-with-color/bee-A2SM.svg","response":1,"trial_type":"image-button-response","trial_index":95,"time_elapsed":550645,"internal_node_id":"0.0-4.0-0.44","subject_id":"61086ec3f37a76918f7c2094","study_id":"60edd13110225f80f9f3709b","session_id":"6196c4a12ee6c28695b28825","condition":"full-information","relevant_dimensions":["pattern","legs"],"bee_group":{"antennae":"X","wings":"X","pattern":"S","legs":"F"},"action":"avoid","summary":"bad-avoid","bonus":0.6000000000000011},{"rt":1182.9000000357628,"stimulus":"\n                    <p><b>Action: <em>avoid</em></b></p>\n                    <p>This is the bee that you just saw.</p>\n                    <img src=\"bees-with-color/bee-A2SM.svg\" width=\"200\">\n                    <p><span class=\"redText\">Bad choice,</span> the bee was friendly.<br>Your bonus pay is unchanged, and remains at $0.54.</p>\n            ","response":0,"trial_type":"html-button-response","trial_index":96,"time_elapsed":551829,"internal_node_id":"0.0-4.0-1.44","subject_id":"61086ec3f37a76918f7c2094","study_id":"60edd13110225f80f9f3709b","session_id":"6196c4a12ee6c28695b28825","condition":"full-information","relevant_dimensions":["pattern","legs"],"bee_group":{"antennae":"X","wings":"X","pattern":"S","legs":"F"},"bonus":0.6000000000000011},{"rt":751.6000000238419,"stimulus":"bees-with-color/bee-B2DM.svg","response":0,"trial_type":"image-button-response","trial_index":97,"time_elapsed":552581,"internal_node_id":"0.0-4.0-0.45","subject_id":"61086ec3f37a76918f7c2094","study_id":"60edd13110225f80f9f3709b","session_id":"6196c4a12ee6c28695b28825","condition":"full-information","relevant_dimensions":["pattern","legs"],"bee_group":{"antennae":"X","wings":"X","pattern":"S","legs":"F"},"action":"harvest","summary":"good-harvest","bonus":0.6000000000000011},{"rt":911.1000000238419,"stimulus":"\n                    <p><b>Action: <em>harvest</em></b></p>\n                    <p>This is the bee that you just saw.</p>\n                    <img src=\"bees-with-color/bee-B2DM.svg\" width=\"200\">\n                    <p><span class=\"greenText\"><b>Successful harvest!</b></span><br>Your pay has increased by $0.02. Your bonus pay is now $0.56.</p>\n            ","response":0,"trial_type":"html-button-response","trial_index":98,"time_elapsed":553493,"internal_node_id":"0.0-4.0-1.45","subject_id":"61086ec3f37a76918f7c2094","study_id":"60edd13110225f80f9f3709b","session_id":"6196c4a12ee6c28695b28825","condition":"full-information","relevant_dimensions":["pattern","legs"],"bee_group":{"antennae":"X","wings":"X","pattern":"S","legs":"F"},"bonus":0.6000000000000011},{"rt":1647.2999999523163,"stimulus":"bees-with-color/bee-A2SF.svg","response":0,"trial_type":"image-button-response","trial_index":99,"time_elapsed":555141,"internal_node_id":"0.0-4.0-0.46","subject_id":"61086ec3f37a76918f7c2094","study_id":"60edd13110225f80f9f3709b","session_id":"6196c4a12ee6c28695b28825","condition":"full-information","relevant_dimensions":["pattern","legs"],"bee_group":{"antennae":"X","wings":"X","pattern":"S","legs":"F"},"action":"harvest","summary":"bad-harvest","bonus":0.6000000000000011},{"rt":1358.7000000476837,"stimulus":"\n                    <p><b>Action: <em>harvest</em></b></p>\n                    <p>This is the bee that you just saw.</p>\n                    <img src=\"bees-with-color/bee-A2SF.svg\" width=\"200\">\n                    <p><span class=\"redText\">Bad choice, the bee was angry.</span><br><b>You have been stung!</b><br>Your pay has been decreased by $0.10. Your bonus pay is now $0.46.</p>\n            ","response":0,"trial_type":"html-button-response","trial_index":100,"time_elapsed":556501,"internal_node_id":"0.0-4.0-1.46","subject_id":"61086ec3f37a76918f7c2094","study_id":"60edd13110225f80f9f3709b","session_id":"6196c4a12ee6c28695b28825","condition":"full-information","relevant_dimensions":["pattern","legs"],"bee_group":{"antennae":"X","wings":"X","pattern":"S","legs":"F"},"bonus":0.6000000000000011},{"rt":1183.300000011921,"stimulus":"bees-with-color/bee-A2DF.svg","response":0,"trial_type":"image-button-response","trial_index":101,"time_elapsed":557685,"internal_node_id":"0.0-4.0-0.47","subject_id":"61086ec3f37a76918f7c2094","study_id":"60edd13110225f80f9f3709b","session_id":"6196c4a12ee6c28695b28825","condition":"full-information","relevant_dimensions":["pattern","legs"],"bee_group":{"antennae":"X","wings":"X","pattern":"S","legs":"F"},"action":"harvest","summary":"good-harvest","bonus":0.6000000000000011},{"rt":486.89999997615814,"stimulus":"\n                    <p><b>Action: <em>harvest</em></b></p>\n                    <p>This is the bee that you just saw.</p>\n                    <img src=\"bees-with-color/bee-A2DF.svg\" width=\"200\">\n                    <p><span class=\"greenText\"><b>Successful harvest!</b></span><br>Your pay has increased by $0.02. Your bonus pay is now $0.48.</p>\n            ","response":0,"trial_type":"html-button-response","trial_index":102,"time_elapsed":558173,"internal_node_id":"0.0-4.0-1.47","subject_id":"61086ec3f37a76918f7c2094","study_id":"60edd13110225f80f9f3709b","session_id":"6196c4a12ee6c28695b28825","condition":"full-information","relevant_dimensions":["pattern","legs"],"bee_group":{"antennae":"X","wings":"X","pattern":"S","legs":"F"},"bonus":0.6000000000000011},{"rt":847.6999999880791,"stimulus":"bees-with-color/bee-A2DF.svg","response":0,"trial_type":"image-button-response","trial_index":103,"time_elapsed":559021,"internal_node_id":"0.0-4.0-0.48","subject_id":"61086ec3f37a76918f7c2094","study_id":"60edd13110225f80f9f3709b","session_id":"6196c4a12ee6c28695b28825","condition":"full-information","relevant_dimensions":["pattern","legs"],"bee_group":{"antennae":"X","wings":"X","pattern":"S","legs":"F"},"action":"harvest","summary":"good-harvest","bonus":0.6000000000000011},{"rt":622.7999999523163,"stimulus":"\n                    <p><b>Action: <em>harvest</em></b></p>\n                    <p>This is the bee that you just saw.</p>\n                    <img src=\"bees-with-color/bee-A2DF.svg\" width=\"200\">\n                    <p><span class=\"greenText\"><b>Successful harvest!</b></span><br>Your pay has increased by $0.02. Your bonus pay is now $0.50.</p>\n            ","response":0,"trial_type":"html-button-response","trial_index":104,"time_elapsed":559645,"internal_node_id":"0.0-4.0-1.48","subject_id":"61086ec3f37a76918f7c2094","study_id":"60edd13110225f80f9f3709b","session_id":"6196c4a12ee6c28695b28825","condition":"full-information","relevant_dimensions":["pattern","legs"],"bee_group":{"antennae":"X","wings":"X","pattern":"S","legs":"F"},"bonus":0.6000000000000011},{"rt":1007.5,"stimulus":"bees-with-color/bee-B1DM.svg","response":0,"trial_type":"image-button-response","trial_index":105,"time_elapsed":560653,"internal_node_id":"0.0-4.0-0.49","subject_id":"61086ec3f37a76918f7c2094","study_id":"60edd13110225f80f9f3709b","session_id":"6196c4a12ee6c28695b28825","condition":"full-information","relevant_dimensions":["pattern","legs"],"bee_group":{"antennae":"X","wings":"X","pattern":"S","legs":"F"},"action":"harvest","summary":"good-harvest","bonus":0.6000000000000011},{"rt":2478.899999976158,"stimulus":"\n                    <p><b>Action: <em>harvest</em></b></p>\n                    <p>This is the bee that you just saw.</p>\n                    <img src=\"bees-with-color/bee-B1DM.svg\" width=\"200\">\n                    <p><span class=\"greenText\"><b>Successful harvest!</b></span><br>Your pay has increased by $0.02. Your bonus pay is now $0.52.</p>\n            ","response":0,"trial_type":"html-button-response","trial_index":106,"time_elapsed":563133,"internal_node_id":"0.0-4.0-1.49","subject_id":"61086ec3f37a76918f7c2094","study_id":"60edd13110225f80f9f3709b","session_id":"6196c4a12ee6c28695b28825","condition":"full-information","relevant_dimensions":["pattern","legs"],"bee_group":{"antennae":"X","wings":"X","pattern":"S","legs":"F"},"bonus":0.6000000000000011},{"rt":3046.899999976158,"stimulus":"bees-with-color/bee-B1SF.svg","response":0,"trial_type":"image-button-response","trial_index":107,"time_elapsed":566181,"internal_node_id":"0.0-4.0-0.50","subject_id":"61086ec3f37a76918f7c2094","study_id":"60edd13110225f80f9f3709b","session_id":"6196c4a12ee6c28695b28825","condition":"full-information","relevant_dimensions":["pattern","legs"],"bee_group":{"antennae":"X","wings":"X","pattern":"S","legs":"F"},"action":"harvest","summary":"bad-harvest","bonus":0.6000000000000011},{"rt":879.2000000476837,"stimulus":"\n                    <p><b>Action: <em>harvest</em></b></p>\n                    <p>This is the bee that you just saw.</p>\n                    <img src=\"bees-with-color/bee-B1SF.svg\" width=\"200\">\n                    <p><span class=\"redText\">Bad choice, the bee was angry.</span><br><b>You have been stung!</b><br>Your pay has been decreased by $0.10. Your bonus pay is now $0.42.</p>\n            ","response":0,"trial_type":"html-button-response","trial_index":108,"time_elapsed":567061,"internal_node_id":"0.0-4.0-1.50","subject_id":"61086ec3f37a76918f7c2094","study_id":"60edd13110225f80f9f3709b","session_id":"6196c4a12ee6c28695b28825","condition":"full-information","relevant_dimensions":["pattern","legs"],"bee_group":{"antennae":"X","wings":"X","pattern":"S","legs":"F"},"bonus":0.6000000000000011},{"rt":1318.800000011921,"stimulus":"bees-with-color/bee-B2DF.svg","response":0,"trial_type":"image-button-response","trial_index":109,"time_elapsed":568381,"internal_node_id":"0.0-4.0-0.51","subject_id":"61086ec3f37a76918f7c2094","study_id":"60edd13110225f80f9f3709b","session_id":"6196c4a12ee6c28695b28825","condition":"full-information","relevant_dimensions":["pattern","legs"],"bee_group":{"antennae":"X","wings":"X","pattern":"S","legs":"F"},"action":"harvest","summary":"good-harvest","bonus":0.6000000000000011},{"rt":487.10000002384186,"stimulus":"\n                    <p><b>Action: <em>harvest</em></b></p>\n                    <p>This is the bee that you just saw.</p>\n                    <img src=\"bees-with-color/bee-B2DF.svg\" width=\"200\">\n                    <p><span class=\"greenText\"><b>Successful harvest!</b></span><br>Your pay has increased by $0.02. Your bonus pay is now $0.44.</p>\n            ","response":0,"trial_type":"html-button-response","trial_index":110,"time_elapsed":568869,"internal_node_id":"0.0-4.0-1.51","subject_id":"61086ec3f37a76918f7c2094","study_id":"60edd13110225f80f9f3709b","session_id":"6196c4a12ee6c28695b28825","condition":"full-information","relevant_dimensions":["pattern","legs"],"bee_group":{"antennae":"X","wings":"X","pattern":"S","legs":"F"},"bonus":0.6000000000000011},{"rt":471.30000001192093,"stimulus":"bees-with-color/bee-A1SF.svg","response":0,"trial_type":"image-button-response","trial_index":111,"time_elapsed":569341,"internal_node_id":"0.0-4.0-0.52","subject_id":"61086ec3f37a76918f7c2094","study_id":"60edd13110225f80f9f3709b","session_id":"6196c4a12ee6c28695b28825","condition":"full-information","relevant_dimensions":["pattern","legs"],"bee_group":{"antennae":"X","wings":"X","pattern":"S","legs":"F"},"action":"harvest","summary":"bad-harvest","bonus":0.6000000000000011},{"rt":591.6999999880791,"stimulus":"\n                    <p><b>Action: <em>harvest</em></b></p>\n                    <p>This is the bee that you just saw.</p>\n                    <img src=\"bees-with-color/bee-A1SF.svg\" width=\"200\">\n                    <p><span class=\"redText\">Bad choice, the bee was angry.</span><br><b>You have been stung!</b><br>Your pay has been decreased by $0.10. Your bonus pay is now $0.34.</p>\n            ","response":0,"trial_type":"html-button-response","trial_index":112,"time_elapsed":569933,"internal_node_id":"0.0-4.0-1.52","subject_id":"61086ec3f37a76918f7c2094","study_id":"60edd13110225f80f9f3709b","session_id":"6196c4a12ee6c28695b28825","condition":"full-information","relevant_dimensions":["pattern","legs"],"bee_group":{"antennae":"X","wings":"X","pattern":"S","legs":"F"},"bonus":0.6000000000000011},{"rt":1150.3999999761581,"stimulus":"bees-with-color/bee-B2DM.svg","response":0,"trial_type":"image-button-response","trial_index":113,"time_elapsed":571085,"internal_node_id":"0.0-4.0-0.53","subject_id":"61086ec3f37a76918f7c2094","study_id":"60edd13110225f80f9f3709b","session_id":"6196c4a12ee6c28695b28825","condition":"full-information","relevant_dimensions":["pattern","legs"],"bee_group":{"antennae":"X","wings":"X","pattern":"S","legs":"F"},"action":"harvest","summary":"good-harvest","bonus":0.6000000000000011},{"rt":903.6000000238419,"stimulus":"\n                    <p><b>Action: <em>harvest</em></b></p>\n                    <p>This is the bee that you just saw.</p>\n                    <img src=\"bees-with-color/bee-B2DM.svg\" width=\"200\">\n                    <p><span class=\"greenText\"><b>Successful harvest!</b></span><br>Your pay has increased by $0.02. Your bonus pay is now $0.36.</p>\n            ","response":0,"trial_type":"html-button-response","trial_index":114,"time_elapsed":571989,"internal_node_id":"0.0-4.0-1.53","subject_id":"61086ec3f37a76918f7c2094","study_id":"60edd13110225f80f9f3709b","session_id":"6196c4a12ee6c28695b28825","condition":"full-information","relevant_dimensions":["pattern","legs"],"bee_group":{"antennae":"X","wings":"X","pattern":"S","legs":"F"},"bonus":0.6000000000000011},{"rt":1287,"stimulus":"bees-with-color/bee-A2DM.svg","response":0,"trial_type":"image-button-response","trial_index":115,"time_elapsed":573277,"internal_node_id":"0.0-4.0-0.54","subject_id":"61086ec3f37a76918f7c2094","study_id":"60edd13110225f80f9f3709b","session_id":"6196c4a12ee6c28695b28825","condition":"full-information","relevant_dimensions":["pattern","legs"],"bee_group":{"antennae":"X","wings":"X","pattern":"S","legs":"F"},"action":"harvest","summary":"good-harvest","bonus":0.6000000000000011},{"rt":519,"stimulus":"\n                    <p><b>Action: <em>harvest</em></b></p>\n                    <p>This is the bee that you just saw.</p>\n                    <img src=\"bees-with-color/bee-A2DM.svg\" width=\"200\">\n                    <p><span class=\"greenText\"><b>Successful harvest!</b></span><br>Your pay has increased by $0.02. Your bonus pay is now $0.38.</p>\n            ","response":0,"trial_type":"html-button-response","trial_index":116,"time_elapsed":573797,"internal_node_id":"0.0-4.0-1.54","subject_id":"61086ec3f37a76918f7c2094","study_id":"60edd13110225f80f9f3709b","session_id":"6196c4a12ee6c28695b28825","condition":"full-information","relevant_dimensions":["pattern","legs"],"bee_group":{"antennae":"X","wings":"X","pattern":"S","legs":"F"},"bonus":0.6000000000000011},{"rt":1374.699999988079,"stimulus":"bees-with-color/bee-A1SM.svg","response":1,"trial_type":"image-button-response","trial_index":117,"time_elapsed":575173,"internal_node_id":"0.0-4.0-0.55","subject_id":"61086ec3f37a76918f7c2094","study_id":"60edd13110225f80f9f3709b","session_id":"6196c4a12ee6c28695b28825","condition":"full-information","relevant_dimensions":["pattern","legs"],"bee_group":{"antennae":"X","wings":"X","pattern":"S","legs":"F"},"action":"avoid","summary":"bad-avoid","bonus":0.6000000000000011},{"rt":1071.199999988079,"stimulus":"\n                    <p><b>Action: <em>avoid</em></b></p>\n                    <p>This is the bee that you just saw.</p>\n                    <img src=\"bees-with-color/bee-A1SM.svg\" width=\"200\">\n                    <p><span class=\"redText\">Bad choice,</span> the bee was friendly.<br>Your bonus pay is unchanged, and remains at $0.38.</p>\n            ","response":0,"trial_type":"html-button-response","trial_index":118,"time_elapsed":576245,"internal_node_id":"0.0-4.0-1.55","subject_id":"61086ec3f37a76918f7c2094","study_id":"60edd13110225f80f9f3709b","session_id":"6196c4a12ee6c28695b28825","condition":"full-information","relevant_dimensions":["pattern","legs"],"bee_group":{"antennae":"X","wings":"X","pattern":"S","legs":"F"},"bonus":0.6000000000000011},{"rt":1807.0999999642372,"stimulus":"bees-with-color/bee-A2SM.svg","response":0,"trial_type":"image-button-response","trial_index":119,"time_elapsed":578053,"internal_node_id":"0.0-4.0-0.56","subject_id":"61086ec3f37a76918f7c2094","study_id":"60edd13110225f80f9f3709b","session_id":"6196c4a12ee6c28695b28825","condition":"full-information","relevant_dimensions":["pattern","legs"],"bee_group":{"antennae":"X","wings":"X","pattern":"S","legs":"F"},"action":"harvest","summary":"good-harvest","bonus":0.6000000000000011},{"rt":1111.6000000238419,"stimulus":"\n                    <p><b>Action: <em>harvest</em></b></p>\n                    <p>This is the bee that you just saw.</p>\n                    <img src=\"bees-with-color/bee-A2SM.svg\" width=\"200\">\n                    <p><span class=\"greenText\"><b>Successful harvest!</b></span><br>Your pay has increased by $0.02. Your bonus pay is now $0.40.</p>\n            ","response":0,"trial_type":"html-button-response","trial_index":120,"time_elapsed":579166,"internal_node_id":"0.0-4.0-1.56","subject_id":"61086ec3f37a76918f7c2094","study_id":"60edd13110225f80f9f3709b","session_id":"6196c4a12ee6c28695b28825","condition":"full-information","relevant_dimensions":["pattern","legs"],"bee_group":{"antennae":"X","wings":"X","pattern":"S","legs":"F"},"bonus":0.6000000000000011},{"rt":982.2000000476837,"stimulus":"bees-with-color/bee-A1DF.svg","response":0,"trial_type":"image-button-response","trial_index":121,"time_elapsed":580149,"internal_node_id":"0.0-4.0-0.57","subject_id":"61086ec3f37a76918f7c2094","study_id":"60edd13110225f80f9f3709b","session_id":"6196c4a12ee6c28695b28825","condition":"full-information","relevant_dimensions":["pattern","legs"],"bee_group":{"antennae":"X","wings":"X","pattern":"S","legs":"F"},"action":"harvest","summary":"good-harvest","bonus":0.6000000000000011},{"rt":487.2999999523163,"stimulus":"\n                    <p><b>Action: <em>harvest</em></b></p>\n                    <p>This is the bee that you just saw.</p>\n                    <img src=\"bees-with-color/bee-A1DF.svg\" width=\"200\">\n                    <p><span class=\"greenText\"><b>Successful harvest!</b></span><br>Your pay has increased by $0.02. Your bonus pay is now $0.42.</p>\n            ","response":0,"trial_type":"html-button-response","trial_index":122,"time_elapsed":580637,"internal_node_id":"0.0-4.0-1.57","subject_id":"61086ec3f37a76918f7c2094","study_id":"60edd13110225f80f9f3709b","session_id":"6196c4a12ee6c28695b28825","condition":"full-information","relevant_dimensions":["pattern","legs"],"bee_group":{"antennae":"X","wings":"X","pattern":"S","legs":"F"},"bonus":0.6000000000000011},{"rt":2406.900000035763,"stimulus":"bees-with-color/bee-B2SM.svg","response":0,"trial_type":"image-button-response","trial_index":123,"time_elapsed":583045,"internal_node_id":"0.0-4.0-0.58","subject_id":"61086ec3f37a76918f7c2094","study_id":"60edd13110225f80f9f3709b","session_id":"6196c4a12ee6c28695b28825","condition":"full-information","relevant_dimensions":["pattern","legs"],"bee_group":{"antennae":"X","wings":"X","pattern":"S","legs":"F"},"action":"harvest","summary":"good-harvest","bonus":0.6000000000000011},{"rt":751.8000000119209,"stimulus":"\n                    <p><b>Action: <em>harvest</em></b></p>\n                    <p>This is the bee that you just saw.</p>\n                    <img src=\"bees-with-color/bee-B2SM.svg\" width=\"200\">\n                    <p><span class=\"greenText\"><b>Successful harvest!</b></span><br>Your pay has increased by $0.02. Your bonus pay is now $0.44.</p>\n            ","response":0,"trial_type":"html-button-response","trial_index":124,"time_elapsed":583798,"internal_node_id":"0.0-4.0-1.58","subject_id":"61086ec3f37a76918f7c2094","study_id":"60edd13110225f80f9f3709b","session_id":"6196c4a12ee6c28695b28825","condition":"full-information","relevant_dimensions":["pattern","legs"],"bee_group":{"antennae":"X","wings":"X","pattern":"S","legs":"F"},"bonus":0.6000000000000011},{"rt":822.3999999761581,"stimulus":"bees-with-color/bee-B1DF.svg","response":0,"trial_type":"image-button-response","trial_index":125,"time_elapsed":584621,"internal_node_id":"0.0-4.0-0.59","subject_id":"61086ec3f37a76918f7c2094","study_id":"60edd13110225f80f9f3709b","session_id":"6196c4a12ee6c28695b28825","condition":"full-information","relevant_dimensions":["pattern","legs"],"bee_group":{"antennae":"X","wings":"X","pattern":"S","legs":"F"},"action":"harvest","summary":"good-harvest","bonus":0.6000000000000011},{"rt":503.10000002384186,"stimulus":"\n                    <p><b>Action: <em>harvest</em></b></p>\n                    <p>This is the bee that you just saw.</p>\n                    <img src=\"bees-with-color/bee-B1DF.svg\" width=\"200\">\n                    <p><span class=\"greenText\"><b>Successful harvest!</b></span><br>Your pay has increased by $0.02. Your bonus pay is now $0.46.</p>\n            ","response":0,"trial_type":"html-button-response","trial_index":126,"time_elapsed":585125,"internal_node_id":"0.0-4.0-1.59","subject_id":"61086ec3f37a76918f7c2094","study_id":"60edd13110225f80f9f3709b","session_id":"6196c4a12ee6c28695b28825","condition":"full-information","relevant_dimensions":["pattern","legs"],"bee_group":{"antennae":"X","wings":"X","pattern":"S","legs":"F"},"bonus":0.6000000000000011},{"rt":1375.5,"stimulus":"bees-with-color/bee-A1DM.svg","response":0,"trial_type":"image-button-response","trial_index":127,"time_elapsed":586501,"internal_node_id":"0.0-4.0-0.60","subject_id":"61086ec3f37a76918f7c2094","study_id":"60edd13110225f80f9f3709b","session_id":"6196c4a12ee6c28695b28825","condition":"full-information","relevant_dimensions":["pattern","legs"],"bee_group":{"antennae":"X","wings":"X","pattern":"S","legs":"F"},"action":"harvest","summary":"good-harvest","bonus":0.6000000000000011},{"rt":454.89999997615814,"stimulus":"\n                    <p><b>Action: <em>harvest</em></b></p>\n                    <p>This is the bee that you just saw.</p>\n                    <img src=\"bees-with-color/bee-A1DM.svg\" width=\"200\">\n                    <p><span class=\"greenText\"><b>Successful harvest!</b></span><br>Your pay has increased by $0.02. Your bonus pay is now $0.48.</p>\n            ","response":0,"trial_type":"html-button-response","trial_index":128,"time_elapsed":586957,"internal_node_id":"0.0-4.0-1.60","subject_id":"61086ec3f37a76918f7c2094","study_id":"60edd13110225f80f9f3709b","session_id":"6196c4a12ee6c28695b28825","condition":"full-information","relevant_dimensions":["pattern","legs"],"bee_group":{"antennae":"X","wings":"X","pattern":"S","legs":"F"},"bonus":0.6000000000000011},{"rt":2167.399999976158,"stimulus":"bees-with-color/bee-B2SF.svg","response":0,"trial_type":"image-button-response","trial_index":129,"time_elapsed":589125,"internal_node_id":"0.0-4.0-0.61","subject_id":"61086ec3f37a76918f7c2094","study_id":"60edd13110225f80f9f3709b","session_id":"6196c4a12ee6c28695b28825","condition":"full-information","relevant_dimensions":["pattern","legs"],"bee_group":{"antennae":"X","wings":"X","pattern":"S","legs":"F"},"action":"harvest","summary":"bad-harvest","bonus":0.6000000000000011},{"rt":1135,"stimulus":"\n                    <p><b>Action: <em>harvest</em></b></p>\n                    <p>This is the bee that you just saw.</p>\n                    <img src=\"bees-with-color/bee-B2SF.svg\" width=\"200\">\n                    <p><span class=\"redText\">Bad choice, the bee was angry.</span><br><b>You have been stung!</b><br>Your pay has been decreased by $0.10. Your bonus pay is now $0.38.</p>\n            ","response":0,"trial_type":"html-button-response","trial_index":130,"time_elapsed":590261,"internal_node_id":"0.0-4.0-1.61","subject_id":"61086ec3f37a76918f7c2094","study_id":"60edd13110225f80f9f3709b","session_id":"6196c4a12ee6c28695b28825","condition":"full-information","relevant_dimensions":["pattern","legs"],"bee_group":{"antennae":"X","wings":"X","pattern":"S","legs":"F"},"bonus":0.6000000000000011},{"rt":1470.8999999761581,"stimulus":"bees-with-color/bee-A2SF.svg","response":0,"trial_type":"image-button-response","trial_index":131,"time_elapsed":591733,"internal_node_id":"0.0-4.0-0.62","subject_id":"61086ec3f37a76918f7c2094","study_id":"60edd13110225f80f9f3709b","session_id":"6196c4a12ee6c28695b28825","condition":"full-information","relevant_dimensions":["pattern","legs"],"bee_group":{"antennae":"X","wings":"X","pattern":"S","legs":"F"},"action":"harvest","summary":"bad-harvest","bonus":0.6000000000000011},{"rt":3759.399999976158,"stimulus":"\n                    <p><b>Action: <em>harvest</em></b></p>\n                    <p>This is the bee that you just saw.</p>\n                    <img src=\"bees-with-color/bee-A2SF.svg\" width=\"200\">\n                    <p><span class=\"redText\">Bad choice, the bee was angry.</span><br><b>You have been stung!</b><br>Your pay has been decreased by $0.10. Your bonus pay is now $0.28.</p>\n            ","response":0,"trial_type":"html-button-response","trial_index":132,"time_elapsed":595493,"internal_node_id":"0.0-4.0-1.62","subject_id":"61086ec3f37a76918f7c2094","study_id":"60edd13110225f80f9f3709b","session_id":"6196c4a12ee6c28695b28825","condition":"full-information","relevant_dimensions":["pattern","legs"],"bee_group":{"antennae":"X","wings":"X","pattern":"S","legs":"F"},"bonus":0.6000000000000011},{"rt":2071.399999976158,"stimulus":"bees-with-color/bee-B1SM.svg","response":1,"trial_type":"image-button-response","trial_index":133,"time_elapsed":597565,"internal_node_id":"0.0-4.0-0.63","subject_id":"61086ec3f37a76918f7c2094","study_id":"60edd13110225f80f9f3709b","session_id":"6196c4a12ee6c28695b28825","condition":"full-information","relevant_dimensions":["pattern","legs"],"bee_group":{"antennae":"X","wings":"X","pattern":"S","legs":"F"},"action":"avoid","summary":"bad-avoid","bonus":0.6000000000000011},{"rt":951.6999999880791,"stimulus":"\n                    <p><b>Action: <em>avoid</em></b></p>\n                    <p>This is the bee that you just saw.</p>\n                    <img src=\"bees-with-color/bee-B1SM.svg\" width=\"200\">\n                    <p><span class=\"redText\">Bad choice,</span> the bee was friendly.<br>Your bonus pay is unchanged, and remains at $0.28.</p>\n            ","response":0,"trial_type":"html-button-response","trial_index":134,"time_elapsed":598518,"internal_node_id":"0.0-4.0-1.63","subject_id":"61086ec3f37a76918f7c2094","study_id":"60edd13110225f80f9f3709b","session_id":"6196c4a12ee6c28695b28825","condition":"full-information","relevant_dimensions":["pattern","legs"],"bee_group":{"antennae":"X","wings":"X","pattern":"S","legs":"F"},"bonus":0.6000000000000011},{"rt":6978.699999988079,"stimulus":"You have completed the first part of this experiment.<br><br>You will now begin a shorter second part, in which you will receive no feedback.<br>The same rules regarding bonus pay apply.<br><br>Press any key to begin.","response":" ","trial_type":"html-keyboard-response","trial_index":135,"time_elapsed":605497,"internal_node_id":"0.0-5.0","subject_id":"61086ec3f37a76918f7c2094","study_id":"60edd13110225f80f9f3709b","session_id":"6196c4a12ee6c28695b28825","condition":"full-information","relevant_dimensions":["pattern","legs"],"bee_group":{"antennae":"X","wings":"X","pattern":"S","legs":"F"},"bonus":0.6000000000000011},{"rt":3110.600000023842,"stimulus":"bees-with-color/bee-A1DF.svg","response":0,"trial_type":"image-button-response","trial_index":136,"time_elapsed":608613,"internal_node_id":"0.0-6.0-0.0","subject_id":"61086ec3f37a76918f7c2094","study_id":"60edd13110225f80f9f3709b","session_id":"6196c4a12ee6c28695b28825","condition":"full-information","relevant_dimensions":["pattern","legs"],"bee_group":{"antennae":"X","wings":"X","pattern":"S","legs":"F"},"bonus":0.6000000000000011},{"rt":5110.600000023842,"stimulus":"bees-with-color/bee-A1SF.svg","response":1,"trial_type":"image-button-response","trial_index":137,"time_elapsed":613725,"internal_node_id":"0.0-6.0-0.1","subject_id":"61086ec3f37a76918f7c2094","study_id":"60edd13110225f80f9f3709b","session_id":"6196c4a12ee6c28695b28825","condition":"full-information","relevant_dimensions":["pattern","legs"],"bee_group":{"antennae":"X","wings":"X","pattern":"S","legs":"F"},"bonus":0.6000000000000011},{"rt":814.8999999761581,"stimulus":"bees-with-color/bee-B2DM.svg","response":0,"trial_type":"image-button-response","trial_index":138,"time_elapsed":614541,"internal_node_id":"0.0-6.0-0.2","subject_id":"61086ec3f37a76918f7c2094","study_id":"60edd13110225f80f9f3709b","session_id":"6196c4a12ee6c28695b28825","condition":"full-information","relevant_dimensions":["pattern","legs"],"bee_group":{"antennae":"X","wings":"X","pattern":"S","legs":"F"},"bonus":0.6000000000000011},{"rt":574.8999999761581,"stimulus":"bees-with-color/bee-A1DM.svg","response":0,"trial_type":"image-button-response","trial_index":139,"time_elapsed":615117,"internal_node_id":"0.0-6.0-0.3","subject_id":"61086ec3f37a76918f7c2094","study_id":"60edd13110225f80f9f3709b","session_id":"6196c4a12ee6c28695b28825","condition":"full-information","relevant_dimensions":["pattern","legs"],"bee_group":{"antennae":"X","wings":"X","pattern":"S","legs":"F"},"bonus":0.6000000000000011},{"rt":1102.5,"stimulus":"bees-with-color/bee-A2SF.svg","response":1,"trial_type":"image-button-response","trial_index":140,"time_elapsed":616221,"internal_node_id":"0.0-6.0-0.4","subject_id":"61086ec3f37a76918f7c2094","study_id":"60edd13110225f80f9f3709b","session_id":"6196c4a12ee6c28695b28825","condition":"full-information","relevant_dimensions":["pattern","legs"],"bee_group":{"antennae":"X","wings":"X","pattern":"S","legs":"F"},"bonus":0.6000000000000011},{"rt":718.7000000476837,"stimulus":"bees-with-color/bee-A2DF.svg","response":0,"trial_type":"image-button-response","trial_index":141,"time_elapsed":616941,"internal_node_id":"0.0-6.0-0.5","subject_id":"61086ec3f37a76918f7c2094","study_id":"60edd13110225f80f9f3709b","session_id":"6196c4a12ee6c28695b28825","condition":"full-information","relevant_dimensions":["pattern","legs"],"bee_group":{"antennae":"X","wings":"X","pattern":"S","legs":"F"},"bonus":0.6000000000000011},{"rt":511,"stimulus":"bees-with-color/bee-A2DM.svg","response":0,"trial_type":"image-button-response","trial_index":142,"time_elapsed":617453,"internal_node_id":"0.0-6.0-0.6","subject_id":"61086ec3f37a76918f7c2094","study_id":"60edd13110225f80f9f3709b","session_id":"6196c4a12ee6c28695b28825","condition":"full-information","relevant_dimensions":["pattern","legs"],"bee_group":{"antennae":"X","wings":"X","pattern":"S","legs":"F"},"bonus":0.6000000000000011},{"rt":878.6999999880791,"stimulus":"bees-with-color/bee-A1SM.svg","response":1,"trial_type":"image-button-response","trial_index":143,"time_elapsed":618334,"internal_node_id":"0.0-6.0-0.7","subject_id":"61086ec3f37a76918f7c2094","study_id":"60edd13110225f80f9f3709b","session_id":"6196c4a12ee6c28695b28825","condition":"full-information","relevant_dimensions":["pattern","legs"],"bee_group":{"antennae":"X","wings":"X","pattern":"S","legs":"F"},"bonus":0.6000000000000011},{"rt":926.4000000357628,"stimulus":"bees-with-color/bee-B1SF.svg","response":1,"trial_type":"image-button-response","trial_index":144,"time_elapsed":619261,"internal_node_id":"0.0-6.0-0.8","subject_id":"61086ec3f37a76918f7c2094","study_id":"60edd13110225f80f9f3709b","session_id":"6196c4a12ee6c28695b28825","condition":"full-information","relevant_dimensions":["pattern","legs"],"bee_group":{"antennae":"X","wings":"X","pattern":"S","legs":"F"},"bonus":0.6000000000000011},{"rt":638.6999999880791,"stimulus":"bees-with-color/bee-B1DM.svg","response":0,"trial_type":"image-button-response","trial_index":145,"time_elapsed":619901,"internal_node_id":"0.0-6.0-0.9","subject_id":"61086ec3f37a76918f7c2094","study_id":"60edd13110225f80f9f3709b","session_id":"6196c4a12ee6c28695b28825","condition":"full-information","relevant_dimensions":["pattern","legs"],"bee_group":{"antennae":"X","wings":"X","pattern":"S","legs":"F"},"bonus":0.6000000000000011},{"rt":439,"stimulus":"bees-with-color/bee-B1DF.svg","response":0,"trial_type":"image-button-response","trial_index":146,"time_elapsed":620341,"internal_node_id":"0.0-6.0-0.10","subject_id":"61086ec3f37a76918f7c2094","study_id":"60edd13110225f80f9f3709b","session_id":"6196c4a12ee6c28695b28825","condition":"full-information","relevant_dimensions":["pattern","legs"],"bee_group":{"antennae":"X","wings":"X","pattern":"S","legs":"F"},"bonus":0.6000000000000011},{"rt":934.8000000119209,"stimulus":"bees-with-color/bee-B1SM.svg","response":1,"trial_type":"image-button-response","trial_index":147,"time_elapsed":621277,"internal_node_id":"0.0-6.0-0.11","subject_id":"61086ec3f37a76918f7c2094","study_id":"60edd13110225f80f9f3709b","session_id":"6196c4a12ee6c28695b28825","condition":"full-information","relevant_dimensions":["pattern","legs"],"bee_group":{"antennae":"X","wings":"X","pattern":"S","legs":"F"},"bonus":0.6000000000000011},{"rt":839.4000000357628,"stimulus":"bees-with-color/bee-A2SM.svg","response":1,"trial_type":"image-button-response","trial_index":148,"time_elapsed":622117,"internal_node_id":"0.0-6.0-0.12","subject_id":"61086ec3f37a76918f7c2094","study_id":"60edd13110225f80f9f3709b","session_id":"6196c4a12ee6c28695b28825","condition":"full-information","relevant_dimensions":["pattern","legs"],"bee_group":{"antennae":"X","wings":"X","pattern":"S","legs":"F"},"bonus":0.6000000000000011},{"rt":519,"stimulus":"bees-with-color/bee-B2SM.svg","response":1,"trial_type":"image-button-response","trial_index":149,"time_elapsed":622637,"internal_node_id":"0.0-6.0-0.13","subject_id":"61086ec3f37a76918f7c2094","study_id":"60edd13110225f80f9f3709b","session_id":"6196c4a12ee6c28695b28825","condition":"full-information","relevant_dimensions":["pattern","legs"],"bee_group":{"antennae":"X","wings":"X","pattern":"S","legs":"F"},"bonus":0.6000000000000011},{"rt":646.7999999523163,"stimulus":"bees-with-color/bee-B2DF.svg","response":0,"trial_type":"image-button-response","trial_index":150,"time_elapsed":623285,"internal_node_id":"0.0-6.0-0.14","subject_id":"61086ec3f37a76918f7c2094","study_id":"60edd13110225f80f9f3709b","session_id":"6196c4a12ee6c28695b28825","condition":"full-information","relevant_dimensions":["pattern","legs"],"bee_group":{"antennae":"X","wings":"X","pattern":"S","legs":"F"},"bonus":0.6000000000000011},{"rt":702.5,"stimulus":"bees-with-color/bee-B2SF.svg","response":1,"trial_type":"image-button-response","trial_index":151,"time_elapsed":623989,"internal_node_id":"0.0-6.0-0.15","subject_id":"61086ec3f37a76918f7c2094","study_id":"60edd13110225f80f9f3709b","session_id":"6196c4a12ee6c28695b28825","condition":"full-information","relevant_dimensions":["pattern","legs"],"bee_group":{"antennae":"X","wings":"X","pattern":"S","legs":"F"},"bonus":0.6000000000000011},{"rt":607.1000000238419,"stimulus":"bees-with-color/bee-A1DF.svg","response":0,"trial_type":"image-button-response","trial_index":152,"time_elapsed":624598,"internal_node_id":"0.0-6.0-0.16","subject_id":"61086ec3f37a76918f7c2094","study_id":"60edd13110225f80f9f3709b","session_id":"6196c4a12ee6c28695b28825","condition":"full-information","relevant_dimensions":["pattern","legs"],"bee_group":{"antennae":"X","wings":"X","pattern":"S","legs":"F"},"bonus":0.6000000000000011},{"rt":622.8000000119209,"stimulus":"bees-with-color/bee-A2DM.svg","response":0,"trial_type":"image-button-response","trial_index":153,"time_elapsed":625221,"internal_node_id":"0.0-6.0-0.17","subject_id":"61086ec3f37a76918f7c2094","study_id":"60edd13110225f80f9f3709b","session_id":"6196c4a12ee6c28695b28825","condition":"full-information","relevant_dimensions":["pattern","legs"],"bee_group":{"antennae":"X","wings":"X","pattern":"S","legs":"F"},"bonus":0.6000000000000011},{"rt":615.1000000238419,"stimulus":"bees-with-color/bee-A2DF.svg","response":0,"trial_type":"image-button-response","trial_index":154,"time_elapsed":625837,"internal_node_id":"0.0-6.0-0.18","subject_id":"61086ec3f37a76918f7c2094","study_id":"60edd13110225f80f9f3709b","session_id":"6196c4a12ee6c28695b28825","condition":"full-information","relevant_dimensions":["pattern","legs"],"bee_group":{"antennae":"X","wings":"X","pattern":"S","legs":"F"},"bonus":0.6000000000000011},{"rt":471.10000002384186,"stimulus":"bees-with-color/bee-B2DM.svg","response":0,"trial_type":"image-button-response","trial_index":155,"time_elapsed":626310,"internal_node_id":"0.0-6.0-0.19","subject_id":"61086ec3f37a76918f7c2094","study_id":"60edd13110225f80f9f3709b","session_id":"6196c4a12ee6c28695b28825","condition":"full-information","relevant_dimensions":["pattern","legs"],"bee_group":{"antennae":"X","wings":"X","pattern":"S","legs":"F"},"bonus":0.6000000000000011},{"rt":406.5,"stimulus":"bees-with-color/bee-B1DM.svg","response":0,"trial_type":"image-button-response","trial_index":156,"time_elapsed":626717,"internal_node_id":"0.0-6.0-0.20","subject_id":"61086ec3f37a76918f7c2094","study_id":"60edd13110225f80f9f3709b","session_id":"6196c4a12ee6c28695b28825","condition":"full-information","relevant_dimensions":["pattern","legs"],"bee_group":{"antennae":"X","wings":"X","pattern":"S","legs":"F"},"bonus":0.6000000000000011},{"rt":823.3000000119209,"stimulus":"bees-with-color/bee-A2SM.svg","response":1,"trial_type":"image-button-response","