[{"success":true,"trial_type":"fullscreen","trial_index":0,"time_elapsed":84920,"internal_node_id":"0.0-0.0","subject_id":"60042af01e4c4b52c5ee0c01","study_id":"6197b3f67c2b5cd3b6d9596a","session_id":"6197b88befc16f34c4911fb3","condition":"full-information","relevant_dimensions":["antennae","legs"],"bee_group":{"antennae":"A","wings":"X","pattern":"X","legs":"M"},"bonus":1.3200000000000014},{"success":true,"timeout":false,"failed_images":[],"failed_audio":[],"failed_video":[],"trial_type":"preload","trial_index":1,"time_elapsed":86977,"internal_node_id":"0.0-1.0","subject_id":"60042af01e4c4b52c5ee0c01","study_id":"6197b3f67c2b5cd3b6d9596a","session_id":"6197b88befc16f34c4911fb3","condition":"full-information","relevant_dimensions":["antennae","legs"],"bee_group":{"antennae":"A","wings":"X","pattern":"X","legs":"M"},"bonus":1.3200000000000014},{"rt":2313,"stimulus":"Welcome! Press any key to begin.","response":" ","trial_type":"html-keyboard-response","trial_index":2,"time_elapsed":89293,"internal_node_id":"0.0-2.0","subject_id":"60042af01e4c4b52c5ee0c01","study_id":"6197b3f67c2b5cd3b6d9596a","session_id":"6197b88befc16f34c4911fb3","condition":"full-information","relevant_dimensions":["antennae","legs"],"bee_group":{"antennae":"A","wings":"X","pattern":"X","legs":"M"},"bonus":1.3200000000000014},{"view_history":[{"page_index":0,"viewing_time":6203},{"page_index":1,"viewing_time":15196},{"page_index":2,"viewing_time":23856},{"page_index":3,"viewing_time":12889},{"page_index":4,"viewing_time":7621},{"page_index":5,"viewing_time":10863},{"page_index":6,"viewing_time":11226},{"page_index":7,"viewing_time":3961},{"page_index":6,"viewing_time":30538},{"page_index":7,"viewing_time":8494},{"page_index":8,"viewing_time":12126},{"page_index":7,"viewing_time":1199},{"page_index":8,"viewing_time":6384},{"page_index":9,"viewing_time":10073},{"page_index":10,"viewing_time":12509},{"page_index":11,"viewing_time":13265},{"page_index":12,"viewing_time":39079},{"page_index":13,"viewing_time":1543},{"page_index":14,"viewing_time":2003}],"rt":229028,"trial_type":"instructions","trial_index":3,"time_elapsed":318328,"internal_node_id":"0.0-3.0-0.0","subject_id":"60042af01e4c4b52c5ee0c01","study_id":"6197b3f67c2b5cd3b6d9596a","session_id":"6197b88befc16f34c4911fb3","condition":"full-information","relevant_dimensions":["antennae","legs"],"bee_group":{"antennae":"A","wings":"X","pattern":"X","legs":"M"},"bonus":1.3200000000000014},{"rt":24643,"response":{"Q0":["Two or six legs","Stripes or spots on body","Single or double wings","Antennae or no antennae"]},"question_order":[0],"trial_type":"survey-multi-select","trial_index":4,"time_elapsed":342978,"internal_node_id":"0.0-3.0-1.0","subject_id":"60042af01e4c4b52c5ee0c01","study_id":"6197b3f67c2b5cd3b6d9596a","session_id":"6197b88befc16f34c4911fb3","condition":"full-information","relevant_dimensions":["antennae","legs"],"bee_group":{"antennae":"A","wings":"X","pattern":"X","legs":"M"},"correct":true,"bonus":1.3200000000000014},{"rt":23070,"response":{"Q1":"No.","Q2":"Based on the four features of the bee.","Q3":"You learn if it was friendly or dangerous, but do not alter your bonus."},"question_order":[0,1,2],"trial_type":"survey-multi-choice","trial_index":5,"time_elapsed":366057,"internal_node_id":"0.0-3.0-2.0","subject_id":"60042af01e4c4b52c5ee0c01","study_id":"6197b3f67c2b5cd3b6d9596a","session_id":"6197b88befc16f34c4911fb3","condition":"full-information","relevant_dimensions":["antennae","legs"],"bee_group":{"antennae":"A","wings":"X","pattern":"X","legs":"M"},"correct":true,"bonus":1.3200000000000014},{"rt":2925,"stimulus":"<p>Congrats, you got everything right<br>When you're ready, click the button below to continue to the experiment.</p>","response":0,"trial_type":"html-button-response","trial_index":6,"time_elapsed":368986,"internal_node_id":"0.0-3.0-3.0","subject_id":"60042af01e4c4b52c5ee0c01","study_id":"6197b3f67c2b5cd3b6d9596a","session_id":"6197b88befc16f34c4911fb3","condition":"full-information","relevant_dimensions":["antennae","legs"],"bee_group":{"antennae":"A","wings":"X","pattern":"X","legs":"M"},"bonus":1.3200000000000014},{"rt":5794,"stimulus":"bees-with-color/bee-B1SF.svg","response":0,"trial_type":"image-button-response","trial_index":7,"time_elapsed":374784,"internal_node_id":"0.0-4.0-0.0","subject_id":"60042af01e4c4b52c5ee0c01","study_id":"6197b3f67c2b5cd3b6d9596a","session_id":"6197b88befc16f34c4911fb3","condition":"full-information","relevant_dimensions":["antennae","legs"],"bee_group":{"antennae":"A","wings":"X","pattern":"X","legs":"M"},"action":"harvest","summary":"good-harvest","bonus":1.3200000000000014},{"rt":17894,"stimulus":"\n                    <p><b>Action: <em>harvest</em></b></p>\n                    <p>This is the bee that you just saw.</p>\n                    <img src=\"bees-with-color/bee-B1SF.svg\" width=\"200\">\n                    <p><span class=\"greenText\"><b>Successful harvest!</b></span><br>Your pay has increased by $0.02. Your bonus pay is now $0.56.</p>\n            ","response":0,"trial_type":"html-button-response","trial_index":8,"time_elapsed":392689,"internal_node_id":"0.0-4.0-1.0","subject_id":"60042af01e4c4b52c5ee0c01","study_id":"6197b3f67c2b5cd3b6d9596a","session_id":"6197b88befc16f34c4911fb3","condition":"full-information","relevant_dimensions":["antennae","legs"],"bee_group":{"antennae":"A","wings":"X","pattern":"X","legs":"M"},"bonus":1.3200000000000014},{"rt":2573.999999999942,"stimulus":"bees-with-color/bee-B2SF.svg","response":0,"trial_type":"image-button-response","trial_index":9,"time_elapsed":395271,"internal_node_id":"0.0-4.0-0.1","subject_id":"60042af01e4c4b52c5ee0c01","study_id":"6197b3f67c2b5cd3b6d9596a","session_id":"6197b88befc16f34c4911fb3","condition":"full-information","relevant_dimensions":["antennae","legs"],"bee_group":{"antennae":"A","wings":"X","pattern":"X","legs":"M"},"action":"harvest","summary":"good-harvest","bonus":1.3200000000000014},{"rt":10276,"stimulus":"\n                    <p><b>Action: <em>harvest</em></b></p>\n                    <p>This is the bee that you just saw.</p>\n                    <img src=\"bees-with-color/bee-B2SF.svg\" width=\"200\">\n                    <p><span class=\"greenText\"><b>Successful harvest!</b></span><br>Your pay has increased by $0.02. Your bonus pay is now $0.58.</p>\n            ","response":0,"trial_type":"html-button-response","trial_index":10,"time_elapsed":405549,"internal_node_id":"0.0-4.0-1.1","subject_id":"60042af01e4c4b52c5ee0c01","study_id":"6197b3f67c2b5cd3b6d9596a","session_id":"6197b88befc16f34c4911fb3","condition":"full-information","relevant_dimensions":["antennae","legs"],"bee_group":{"antennae":"A","wings":"X","pattern":"X","legs":"M"},"bonus":1.3200000000000014},{"rt":2941,"stimulus":"bees-with-color/bee-A1SM.svg","response":1,"trial_type":"image-button-response","trial_index":11,"time_elapsed":408492,"internal_node_id":"0.0-4.0-0.2","subject_id":"60042af01e4c4b52c5ee0c01","study_id":"6197b3f67c2b5cd3b6d9596a","session_id":"6197b88befc16f34c4911fb3","condition":"full-information","relevant_dimensions":["antennae","legs"],"bee_group":{"antennae":"A","wings":"X","pattern":"X","legs":"M"},"action":"avoid","summary":"good-avoid","bonus":1.3200000000000014},{"rt":16714,"stimulus":"\n                    <p><b>Action: <em>avoid</em></b></p>\n                    <p>This is the bee that you just saw.</p>\n                    <img src=\"bees-with-color/bee-A1SM.svg\" width=\"200\">\n                    <p><span class=\"greenText\">Good choice!</span>  This bee would have stung you.<br>Your bonus pay is unchanged, and remains at $0.58.</p>\n            ","response":0,"trial_type":"html-button-response","trial_index":12,"time_elapsed":425208,"internal_node_id":"0.0-4.0-1.2","subject_id":"60042af01e4c4b52c5ee0c01","study_id":"6197b3f67c2b5cd3b6d9596a","session_id":"6197b88befc16f34c4911fb3","condition":"full-information","relevant_dimensions":["antennae","legs"],"bee_group":{"antennae":"A","wings":"X","pattern":"X","legs":"M"},"bonus":1.3200000000000014},{"rt":2619.000000000058,"stimulus":"bees-with-color/bee-A1SF.svg","response":0,"trial_type":"image-button-response","trial_index":13,"time_elapsed":427829,"internal_node_id":"0.0-4.0-0.3","subject_id":"60042af01e4c4b52c5ee0c01","study_id":"6197b3f67c2b5cd3b6d9596a","session_id":"6197b88befc16f34c4911fb3","condition":"full-information","relevant_dimensions":["antennae","legs"],"bee_group":{"antennae":"A","wings":"X","pattern":"X","legs":"M"},"action":"harvest","summary":"good-harvest","bonus":1.3200000000000014},{"rt":2620,"stimulus":"\n                    <p><b>Action: <em>harvest</em></b></p>\n                    <p>This is the bee that you just saw.</p>\n                    <img src=\"bees-with-color/bee-A1SF.svg\" width=\"200\">\n                    <p><span class=\"greenText\"><b>Successful harvest!</b></span><br>Your pay has increased by $0.02. Your bonus pay is now $0.60.</p>\n            ","response":0,"trial_type":"html-button-response","trial_index":14,"time_elapsed":430451,"internal_node_id":"0.0-4.0-1.3","subject_id":"60042af01e4c4b52c5ee0c01","study_id":"6197b3f67c2b5cd3b6d9596a","session_id":"6197b88befc16f34c4911fb3","condition":"full-information","relevant_dimensions":["antennae","legs"],"bee_group":{"antennae":"A","wings":"X","pattern":"X","legs":"M"},"bonus":1.3200000000000014},{"rt":3350,"stimulus":"bees-with-color/bee-B2SM.svg","response":1,"trial_type":"image-button-response","trial_index":15,"time_elapsed":433803,"internal_node_id":"0.0-4.0-0.4","subject_id":"60042af01e4c4b52c5ee0c01","study_id":"6197b3f67c2b5cd3b6d9596a","session_id":"6197b88befc16f34c4911fb3","condition":"full-information","relevant_dimensions":["antennae","legs"],"bee_group":{"antennae":"A","wings":"X","pattern":"X","legs":"M"},"action":"avoid","summary":"bad-avoid","bonus":1.3200000000000014},{"rt":17464,"stimulus":"\n                    <p><b>Action: <em>avoid</em></b></p>\n                    <p>This is the bee that you just saw.</p>\n                    <img src=\"bees-with-color/bee-B2SM.svg\" width=\"200\">\n                    <p><span class=\"redText\">Bad choice,</span> the bee was friendly.<br>Your bonus pay is unchanged, and remains at $0.60.</p>\n            ","response":0,"trial_type":"html-button-response","trial_index":16,"time_elapsed":451269,"internal_node_id":"0.0-4.0-1.4","subject_id":"60042af01e4c4b52c5ee0c01","study_id":"6197b3f67c2b5cd3b6d9596a","session_id":"6197b88befc16f34c4911fb3","condition":"full-information","relevant_dimensions":["antennae","legs"],"bee_group":{"antennae":"A","wings":"X","pattern":"X","legs":"M"},"bonus":1.3200000000000014},{"rt":1937,"stimulus":"bees-with-color/bee-B1DM.svg","response":1,"trial_type":"image-button-response","trial_index":17,"time_elapsed":453208,"internal_node_id":"0.0-4.0-0.5","subject_id":"60042af01e4c4b52c5ee0c01","study_id":"6197b3f67c2b5cd3b6d9596a","session_id":"6197b88befc16f34c4911fb3","condition":"full-information","relevant_dimensions":["antennae","legs"],"bee_group":{"antennae":"A","wings":"X","pattern":"X","legs":"M"},"action":"avoid","summary":"bad-avoid","bonus":1.3200000000000014},{"rt":23635.99999999994,"stimulus":"\n                    <p><b>Action: <em>avoid</em></b></p>\n                    <p>This is the bee that you just saw.</p>\n                    <img src=\"bees-with-color/bee-B1DM.svg\" width=\"200\">\n                    <p><span class=\"redText\">Bad choice,</span> the bee was friendly.<br>Your bonus pay is unchanged, and remains at $0.60.</p>\n            ","response":0,"trial_type":"html-button-response","trial_index":18,"time_elapsed":476846,"internal_node_id":"0.0-4.0-1.5","subject_id":"60042af01e4c4b52c5ee0c01","study_id":"6197b3f67c2b5cd3b6d9596a","session_id":"6197b88befc16f34c4911fb3","condition":"full-information","relevant_dimensions":["antennae","legs"],"bee_group":{"antennae":"A","wings":"X","pattern":"X","legs":"M"},"bonus":1.3200000000000014},{"rt":1720.0000000000582,"stimulus":"bees-with-color/bee-A1DM.svg","response":1,"trial_type":"image-button-response","trial_index":19,"time_elapsed":478568,"internal_node_id":"0.0-4.0-0.6","subject_id":"60042af01e4c4b52c5ee0c01","study_id":"6197b3f67c2b5cd3b6d9596a","session_id":"6197b88befc16f34c4911fb3","condition":"full-information","relevant_dimensions":["antennae","legs"],"bee_group":{"antennae":"A","wings":"X","pattern":"X","legs":"M"},"action":"avoid","summary":"good-avoid","bonus":1.3200000000000014},{"rt":15294,"stimulus":"\n                    <p><b>Action: <em>avoid</em></b></p>\n                    <p>This is the bee that you just saw.</p>\n                    <img src=\"bees-with-color/bee-A1DM.svg\" width=\"200\">\n                    <p><span class=\"greenText\">Good choice!</span>  This bee would have stung you.<br>Your bonus pay is unchanged, and remains at $0.60.</p>\n            ","response":0,"trial_type":"html-button-response","trial_index":20,"time_elapsed":493864,"internal_node_id":"0.0-4.0-1.6","subject_id":"60042af01e4c4b52c5ee0c01","study_id":"6197b3f67c2b5cd3b6d9596a","session_id":"6197b88befc16f34c4911fb3","condition":"full-information","relevant_dimensions":["antennae","legs"],"bee_group":{"antennae":"A","wings":"X","pattern":"X","legs":"M"},"bonus":1.3200000000000014},{"rt":2048,"stimulus":"bees-with-color/bee-B1DF.svg","response":0,"trial_type":"image-button-response","trial_index":21,"time_elapsed":495914,"internal_node_id":"0.0-4.0-0.7","subject_id":"60042af01e4c4b52c5ee0c01","study_id":"6197b3f67c2b5cd3b6d9596a","session_id":"6197b88befc16f34c4911fb3","condition":"full-information","relevant_dimensions":["antennae","legs"],"bee_group":{"antennae":"A","wings":"X","pattern":"X","legs":"M"},"action":"harvest","summary":"good-harvest","bonus":1.3200000000000014},{"rt":1614,"stimulus":"\n                    <p><b>Action: <em>harvest</em></b></p>\n                    <p>This is the bee that you just saw.</p>\n                    <img src=\"bees-with-color/bee-B1DF.svg\" width=\"200\">\n                    <p><span class=\"greenText\"><b>Successful harvest!</b></span><br>Your pay has increased by $0.02. Your bonus pay is now $0.62.</p>\n            ","response":0,"trial_type":"html-button-response","trial_index":22,"time_elapsed":497530,"internal_node_id":"0.0-4.0-1.7","subject_id":"60042af01e4c4b52c5ee0c01","study_id":"6197b3f67c2b5cd3b6d9596a","session_id":"6197b88befc16f34c4911fb3","condition":"full-information","relevant_dimensions":["antennae","legs"],"bee_group":{"antennae":"A","wings":"X","pattern":"X","legs":"M"},"bonus":1.3200000000000014},{"rt":1671,"stimulus":"bees-with-color/bee-A2DM.svg","response":1,"trial_type":"image-button-response","trial_index":23,"time_elapsed":499203,"internal_node_id":"0.0-4.0-0.8","subject_id":"60042af01e4c4b52c5ee0c01","study_id":"6197b3f67c2b5cd3b6d9596a","session_id":"6197b88befc16f34c4911fb3","condition":"full-information","relevant_dimensions":["antennae","legs"],"bee_group":{"antennae":"A","wings":"X","pattern":"X","legs":"M"},"action":"avoid","summary":"good-avoid","bonus":1.3200000000000014},{"rt":1301,"stimulus":"\n                    <p><b>Action: <em>avoid</em></b></p>\n                    <p>This is the bee that you just saw.</p>\n                    <img src=\"bees-with-color/bee-A2DM.svg\" width=\"200\">\n                    <p><span class=\"greenText\">Good choice!</span>  This bee would have stung you.<br>Your bonus pay is unchanged, and remains at $0.62.</p>\n            ","response":0,"trial_type":"html-button-response","trial_index":24,"time_elapsed":500506,"internal_node_id":"0.0-4.0-1.8","subject_id":"60042af01e4c4b52c5ee0c01","study_id":"6197b3f67c2b5cd3b6d9596a","session_id":"6197b88befc16f34c4911fb3","condition":"full-information","relevant_dimensions":["antennae","legs"],"bee_group":{"antennae":"A","wings":"X","pattern":"X","legs":"M"},"bonus":1.3200000000000014},{"rt":2499,"stimulus":"bees-with-color/bee-B2DM.svg","response":0,"trial_type":"image-button-response","trial_index":25,"time_elapsed":503007,"internal_node_id":"0.0-4.0-0.9","subject_id":"60042af01e4c4b52c5ee0c01","study_id":"6197b3f67c2b5cd3b6d9596a","session_id":"6197b88befc16f34c4911fb3","condition":"full-information","relevant_dimensions":["antennae","legs"],"bee_group":{"antennae":"A","wings":"X","pattern":"X","legs":"M"},"action":"harvest","summary":"good-harvest","bonus":1.3200000000000014},{"rt":1090.9999999999418,"stimulus":"\n                    <p><b>Action: <em>harvest</em></b></p>\n                    <p>This is the bee that you just saw.</p>\n                    <img src=\"bees-with-color/bee-B2DM.svg\" width=\"200\">\n                    <p><span class=\"greenText\"><b>Successful harvest!</b></span><br>Your pay has increased by $0.02. Your bonus pay is now $0.64.</p>\n            ","response":0,"trial_type":"html-button-response","trial_index":26,"time_elapsed":504100,"internal_node_id":"0.0-4.0-1.9","subject_id":"60042af01e4c4b52c5ee0c01","study_id":"6197b3f67c2b5cd3b6d9596a","session_id":"6197b88befc16f34c4911fb3","condition":"full-information","relevant_dimensions":["antennae","legs"],"bee_group":{"antennae":"A","wings":"X","pattern":"X","legs":"M"},"bonus":1.3200000000000014},{"rt":8280.999999999942,"stimulus":"bees-with-color/bee-B1SM.svg","response":0,"trial_type":"image-button-response","trial_index":27,"time_elapsed":512383,"internal_node_id":"0.0-4.0-0.10","subject_id":"60042af01e4c4b52c5ee0c01","study_id":"6197b3f67c2b5cd3b6d9596a","session_id":"6197b88befc16f34c4911fb3","condition":"full-information","relevant_dimensions":["antennae","legs"],"bee_group":{"antennae":"A","wings":"X","pattern":"X","legs":"M"},"action":"harvest","summary":"good-harvest","bonus":1.3200000000000014},{"rt":920.9999999999418,"stimulus":"\n                    <p><b>Action: <em>harvest</em></b></p>\n                    <p>This is the bee that you just saw.</p>\n                    <img src=\"bees-with-color/bee-B1SM.svg\" width=\"200\">\n                    <p><span class=\"greenText\"><b>Successful harvest!</b></span><br>Your pay has increased by $0.02. Your bonus pay is now $0.66.</p>\n            ","response":0,"trial_type":"html-button-response","trial_index":28,"time_elapsed":513306,"internal_node_id":"0.0-4.0-1.10","subject_id":"60042af01e4c4b52c5ee0c01","study_id":"6197b3f67c2b5cd3b6d9596a","session_id":"6197b88befc16f34c4911fb3","condition":"full-information","relevant_dimensions":["antennae","legs"],"bee_group":{"antennae":"A","wings":"X","pattern":"X","legs":"M"},"bonus":1.3200000000000014},{"rt":1745,"stimulus":"bees-with-color/bee-A2DF.svg","response":0,"trial_type":"image-button-response","trial_index":29,"time_elapsed":515053,"internal_node_id":"0.0-4.0-0.11","subject_id":"60042af01e4c4b52c5ee0c01","study_id":"6197b3f67c2b5cd3b6d9596a","session_id":"6197b88befc16f34c4911fb3","condition":"full-information","relevant_dimensions":["antennae","legs"],"bee_group":{"antennae":"A","wings":"X","pattern":"X","legs":"M"},"action":"harvest","summary":"good-harvest","bonus":1.3200000000000014},{"rt":858,"stimulus":"\n                    <p><b>Action: <em>harvest</em></b></p>\n                    <p>This is the bee that you just saw.</p>\n                    <img src=\"bees-with-color/bee-A2DF.svg\" width=\"200\">\n                    <p><span class=\"greenText\"><b>Successful harvest!</b></span><br>Your pay has increased by $0.02. Your bonus pay is now $0.68.</p>\n            ","response":0,"trial_type":"html-button-response","trial_index":30,"time_elapsed":515913,"internal_node_id":"0.0-4.0-1.11","subject_id":"60042af01e4c4b52c5ee0c01","study_id":"6197b3f67c2b5cd3b6d9596a","session_id":"6197b88befc16f34c4911fb3","condition":"full-information","relevant_dimensions":["antennae","legs"],"bee_group":{"antennae":"A","wings":"X","pattern":"X","legs":"M"},"bonus":1.3200000000000014},{"rt":20691.99999999994,"stimulus":"bees-with-color/bee-A2SM.svg","response":0,"trial_type":"image-button-response","trial_index":31,"time_elapsed":536608,"internal_node_id":"0.0-4.0-0.12","subject_id":"60042af01e4c4b52c5ee0c01","study_id":"6197b3f67c2b5cd3b6d9596a","session_id":"6197b88befc16f34c4911fb3","condition":"full-information","relevant_dimensions":["antennae","legs"],"bee_group":{"antennae":"A","wings":"X","pattern":"X","legs":"M"},"action":"harvest","summary":"bad-harvest","bonus":1.3200000000000014},{"rt":13648,"stimulus":"\n                    <p><b>Action: <em>harvest</em></b></p>\n                    <p>This is the bee that you just saw.</p>\n                    <img src=\"bees-with-color/bee-A2SM.svg\" width=\"200\">\n                    <p><span class=\"redText\">Bad choice, the bee was angry.</span><br><b>You have been stung!</b><br>Your pay has been decreased by $0.10. Your bonus pay is now $0.58.</p>\n            ","response":0,"trial_type":"html-button-response","trial_index":32,"time_elapsed":550258,"internal_node_id":"0.0-4.0-1.12","subject_id":"60042af01e4c4b52c5ee0c01","study_id":"6197b3f67c2b5cd3b6d9596a","session_id":"6197b88befc16f34c4911fb3","condition":"full-information","relevant_dimensions":["antennae","legs"],"bee_group":{"antennae":"A","wings":"X","pattern":"X","legs":"M"},"bonus":1.3200000000000014},{"rt":1470,"stimulus":"bees-with-color/bee-A1DF.svg","response":0,"trial_type":"image-button-response","trial_index":33,"time_elapsed":551730,"internal_node_id":"0.0-4.0-0.13","subject_id":"60042af01e4c4b52c5ee0c01","study_id":"6197b3f67c2b5cd3b6d9596a","session_id":"6197b88befc16f34c4911fb3","condition":"full-information","relevant_dimensions":["antennae","legs"],"bee_group":{"antennae":"A","wings":"X","pattern":"X","legs":"M"},"action":"harvest","summary":"good-harvest","bonus":1.3200000000000014},{"rt":889,"stimulus":"\n                    <p><b>Action: <em>harvest</em></b></p>\n                    <p>This is the bee that you just saw.</p>\n                    <img src=\"bees-with-color/bee-A1DF.svg\" width=\"200\">\n                    <p><span class=\"greenText\"><b>Successful harvest!</b></span><br>Your pay has increased by $0.02. Your bonus pay is now $0.60.</p>\n            ","response":0,"trial_type":"html-button-response","trial_index":34,"time_elapsed":552621,"internal_node_id":"0.0-4.0-1.13","subject_id":"60042af01e4c4b52c5ee0c01","study_id":"6197b3f67c2b5cd3b6d9596a","session_id":"6197b88befc16f34c4911fb3","condition":"full-information","relevant_dimensions":["antennae","legs"],"bee_group":{"antennae":"A","wings":"X","pattern":"X","legs":"M"},"bonus":1.3200000000000014},{"rt":1455,"stimulus":"bees-with-color/bee-A2SF.svg","response":0,"trial_type":"image-button-response","trial_index":35,"time_elapsed":554077,"internal_node_id":"0.0-4.0-0.14","subject_id":"60042af01e4c4b52c5ee0c01","study_id":"6197b3f67c2b5cd3b6d9596a","session_id":"6197b88befc16f34c4911fb3","condition":"full-information","relevant_dimensions":["antennae","legs"],"bee_group":{"antennae":"A","wings":"X","pattern":"X","legs":"M"},"action":"harvest","summary":"good-harvest","bonus":1.3200000000000014},{"rt":842,"stimulus":"\n                    <p><b>Action: <em>harvest</em></b></p>\n                    <p>This is the bee that you just saw.</p>\n                    <img src=\"bees-with-color/bee-A2SF.svg\" width=\"200\">\n                    <p><span class=\"greenText\"><b>Successful harvest!</b></span><br>Your pay has increased by $0.02. Your bonus pay is now $0.62.</p>\n            ","response":0,"trial_type":"html-button-response","trial_index":36,"time_elapsed":554921,"internal_node_id":"0.0-4.0-1.14","subject_id":"60042af01e4c4b52c5ee0c01","study_id":"6197b3f67c2b5cd3b6d9596a","session_id":"6197b88befc16f34c4911fb3","condition":"full-information","relevant_dimensions":["antennae","legs"],"bee_group":{"antennae":"A","wings":"X","pattern":"X","legs":"M"},"bonus":1.3200000000000014},{"rt":2177,"stimulus":"bees-with-color/bee-B2DF.svg","response":0,"trial_type":"image-button-response","trial_index":37,"time_elapsed":557100,"internal_node_id":"0.0-4.0-0.15","subject_id":"60042af01e4c4b52c5ee0c01","study_id":"6197b3f67c2b5cd3b6d9596a","session_id":"6197b88befc16f34c4911fb3","condition":"full-information","relevant_dimensions":["antennae","legs"],"bee_group":{"antennae":"A","wings":"X","pattern":"X","legs":"M"},"action":"harvest","summary":"good-harvest","bonus":1.3200000000000014},{"rt":891,"stimulus":"\n                    <p><b>Action: <em>harvest</em></b></p>\n                    <p>This is the bee that you just saw.</p>\n                    <img src=\"bees-with-color/bee-B2DF.svg\" width=\"200\">\n                    <p><span class=\"greenText\"><b>Successful harvest!</b></span><br>Your pay has increased by $0.02. Your bonus pay is now $0.64.</p>\n            ","response":0,"trial_type":"html-button-response","trial_index":38,"time_elapsed":557993,"internal_node_id":"0.0-4.0-1.15","subject_id":"60042af01e4c4b52c5ee0c01","study_id":"6197b3f67c2b5cd3b6d9596a","session_id":"6197b88befc16f34c4911fb3","condition":"full-information","relevant_dimensions":["antennae","legs"],"bee_group":{"antennae":"A","wings":"X","pattern":"X","legs":"M"},"bonus":1.3200000000000014},{"rt":1486,"stimulus":"bees-with-color/bee-A1DF.svg","response":0,"trial_type":"image-button-response","trial_index":39,"time_elapsed":559481,"internal_node_id":"0.0-4.0-0.16","subject_id":"60042af01e4c4b52c5ee0c01","study_id":"6197b3f67c2b5cd3b6d9596a","session_id":"6197b88befc16f34c4911fb3","condition":"full-information","relevant_dimensions":["antennae","legs"],"bee_group":{"antennae":"A","wings":"X","pattern":"X","legs":"M"},"action":"harvest","summary":"good-harvest","bonus":1.3200000000000014},{"rt":810,"stimulus":"\n                    <p><b>Action: <em>harvest</em></b></p>\n                    <p>This is the bee that you just saw.</p>\n                    <img src=\"bees-with-color/bee-A1DF.svg\" width=\"200\">\n                    <p><span class=\"greenText\"><b>Successful harvest!</b></span><br>Your pay has increased by $0.02. Your bonus pay is now $0.66.</p>\n            ","response":0,"trial_type":"html-button-response","trial_index":40,"time_elapsed":560293,"internal_node_id":"0.0-4.0-1.16","subject_id":"60042af01e4c4b52c5ee0c01","study_id":"6197b3f67c2b5cd3b6d9596a","session_id":"6197b88befc16f34c4911fb3","condition":"full-information","relevant_dimensions":["antennae","legs"],"bee_group":{"antennae":"A","wings":"X","pattern":"X","legs":"M"},"bonus":1.3200000000000014},{"rt":13642,"stimulus":"bees-with-color/bee-B2SM.svg","response":0,"trial_type":"image-button-response","trial_index":41,"time_elapsed":573936,"internal_node_id":"0.0-4.0-0.17","subject_id":"60042af01e4c4b52c5ee0c01","study_id":"6197b3f67c2b5cd3b6d9596a","session_id":"6197b88befc16f34c4911fb3","condition":"full-information","relevant_dimensions":["antennae","legs"],"bee_group":{"antennae":"A","wings":"X","pattern":"X","legs":"M"},"action":"harvest","summary":"good-harvest","bonus":1.3200000000000014},{"rt":809,"stimulus":"\n                    <p><b>Action: <em>harvest</em></b></p>\n                    <p>This is the bee that you just saw.</p>\n                    <img src=\"bees-with-color/bee-B2SM.svg\" width=\"200\">\n                    <p><span class=\"greenText\"><b>Successful harvest!</b></span><br>Your pay has increased by $0.02. Your bonus pay is now $0.68.</p>\n            ","response":0,"trial_type":"html-button-response","trial_index":42,"time_elapsed":574748,"internal_node_id":"0.0-4.0-1.17","subject_id":"60042af01e4c4b52c5ee0c01","study_id":"6197b3f67c2b5cd3b6d9596a","session_id":"6197b88befc16f34c4911fb3","condition":"full-information","relevant_dimensions":["antennae","legs"],"bee_group":{"antennae":"A","wings":"X","pattern":"X","legs":"M"},"bonus":1.3200000000000014},{"rt":1769,"stimulus":"bees-with-color/bee-B1SF.svg","response":0,"trial_type":"image-button-response","trial_index":43,"time_elapsed":576518,"internal_node_id":"0.0-4.0-0.18","subject_id":"60042af01e4c4b52c5ee0c01","study_id":"6197b3f67c2b5cd3b6d9596a","session_id":"6197b88befc16f34c4911fb3","condition":"full-information","relevant_dimensions":["antennae","legs"],"bee_group":{"antennae":"A","wings":"X","pattern":"X","legs":"M"},"action":"harvest","summary":"good-harvest","bonus":1.3200000000000014},{"rt":882,"stimulus":"\n                    <p><b>Action: <em>harvest</em></b></p>\n                    <p>This is the bee that you just saw.</p>\n                    <img src=\"bees-with-color/bee-B1SF.svg\" width=\"200\">\n                    <p><span class=\"greenText\"><b>Successful harvest!</b></span><br>Your pay has increased by $0.02. Your bonus pay is now $0.70.</p>\n            ","response":0,"trial_type":"html-button-response","trial_index":44,"time_elapsed":577403,"internal_node_id":"0.0-4.0-1.18","subject_id":"60042af01e4c4b52c5ee0c01","study_id":"6197b3f67c2b5cd3b6d9596a","session_id":"6197b88befc16f34c4911fb3","condition":"full-information","relevant_dimensions":["antennae","legs"],"bee_group":{"antennae":"A","wings":"X","pattern":"X","legs":"M"},"bonus":1.3200000000000014},{"rt":10501,"stimulus":"bees-with-color/bee-A2SM.svg","response":1,"trial_type":"image-button-response","trial_index":45,"time_elapsed":587905,"internal_node_id":"0.0-4.0-0.19","subject_id":"60042af01e4c4b52c5ee0c01","study_id":"6197b3f67c2b5cd3b6d9596a","session_id":"6197b88befc16f34c4911fb3","condition":"full-information","relevant_dimensions":["antennae","legs"],"bee_group":{"antennae":"A","wings":"X","pattern":"X","legs":"M"},"action":"avoid","summary":"good-avoid","bonus":1.3200000000000014},{"rt":1373,"stimulus":"\n                    <p><b>Action: <em>avoid</em></b></p>\n                    <p>This is the bee that you just saw.</p>\n                    <img src=\"bees-with-color/bee-A2SM.svg\" width=\"200\">\n                    <p><span class=\"greenText\">Good choice!</span>  This bee would have stung you.<br>Your bonus pay is unchanged, and remains at $0.70.</p>\n            ","response":0,"trial_type":"html-button-response","trial_index":46,"time_elapsed":589280,"internal_node_id":"0.0-4.0-1.19","subject_id":"60042af01e4c4b52c5ee0c01","study_id":"6197b3f67c2b5cd3b6d9596a","session_id":"6197b88befc16f34c4911fb3","condition":"full-information","relevant_dimensions":["antennae","legs"],"bee_group":{"antennae":"A","wings":"X","pattern":"X","legs":"M"},"bonus":1.3200000000000014},{"rt":4590,"stimulus":"bees-with-color/bee-B2DM.svg","response":0,"trial_type":"image-button-response","trial_index":47,"time_elapsed":593872,"internal_node_id":"0.0-4.0-0.20","subject_id":"60042af01e4c4b52c5ee0c01","study_id":"6197b3f67c2b5cd3b6d9596a","session_id":"6197b88befc16f34c4911fb3","condition":"full-information","relevant_dimensions":["antennae","legs"],"bee_group":{"antennae":"A","wings":"X","pattern":"X","legs":"M"},"action":"harvest","summary":"good-harvest","bonus":1.3200000000000014},{"rt":1140,"stimulus":"\n                    <p><b>Action: <em>harvest</em></b></p>\n                    <p>This is the bee that you just saw.</p>\n                    <img src=\"bees-with-color/bee-B2DM.svg\" width=\"200\">\n                    <p><span class=\"greenText\"><b>Successful harvest!</b></span><br>Your pay has increased by $0.02. Your bonus pay is now $0.72.</p>\n            ","response":0,"trial_type":"html-button-response","trial_index":48,"time_elapsed":595014,"internal_node_id":"0.0-4.0-1.20","subject_id":"60042af01e4c4b52c5ee0c01","study_id":"6197b3f67c2b5cd3b6d9596a","session_id":"6197b88befc16f34c4911fb3","condition":"full-information","relevant_dimensions":["antennae","legs"],"bee_group":{"antennae":"A","wings":"X","pattern":"X","legs":"M"},"bonus":1.3200000000000014},{"rt":5748,"stimulus":"bees-with-color/bee-A2DM.svg","response":0,"trial_type":"image-button-response","trial_index":49,"time_elapsed":600764,"internal_node_id":"0.0-4.0-0.21","subject_id":"60042af01e4c4b52c5ee0c01","study_id":"6197b3f67c2b5cd3b6d9596a","session_id":"6197b88befc16f34c4911fb3","condition":"full-information","relevant_dimensions":["antennae","legs"],"bee_group":{"antennae":"A","wings":"X","pattern":"X","legs":"M"},"action":"harvest","summary":"bad-harvest","bonus":1.3200000000000014},{"rt":17050.000000000116,"stimulus":"\n                    <p><b>Action: <em>harvest</em></b></p>\n                    <p>This is the bee that you just saw.</p>\n                    <img src=\"bees-with-color/bee-A2DM.svg\" width=\"200\">\n                    <p><span class=\"redText\">Bad choice, the bee was angry.</span><br><b>You have been stung!</b><br>Your pay has been decreased by $0.10. Your bonus pay is now $0.62.</p>\n            ","response":0,"trial_type":"html-button-response","trial_index":50,"time_elapsed":617816,"internal_node_id":"0.0-4.0-1.21","subject_id":"60042af01e4c4b52c5ee0c01","study_id":"6197b3f67c2b5cd3b6d9596a","session_id":"6197b88befc16f34c4911fb3","condition":"full-information","relevant_dimensions":["antennae","legs"],"bee_group":{"antennae":"A","wings":"X","pattern":"X","legs":"M"},"bonus":1.3200000000000014},{"rt":1076,"stimulus":"bees-with-color/bee-B2DF.svg","response":0,"trial_type":"image-button-response","trial_index":51,"time_elapsed":618894,"internal_node_id":"0.0-4.0-0.22","subject_id":"60042af01e4c4b52c5ee0c01","study_id":"6197b3f67c2b5cd3b6d9596a","session_id":"6197b88befc16f34c4911fb3","condition":"full-information","relevant_dimensions":["antennae","legs"],"bee_group":{"antennae":"A","wings":"X","pattern":"X","legs":"M"},"action":"harvest","summary":"good-harvest","bonus":1.3200000000000014},{"rt":890,"stimulus":"\n                    <p><b>Action: <em>harvest</em></b></p>\n                    <p>This is the bee that you just saw.</p>\n                    <img src=\"bees-with-color/bee-B2DF.svg\" width=\"200\">\n                    <p><span class=\"greenText\"><b>Successful harvest!</b></span><br>Your pay has increased by $0.02. Your bonus pay is now $0.64.</p>\n            ","response":0,"trial_type":"html-button-response","trial_index":52,"time_elapsed":619785,"internal_node_id":"0.0-4.0-1.22","subject_id":"60042af01e4c4b52c5ee0c01","study_id":"6197b3f67c2b5cd3b6d9596a","session_id":"6197b88befc16f34c4911fb3","condition":"full-information","relevant_dimensions":["antennae","legs"],"bee_group":{"antennae":"A","wings":"X","pattern":"X","legs":"M"},"bonus":1.3200000000000014},{"rt":1285,"stimulus":"bees-with-color/bee-B2SF.svg","response":0,"trial_type":"image-button-response","trial_index":53,"time_elapsed":621072,"internal_node_id":"0.0-4.0-0.23","subject_id":"60042af01e4c4b52c5ee0c01","study_id":"6197b3f67c2b5cd3b6d9596a","session_id":"6197b88befc16f34c4911fb3","condition":"full-information","relevant_dimensions":["antennae","legs"],"bee_group":{"antennae":"A","wings":"X","pattern":"X","legs":"M"},"action":"harvest","summary":"good-harvest","bonus":1.3200000000000014},{"rt":760.0000000001164,"stimulus":"\n                    <p><b>Action: <em>harvest</em></b></p>\n                    <p>This is the bee that you just saw.</p>\n                    <img src=\"bees-with-color/bee-B2SF.svg\" width=\"200\">\n                    <p><span class=\"greenText\"><b>Successful harvest!</b></span><br>Your pay has increased by $0.02. Your bonus pay is now $0.66.</p>\n            ","response":0,"trial_type":"html-button-response","trial_index":54,"time_elapsed":621835,"internal_node_id":"0.0-4.0-1.23","subject_id":"60042af01e4c4b52c5ee0c01","study_id":"6197b3f67c2b5cd3b6d9596a","session_id":"6197b88befc16f34c4911fb3","condition":"full-information","relevant_dimensions":["antennae","legs"],"bee_group":{"antennae":"A","wings":"X","pattern":"X","legs":"M"},"bonus":1.3200000000000014},{"rt":1913,"stimulus":"bees-with-color/bee-A2SF.svg","response":0,"trial_type":"image-button-response","trial_index":55,"time_elapsed":623750,"internal_node_id":"0.0-4.0-0.24","subject_id":"60042af01e4c4b52c5ee0c01","study_id":"6197b3f67c2b5cd3b6d9596a","session_id":"6197b88befc16f34c4911fb3","condition":"full-information","relevant_dimensions":["antennae","legs"],"bee_group":{"antennae":"A","wings":"X","pattern":"X","legs":"M"},"action":"harvest","summary":"good-harvest","bonus":1.3200000000000014},{"rt":730,"stimulus":"\n                    <p><b>Action: <em>harvest</em></b></p>\n                    <p>This is the bee that you just saw.</p>\n                    <img src=\"bees-with-color/bee-A2SF.svg\" width=\"200\">\n                    <p><span class=\"greenText\"><b>Successful harvest!</b></span><br>Your pay has increased by $0.02. Your bonus pay is now $0.68.</p>\n            ","response":0,"trial_type":"html-button-response","trial_index":56,"time_elapsed":624481,"internal_node_id":"0.0-4.0-1.24","subject_id":"60042af01e4c4b52c5ee0c01","study_id":"6197b3f67c2b5cd3b6d9596a","session_id":"6197b88befc16f34c4911fb3","condition":"full-information","relevant_dimensions":["antennae","legs"],"bee_group":{"antennae":"A","wings":"X","pattern":"X","legs":"M"},"bonus":1.3200000000000014},{"rt":8779,"stimulus":"bees-with-color/bee-A1SM.svg","response":0,"trial_type":"image-button-response","trial_index":57,"time_elapsed":633262,"internal_node_id":"0.0-4.0-0.25","subject_id":"60042af01e4c4b52c5ee0c01","study_id":"6197b3f67c2b5cd3b6d9596a","session_id":"6197b88befc16f34c4911fb3","condition":"full-information","relevant_dimensions":["antennae","legs"],"bee_group":{"antennae":"A","wings":"X","pattern":"X","legs":"M"},"action":"harvest","summary":"bad-harvest","bonus":1.3200000000000014},{"rt":21114.999999999884,"stimulus":"\n                    <p><b>Action: <em>harvest</em></b></p>\n                    <p>This is the bee that you just saw.</p>\n                    <img src=\"bees-with-color/bee-A1SM.svg\" width=\"200\">\n                    <p><span class=\"redText\">Bad choice, the bee was angry.</span><br><b>You have been stung!</b><br>Your pay has been decreased by $0.10. Your bonus pay is now $0.58.</p>\n            ","response":0,"trial_type":"html-button-response","trial_index":58,"time_elapsed":654378,"internal_node_id":"0.0-4.0-1.25","subject_id":"60042af01e4c4b52c5ee0c01","study_id":"6197b3f67c2b5cd3b6d9596a","session_id":"6197b88befc16f34c4911fb3","condition":"full-information","relevant_dimensions":["antennae","legs"],"bee_group":{"antennae":"A","wings":"X","pattern":"X","legs":"M"},"bonus":1.3200000000000014},{"rt":1043,"stimulus":"bees-with-color/bee-A1SF.svg","response":0,"trial_type":"image-button-response","trial_index":59,"time_elapsed":655423,"internal_node_id":"0.0-4.0-0.26","subject_id":"60042af01e4c4b52c5ee0c01","study_id":"6197b3f67c2b5cd3b6d9596a","session_id":"6197b88befc16f34c4911fb3","condition":"full-information","relevant_dimensions":["antennae","legs"],"bee_group":{"antennae":"A","wings":"X","pattern":"X","legs":"M"},"action":"harvest","summary":"good-harvest","bonus":1.3200000000000014},{"rt":1278,"stimulus":"\n                    <p><b>Action: <em>harvest</em></b></p>\n                    <p>This is the bee that you just saw.</p>\n                    <img src=\"bees-with-color/bee-A1SF.svg\" width=\"200\">\n                    <p><span class=\"greenText\"><b>Successful harvest!</b></span><br>Your pay has increased by $0.02. Your bonus pay is now $0.60.</p>\n            ","response":0,"trial_type":"html-button-response","trial_index":60,"time_elapsed":656703,"internal_node_id":"0.0-4.0-1.26","subject_id":"60042af01e4c4b52c5ee0c01","study_id":"6197b3f67c2b5cd3b6d9596a","session_id":"6197b88befc16f34c4911fb3","condition":"full-information","relevant_dimensions":["antennae","legs"],"bee_group":{"antennae":"A","wings":"X","pattern":"X","legs":"M"},"bonus":1.3200000000000014},{"rt":8143,"stimulus":"bees-with-color/bee-A2DF.svg","response":0,"trial_type":"image-button-response","trial_index":61,"time_elapsed":664848,"internal_node_id":"0.0-4.0-0.27","subject_id":"60042af01e4c4b52c5ee0c01","study_id":"6197b3f67c2b5cd3b6d9596a","session_id":"6197b88befc16f34c4911fb3","condition":"full-information","relevant_dimensions":["antennae","legs"],"bee_group":{"antennae":"A","wings":"X","pattern":"X","legs":"M"},"action":"harvest","summary":"good-harvest","bonus":1.3200000000000014},{"rt":1067,"stimulus":"\n                    <p><b>Action: <em>harvest</em></b></p>\n                    <p>This is the bee that you just saw.</p>\n                    <img src=\"bees-with-color/bee-A2DF.svg\" width=\"200\">\n                    <p><span class=\"greenText\"><b>Successful harvest!</b></span><br>Your pay has increased by $0.02. Your bonus pay is now $0.62.</p>\n            ","response":0,"trial_type":"html-button-response","trial_index":62,"time_elapsed":665917,"internal_node_id":"0.0-4.0-1.27","subject_id":"60042af01e4c4b52c5ee0c01","study_id":"6197b3f67c2b5cd3b6d9596a","session_id":"6197b88befc16f34c4911fb3","condition":"full-information","relevant_dimensions":["antennae","legs"],"bee_group":{"antennae":"A","wings":"X","pattern":"X","legs":"M"},"bonus":1.3200000000000014},{"rt":5145,"stimulus":"bees-with-color/bee-B1SM.svg","response":0,"trial_type":"image-button-response","trial_index":63,"time_elapsed":671064,"internal_node_id":"0.0-4.0-0.28","subject_id":"60042af01e4c4b52c5ee0c01","study_id":"6197b3f67c2b5cd3b6d9596a","session_id":"6197b88befc16f34c4911fb3","condition":"full-information","relevant_dimensions":["antennae","legs"],"bee_group":{"antennae":"A","wings":"X","pattern":"X","legs":"M"},"action":"harvest","summary":"good-harvest","bonus":1.3200000000000014},{"rt":996,"stimulus":"\n                    <p><b>Action: <em>harvest</em></b></p>\n                    <p>This is the bee that you just saw.</p>\n                    <img src=\"bees-with-color/bee-B1SM.svg\" width=\"200\">\n                    <p><span class=\"greenText\"><b>Successful harvest!</b></span><br>Your pay has increased by $0.02. Your bonus pay is now $0.64.</p>\n            ","response":0,"trial_type":"html-button-response","trial_index":64,"time_elapsed":672061,"internal_node_id":"0.0-4.0-1.28","subject_id":"60042af01e4c4b52c5ee0c01","study_id":"6197b3f67c2b5cd3b6d9596a","session_id":"6197b88befc16f34c4911fb3","condition":"full-information","relevant_dimensions":["antennae","legs"],"bee_group":{"antennae":"A","wings":"X","pattern":"X","legs":"M"},"bonus":1.3200000000000014},{"rt":9889,"stimulus":"bees-with-color/bee-B1DF.svg","response":0,"trial_type":"image-button-response","trial_index":65,"time_elapsed":681953,"internal_node_id":"0.0-4.0-0.29","subject_id":"60042af01e4c4b52c5ee0c01","study_id":"6197b3f67c2b5cd3b6d9596a","session_id":"6197b88befc16f34c4911fb3","condition":"full-information","relevant_dimensions":["antennae","legs"],"bee_group":{"antennae":"A","wings":"X","pattern":"X","legs":"M"},"action":"harvest","summary":"good-harvest","bonus":1.3200000000000014},{"rt":1277,"stimulus":"\n                    <p><b>Action: <em>harvest</em></b></p>\n                    <p>This is the bee that you just saw.</p>\n                    <img src=\"bees-with-color/bee-B1DF.svg\" width=\"200\">\n                    <p><span class=\"greenText\"><b>Successful harvest!</b></span><br>Your pay has increased by $0.02. Your bonus pay is now $0.66.</p>\n            ","response":0,"trial_type":"html-button-response","trial_index":66,"time_elapsed":683231,"internal_node_id":"0.0-4.0-1.29","subject_id":"60042af01e4c4b52c5ee0c01","study_id":"6197b3f67c2b5cd3b6d9596a","session_id":"6197b88befc16f34c4911fb3","condition":"full-information","relevant_dimensions":["antennae","legs"],"bee_group":{"antennae":"A","wings":"X","pattern":"X","legs":"M"},"bonus":1.3200000000000014},{"rt":12567,"stimulus":"bees-with-color/bee-A1DM.svg","response":0,"trial_type":"image-button-response","trial_index":67,"time_elapsed":695799,"internal_node_id":"0.0-4.0-0.30","subject_id":"60042af01e4c4b52c5ee0c01","study_id":"6197b3f67c2b5cd3b6d9596a","session_id":"6197b88befc16f34c4911fb3","condition":"full-information","relevant_dimensions":["antennae","legs"],"bee_group":{"antennae":"A","wings":"X","pattern":"X","legs":"M"},"action":"harvest","summary":"bad-harvest","bonus":1.3200000000000014},{"rt":17341,"stimulus":"\n                    <p><b>Action: <em>harvest</em></b></p>\n                    <p>This is the bee that you just saw.</p>\n                    <img src=\"bees-with-color/bee-A1DM.svg\" width=\"200\">\n                    <p><span class=\"redText\">Bad choice, the bee was angry.</span><br><b>You have been stung!</b><br>Your pay has been decreased by $0.10. Your bonus pay is now $0.56.</p>\n            ","response":0,"trial_type":"html-button-response","trial_index":68,"time_elapsed":713142,"internal_node_id":"0.0-4.0-1.30","subject_id":"60042af01e4c4b52c5ee0c01","study_id":"6197b3f67c2b5cd3b6d9596a","session_id":"6197b88befc16f34c4911fb3","condition":"full-information","relevant_dimensions":["antennae","legs"],"bee_group":{"antennae":"A","wings":"X","pattern":"X","legs":"M"},"bonus":1.3200000000000014},{"rt":1575,"stimulus":"bees-with-color/bee-B1DM.svg","response":0,"trial_type":"image-button-response","trial_index":69,"time_elapsed":714719,"internal_node_id":"0.0-4.0-0.31","subject_id":"60042af01e4c4b52c5ee0c01","study_id":"6197b3f67c2b5cd3b6d9596a","session_id":"6197b88befc16f34c4911fb3","condition":"full-information","relevant_dimensions":["antennae","legs"],"bee_group":{"antennae":"A","wings":"X","pattern":"X","legs":"M"},"action":"harvest","summary":"good-harvest","bonus":1.3200000000000014},{"rt":921,"stimulus":"\n                    <p><b>Action: <em>harvest</em></b></p>\n                    <p>This is the bee that you just saw.</p>\n                    <img src=\"bees-with-color/bee-B1DM.svg\" width=\"200\">\n                    <p><span class=\"greenText\"><b>Successful harvest!</b></span><br>Your pay has increased by $0.02. Your bonus pay is now $0.58.</p>\n            ","response":0,"trial_type":"html-button-response","trial_index":70,"time_elapsed":715642,"internal_node_id":"0.0-4.0-1.31","subject_id":"60042af01e4c4b52c5ee0c01","study_id":"6197b3f67c2b5cd3b6d9596a","session_id":"6197b88befc16f34c4911fb3","condition":"full-information","relevant_dimensions":["antennae","legs"],"bee_group":{"antennae":"A","wings":"X","pattern":"X","legs":"M"},"bonus":1.3200000000000014},{"rt":12134,"stimulus":"bees-with-color/bee-A1DF.svg","response":0,"trial_type":"image-button-response","trial_index":71,"time_elapsed":727777,"internal_node_id":"0.0-4.0-0.32","subject_id":"60042af01e4c4b52c5ee0c01","study_id":"6197b3f67c2b5cd3b6d9596a","session_id":"6197b88befc16f34c4911fb3","condition":"full-information","relevant_dimensions":["antennae","legs"],"bee_group":{"antennae":"A","wings":"X","pattern":"X","legs":"M"},"action":"harvest","summary":"good-harvest","bonus":1.3200000000000014},{"rt":1647,"stimulus":"\n                    <p><b>Action: <em>harvest</em></b></p>\n                    <p>This is the bee that you just saw.</p>\n                    <img src=\"bees-with-color/bee-A1DF.svg\" width=\"200\">\n                    <p><span class=\"greenText\"><b>Successful harvest!</b></span><br>Your pay has increased by $0.02. Your bonus pay is now $0.60.</p>\n            ","response":0,"trial_type":"html-button-response","trial_index":72,"time_elapsed":729426,"internal_node_id":"0.0-4.0-1.32","subject_id":"60042af01e4c4b52c5ee0c01","study_id":"6197b3f67c2b5cd3b6d9596a","session_id":"6197b88befc16f34c4911fb3","condition":"full-information","relevant_dimensions":["antennae","legs"],"bee_group":{"antennae":"A","wings":"X","pattern":"X","legs":"M"},"bonus":1.3200000000000014},{"rt":1309.0000000001164,"stimulus":"bees-with-color/bee-B1SF.svg","response":0,"trial_type":"image-button-response","trial_index":73,"time_elapsed":730736,"internal_node_id":"0.0-4.0-0.33","subject_id":"60042af01e4c4b52c5ee0c01","study_id":"6197b3f67c2b5cd3b6d9596a","session_id":"6197b88befc16f34c4911fb3","condition":"full-information","relevant_dimensions":["antennae","legs"],"bee_group":{"antennae":"A","wings":"X","pattern":"X","legs":"M"},"action":"harvest","summary":"good-harvest","bonus":1.3200000000000014},{"rt":810,"stimulus":"\n                    <p><b>Action: <em>harvest</em></b></p>\n                    <p>This is the bee that you just saw.</p>\n                    <img src=\"bees-with-color/bee-B1SF.svg\" width=\"200\">\n                    <p><span class=\"greenText\"><b>Successful harvest!</b></span><br>Your pay has increased by $0.02. Your bonus pay is now $0.62.</p>\n            ","response":0,"trial_type":"html-button-response","trial_index":74,"time_elapsed":731548,"internal_node_id":"0.0-4.0-1.33","subject_id":"60042af01e4c4b52c5ee0c01","study_id":"6197b3f67c2b5cd3b6d9596a","session_id":"6197b88befc16f34c4911fb3","condition":"full-information","relevant_dimensions":["antennae","legs"],"bee_group":{"antennae":"A","wings":"X","pattern":"X","legs":"M"},"bonus":1.3200000000000014},{"rt":14111,"stimulus":"bees-with-color/bee-B2DM.svg","response":1,"trial_type":"image-button-response","trial_index":75,"time_elapsed":745661,"internal_node_id":"0.0-4.0-0.34","subject_id":"60042af01e4c4b52c5ee0c01","study_id":"6197b3f67c2b5cd3b6d9596a","session_id":"6197b88befc16f34c4911fb3","condition":"full-information","relevant_dimensions":["antennae","legs"],"bee_group":{"antennae":"A","wings":"X","pattern":"X","legs":"M"},"action":"avoid","summary":"bad-avoid","bonus":1.3200000000000014},{"rt":21336,"stimulus":"\n                    <p><b>Action: <em>avoid</em></b></p>\n                    <p>This is the bee that you just saw.</p>\n                    <img src=\"bees-with-color/bee-B2DM.svg\" width=\"200\">\n                    <p><span class=\"redText\">Bad choice,</span> the bee was friendly.<br>Your bonus pay is unchanged, and remains at $0.62.</p>\n            ","response":0,"trial_type":"html-button-response","trial_index":76,"time_elapsed":766999,"internal_node_id":"0.0-4.0-1.34","subject_id":"60042af01e4c4b52c5ee0c01","study_id":"6197b3f67c2b5cd3b6d9596a","session_id":"6197b88befc16f34c4911fb3","condition":"full-information","relevant_dimensions":["antennae","legs"],"bee_group":{"antennae":"A","wings":"X","pattern":"X","legs":"M"},"bonus":1.3200000000000014},{"rt":1951,"stimulus":"bees-with-color/bee-A2SF.svg","response":0,"trial_type":"image-button-response","trial_index":77,"time_elapsed":768953,"internal_node_id":"0.0-4.0-0.35","subject_id":"60042af01e4c4b52c5ee0c01","study_id":"6197b3f67c2b5cd3b6d9596a","session_id":"6197b88befc16f34c4911fb3","condition":"full-information","relevant_dimensions":["antennae","legs"],"bee_group":{"antennae":"A","wings":"X","pattern":"X","legs":"M"},"action":"harvest","summary":"good-harvest","bonus":1.3200000000000014},{"rt":971,"stimulus":"\n                    <p><b>Action: <em>harvest</em></b></p>\n                    <p>This is the bee that you just saw.</p>\n                    <img src=\"bees-with-color/bee-A2SF.svg\" width=\"200\">\n                    <p><span class=\"greenText\"><b>Successful harvest!</b></span><br>Your pay has increased by $0.02. Your bonus pay is now $0.64.</p>\n            ","response":0,"trial_type":"html-button-response","trial_index":78,"time_elapsed":769926,"internal_node_id":"0.0-4.0-1.35","subject_id":"60042af01e4c4b52c5ee0c01","study_id":"6197b3f67c2b5cd3b6d9596a","session_id":"6197b88befc16f34c4911fb3","condition":"full-information","relevant_dimensions":["antennae","legs"],"bee_group":{"antennae":"A","wings":"X","pattern":"X","legs":"M"},"bonus":1.3200000000000014},{"rt":1511,"stimulus":"bees-with-color/bee-A1DM.svg","response":1,"trial_type":"image-button-response","trial_index":79,"time_elapsed":771438,"internal_node_id":"0.0-4.0-0.36","subject_id":"60042af01e4c4b52c5ee0c01","study_id":"6197b3f67c2b5cd3b6d9596a","session_id":"6197b88befc16f34c4911fb3","condition":"full-information","relevant_dimensions":["antennae","legs"],"bee_group":{"antennae":"A","wings":"X","pattern":"X","legs":"M"},"action":"avoid","summary":"good-avoid","bonus":1.3200000000000014},{"rt":1260.9999999998836,"stimulus":"\n                    <p><b>Action: <em>avoid</em></b></p>\n                    <p>This is the bee that you just saw.</p>\n                    <img src=\"bees-with-color/bee-A1DM.svg\" width=\"200\">\n                    <p><span class=\"greenText\">Good choice!</span>  This bee would have stung you.<br>Your bonus pay is unchanged, and remains at $0.64.</p>\n            ","response":0,"trial_type":"html-button-response","trial_index":80,"time_elapsed":772700,"internal_node_id":"0.0-4.0-1.36","subject_id":"60042af01e4c4b52c5ee0c01","study_id":"6197b3f67c2b5cd3b6d9596a","session_id":"6197b88befc16f34c4911fb3","condition":"full-information","relevant_dimensions":["antennae","legs"],"bee_group":{"antennae":"A","wings":"X","pattern":"X","legs":"M"},"bonus":1.3200000000000014},{"rt":16337,"stimulus":"bees-with-color/bee-A2DM.svg","response":1,"trial_type":"image-button-response","trial_index":81,"time_elapsed":789040,"internal_node_id":"0.0-4.0-0.37","subject_id":"60042af01e4c4b52c5ee0c01","study_id":"6197b3f67c2b5cd3b6d9596a","session_id":"6197b88befc16f34c4911fb3","condition":"full-information","relevant_dimensions":["antennae","legs"],"bee_group":{"antennae":"A","wings":"X","pattern":"X","legs":"M"},"action":"avoid","summary":"good-avoid","bonus":1.3200000000000014},{"rt":1148.0000000001164,"stimulus":"\n                    <p><b>Action: <em>avoid</em></b></p>\n                    <p>This is the bee that you just saw.</p>\n                    <img src=\"bees-with-color/bee-A2DM.svg\" width=\"200\">\n                    <p><span class=\"greenText\">Good choice!</span>  This bee would have stung you.<br>Your bonus pay is unchanged, and remains at $0.64.</p>\n            ","response":0,"trial_type":"html-button-response","trial_index":82,"time_elapsed":790190,"internal_node_id":"0.0-4.0-1.37","subject_id":"60042af01e4c4b52c5ee0c01","study_id":"6197b3f67c2b5cd3b6d9596a","session_id":"6197b88befc16f34c4911fb3","condition":"full-information","relevant_dimensions":["antennae","legs"],"bee_group":{"antennae":"A","wings":"X","pattern":"X","legs":"M"},"bonus":1.3200000000000014},{"rt":7878.000000000116,"stimulus":"bees-with-color/bee-B1DM.svg","response":0,"trial_type":"image-button-response","trial_index":83,"time_elapsed":798070,"internal_node_id":"0.0-4.0-0.38","subject_id":"60042af01e4c4b52c5ee0c01","study_id":"6197b3f67c2b5cd3b6d9596a","session_id":"6197b88befc16f34c4911fb3","condition":"full-information","relevant_dimensions":["antennae","legs"],"bee_group":{"antennae":"A","wings":"X","pattern":"X","legs":"M"},"action":"harvest","summary":"good-harvest","bonus":1.3200000000000014},{"rt":1446.0000000001164,"stimulus":"\n                    <p><b>Action: <em>harvest</em></b></p>\n                    <p>This is the bee that you just saw.</p>\n                    <img src=\"bees-with-color/bee-B1DM.svg\" width=\"200\">\n                    <p><span class=\"greenText\"><b>Successful harvest!</b></span><br>Your pay has increased by $0.02. Your bonus pay is now $0.66.</p>\n            ","response":0,"trial_type":"html-button-response","trial_index":84,"time_elapsed":799518,"internal_node_id":"0.0-4.0-1.38","subject_id":"60042af01e4c4b52c5ee0c01","study_id":"6197b3f67c2b5cd3b6d9596a","session_id":"6197b88befc16f34c4911fb3","condition":"full-information","relevant_dimensions":["antennae","legs"],"bee_group":{"antennae":"A","wings":"X","pattern":"X","legs":"M"},"bonus":1.3200000000000014},{"rt":9696,"stimulus":"bees-with-color/bee-B2SM.svg","response":0,"trial_type":"image-button-response","trial_index":85,"time_elapsed":809216,"internal_node_id":"0.0-4.0-0.39","subject_id":"60042af01e4c4b52c5ee0c01","study_id":"6197b3f67c2b5cd3b6d9596a","session_id":"6197b88befc16f34c4911fb3","condition":"full-information","relevant_dimensions":["antennae","legs"],"bee_group":{"antennae":"A","wings":"X","pattern":"X","legs":"M"},"action":"harvest","summary":"good-harvest","bonus":1.3200000000000014},{"rt":6589,"stimulus":"\n                    <p><b>Action: <em>harvest</em></b></p>\n                    <p>This is the bee that you just saw.</p>\n                    <img src=\"bees-with-color/bee-B2SM.svg\" width=\"200\">\n                    <p><span class=\"greenText\"><b>Successful harvest!</b></span><br>Your pay has increased by $0.02. Your bonus pay is now $0.68.</p>\n            ","response":0,"trial_type":"html-button-response","trial_index":86,"time_elapsed":815806,"internal_node_id":"0.0-4.0-1.39","subject_id":"60042af01e4c4b52c5ee0c01","study_id":"6197b3f67c2b5cd3b6d9596a","session_id":"6197b88befc16f34c4911fb3","condition":"full-information","relevant_dimensions":["antennae","legs"],"bee_group":{"antennae":"A","wings":"X","pattern":"X","legs":"M"},"bonus":1.3200000000000014},{"rt":1405,"stimulus":"bees-with-color/bee-B1SM.svg","response":0,"trial_type":"image-button-response","trial_index":87,"time_elapsed":817213,"internal_node_id":"0.0-4.0-0.40","subject_id":"60042af01e4c4b52c5ee0c01","study_id":"6197b3f67c2b5cd3b6d9596a","session_id":"6197b88befc16f34c4911fb3","condition":"full-information","relevant_dimensions":["antennae","legs"],"bee_group":{"antennae":"A","wings":"X","pattern":"X","legs":"M"},"action":"harvest","summary":"good-harvest","bonus":1.3200000000000014},{"rt":842.9999999998836,"stimulus":"\n                    <p><b>Action: <em>harvest</em></b></p>\n                    <p>This is the bee that you just saw.</p>\n                    <img src=\"bees-with-color/bee-B1SM.svg\" width=\"200\">\n                    <p><span class=\"greenText\"><b>Successful harvest!</b></span><br>Your pay has increased by $0.02. Your bonus pay is now $0.70.</p>\n            ","response":0,"trial_type":"html-button-response","trial_index":88,"time_elapsed":818058,"internal_node_id":"0.0-4.0-1.40","subject_id":"60042af01e4c4b52c5ee0c01","study_id":"6197b3f67c2b5cd3b6d9596a","session_id":"6197b88befc16f34c4911fb3","condition":"full-information","relevant_dimensions":["antennae","legs"],"bee_group":{"antennae":"A","wings":"X","pattern":"X","legs":"M"},"bonus":1.3200000000000014},{"rt":2596,"stimulus":"bees-with-color/bee-A1SM.svg","response":0,"trial_type":"image-button-response","trial_index":89,"time_elapsed":820655,"internal_node_id":"0.0-4.0-0.41","subject_id":"60042af01e4c4b52c5ee0c01","study_id":"6197b3f67c2b5cd3b6d9596a","session_id":"6197b88befc16f34c4911fb3","condition":"full-information","relevant_dimensions":["antennae","legs"],"bee_group":{"antennae":"A","wings":"X","pattern":"X","legs":"M"},"action":"harvest","summary":"bad-harvest","bonus":1.3200000000000014},{"rt":14192,"stimulus":"\n                    <p><b>Action: <em>harvest</em></b></p>\n                    <p>This is the bee that you just saw.</p>\n                    <img src=\"bees-with-color/bee-A1SM.svg\" width=\"200\">\n                    <p><span class=\"redText\">Bad choice, the bee was angry.</span><br><b>You have been stung!</b><br>Your pay has been decreased by $0.10. Your bonus pay is now $0.60.</p>\n            ","response":0,"trial_type":"html-button-response","trial_index":90,"time_elapsed":834849,"internal_node_id":"0.0-4.0-1.41","subject_id":"60042af01e4c4b52c5ee0c01","study_id":"6197b3f67c2b5cd3b6d9596a","session_id":"6197b88befc16f34c4911fb3","condition":"full-information","relevant_dimensions":["antennae","legs"],"bee_group":{"antennae":"A","wings":"X","pattern":"X","legs":"M"},"bonus":1.3200000000000014},{"rt":12406,"stimulus":"bees-with-color/bee-A2DF.svg","response":0,"trial_type":"image-button-response","trial_index":91,"time_elapsed":847257,"internal_node_id":"0.0-4.0-0.42","subject_id":"60042af01e4c4b52c5ee0c01","study_id":"6197b3f67c2b5cd3b6d9596a","session_id":"6197b88befc16f34c4911fb3","condition":"full-information","relevant_dimensions":["antennae","legs"],"bee_group":{"antennae":"A","wings":"X","pattern":"X","legs":"M"},"action":"harvest","summary":"good-harvest","bonus":1.3200000000000014},{"rt":1269,"stimulus":"\n                    <p><b>Action: <em>harvest</em></b></p>\n                    <p>This is the bee that you just saw.</p>\n                    <img src=\"bees-with-color/bee-A2DF.svg\" width=\"200\">\n                    <p><span class=\"greenText\"><b>Successful harvest!</b></span><br>Your pay has increased by $0.02. Your bonus pay is now $0.62.</p>\n            ","response":0,"trial_type":"html-button-response","trial_index":92,"time_elapsed":848527,"internal_node_id":"0.0-4.0-1.42","subject_id":"60042af01e4c4b52c5ee0c01","study_id":"6197b3f67c2b5cd3b6d9596a","session_id":"6197b88befc16f34c4911fb3","condition":"full-information","relevant_dimensions":["antennae","legs"],"bee_group":{"antennae":"A","wings":"X","pattern":"X","legs":"M"},"bonus":1.3200000000000014},{"rt":1446,"stimulus":"bees-with-color/bee-A1SF.svg","response":0,"trial_type":"image-button-response","trial_index":93,"time_elapsed":849975,"internal_node_id":"0.0-4.0-0.43","subject_id":"60042af01e4c4b52c5ee0c01","study_id":"6197b3f67c2b5cd3b6d9596a","session_id":"6197b88befc16f34c4911fb3","condition":"full-information","relevant_dimensions":["antennae","legs"],"bee_group":{"antennae":"A","wings":"X","pattern":"X","legs":"M"},"action":"harvest","summary":"good-harvest","bonus":1.3200000000000014},{"rt":857,"stimulus":"\n                    <p><b>Action: <em>harvest</em></b></p>\n                    <p>This is the bee that you just saw.</p>\n                    <img src=\"bees-with-color/bee-A1SF.svg\" width=\"200\">\n                    <p><span class=\"greenText\"><b>Successful harvest!</b></span><br>Your pay has increased by $0.02. Your bonus pay is now $0.64.</p>\n            ","response":0,"trial_type":"html-button-response","trial_index":94,"time_elapsed":850834,"internal_node_id":"0.0-4.0-1.43","subject_id":"60042af01e4c4b52c5ee0c01","study_id":"6197b3f67c2b5cd3b6d9596a","session_id":"6197b88befc16f34c4911fb3","condition":"full-information","relevant_dimensions":["antennae","legs"],"bee_group":{"antennae":"A","wings":"X","pattern":"X","legs":"M"},"bonus":1.3200000000000014},{"rt":1575.9999999998836,"stimulus":"bees-with-color/bee-B2SF.svg","response":0,"trial_type":"image-button-response","trial_index":95,"time_elapsed":852411,"internal_node_id":"0.0-4.0-0.44","subject_id":"60042af01e4c4b52c5ee0c01","study_id":"6197b3f67c2b5cd3b6d9596a","session_id":"6197b88befc16f34c4911fb3","condition":"full-information","relevant_dimensions":["antennae","legs"],"bee_group":{"antennae":"A","wings":"X","pattern":"X","legs":"M"},"action":"harvest","summary":"good-harvest","bonus":1.3200000000000014},{"rt":872.9999999998836,"stimulus":"\n                    <p><b>Action: <em>harvest</em></b></p>\n                    <p>This is the bee that you just saw.</p>\n                    <img src=\"bees-with-color/bee-B2SF.svg\" width=\"200\">\n                    <p><span class=\"greenText\"><b>Successful harvest!</b></span><br>Your pay has increased by $0.02. Your bonus pay is now $0.66.</p>\n            ","response":0,"trial_type":"html-button-response","trial_index":96,"time_elapsed":853286,"internal_node_id":"0.0-4.0-1.44","subject_id":"60042af01e4c4b52c5ee0c01","study_id":"6197b3f67c2b5cd3b6d9596a","session_id":"6197b88befc16f34c4911fb3","condition":"full-information","relevant_dimensions":["antennae","legs"],"bee_group":{"antennae":"A","wings":"X","pattern":"X","legs":"M"},"bonus":1.3200000000000014},{"rt":12441,"stimulus":"bees-with-color/bee-A2SM.svg","response":0,"trial_type":"image-button-response","trial_index":97,"time_elapsed":865727,"internal_node_id":"0.0-4.0-0.45","subject_id":"60042af01e4c4b52c5ee0c01","study_id":"6197b3f67c2b5cd3b6d9596a","session_id":"6197b88befc16f34c4911fb3","condition":"full-information","relevant_dimensions":["antennae","legs"],"bee_group":{"antennae":"A","wings":"X","pattern":"X","legs":"M"},"action":"harvest","summary":"bad-harvest","bonus":1.3200000000000014},{"rt":11278,"stimulus":"\n                    <p><b>Action: <em>harvest</em></b></p>\n                    <p>This is the bee that you just saw.</p>\n                    <img src=\"bees-with-color/bee-A2SM.svg\" width=\"200\">\n                    <p><span class=\"redText\">Bad choice, the bee was angry.</span><br><b>You have been stung!</b><br>Your pay has been decreased by $0.10. Your bonus pay is now $0.56.</p>\n            ","response":0,"trial_type":"html-button-response","trial_index":98,"time_elapsed":877007,"internal_node_id":"0.0-4.0-1.45","subject_id":"60042af01e4c4b52c5ee0c01","study_id":"6197b3f67c2b5cd3b6d9596a","session_id":"6197b88befc16f34c4911fb3","condition":"full-information","relevant_dimensions":["antennae","legs"],"bee_group":{"antennae":"A","wings":"X","pattern":"X","legs":"M"},"bonus":1.3200000000000014},{"rt":1325,"stimulus":"bees-with-color/bee-B1DF.svg","response":0,"trial_type":"image-button-response","trial_index":99,"time_elapsed":878334,"internal_node_id":"0.0-4.0-0.46","subject_id":"60042af01e4c4b52c5ee0c01","study_id":"6197b3f67c2b5cd3b6d9596a","session_id":"6197b88befc16f34c4911fb3","condition":"full-information","relevant_dimensions":["antennae","legs"],"bee_group":{"antennae":"A","wings":"X","pattern":"X","legs":"M"},"action":"harvest","summary":"good-harvest","bonus":1.3200000000000014},{"rt":824.9999999998836,"stimulus":"\n                    <p><b>Action: <em>harvest</em></b></p>\n                    <p>This is the bee that you just saw.</p>\n                    <img src=\"bees-with-color/bee-B1DF.svg\" width=\"200\">\n                    <p><span class=\"greenText\"><b>Successful harvest!</b></span><br>Your pay has increased by $0.02. Your bonus pay is now $0.58.</p>\n            ","response":0,"trial_type":"html-button-response","trial_index":100,"time_elapsed":879161,"internal_node_id":"0.0-4.0-1.46","subject_id":"60042af01e4c4b52c5ee0c01","study_id":"6197b3f67c2b5cd3b6d9596a","session_id":"6197b88befc16f34c4911fb3","condition":"full-information","relevant_dimensions":["antennae","legs"],"bee_group":{"antennae":"A","wings":"X","pattern":"X","legs":"M"},"bonus":1.3200000000000014},{"rt":1341.9999999998836,"stimulus":"bees-with-color/bee-B2DF.svg","response":0,"trial_type":"image-button-response","trial_index":101,"time_elapsed":880505,"internal_node_id":"0.0-4.0-0.47","subject_id":"60042af01e4c4b52c5ee0c01","study_id":"6197b3f67c2b5cd3b6d9596a","session_id":"6197b88befc16f34c4911fb3","condition":"full-information","relevant_dimensions":["antennae","legs"],"bee_group":{"antennae":"A","wings":"X","pattern":"X","legs":"M"},"action":"harvest","summary":"good-harvest","bonus":1.3200000000000014},{"rt":842,"stimulus":"\n                    <p><b>Action: <em>harvest</em></b></p>\n                    <p>This is the bee that you just saw.</p>\n                    <img src=\"bees-with-color/bee-B2DF.svg\" width=\"200\">\n                    <p><span class=\"greenText\"><b>Successful harvest!</b></span><br>Your pay has increased by $0.02. Your bonus pay is now $0.60.</p>\n            ","response":0,"trial_type":"html-button-response","trial_index":102,"time_elapsed":881349,"internal_node_id":"0.0-4.0-1.47","subject_id":"60042af01e4c4b52c5ee0c01","study_id":"6197b3f67c2b5cd3b6d9596a","session_id":"6197b88befc16f34c4911fb3","condition":"full-information","relevant_dimensions":["antennae","legs"],"bee_group":{"antennae":"A","wings":"X","pattern":"X","legs":"M"},"bonus":1.3200000000000014},{"rt":1058,"stimulus":"bees-with-color/bee-A2SF.svg","response":0,"trial_type":"image-button-response","trial_index":103,"time_elapsed":882408,"internal_node_id":"0.0-4.0-0.48","subject_id":"60042af01e4c4b52c5ee0c01","study_id":"6197b3f67c2b5cd3b6d9596a","session_id":"6197b88befc16f34c4911fb3","condition":"full-information","relevant_dimensions":["antennae","legs"],"bee_group":{"antennae":"A","wings":"X","pattern":"X","legs":"M"},"action":"harvest","summary":"good-harvest","bonus":1.3200000000000014},{"rt":725,"stimulus":"\n                    <p><b>Action: <em>harvest</em></b></p>\n                    <p>This is the bee that you just saw.</p>\n                    <img src=\"bees-with-color/bee-A2SF.svg\" width=\"200\">\n                    <p><span class=\"greenText\"><b>Successful harvest!</b></span><br>Your pay has increased by $0.02. Your bonus pay is now $0.62.</p>\n            ","response":0,"trial_type":"html-button-response","trial_index":104,"time_elapsed":883134,"internal_node_id":"0.0-4.0-1.48","subject_id":"60042af01e4c4b52c5ee0c01","study_id":"6197b3f67c2b5cd3b6d9596a","session_id":"6197b88befc16f34c4911fb3","condition":"full-information","relevant_dimensions":["antennae","legs"],"bee_group":{"antennae":"A","wings":"X","pattern":"X","legs":"M"},"bonus":1.3200000000000014},{"rt":1438,"stimulus":"bees-with-color/bee-B2DF.svg","response":0,"trial_type":"image-button-response","trial_index":105,"time_elapsed":884573,"internal_node_id":"0.0-4.0-0.49","subject_id":"60042af01e4c4b52c5ee0c01","study_id":"6197b3f67c2b5cd3b6d9596a","session_id":"6197b88befc16f34c4911fb3","condition":"full-information","relevant_dimensions":["antennae","legs"],"bee_group":{"antennae":"A","wings":"X","pattern":"X","legs":"M"},"action":"harvest","summary":"good-harvest","bonus":1.3200000000000014},{"rt":715,"stimulus":"\n                    <p><b>Action: <em>harvest</em></b></p>\n                    <p>This is the bee that you just saw.</p>\n                    <img src=\"bees-with-color/bee-B2DF.svg\" width=\"200\">\n                    <p><span class=\"greenText\"><b>Successful harvest!</b></span><br>Your pay has increased by $0.02. Your bonus pay is now $0.64.</p>\n            ","response":0,"trial_type":"html-button-response","trial_index":106,"time_elapsed":885289,"internal_node_id":"0.0-4.0-1.49","subject_id":"60042af01e4c4b52c5ee0c01","study_id":"6197b3f67c2b5cd3b6d9596a","session_id":"6197b88befc16f34c4911fb3","condition":"full-information","relevant_dimensions":["antennae","legs"],"bee_group":{"antennae":"A","wings":"X","pattern":"X","legs":"M"},"bonus":1.3200000000000014},{"rt":25484,"stimulus":"bees-with-color/bee-B1DM.svg","response":0,"trial_type":"image-button-response","trial_index":107,"time_elapsed":910776,"internal_node_id":"0.0-4.0-0.50","subject_id":"60042af01e4c4b52c5ee0c01","study_id":"6197b3f67c2b5cd3b6d9596a","session_id":"6197b88befc16f34c4911fb3","condition":"full-information","relevant_dimensions":["antennae","legs"],"bee_group":{"antennae":"A","wings":"X","pattern":"X","legs":"M"},"action":"harvest","summary":"good-harvest","bonus":1.3200000000000014},{"rt":1204,"stimulus":"\n                    <p><b>Action: <em>harvest</em></b></p>\n                    <p>This is the bee that you just saw.</p>\n                    <img src=\"bees-with-color/bee-B1DM.svg\" width=\"200\">\n                    <p><span class=\"greenText\"><b>Successful harvest!</b></span><br>Your pay has increased by $0.02. Your bonus pay is now $0.66.</p>\n            ","response":0,"trial_type":"html-button-response","trial_index":108,"time_elapsed":911982,"internal_node_id":"0.0-4.0-1.50","subject_id":"60042af01e4c4b52c5ee0c01","study_id":"6197b3f67c2b5cd3b6d9596a","session_id":"6197b88befc16f34c4911fb3","condition":"full-information","relevant_dimensions":["antennae","legs"],"bee_group":{"antennae":"A","wings":"X","pattern":"X","legs":"M"},"bonus":1.3200000000000014},{"rt":22158,"stimulus":"bees-with-color/bee-B2SM.svg","response":0,"trial_type":"image-button-response","trial_index":109,"time_elapsed":934143,"internal_node_id":"0.0-4.0-0.51","subject_id":"60042af01e4c4b52c5ee0c01","study_id":"6197b3f67c2b5cd3b6d9596a","session_id":"6197b88befc16f34c4911fb3","condition":"full-information","relevant_dimensions":["antennae","legs"],"bee_group":{"antennae":"A","wings":"X","pattern":"X","legs":"M"},"action":"harvest","summary":"good-harvest","bonus":1.3200000000000014},{"rt":819,"stimulus":"\n                    <p><b>Action: <em>harvest</em></b></p>\n                    <p>This is the bee that you just saw.</p>\n                    <img src=\"bees-with-color/bee-B2SM.svg\" width=\"200\">\n                    <p><span class=\"greenText\"><b>Successful harvest!</b></span><br>Your pay has increased by $0.02. Your bonus pay is now $0.68.</p>\n            ","response":0,"trial_type":"html-button-response","trial_index":110,"time_elapsed":934963,"internal_node_id":"0.0-4.0-1.51","subject_id":"60042af01e4c4b52c5ee0c01","study_id":"6197b3f67c2b5cd3b6d9596a","session_id":"6197b88befc16f34c4911fb3","condition":"full-information","relevant_dimensions":["antennae","legs"],"bee_group":{"antennae":"A","wings":"X","pattern":"X","legs":"M"},"bonus":1.3200000000000014},{"rt":6599,"stimulus":"bees-with-color/bee-A2DM.svg","response":1,"trial_type":"image-button-response","trial_index":111,"time_elapsed":941565,"internal_node_id":"0.0-4.0-0.52","subject_id":"60042af01e4c4b52c5ee0c01","study_id":"6197b3f67c2b5cd3b6d9596a","session_id":"6197b88befc16f34c4911fb3","condition":"full-information","relevant_dimensions":["antennae","legs"],"bee_group":{"antennae":"A","wings":"X","pattern":"X","legs":"M"},"action":"avoid","summary":"good-avoid","bonus":1.3200000000000014},{"rt":1624,"stimulus":"\n                    <p><b>Action: <em>avoid</em></b></p>\n                    <p>This is the bee that you just saw.</p>\n                    <img src=\"bees-with-color/bee-A2DM.svg\" width=\"200\">\n                    <p><span class=\"greenText\">Good choice!</span>  This bee would have stung you.<br>Your bonus pay is unchanged, and remains at $0.68.</p>\n            ","response":0,"trial_type":"html-button-response","trial_index":112,"time_elapsed":943190,"internal_node_id":"0.0-4.0-1.52","subject_id":"60042af01e4c4b52c5ee0c01","study_id":"6197b3f67c2b5cd3b6d9596a","session_id":"6197b88befc16f34c4911fb3","condition":"full-information","relevant_dimensions":["antennae","legs"],"bee_group":{"antennae":"A","wings":"X","pattern":"X","legs":"M"},"bonus":1.3200000000000014},{"rt":10113,"stimulus":"bees-with-color/bee-A2SM.svg","response":1,"trial_type":"image-button-response","trial_index":113,"time_elapsed":953305,"internal_node_id":"0.0-4.0-0.53","subject_id":"60042af01e4c4b52c5ee0c01","study_id":"6197b3f67c2b5cd3b6d9596a","session_id":"6197b88befc16f34c4911fb3","condition":"full-information","relevant_dimensions":["antennae","legs"],"bee_group":{"antennae":"A","wings":"X","pattern":"X","legs":"M"},"action":"avoid","summary":"good-avoid","bonus":1.3200000000000014},{"rt":1003,"stimulus":"\n                    <p><b>Action: <em>avoid</em></b></p>\n                    <p>This is the bee that you just saw.</p>\n                    <img src=\"bees-with-color/bee-A2SM.svg\" width=\"200\">\n                    <p><span class=\"greenText\">Good choice!</span>  This bee would have stung you.<br>Your bonus pay is unchanged, and remains at $0.68.</p>\n            ","response":0,"trial_type":"html-button-response","trial_index":114,"time_elapsed":954309,"internal_node_id":"0.0-4.0-1.53","subject_id":"60042af01e4c4b52c5ee0c01","study_id":"6197b3f67c2b5cd3b6d9596a","session_id":"6197b88befc16f34c4911fb3","condition":"full-information","relevant_dimensions":["antennae","legs"],"bee_group":{"antennae":"A","wings":"X","pattern":"X","legs":"M"},"bonus":1.3200000000000014},{"rt":6776,"stimulus":"bees-with-color/bee-B2DM.svg","response":0,"trial_type":"image-button-response","trial_index":115,"time_elapsed":961087,"internal_node_id":"0.0-4.0-0.54","subject_id":"60042af01e4c4b52c5ee0c01","study_id":"6197b3f67c2b5cd3b6d9596a","session_id":"6197b88befc16f34c4911fb3","condition":"full-information","relevant_dimensions":["antennae","legs"],"bee_group":{"antennae":"A","wings":"X","pattern":"X","legs":"M"},"action":"harvest","summary":"good-harvest","bonus":1.3200000000000014},{"rt":930,"stimulus":"\n                    <p><b>Action: <em>harvest</em></b></p>\n                    <p>This is the bee that you just saw.</p>\n                    <img src=\"bees-with-color/bee-B2DM.svg\" width=\"200\">\n                    <p><span class=\"greenText\"><b>Successful harvest!</b></span><br>Your pay has increased by $0.02. Your bonus pay is now $0.70.</p>\n            ","response":0,"trial_type":"html-button-response","trial_index":116,"time_elapsed":962019,"internal_node_id":"0.0-4.0-1.54","subject_id":"60042af01e4c4b52c5ee0c01","study_id":"6197b3f67c2b5cd3b6d9596a","session_id":"6197b88befc16f34c4911fb3","condition":"full-information","relevant_dimensions":["antennae","legs"],"bee_group":{"antennae":"A","wings":"X","pattern":"X","legs":"M"},"bonus":1.3200000000000014},{"rt":5014.999999999884,"stimulus":"bees-with-color/bee-A2DF.svg","response":0,"trial_type":"image-button-response","trial_index":117,"time_elapsed":967036,"internal_node_id":"0.0-4.0-0.55","subject_id":"60042af01e4c4b52c5ee0c01","study_id":"6197b3f67c2b5cd3b6d9596a","session_id":"6197b88befc16f34c4911fb3","condition":"full-information","relevant_dimensions":["antennae","legs"],"bee_group":{"antennae":"A","wings":"X","pattern":"X","legs":"M"},"action":"harvest","summary":"good-harvest","bonus":1.3200000000000014},{"rt":938,"stimulus":"\n                    <p><b>Action: <em>harvest</em></b></p>\n                    <p>This is the bee that you just saw.</p>\n                    <img src=\"bees-with-color/bee-A2DF.svg\" width=\"200\">\n                    <p><span class=\"greenText\"><b>Successful harvest!</b></span><br>Your pay has increased by $0.02. Your bonus pay is now $0.72.</p>\n            ","response":0,"trial_type":"html-button-response","trial_index":118,"time_elapsed":967976,"internal_node_id":"0.0-4.0-1.55","subject_id":"60042af01e4c4b52c5ee0c01","study_id":"6197b3f67c2b5cd3b6d9596a","session_id":"6197b88befc16f34c4911fb3","condition":"full-information","relevant_dimensions":["antennae","legs"],"bee_group":{"antennae":"A","wings":"X","pattern":"X","legs":"M"},"bonus":1.3200000000000014},{"rt":1661.9999999998836,"stimulus":"bees-with-color/bee-B1DF.svg","response":0,"trial_type":"image-button-response","trial_index":119,"time_elapsed":969640,"internal_node_id":"0.0-4.0-0.56","subject_id":"60042af01e4c4b52c5ee0c01","study_id":"6197b3f67c2b5cd3b6d9596a","session_id":"6197b88befc16f34c4911fb3","condition":"full-information","relevant_dimensions":["antennae","legs"],"bee_group":{"antennae":"A","wings":"X","pattern":"X","legs":"M"},"action":"harvest","summary":"good-harvest","bonus":1.3200000000000014},{"rt":770,"stimulus":"\n                    <p><b>Action: <em>harvest</em></b></p>\n                    <p>This is the bee that you just saw.</p>\n                    <img src=\"bees-with-color/bee-B1DF.svg\" width=\"200\">\n                    <p><span class=\"greenText\"><b>Successful harvest!</b></span><br>Your pay has increased by $0.02. Your bonus pay is now $0.74.</p>\n            ","response":0,"trial_type":"html-button-response","trial_index":120,"time_elapsed":970412,"internal_node_id":"0.0-4.0-1.56","subject_id":"60042af01e4c4b52c5ee0c01","study_id":"6197b3f67c2b5cd3b6d9596a","session_id":"6197b88befc16f34c4911fb3","condition":"full-information","relevant_dimensions":["antennae","legs"],"bee_group":{"antennae":"A","wings":"X","pattern":"X","legs":"M"},"bonus":1.3200000000000014},{"rt":1485,"stimulus":"bees-with-color/bee-B2SF.svg","response":0,"trial_type":"image-button-response","trial_index":121,"time_elapsed":971900,"internal_node_id":"0.0-4.0-0.57","subject_id":"60042af01e4c4b52c5ee0c01","study_id":"6197b3f67c2b5cd3b6d9596a","session_id":"6197b88befc16f34c4911fb3","condition":"full-information","relevant_dimensions":["antennae","legs"],"bee_group":{"antennae":"A","wings":"X","pattern":"X","legs":"M"},"action":"harvest","summary":"good-harvest","bonus":1.3200000000000014},{"rt":649.9999999998836,"stimulus":"\n                    <p><b>Action: <em>harvest</em></b></p>\n                    <p>This is the bee that you just saw.</p>\n                    <img src=\"bees-with-color/bee-B2SF.svg\" width=\"200\">\n                    <p><span class=\"greenText\"><b>Successful harvest!</b></span><br>Your pay has increased by $0.02. Your bonus pay is now $0.76.</p>\n            ","response":0,"trial_type":"html-button-response","trial_index":122,"time_elapsed":972551,"internal_node_id":"0.0-4.0-1.57","subject_id":"60042af01e4c4b52c5ee0c01","study_id":"6197b3f67c2b5cd3b6d9596a","session_id":"6197b88befc16f34c4911fb3","condition":"full-information","relevant_dimensions":["antennae","legs"],"bee_group":{"antennae":"A","wings":"X","pattern":"X","legs":"M"},"bonus":1.3200000000000014},{"rt":6318,"stimulus":"bees-with-color/bee-A1DM.svg","response":1,"trial_type":"image-button-response","trial_index":123,"time_elapsed":978871,"internal_node_id":"0.0-4.0-0.58","subject_id":"60042af01e4c4b52c5ee0c01","study_id":"6197b3f67c2b5cd3b6d9596a","session_id":"6197b88befc16f34c4911fb3","condition":"full-information","relevant_dimensions":["antennae","legs"],"bee_group":{"antennae":"A","wings":"X","pattern":"X","legs":"M"},"action":"avoid","summary":"good-avoid","bonus":1.3200000000000014},{"rt":5226,"stimulus":"\n                    <p><b>Action: <em>avoid</em></b></p>\n                    <p>This is the bee that you just saw.</p>\n                    <img src=\"bees-with-color/bee-A1DM.svg\" width=\"200\">\n                    <p><span class=\"greenText\">Good choice!</span>  This bee would have stung you.<br>Your bonus pay is unchanged, and remains at $0.76.</p>\n            ","response":0,"trial_type":"html-button-response","trial_index":124,"time_elapsed":984099,"internal_node_id":"0.0-4.0-1.58","subject_id":"60042af01e4c4b52c5ee0c01","study_id":"6197b3f67c2b5cd3b6d9596a","session_id":"6197b88befc16f34c4911fb3","condition":"full-information","relevant_dimensions":["antennae","legs"],"bee_group":{"antennae":"A","wings":"X","pattern":"X","legs":"M"},"bonus":1.3200000000000014},{"rt":1968,"stimulus":"bees-with-color/bee-A1SF.svg","response":0,"trial_type":"image-button-response","trial_index":125,"time_elapsed":986069,"internal_node_id":"0.0-4.0-0.59","subject_id":"60042af01e4c4b52c5ee0c01","study_id":"6197b3f67c2b5cd3b6d9596a","session_id":"6197b88befc16f34c4911fb3","condition":"full-information","relevant_dimensions":["antennae","legs"],"bee_group":{"antennae":"A","wings":"X","pattern":"X","legs":"M"},"action":"harvest","summary":"good-harvest","bonus":1.3200000000000014},{"rt":786,"stimulus":"\n                    <p><b>Action: <em>harvest</em></b></p>\n                    <p>This is the bee that you just saw.</p>\n                    <img src=\"bees-with-color/bee-A1SF.svg\" width=\"200\">\n                    <p><span class=\"greenText\"><b>Successful harvest!</b></span><br>Your pay has increased by $0.02. Your bonus pay is now $0.78.</p>\n            ","response":0,"trial_type":"html-button-response","trial_index":126,"time_elapsed":986857,"internal_node_id":"0.0-4.0-1.59","subject_id":"60042af01e4c4b52c5ee0c01","study_id":"6197b3f67c2b5cd3b6d9596a","session_id":"6197b88befc16f34c4911fb3","condition":"full-information","relevant_dimensions":["antennae","legs"],"bee_group":{"antennae":"A","wings":"X","pattern":"X","legs":"M"},"bonus":1.3200000000000014},{"rt":9462,"stimulus":"bees-with-color/bee-B1SM.svg","response":0,"trial_type":"image-button-response","trial_index":127,"time_elapsed":996322,"internal_node_id":"0.0-4.0-0.60","subject_id":"60042af01e4c4b52c5ee0c01","study_id":"6197b3f67c2b5cd3b6d9596a","session_id":"6197b88befc16f34c4911fb3","condition":"full-information","relevant_dimensions":["antennae","legs"],"bee_group":{"antennae":"A","wings":"X","pattern":"X","legs":"M"},"action":"harvest","summary":"good-harvest","bonus":1.3200000000000014},{"rt":908,"stimulus":"\n                    <p><b>Action: <em>harvest</em></b></p>\n                    <p>This is the bee that you just saw.</p>\n                    <img src=\"bees-with-color/bee-B1SM.svg\" width=\"200\">\n                    <p><span class=\"greenText\"><b>Successful harvest!</b></span><br>Your pay has increased by $0.02. Your bonus pay is now $0.80.</p>\n            ","response":0,"trial_type":"html-button-response","trial_index":128,"time_elapsed":997231,"internal_node_id":"0.0-4.0-1.60","subject_id":"60042af01e4c4b52c5ee0c01","study_id":"6197b3f67c2b5cd3b6d9596a","session_id":"6197b88befc16f34c4911fb3","condition":"full-information","relevant_dimensions":["antennae","legs"],"bee_group":{"antennae":"A","wings":"X","pattern":"X","legs":"M"},"bonus":1.3200000000000014},{"rt":1758,"stimulus":"bees-with-color/bee-B1SF.svg","response":0,"trial_type":"image-button-response","trial_index":129,"time_elapsed":998991,"internal_node_id":"0.0-4.0-0.61","subject_id":"60042af01e4c4b52c5ee0c01","study_id":"6197b3f67c2b5cd3b6d9596a","session_id":"6197b88befc16f34c4911fb3","condition":"full-information","relevant_dimensions":["antennae","legs"],"bee_group":{"antennae":"A","wings":"X","pattern":"X","legs":"M"},"action":"harvest","summary":"good-harvest","bonus":1.3200000000000014},{"rt":770.0000000001164,"stimulus":"\n                    <p><b>Action: <em>harvest</em></b></p>\n                    <p>This is the bee that you just saw.</p>\n                    <img src=\"bees-with-color/bee-B1SF.svg\" width=\"200\">\n                    <p><span class=\"greenText\"><b>Successful harvest!</b></span><br>Your pay has increased by $0.02. Your bonus pay is now $0.82.</p>\n            ","response":0,"trial_type":"html-button-response","trial_index":130,"time_elapsed":999763,"internal_node_id":"0.0-4.0-1.61","subject_id":"60042af01e4c4b52c5ee0c01","study_id":"6197b3f67c2b5cd3b6d9596a","session_id":"6197b88befc16f34c4911fb3","condition":"full-information","relevant_dimensions":["antennae","legs"],"bee_group":{"antennae":"A","wings":"X","pattern":"X","legs":"M"},"bonus":1.3200000000000014},{"rt":3930,"stimulus":"bees-with-color/bee-A1DF.svg","response":0,"trial_type":"image-button-response","trial_index":131,"time_elapsed":1003695,"internal_node_id":"0.0-4.0-0.62","subject_id":"60042af01e4c4b52c5ee0c01","study_id":"6197b3f67c2b5cd3b6d9596a","session_id":"6197b88befc16f34c4911fb3","condition":"full-information","relevant_dimensions":["antennae","legs"],"bee_group":{"antennae":"A","wings":"X","pattern":"X","legs":"M"},"action":"harvest","summary":"good-harvest","bonus":1.3200000000000014},{"rt":883,"stimulus":"\n                    <p><b>Action: <em>harvest</em></b></p>\n                    <p>This is the bee that you just saw.</p>\n                    <img src=\"bees-with-color/bee-A1DF.svg\" width=\"200\">\n                    <p><span class=\"greenText\"><b>Successful harvest!</b></span><br>Your pay has increased by $0.02. Your bonus pay is now $0.84.</p>\n            ","response":0,"trial_type":"html-button-response","trial_index":132,"time_elapsed":1004579,"internal_node_id":"0.0-4.0-1.62","subject_id":"60042af01e4c4b52c5ee0c01","study_id":"6197b3f67c2b5cd3b6d9596a","session_id":"6197b88befc16f34c4911fb3","condition":"full-information","relevant_dimensions":["antennae","legs"],"bee_group":{"antennae":"A","wings":"X","pattern":"X","legs":"M"},"bonus":1.3200000000000014},{"rt":8923,"stimulus":"bees-with-color/bee-A1SM.svg","response":1,"trial_type":"image-button-response","trial_index":133,"time_elapsed":1013503,"internal_node_id":"0.0-4.0-0.63","subject_id":"60042af01e4c4b52c5ee0c01","study_id":"6197b3f67c2b5cd3b6d9596a","session_id":"6197b88befc16f34c4911fb3","condition":"full-information","relevant_dimensions":["antennae","legs"],"bee_group":{"antennae":"A","wings":"X","pattern":"X","legs":"M"},"action":"avoid","summary":"good-avoid","bonus":1.3200000000000014},{"rt":972,"stimulus":"\n                    <p><b>Action: <em>avoid</em></b></p>\n                    <p>This is the bee that you just saw.</p>\n                    <img src=\"bees-with-color/bee-A1SM.svg\" width=\"200\">\n                    <p><span class=\"greenText\">Good choice!</span>  This bee would have stung you.<br>Your bonus pay is unchanged, and remains at $0.84.</p>\n            ","response":0,"trial_type":"html-button-response","trial_index":134,"time_elapsed":1014476,"internal_node_id":"0.0-4.0-1.63","subject_id":"60042af01e4c4b52c5ee0c01","study_id":"6197b3f67c2b5cd3b6d9596a","session_id":"6197b88befc16f34c4911fb3","condition":"full-information","relevant_dimensions":["antennae","legs"],"bee_group":{"antennae":"A","wings":"X","pattern":"X","legs":"M"},"bonus":1.3200000000000014},{"rt":4597.000000000116,"stimulus":"You have completed the first part of this experiment.<br><br>You will now begin a shorter second part, in which you will receive no feedback.<br>The same rules regarding bonus pay apply.<br><br>Press any key to begin.","response":" ","trial_type":"html-keyboard-response","trial_index":135,"time_elapsed":1019074,"internal_node_id":"0.0-5.0","subject_id":"60042af01e4c4b52c5ee0c01","study_id":"6197b3f67c2b5cd3b6d9596a","session_id":"6197b88befc16f34c4911fb3","condition":"full-information","relevant_dimensions":["antennae","legs"],"bee_group":{"antennae":"A","wings":"X","pattern":"X","legs":"M"},"bonus":1.3200000000000014},{"rt":9015.000000000116,"stimulus":"bees-with-color/bee-B2SF.svg","response":0,"trial_type":"image-button-response","trial_index":136,"time_elapsed":1028095,"internal_node_id":"0.0-6.0-0.0","subject_id":"60042af01e4c4b52c5ee0c01","study_id":"6197b3f67c2b5cd3b6d9596a","session_id":"6197b88befc16f34c4911fb3","condition":"full-information","relevant_dimensions":["antennae","legs"],"bee_group":{"antennae":"A","wings":"X","pattern":"X","legs":"M"},"bonus":1.3200000000000014},{"rt":7826,"stimulus":"bees-with-color/bee-A1DM.svg","response":1,"trial_type":"image-button-response","trial_index":137,"time_elapsed":1035926,"internal_node_id":"0.0-6.0-0.1","subject_id":"60042af01e4c4b52c5ee0c01","study_id":"6197b3f67c2b5cd3b6d9596a","session_id":"6197b88befc16f34c4911fb3","condition":"full-information","relevant_dimensions":["antennae","legs"],"bee_group":{"antennae":"A","wings":"X","pattern":"X","legs":"M"},"bonus":1.3200000000000014},{"rt":15239.999999999884,"stimulus":"bees-with-color/bee-A2SF.svg","response":0,"trial_type":"image-button-response","trial_index":138,"time_elapsed":1051171,"internal_node_id":"0.0-6.0-0.2","subject_id":"60042af01e4c4b52c5ee0c01","study_id":"6197b3f67c2b5cd3b6d9596a","session_id":"6197b88befc16f34c4911fb3","condition":"full-information","relevant_dimensions":["antennae","legs"],"bee_group":{"antennae":"A","wings":"X","pattern":"X","legs":"M"},"bonus":1.3200000000000014},{"rt":10039,"stimulus":"bees-with-color/bee-B2DF.svg","response":0,"trial_type":"image-button-response","trial_index":139,"time_elapsed":1061215,"internal_node_id":"0.0-6.0-0.3","subject_id":"60042af01e4c4b52c5ee0c01","study_id":"6197b3f67c2b5cd3b6d9596a","session_id":"6197b88befc16f34c4911fb3","condition":"full-information","relevant_dimensions":["antennae","legs"],"bee_group":{"antennae":"A","wings":"X","pattern":"X","legs":"M"},"bonus":1.3200000000000014},{"rt":15207,"stimulus":"bees-with-color/bee-B1DM.svg","response":0,"trial_type":"image-button-response","trial_index":140,"time_elapsed":1076427,"internal_node_id":"0.0-6.0-0.4","subject_id":"60042af01e4c4b52c5ee0c01","study_id":"6197b3f67c2b5cd3b6d9596a","session_id":"6197b88befc16f34c4911fb3","condition":"full-information","relevant_dimensions":["antennae","legs"],"bee_group":{"antennae":"A","wings":"X","pattern":"X","legs":"M"},"bonus":1.3200000000000014},{"rt":6261,"stimulus":"bees-with-color/bee-A1SF.svg","response":0,"trial_type":"image-button-response","trial_index":141,"time_elapsed":1082692,"internal_node_id":"0.0-6.0-0.5","subject_id":"60042af01e4c4b52c5ee0c01","study_id":"6197b3f67c2b5cd3b6d9596a","session_id":"6197b88befc16f34c4911fb3","condition":"full-information","relevant_dimensions":["antennae","legs"],"bee_group":{"antennae":"A","wings":"X","pattern":"X","legs":"M"},"bonus":1.3200000000000014},{"rt":10343,"stimulus":"bees-with-color/bee-B2DM.svg","response":0,"trial_type":"image-button-response","trial_index":142,"time_elapsed":1093042,"internal_node_id":"0.0-6.0-0.6","subject_id":"60042af01e4c4b52c5ee0c01","study_id":"6197b3f67c2b5cd3b6d9596a","session_id":"6197b88befc16f34c4911fb3","condition":"full-information","relevant_dimensions":["antennae","legs"],"bee_group":{"antennae":"A","wings":"X","pattern":"X","legs":"M"},"bonus":1.3200000000000014},{"rt":9331,"stimulus":"bees-with-color/bee-A2DM.svg","response":1,"trial_type":"image-button-response","trial_index":143,"time_elapsed":1102378,"internal_node_id":"0.0-6.0-0.7","subject_id":"60042af01e4c4b52c5ee0c01","study_id":"6197b3f67c2b5cd3b6d9596a","session_id":"6197b88befc16f34c4911fb3","condition":"full-information","relevant_dimensions":["antennae","legs"],"bee_group":{"antennae":"A","wings":"X","pattern":"X","legs":"M"},"bonus":1.3200000000000014},{"rt":7937.999999999767,"stimulus":"bees-with-color/bee-A1SM.svg","response":1,"trial_type":"image-button-response","trial_index":144,"time_elapsed":1110321,"internal_node_id":"0.0-6.0-0.8","subject_id":"60042af01e4c4b52c5ee0c01","study_id":"6197b3f67c2b5cd3b6d9596a","session_id":"6197b88befc16f34c4911fb3","condition":"full-information","relevant_dimensions":["antennae","legs"],"bee_group":{"antennae":"A","wings":"X","pattern":"X","legs":"M"},"bonus":1.3200000000000014},{"rt":12689,"stimulus":"bees-with-color/bee-A2SM.svg","response":1,"trial_type":"image-button-response","trial_index":145,"time_elapsed":1123014,"internal_node_id":"0.0-6.0-0.9","subject_id":"60042af01e4c4b52c5ee0c01","study_id":"6197b3f67c2b5cd3b6d9596a","session_id":"6197b88befc16f34c4911fb3","condition":"full-information","relevant_dimensions":["antennae","legs"],"bee_group":{"antennae":"A","wings":"X","pattern":"X","legs":"M"},"bonus":1.3200000000000014},{"rt":2903,"stimulus":"bees-with-color/bee-A1DF.svg","response":0,"trial_type":"image-button-response","trial_index":146,"time_elapsed":1125920,"internal_node_id":"0.0-6.0-0.10","subject_id":"60042af01e4c4b52c5ee0c01","study_id":"6197b3f67c2b5cd3b6d9596a","session_id":"6197b88befc16f34c4911fb3","condition":"full-information","relevant_dimensions":["antennae","legs"],"bee_group":{"antennae":"A","wings":"X","pattern":"X","legs":"M"},"bonus":1.3200000000000014},{"rt":18219,"stimulus":"bees-with-color/bee-B2SM.svg","response":0,"trial_type":"image-button-response","trial_index":147,"time_elapsed":1144143,"internal_node_id":"0.0-6.0-0.11","subject_id":"60042af01e4c4b52c5ee0c01","study_id":"6197b3f67c2b5cd3b6d9596a","session_id":"6197b88befc16f34c4911fb3","condition":"full-information","relevant_dimensions":["antennae","legs"],"bee_group":{"antennae":"A","wings":"X","pattern":"X","legs":"M"},"bonus":1.3200000000000014},{"rt":1442,"stimulus":"bees-with-color/bee-B1SF.svg","response":0,"trial_type":"image-button-response","trial_index":148,"time_elapsed":1145588,"internal_node_id":"0.0-6.0-0.12","subject_id":"60042af01e4c4b52c5ee0c01","study_id":"6197b3f67c2b5cd3b6d9596a","session_id":"6197b88befc16f34c4911fb3","condition":"full-information","relevant_dimensions":["antennae","legs"],"bee_group":{"antennae":"A","wings":"X","pattern":"X","legs":"M"},"bonus":1.3200000000000014},{"rt":20055,"stimulus":"bees-with-color/bee-B1SM.svg","response":0,"trial_type":"image-button-response","trial_index":149,"time_elapsed":1165645,"internal_node_id":"0.0-6.0-0.13","subject_id":"60042af01e4c4b52c5ee0c01","study_id":"6197b3f67c2b5cd3b6d9596a","session_id":"6197b88befc16f34c4911fb3","condition":"full-information","relevant_dimensions":["antennae","legs"],"bee_group":{"antennae":"A","wings":"X","pattern":"X","legs":"M"},"bonus":1.3200000000000014},{"rt":3567,"stimulus":"bees-with-color/bee-B1DF.svg","response":0,"trial_type":"image-button-response","trial_index":150,"time_elapsed":1169216,"internal_node_id":"0.0-6.0-0.14","subject_id":"60042af01e4c4b52c5ee0c01","study_id":"6197b3f67c2b5cd3b6d9596a","session_id":"6197b88befc16f34c4911fb3","condition":"full-information","relevant_dimensions":["antennae","legs"],"bee_group":{"antennae":"A","wings":"X","pattern":"X","legs":"M"},"bonus":1.3200000000000014},{"rt":3568,"stimulus":"bees-with-color/bee-A2DF.svg","response":0,"trial_type":"image-button-response","trial_index":151,"time_elapsed":1172786,"internal_node_id":"0.0-6.0-0.15","subject_id":"60042af01e4c4b52c5ee0c01","study_id":"6197b3f67c2b5cd3b6d9596a","session_id":"6197b88befc16f34c4911fb3","condition":"full-information","relevant_dimensions":["antennae","legs"],"bee_group":{"antennae":"A","wings":"X","pattern":"X","legs":"M"},"bonus":1.3200000000000014},{"rt":7483,"stimulus":"bees-with-color/bee-B2DF.svg","response":0,"trial_type":"image-button-response","trial_index":152,"time_elapsed":1180272,"internal_node_id":"0.0-6.0-0.16","subject_id":"60042af01e4c4b52c5ee0c01","study_id":"6197b3f67c2b5cd3b6d9596a","session_id":"6197b88befc16f34c4911fb3","condition":"full-information","relevant_dimensions":["antennae","legs"],"bee_group":{"antennae":"A","wings":"X","pattern":"X","legs":"M"},"bonus":1.3200000000000014},{"rt":3123,"stimulus":"bees-with-color/bee-A2DM.svg","response":1,"trial_type":"image-button-response","trial_index":153,"time_elapsed":1183399,"internal_node_id":"0.0-6.0-0.17","subject_id":"60042af01e4c4b52c5ee0c01","study_id":"6197b3f67c2b5cd3b6d9596a","session_id":"6197b88befc16f34c4911fb3","condition":"full-information","relevant_dimensions":["antennae","legs"],"bee_group":{"antennae":"A","wings":"X","pattern":"X","legs":"M"},"bonus":1.3200000000000014},{"rt":34697,"stimulus":"bees-with-color/bee-B1SM.svg","response":0,"trial_type":"image-button-response","trial_index":154,"time_elapsed":1218099,"internal_node_id":"0.0-6.0-0.18","subject_id":"60042af01e4c4b52c5ee0c01","study_id":"6197b3f67c2b5cd3b6d9596a","session_id":"6197b88befc16f34c4911fb3","condition":"full-information","relevant_dimensions":["antennae","legs"],"bee_group":{"antennae":"A","wings":"X","pattern":"X","legs":"M"},"bonus":1.3200000000000014},{"rt":57122,"stimulus":"bees-with-color/bee-B2DM.svg","response":0,"trial_type":"image-button-response","trial_index":155,"time_elapsed":1275226,"internal_node_id":"0.0-6.0-0.19","subject_id":"60042af01e4c4b52c5ee0c01","study_id":"6197b3f67c2b5cd3b6d9596a","session_id":"6197b88befc16f34c4911fb3","condition":"full-information","relevant_dimensions":["antennae","legs"],"bee_group":{"antennae":"A","wings":"X","pattern":"X","legs":"M"},"bonus":1.3200000000000014},{"rt":13584,"stimulus":"bees-with-color/bee-B1DM.svg","response":0,"trial_type":"image-button-response","trial_index":156,"time_elapsed":1288814,"internal_node_id":"0.0-6.0-0.20","subject_id":"60042af01e4c4b52c5ee0c01","study_id":"6197b3f67c2b5cd3b6d9596a","session_id":"6197b88befc16f34c4911fb3","condition":"full-information","relevant_dimensions":["antennae","legs"],"bee_group":{"antennae":"A","wings":"X","pattern":"X","legs":"M"},"bonus":1.3200000000000014},{"rt":14406.000000000233,"stimulus":"bees-with-color/bee-A2SM.svg","response":1,"trial_type":"image-button-response","trial_index":157,"time_elapsed":1303224,"internal_node_id":"0.0-6.0-0.21","subject_id":"60042af01e4c4b52c5ee0c01","study_id":"6197b3f67c2b5cd3b6d9596a","session_id":"6197b88befc16f34c4911fb3","condition":"full-information","relevant_dimensions":["antennae","legs"],"bee_group":{"antennae":"A","wings":"X","pattern":"X","legs":"M"},"bonus":1.3200000000000014},{"rt":6631,"stimulus":"bees-with-color/bee-A2SF.svg","response":0,"trial_type":"image-button-response","trial_index":158,"time_elapsed":1309858,"internal_node_id":"0.0-6.0-0.22","subject_id":"60042af01e4c4b52c5ee0c01","study_id":"6197b3f67c2b5cd3b6d9596a","session_id":"6197b88befc16f34c4911fb3","condition":"full-information","relevant_dimensions":["antennae","legs"],"bee_group":{"antennae":"A","wings":"X","pattern":"X","legs":"M"},"bonus":1.3200000000000014},{"rt":33665,"stimulus":"bees-with-color/bee-B2SM.svg","response":0,"trial_type":"image-button-response","trial_index":159,"time_elapsed":1343527,"internal_node_id":"0.0-6.0-0.23","subject_id":"60042af01e4c4b52c5ee0c01","study_id":"6197b3f67c2b5cd3b6d9596a","session_id":"6197b88befc16f34c4911fb3","condition":"full-information","relevant_dimensions":["antennae","legs"],"bee_group":{"antennae":"A","wings":"X","pattern":"X","legs":