[{"success":true,"trial_type":"fullscreen","trial_index":0,"time_elapsed":3296,"internal_node_id":"0.0-0.0","subject_id":"6161d2a6b6dcc778b5b930bb","study_id":"6197b3f67c2b5cd3b6d9596a","session_id":"6197b9eb975f25f15e4bb557","condition":"full-information","relevant_dimensions":["antennae","pattern"],"bee_group":{"antennae":"B","wings":"X","pattern":"S","legs":"X"},"bonus":0},{"success":true,"timeout":false,"failed_images":[],"failed_audio":[],"failed_video":[],"trial_type":"preload","trial_index":1,"time_elapsed":4823,"internal_node_id":"0.0-1.0","subject_id":"6161d2a6b6dcc778b5b930bb","study_id":"6197b3f67c2b5cd3b6d9596a","session_id":"6197b9eb975f25f15e4bb557","condition":"full-information","relevant_dimensions":["antennae","pattern"],"bee_group":{"antennae":"B","wings":"X","pattern":"S","legs":"X"},"bonus":0},{"rt":1504.800000011921,"stimulus":"Welcome! Press any key to begin.","response":" ","trial_type":"html-keyboard-response","trial_index":2,"time_elapsed":6329,"internal_node_id":"0.0-2.0","subject_id":"6161d2a6b6dcc778b5b930bb","study_id":"6197b3f67c2b5cd3b6d9596a","session_id":"6197b9eb975f25f15e4bb557","condition":"full-information","relevant_dimensions":["antennae","pattern"],"bee_group":{"antennae":"B","wings":"X","pattern":"S","legs":"X"},"bonus":0},{"view_history":[{"page_index":0,"viewing_time":3077.5},{"page_index":1,"viewing_time":6767.799999982119},{"page_index":2,"viewing_time":3491.7000000178814},{"page_index":3,"viewing_time":7664.199999988079},{"page_index":4,"viewing_time":3980.0999999940395},{"page_index":5,"viewing_time":3499.800000011921},{"page_index":6,"viewing_time":4475.9000000059605},{"page_index":7,"viewing_time":4892.0999999940395},{"page_index":8,"viewing_time":1832.0999999940395},{"page_index":9,"viewing_time":1635.9000000059605},{"page_index":10,"viewing_time":1704.0999999940395},{"page_index":11,"viewing_time":5004.300000011921},{"page_index":12,"viewing_time":8591.899999976158},{"page_index":13,"viewing_time":1219.5},{"page_index":14,"viewing_time":1496.4000000059605}],"rt":59333.39999997616,"trial_type":"instructions","trial_index":3,"time_elapsed":65664,"internal_node_id":"0.0-3.0-0.0","subject_id":"6161d2a6b6dcc778b5b930bb","study_id":"6197b3f67c2b5cd3b6d9596a","session_id":"6197b9eb975f25f15e4bb557","condition":"full-information","relevant_dimensions":["antennae","pattern"],"bee_group":{"antennae":"B","wings":"X","pattern":"S","legs":"X"},"bonus":0},{"rt":11885.59999999404,"response":{"Q0":["Two or six legs","Stripes or spots on body","Single or double wings","Antennae or no antennae"]},"question_order":[0],"trial_type":"survey-multi-select","trial_index":4,"time_elapsed":77552,"internal_node_id":"0.0-3.0-1.0","subject_id":"6161d2a6b6dcc778b5b930bb","study_id":"6197b3f67c2b5cd3b6d9596a","session_id":"6197b9eb975f25f15e4bb557","condition":"full-information","relevant_dimensions":["antennae","pattern"],"bee_group":{"antennae":"B","wings":"X","pattern":"S","legs":"X"},"correct":true,"bonus":0},{"rt":19014.09999999404,"response":{"Q1":"No.","Q2":"Based on the four features of the bee.","Q3":"You learn if it was friendly or dangerous, but do not alter your bonus."},"question_order":[0,1,2],"trial_type":"survey-multi-choice","trial_index":5,"time_elapsed":96568,"internal_node_id":"0.0-3.0-2.0","subject_id":"6161d2a6b6dcc778b5b930bb","study_id":"6197b3f67c2b5cd3b6d9596a","session_id":"6197b9eb975f25f15e4bb557","condition":"full-information","relevant_dimensions":["antennae","pattern"],"bee_group":{"antennae":"B","wings":"X","pattern":"S","legs":"X"},"correct":true,"bonus":0},{"rt":3074.2000000178814,"stimulus":"<p>Congrats, you got everything right<br>When you're ready, click the button below to continue to the experiment.</p>","response":0,"trial_type":"html-button-response","trial_index":6,"time_elapsed":99644,"internal_node_id":"0.0-3.0-3.0","subject_id":"6161d2a6b6dcc778b5b930bb","study_id":"6197b3f67c2b5cd3b6d9596a","session_id":"6197b9eb975f25f15e4bb557","condition":"full-information","relevant_dimensions":["antennae","pattern"],"bee_group":{"antennae":"B","wings":"X","pattern":"S","legs":"X"},"bonus":0},{"rt":5970.0999999940395,"stimulus":"bees-with-color/bee-B1DF.svg","response":1,"trial_type":"image-button-response","trial_index":7,"time_elapsed":105616,"internal_node_id":"0.0-4.0-0.0","subject_id":"6161d2a6b6dcc778b5b930bb","study_id":"6197b3f67c2b5cd3b6d9596a","session_id":"6197b9eb975f25f15e4bb557","condition":"full-information","relevant_dimensions":["antennae","pattern"],"bee_group":{"antennae":"B","wings":"X","pattern":"S","legs":"X"},"action":"avoid","summary":"bad-avoid","bonus":0},{"rt":5186.699999988079,"stimulus":"\n                    <p><b>Action: <em>avoid</em></b></p>\n                    <p>This is the bee that you just saw.</p>\n                    <img src=\"bees-with-color/bee-B1DF.svg\" width=\"200\">\n                    <p><span class=\"redText\">Bad choice,</span> the bee was friendly.<br>Your bonus pay is unchanged, and remains at $0.54.</p>\n            ","response":0,"trial_type":"html-button-response","trial_index":8,"time_elapsed":110828,"internal_node_id":"0.0-4.0-1.0","subject_id":"6161d2a6b6dcc778b5b930bb","study_id":"6197b3f67c2b5cd3b6d9596a","session_id":"6197b9eb975f25f15e4bb557","condition":"full-information","relevant_dimensions":["antennae","pattern"],"bee_group":{"antennae":"B","wings":"X","pattern":"S","legs":"X"},"bonus":0},{"rt":2502.199999988079,"stimulus":"bees-with-color/bee-A1SF.svg","response":0,"trial_type":"image-button-response","trial_index":9,"time_elapsed":113332,"internal_node_id":"0.0-4.0-0.1","subject_id":"6161d2a6b6dcc778b5b930bb","study_id":"6197b3f67c2b5cd3b6d9596a","session_id":"6197b9eb975f25f15e4bb557","condition":"full-information","relevant_dimensions":["antennae","pattern"],"bee_group":{"antennae":"B","wings":"X","pattern":"S","legs":"X"},"action":"harvest","summary":"good-harvest","bonus":0},{"rt":3786.5999999940395,"stimulus":"\n                    <p><b>Action: <em>harvest</em></b></p>\n                    <p>This is the bee that you just saw.</p>\n                    <img src=\"bees-with-color/bee-A1SF.svg\" width=\"200\">\n                    <p><span class=\"greenText\"><b>Successful harvest!</b></span><br>Your pay has increased by $0.02. Your bonus pay is now $0.56.</p>\n            ","response":0,"trial_type":"html-button-response","trial_index":10,"time_elapsed":117120,"internal_node_id":"0.0-4.0-1.1","subject_id":"6161d2a6b6dcc778b5b930bb","study_id":"6197b3f67c2b5cd3b6d9596a","session_id":"6197b9eb975f25f15e4bb557","condition":"full-information","relevant_dimensions":["antennae","pattern"],"bee_group":{"antennae":"B","wings":"X","pattern":"S","legs":"X"},"bonus":0},{"rt":2842.300000011921,"stimulus":"bees-with-color/bee-A2DF.svg","response":1,"trial_type":"image-button-response","trial_index":11,"time_elapsed":119964,"internal_node_id":"0.0-4.0-0.2","subject_id":"6161d2a6b6dcc778b5b930bb","study_id":"6197b3f67c2b5cd3b6d9596a","session_id":"6197b9eb975f25f15e4bb557","condition":"full-information","relevant_dimensions":["antennae","pattern"],"bee_group":{"antennae":"B","wings":"X","pattern":"S","legs":"X"},"action":"avoid","summary":"bad-avoid","bonus":0},{"rt":4146.5999999940395,"stimulus":"\n                    <p><b>Action: <em>avoid</em></b></p>\n                    <p>This is the bee that you just saw.</p>\n                    <img src=\"bees-with-color/bee-A2DF.svg\" width=\"200\">\n                    <p><span class=\"redText\">Bad choice,</span> the bee was friendly.<br>Your bonus pay is unchanged, and remains at $0.56.</p>\n            ","response":0,"trial_type":"html-button-response","trial_index":12,"time_elapsed":124112,"internal_node_id":"0.0-4.0-1.2","subject_id":"6161d2a6b6dcc778b5b930bb","study_id":"6197b3f67c2b5cd3b6d9596a","session_id":"6197b9eb975f25f15e4bb557","condition":"full-information","relevant_dimensions":["antennae","pattern"],"bee_group":{"antennae":"B","wings":"X","pattern":"S","legs":"X"},"bonus":0},{"rt":2182.9000000059605,"stimulus":"bees-with-color/bee-B2SF.svg","response":1,"trial_type":"image-button-response","trial_index":13,"time_elapsed":126296,"internal_node_id":"0.0-4.0-0.3","subject_id":"6161d2a6b6dcc778b5b930bb","study_id":"6197b3f67c2b5cd3b6d9596a","session_id":"6197b9eb975f25f15e4bb557","condition":"full-information","relevant_dimensions":["antennae","pattern"],"bee_group":{"antennae":"B","wings":"X","pattern":"S","legs":"X"},"action":"avoid","summary":"good-avoid","bonus":0},{"rt":3570.7000000178814,"stimulus":"\n                    <p><b>Action: <em>avoid</em></b></p>\n                    <p>This is the bee that you just saw.</p>\n                    <img src=\"bees-with-color/bee-B2SF.svg\" width=\"200\">\n                    <p><span class=\"greenText\">Good choice!</span>  This bee would have stung you.<br>Your bonus pay is unchanged, and remains at $0.56.</p>\n            ","response":0,"trial_type":"html-button-response","trial_index":14,"time_elapsed":129867,"internal_node_id":"0.0-4.0-1.3","subject_id":"6161d2a6b6dcc778b5b930bb","study_id":"6197b3f67c2b5cd3b6d9596a","session_id":"6197b9eb975f25f15e4bb557","condition":"full-information","relevant_dimensions":["antennae","pattern"],"bee_group":{"antennae":"B","wings":"X","pattern":"S","legs":"X"},"bonus":0},{"rt":2450.800000011921,"stimulus":"bees-with-color/bee-B2DF.svg","response":0,"trial_type":"image-button-response","trial_index":15,"time_elapsed":132320,"internal_node_id":"0.0-4.0-0.4","subject_id":"6161d2a6b6dcc778b5b930bb","study_id":"6197b3f67c2b5cd3b6d9596a","session_id":"6197b9eb975f25f15e4bb557","condition":"full-information","relevant_dimensions":["antennae","pattern"],"bee_group":{"antennae":"B","wings":"X","pattern":"S","legs":"X"},"action":"harvest","summary":"good-harvest","bonus":0},{"rt":2722.300000011921,"stimulus":"\n                    <p><b>Action: <em>harvest</em></b></p>\n                    <p>This is the bee that you just saw.</p>\n                    <img src=\"bees-with-color/bee-B2DF.svg\" width=\"200\">\n                    <p><span class=\"greenText\"><b>Successful harvest!</b></span><br>Your pay has increased by $0.02. Your bonus pay is now $0.58.</p>\n            ","response":0,"trial_type":"html-button-response","trial_index":16,"time_elapsed":135043,"internal_node_id":"0.0-4.0-1.4","subject_id":"6161d2a6b6dcc778b5b930bb","study_id":"6197b3f67c2b5cd3b6d9596a","session_id":"6197b9eb975f25f15e4bb557","condition":"full-information","relevant_dimensions":["antennae","pattern"],"bee_group":{"antennae":"B","wings":"X","pattern":"S","legs":"X"},"bonus":0},{"rt":3047,"stimulus":"bees-with-color/bee-A1DM.svg","response":1,"trial_type":"image-button-response","trial_index":17,"time_elapsed":138092,"internal_node_id":"0.0-4.0-0.5","subject_id":"6161d2a6b6dcc778b5b930bb","study_id":"6197b3f67c2b5cd3b6d9596a","session_id":"6197b9eb975f25f15e4bb557","condition":"full-information","relevant_dimensions":["antennae","pattern"],"bee_group":{"antennae":"B","wings":"X","pattern":"S","legs":"X"},"action":"avoid","summary":"bad-avoid","bonus":0},{"rt":2858.9000000059605,"stimulus":"\n                    <p><b>Action: <em>avoid</em></b></p>\n                    <p>This is the bee that you just saw.</p>\n                    <img src=\"bees-with-color/bee-A1DM.svg\" width=\"200\">\n                    <p><span class=\"redText\">Bad choice,</span> the bee was friendly.<br>Your bonus pay is unchanged, and remains at $0.58.</p>\n            ","response":0,"trial_type":"html-button-response","trial_index":18,"time_elapsed":140952,"internal_node_id":"0.0-4.0-1.5","subject_id":"6161d2a6b6dcc778b5b930bb","study_id":"6197b3f67c2b5cd3b6d9596a","session_id":"6197b9eb975f25f15e4bb557","condition":"full-information","relevant_dimensions":["antennae","pattern"],"bee_group":{"antennae":"B","wings":"X","pattern":"S","legs":"X"},"bonus":0},{"rt":1938.4000000059605,"stimulus":"bees-with-color/bee-A2SF.svg","response":1,"trial_type":"image-button-response","trial_index":19,"time_elapsed":142892,"internal_node_id":"0.0-4.0-0.6","subject_id":"6161d2a6b6dcc778b5b930bb","study_id":"6197b3f67c2b5cd3b6d9596a","session_id":"6197b9eb975f25f15e4bb557","condition":"full-information","relevant_dimensions":["antennae","pattern"],"bee_group":{"antennae":"B","wings":"X","pattern":"S","legs":"X"},"action":"avoid","summary":"bad-avoid","bonus":0},{"rt":2483,"stimulus":"\n                    <p><b>Action: <em>avoid</em></b></p>\n                    <p>This is the bee that you just saw.</p>\n                    <img src=\"bees-with-color/bee-A2SF.svg\" width=\"200\">\n                    <p><span class=\"redText\">Bad choice,</span> the bee was friendly.<br>Your bonus pay is unchanged, and remains at $0.58.</p>\n            ","response":0,"trial_type":"html-button-response","trial_index":20,"time_elapsed":145376,"internal_node_id":"0.0-4.0-1.6","subject_id":"6161d2a6b6dcc778b5b930bb","study_id":"6197b3f67c2b5cd3b6d9596a","session_id":"6197b9eb975f25f15e4bb557","condition":"full-information","relevant_dimensions":["antennae","pattern"],"bee_group":{"antennae":"B","wings":"X","pattern":"S","legs":"X"},"bonus":0},{"rt":2886.699999988079,"stimulus":"bees-with-color/bee-B1SM.svg","response":0,"trial_type":"image-button-response","trial_index":21,"time_elapsed":148264,"internal_node_id":"0.0-4.0-0.7","subject_id":"6161d2a6b6dcc778b5b930bb","study_id":"6197b3f67c2b5cd3b6d9596a","session_id":"6197b9eb975f25f15e4bb557","condition":"full-information","relevant_dimensions":["antennae","pattern"],"bee_group":{"antennae":"B","wings":"X","pattern":"S","legs":"X"},"action":"harvest","summary":"bad-harvest","bonus":0},{"rt":4354.800000011921,"stimulus":"\n                    <p><b>Action: <em>harvest</em></b></p>\n                    <p>This is the bee that you just saw.</p>\n                    <img src=\"bees-with-color/bee-B1SM.svg\" width=\"200\">\n                    <p><span class=\"redText\">Bad choice, the bee was angry.</span><br><b>You have been stung!</b><br>Your pay has been decreased by $0.10. Your bonus pay is now $0.48.</p>\n            ","response":0,"trial_type":"html-button-response","trial_index":22,"time_elapsed":152620,"internal_node_id":"0.0-4.0-1.7","subject_id":"6161d2a6b6dcc778b5b930bb","study_id":"6197b3f67c2b5cd3b6d9596a","session_id":"6197b9eb975f25f15e4bb557","condition":"full-information","relevant_dimensions":["antennae","pattern"],"bee_group":{"antennae":"B","wings":"X","pattern":"S","legs":"X"},"bonus":0},{"rt":2622.2000000178814,"stimulus":"bees-with-color/bee-A2DM.svg","response":0,"trial_type":"image-button-response","trial_index":23,"time_elapsed":155244,"internal_node_id":"0.0-4.0-0.8","subject_id":"6161d2a6b6dcc778b5b930bb","study_id":"6197b3f67c2b5cd3b6d9596a","session_id":"6197b9eb975f25f15e4bb557","condition":"full-information","relevant_dimensions":["antennae","pattern"],"bee_group":{"antennae":"B","wings":"X","pattern":"S","legs":"X"},"action":"harvest","summary":"good-harvest","bonus":0},{"rt":2450.800000011921,"stimulus":"\n                    <p><b>Action: <em>harvest</em></b></p>\n                    <p>This is the bee that you just saw.</p>\n                    <img src=\"bees-with-color/bee-A2DM.svg\" width=\"200\">\n                    <p><span class=\"greenText\"><b>Successful harvest!</b></span><br>Your pay has increased by $0.02. Your bonus pay is now $0.50.</p>\n            ","response":0,"trial_type":"html-button-response","trial_index":24,"time_elapsed":157696,"internal_node_id":"0.0-4.0-1.8","subject_id":"6161d2a6b6dcc778b5b930bb","study_id":"6197b3f67c2b5cd3b6d9596a","session_id":"6197b9eb975f25f15e4bb557","condition":"full-information","relevant_dimensions":["antennae","pattern"],"bee_group":{"antennae":"B","wings":"X","pattern":"S","legs":"X"},"bonus":0},{"rt":2750.800000011921,"stimulus":"bees-with-color/bee-B2DM.svg","response":0,"trial_type":"image-button-response","trial_index":25,"time_elapsed":160447,"internal_node_id":"0.0-4.0-0.9","subject_id":"6161d2a6b6dcc778b5b930bb","study_id":"6197b3f67c2b5cd3b6d9596a","session_id":"6197b9eb975f25f15e4bb557","condition":"full-information","relevant_dimensions":["antennae","pattern"],"bee_group":{"antennae":"B","wings":"X","pattern":"S","legs":"X"},"action":"harvest","summary":"good-harvest","bonus":0},{"rt":2671.0999999940395,"stimulus":"\n                    <p><b>Action: <em>harvest</em></b></p>\n                    <p>This is the bee that you just saw.</p>\n                    <img src=\"bees-with-color/bee-B2DM.svg\" width=\"200\">\n                    <p><span class=\"greenText\"><b>Successful harvest!</b></span><br>Your pay has increased by $0.02. Your bonus pay is now $0.52.</p>\n            ","response":0,"trial_type":"html-button-response","trial_index":26,"time_elapsed":163120,"internal_node_id":"0.0-4.0-1.9","subject_id":"6161d2a6b6dcc778b5b930bb","study_id":"6197b3f67c2b5cd3b6d9596a","session_id":"6197b9eb975f25f15e4bb557","condition":"full-information","relevant_dimensions":["antennae","pattern"],"bee_group":{"antennae":"B","wings":"X","pattern":"S","legs":"X"},"bonus":0},{"rt":2618.5999999940395,"stimulus":"bees-with-color/bee-A2SM.svg","response":0,"trial_type":"image-button-response","trial_index":27,"time_elapsed":165740,"internal_node_id":"0.0-4.0-0.10","subject_id":"6161d2a6b6dcc778b5b930bb","study_id":"6197b3f67c2b5cd3b6d9596a","session_id":"6197b9eb975f25f15e4bb557","condition":"full-information","relevant_dimensions":["antennae","pattern"],"bee_group":{"antennae":"B","wings":"X","pattern":"S","legs":"X"},"action":"harvest","summary":"good-harvest","bonus":0},{"rt":2418.800000011921,"stimulus":"\n                    <p><b>Action: <em>harvest</em></b></p>\n                    <p>This is the bee that you just saw.</p>\n                    <img src=\"bees-with-color/bee-A2SM.svg\" width=\"200\">\n                    <p><span class=\"greenText\"><b>Successful harvest!</b></span><br>Your pay has increased by $0.02. Your bonus pay is now $0.54.</p>\n            ","response":0,"trial_type":"html-button-response","trial_index":28,"time_elapsed":168160,"internal_node_id":"0.0-4.0-1.10","subject_id":"6161d2a6b6dcc778b5b930bb","study_id":"6197b3f67c2b5cd3b6d9596a","session_id":"6197b9eb975f25f15e4bb557","condition":"full-information","relevant_dimensions":["antennae","pattern"],"bee_group":{"antennae":"B","wings":"X","pattern":"S","legs":"X"},"bonus":0},{"rt":5854.5,"stimulus":"bees-with-color/bee-A1SM.svg","response":1,"trial_type":"image-button-response","trial_index":29,"time_elapsed":174015,"internal_node_id":"0.0-4.0-0.11","subject_id":"6161d2a6b6dcc778b5b930bb","study_id":"6197b3f67c2b5cd3b6d9596a","session_id":"6197b9eb975f25f15e4bb557","condition":"full-information","relevant_dimensions":["antennae","pattern"],"bee_group":{"antennae":"B","wings":"X","pattern":"S","legs":"X"},"action":"avoid","summary":"bad-avoid","bonus":0},{"rt":1923,"stimulus":"\n                    <p><b>Action: <em>avoid</em></b></p>\n                    <p>This is the bee that you just saw.</p>\n                    <img src=\"bees-with-color/bee-A1SM.svg\" width=\"200\">\n                    <p><span class=\"redText\">Bad choice,</span> the bee was friendly.<br>Your bonus pay is unchanged, and remains at $0.54.</p>\n            ","response":0,"trial_type":"html-button-response","trial_index":30,"time_elapsed":175940,"internal_node_id":"0.0-4.0-1.11","subject_id":"6161d2a6b6dcc778b5b930bb","study_id":"6197b3f67c2b5cd3b6d9596a","session_id":"6197b9eb975f25f15e4bb557","condition":"full-information","relevant_dimensions":["antennae","pattern"],"bee_group":{"antennae":"B","wings":"X","pattern":"S","legs":"X"},"bonus":0},{"rt":2030.5,"stimulus":"bees-with-color/bee-B1SF.svg","response":0,"trial_type":"image-button-response","trial_index":31,"time_elapsed":177972,"internal_node_id":"0.0-4.0-0.12","subject_id":"6161d2a6b6dcc778b5b930bb","study_id":"6197b3f67c2b5cd3b6d9596a","session_id":"6197b9eb975f25f15e4bb557","condition":"full-information","relevant_dimensions":["antennae","pattern"],"bee_group":{"antennae":"B","wings":"X","pattern":"S","legs":"X"},"action":"harvest","summary":"bad-harvest","bonus":0},{"rt":3778.7999999821186,"stimulus":"\n                    <p><b>Action: <em>harvest</em></b></p>\n                    <p>This is the bee that you just saw.</p>\n                    <img src=\"bees-with-color/bee-B1SF.svg\" width=\"200\">\n                    <p><span class=\"redText\">Bad choice, the bee was angry.</span><br><b>You have been stung!</b><br>Your pay has been decreased by $0.10. Your bonus pay is now $0.44.</p>\n            ","response":0,"trial_type":"html-button-response","trial_index":32,"time_elapsed":181752,"internal_node_id":"0.0-4.0-1.12","subject_id":"6161d2a6b6dcc778b5b930bb","study_id":"6197b3f67c2b5cd3b6d9596a","session_id":"6197b9eb975f25f15e4bb557","condition":"full-information","relevant_dimensions":["antennae","pattern"],"bee_group":{"antennae":"B","wings":"X","pattern":"S","legs":"X"},"bonus":0},{"rt":1490.699999988079,"stimulus":"bees-with-color/bee-B2SM.svg","response":0,"trial_type":"image-button-response","trial_index":33,"time_elapsed":183244,"internal_node_id":"0.0-4.0-0.13","subject_id":"6161d2a6b6dcc778b5b930bb","study_id":"6197b3f67c2b5cd3b6d9596a","session_id":"6197b9eb975f25f15e4bb557","condition":"full-information","relevant_dimensions":["antennae","pattern"],"bee_group":{"antennae":"B","wings":"X","pattern":"S","legs":"X"},"action":"harvest","summary":"bad-harvest","bonus":0},{"rt":1894.5,"stimulus":"\n                    <p><b>Action: <em>harvest</em></b></p>\n                    <p>This is the bee that you just saw.</p>\n                    <img src=\"bees-with-color/bee-B2SM.svg\" width=\"200\">\n                    <p><span class=\"redText\">Bad choice, the bee was angry.</span><br><b>You have been stung!</b><br>Your pay has been decreased by $0.10. Your bonus pay is now $0.34.</p>\n            ","response":0,"trial_type":"html-button-response","trial_index":34,"time_elapsed":185140,"internal_node_id":"0.0-4.0-1.13","subject_id":"6161d2a6b6dcc778b5b930bb","study_id":"6197b3f67c2b5cd3b6d9596a","session_id":"6197b9eb975f25f15e4bb557","condition":"full-information","relevant_dimensions":["antennae","pattern"],"bee_group":{"antennae":"B","wings":"X","pattern":"S","legs":"X"},"bonus":0},{"rt":2654.9000000059605,"stimulus":"bees-with-color/bee-B1DM.svg","response":0,"trial_type":"image-button-response","trial_index":35,"time_elapsed":187796,"internal_node_id":"0.0-4.0-0.14","subject_id":"6161d2a6b6dcc778b5b930bb","study_id":"6197b3f67c2b5cd3b6d9596a","session_id":"6197b9eb975f25f15e4bb557","condition":"full-information","relevant_dimensions":["antennae","pattern"],"bee_group":{"antennae":"B","wings":"X","pattern":"S","legs":"X"},"action":"harvest","summary":"good-harvest","bonus":0},{"rt":2574.699999988079,"stimulus":"\n                    <p><b>Action: <em>harvest</em></b></p>\n                    <p>This is the bee that you just saw.</p>\n                    <img src=\"bees-with-color/bee-B1DM.svg\" width=\"200\">\n                    <p><span class=\"greenText\"><b>Successful harvest!</b></span><br>Your pay has increased by $0.02. Your bonus pay is now $0.36.</p>\n            ","response":0,"trial_type":"html-button-response","trial_index":36,"time_elapsed":190372,"internal_node_id":"0.0-4.0-1.14","subject_id":"6161d2a6b6dcc778b5b930bb","study_id":"6197b3f67c2b5cd3b6d9596a","session_id":"6197b9eb975f25f15e4bb557","condition":"full-information","relevant_dimensions":["antennae","pattern"],"bee_group":{"antennae":"B","wings":"X","pattern":"S","legs":"X"},"bonus":0},{"rt":3226.5999999940395,"stimulus":"bees-with-color/bee-A1DF.svg","response":0,"trial_type":"image-button-response","trial_index":37,"time_elapsed":193600,"internal_node_id":"0.0-4.0-0.15","subject_id":"6161d2a6b6dcc778b5b930bb","study_id":"6197b3f67c2b5cd3b6d9596a","session_id":"6197b9eb975f25f15e4bb557","condition":"full-information","relevant_dimensions":["antennae","pattern"],"bee_group":{"antennae":"B","wings":"X","pattern":"S","legs":"X"},"action":"harvest","summary":"good-harvest","bonus":0},{"rt":2038.7999999821186,"stimulus":"\n                    <p><b>Action: <em>harvest</em></b></p>\n                    <p>This is the bee that you just saw.</p>\n                    <img src=\"bees-with-color/bee-A1DF.svg\" width=\"200\">\n                    <p><span class=\"greenText\"><b>Successful harvest!</b></span><br>Your pay has increased by $0.02. Your bonus pay is now $0.38.</p>\n            ","response":0,"trial_type":"html-button-response","trial_index":38,"time_elapsed":195640,"internal_node_id":"0.0-4.0-1.15","subject_id":"6161d2a6b6dcc778b5b930bb","study_id":"6197b3f67c2b5cd3b6d9596a","session_id":"6197b9eb975f25f15e4bb557","condition":"full-information","relevant_dimensions":["antennae","pattern"],"bee_group":{"antennae":"B","wings":"X","pattern":"S","legs":"X"},"bonus":0},{"rt":1822.4000000059605,"stimulus":"bees-with-color/bee-B1DM.svg","response":0,"trial_type":"image-button-response","trial_index":39,"time_elapsed":197464,"internal_node_id":"0.0-4.0-0.16","subject_id":"6161d2a6b6dcc778b5b930bb","study_id":"6197b3f67c2b5cd3b6d9596a","session_id":"6197b9eb975f25f15e4bb557","condition":"full-information","relevant_dimensions":["antennae","pattern"],"bee_group":{"antennae":"B","wings":"X","pattern":"S","legs":"X"},"action":"harvest","summary":"good-harvest","bonus":0},{"rt":2574.9000000059605,"stimulus":"\n                    <p><b>Action: <em>harvest</em></b></p>\n                    <p>This is the bee that you just saw.</p>\n                    <img src=\"bees-with-color/bee-B1DM.svg\" width=\"200\">\n                    <p><span class=\"greenText\"><b>Successful harvest!</b></span><br>Your pay has increased by $0.02. Your bonus pay is now $0.40.</p>\n            ","response":0,"trial_type":"html-button-response","trial_index":40,"time_elapsed":200040,"internal_node_id":"0.0-4.0-1.16","subject_id":"6161d2a6b6dcc778b5b930bb","study_id":"6197b3f67c2b5cd3b6d9596a","session_id":"6197b9eb975f25f15e4bb557","condition":"full-information","relevant_dimensions":["antennae","pattern"],"bee_group":{"antennae":"B","wings":"X","pattern":"S","legs":"X"},"bonus":0},{"rt":2690.699999988079,"stimulus":"bees-with-color/bee-A1DM.svg","response":0,"trial_type":"image-button-response","trial_index":41,"time_elapsed":202732,"internal_node_id":"0.0-4.0-0.17","subject_id":"6161d2a6b6dcc778b5b930bb","study_id":"6197b3f67c2b5cd3b6d9596a","session_id":"6197b9eb975f25f15e4bb557","condition":"full-information","relevant_dimensions":["antennae","pattern"],"bee_group":{"antennae":"B","wings":"X","pattern":"S","legs":"X"},"action":"harvest","summary":"good-harvest","bonus":0},{"rt":2482.699999988079,"stimulus":"\n                    <p><b>Action: <em>harvest</em></b></p>\n                    <p>This is the bee that you just saw.</p>\n                    <img src=\"bees-with-color/bee-A1DM.svg\" width=\"200\">\n                    <p><span class=\"greenText\"><b>Successful harvest!</b></span><br>Your pay has increased by $0.02. Your bonus pay is now $0.42.</p>\n            ","response":0,"trial_type":"html-button-response","trial_index":42,"time_elapsed":205216,"internal_node_id":"0.0-4.0-1.17","subject_id":"6161d2a6b6dcc778b5b930bb","study_id":"6197b3f67c2b5cd3b6d9596a","session_id":"6197b9eb975f25f15e4bb557","condition":"full-information","relevant_dimensions":["antennae","pattern"],"bee_group":{"antennae":"B","wings":"X","pattern":"S","legs":"X"},"bonus":0},{"rt":2210.5999999940395,"stimulus":"bees-with-color/bee-A1DF.svg","response":0,"trial_type":"image-button-response","trial_index":43,"time_elapsed":207428,"internal_node_id":"0.0-4.0-0.18","subject_id":"6161d2a6b6dcc778b5b930bb","study_id":"6197b3f67c2b5cd3b6d9596a","session_id":"6197b9eb975f25f15e4bb557","condition":"full-information","relevant_dimensions":["antennae","pattern"],"bee_group":{"antennae":"B","wings":"X","pattern":"S","legs":"X"},"action":"harvest","summary":"good-harvest","bonus":0},{"rt":2302.5999999940395,"stimulus":"\n                    <p><b>Action: <em>harvest</em></b></p>\n                    <p>This is the bee that you just saw.</p>\n                    <img src=\"bees-with-color/bee-A1DF.svg\" width=\"200\">\n                    <p><span class=\"greenText\"><b>Successful harvest!</b></span><br>Your pay has increased by $0.02. Your bonus pay is now $0.44.</p>\n            ","response":0,"trial_type":"html-button-response","trial_index":44,"time_elapsed":209732,"internal_node_id":"0.0-4.0-1.18","subject_id":"6161d2a6b6dcc778b5b930bb","study_id":"6197b3f67c2b5cd3b6d9596a","session_id":"6197b9eb975f25f15e4bb557","condition":"full-information","relevant_dimensions":["antennae","pattern"],"bee_group":{"antennae":"B","wings":"X","pattern":"S","legs":"X"},"bonus":0},{"rt":2974.5,"stimulus":"bees-with-color/bee-A1SF.svg","response":1,"trial_type":"image-button-response","trial_index":45,"time_elapsed":212708,"internal_node_id":"0.0-4.0-0.19","subject_id":"6161d2a6b6dcc778b5b930bb","study_id":"6197b3f67c2b5cd3b6d9596a","session_id":"6197b9eb975f25f15e4bb557","condition":"full-information","relevant_dimensions":["antennae","pattern"],"bee_group":{"antennae":"B","wings":"X","pattern":"S","legs":"X"},"action":"avoid","summary":"bad-avoid","bonus":0},{"rt":2322.699999988079,"stimulus":"\n                    <p><b>Action: <em>avoid</em></b></p>\n                    <p>This is the bee that you just saw.</p>\n                    <img src=\"bees-with-color/bee-A1SF.svg\" width=\"200\">\n                    <p><span class=\"redText\">Bad choice,</span> the bee was friendly.<br>Your bonus pay is unchanged, and remains at $0.44.</p>\n            ","response":0,"trial_type":"html-button-response","trial_index":46,"time_elapsed":215032,"internal_node_id":"0.0-4.0-1.19","subject_id":"6161d2a6b6dcc778b5b930bb","study_id":"6197b3f67c2b5cd3b6d9596a","session_id":"6197b9eb975f25f15e4bb557","condition":"full-information","relevant_dimensions":["antennae","pattern"],"bee_group":{"antennae":"B","wings":"X","pattern":"S","legs":"X"},"bonus":0},{"rt":1818.4000000059605,"stimulus":"bees-with-color/bee-B2SM.svg","response":0,"trial_type":"image-button-response","trial_index":47,"time_elapsed":216852,"internal_node_id":"0.0-4.0-0.20","subject_id":"6161d2a6b6dcc778b5b930bb","study_id":"6197b3f67c2b5cd3b6d9596a","session_id":"6197b9eb975f25f15e4bb557","condition":"full-information","relevant_dimensions":["antennae","pattern"],"bee_group":{"antennae":"B","wings":"X","pattern":"S","legs":"X"},"action":"harvest","summary":"bad-harvest","bonus":0},{"rt":1558.6000000238419,"stimulus":"\n                    <p><b>Action: <em>harvest</em></b></p>\n                    <p>This is the bee that you just saw.</p>\n                    <img src=\"bees-with-color/bee-B2SM.svg\" width=\"200\">\n                    <p><span class=\"redText\">Bad choice, the bee was angry.</span><br><b>You have been stung!</b><br>Your pay has been decreased by $0.10. Your bonus pay is now $0.34.</p>\n            ","response":0,"trial_type":"html-button-response","trial_index":48,"time_elapsed":218412,"internal_node_id":"0.0-4.0-1.20","subject_id":"6161d2a6b6dcc778b5b930bb","study_id":"6197b3f67c2b5cd3b6d9596a","session_id":"6197b9eb975f25f15e4bb557","condition":"full-information","relevant_dimensions":["antennae","pattern"],"bee_group":{"antennae":"B","wings":"X","pattern":"S","legs":"X"},"bonus":0},{"rt":1963.0999999940395,"stimulus":"bees-with-color/bee-A2SF.svg","response":0,"trial_type":"image-button-response","trial_index":49,"time_elapsed":220376,"internal_node_id":"0.0-4.0-0.21","subject_id":"6161d2a6b6dcc778b5b930bb","study_id":"6197b3f67c2b5cd3b6d9596a","session_id":"6197b9eb975f25f15e4bb557","condition":"full-information","relevant_dimensions":["antennae","pattern"],"bee_group":{"antennae":"B","wings":"X","pattern":"S","legs":"X"},"action":"harvest","summary":"good-harvest","bonus":0},{"rt":2130.7999999821186,"stimulus":"\n                    <p><b>Action: <em>harvest</em></b></p>\n                    <p>This is the bee that you just saw.</p>\n                    <img src=\"bees-with-color/bee-A2SF.svg\" width=\"200\">\n                    <p><span class=\"greenText\"><b>Successful harvest!</b></span><br>Your pay has increased by $0.02. Your bonus pay is now $0.36.</p>\n            ","response":0,"trial_type":"html-button-response","trial_index":50,"time_elapsed":222508,"internal_node_id":"0.0-4.0-1.21","subject_id":"6161d2a6b6dcc778b5b930bb","study_id":"6197b3f67c2b5cd3b6d9596a","session_id":"6197b9eb975f25f15e4bb557","condition":"full-information","relevant_dimensions":["antennae","pattern"],"bee_group":{"antennae":"B","wings":"X","pattern":"S","legs":"X"},"bonus":0},{"rt":1830.699999988079,"stimulus":"bees-with-color/bee-A2SM.svg","response":0,"trial_type":"image-button-response","trial_index":51,"time_elapsed":224340,"internal_node_id":"0.0-4.0-0.22","subject_id":"6161d2a6b6dcc778b5b930bb","study_id":"6197b3f67c2b5cd3b6d9596a","session_id":"6197b9eb975f25f15e4bb557","condition":"full-information","relevant_dimensions":["antennae","pattern"],"bee_group":{"antennae":"B","wings":"X","pattern":"S","legs":"X"},"action":"harvest","summary":"good-harvest","bonus":0},{"rt":2003.0999999940395,"stimulus":"\n                    <p><b>Action: <em>harvest</em></b></p>\n                    <p>This is the bee that you just saw.</p>\n                    <img src=\"bees-with-color/bee-A2SM.svg\" width=\"200\">\n                    <p><span class=\"greenText\"><b>Successful harvest!</b></span><br>Your pay has increased by $0.02. Your bonus pay is now $0.38.</p>\n            ","response":0,"trial_type":"html-button-response","trial_index":52,"time_elapsed":226344,"internal_node_id":"0.0-4.0-1.22","subject_id":"6161d2a6b6dcc778b5b930bb","study_id":"6197b3f67c2b5cd3b6d9596a","session_id":"6197b9eb975f25f15e4bb557","condition":"full-information","relevant_dimensions":["antennae","pattern"],"bee_group":{"antennae":"B","wings":"X","pattern":"S","legs":"X"},"bonus":0},{"rt":1942.5,"stimulus":"bees-with-color/bee-B1SF.svg","response":0,"trial_type":"image-button-response","trial_index":53,"time_elapsed":228287,"internal_node_id":"0.0-4.0-0.23","subject_id":"6161d2a6b6dcc778b5b930bb","study_id":"6197b3f67c2b5cd3b6d9596a","session_id":"6197b9eb975f25f15e4bb557","condition":"full-information","relevant_dimensions":["antennae","pattern"],"bee_group":{"antennae":"B","wings":"X","pattern":"S","legs":"X"},"action":"harvest","summary":"bad-harvest","bonus":0},{"rt":1483.300000011921,"stimulus":"\n                    <p><b>Action: <em>harvest</em></b></p>\n                    <p>This is the bee that you just saw.</p>\n                    <img src=\"bees-with-color/bee-B1SF.svg\" width=\"200\">\n                    <p><span class=\"redText\">Bad choice, the bee was angry.</span><br><b>You have been stung!</b><br>Your pay has been decreased by $0.10. Your bonus pay is now $0.28.</p>\n            ","response":0,"trial_type":"html-button-response","trial_index":54,"time_elapsed":229772,"internal_node_id":"0.0-4.0-1.23","subject_id":"6161d2a6b6dcc778b5b930bb","study_id":"6197b3f67c2b5cd3b6d9596a","session_id":"6197b9eb975f25f15e4bb557","condition":"full-information","relevant_dimensions":["antennae","pattern"],"bee_group":{"antennae":"B","wings":"X","pattern":"S","legs":"X"},"bonus":0},{"rt":1891.0999999940395,"stimulus":"bees-with-color/bee-A1SM.svg","response":0,"trial_type":"image-button-response","trial_index":55,"time_elapsed":231664,"internal_node_id":"0.0-4.0-0.24","subject_id":"6161d2a6b6dcc778b5b930bb","study_id":"6197b3f67c2b5cd3b6d9596a","session_id":"6197b9eb975f25f15e4bb557","condition":"full-information","relevant_dimensions":["antennae","pattern"],"bee_group":{"antennae":"B","wings":"X","pattern":"S","legs":"X"},"action":"harvest","summary":"good-harvest","bonus":0},{"rt":1374.9000000059605,"stimulus":"\n                    <p><b>Action: <em>harvest</em></b></p>\n                    <p>This is the bee that you just saw.</p>\n                    <img src=\"bees-with-color/bee-A1SM.svg\" width=\"200\">\n                    <p><span class=\"greenText\"><b>Successful harvest!</b></span><br>Your pay has increased by $0.02. Your bonus pay is now $0.30.</p>\n            ","response":0,"trial_type":"html-button-response","trial_index":56,"time_elapsed":233040,"internal_node_id":"0.0-4.0-1.24","subject_id":"6161d2a6b6dcc778b5b930bb","study_id":"6197b3f67c2b5cd3b6d9596a","session_id":"6197b9eb975f25f15e4bb557","condition":"full-information","relevant_dimensions":["antennae","pattern"],"bee_group":{"antennae":"B","wings":"X","pattern":"S","legs":"X"},"bonus":0},{"rt":1670.699999988079,"stimulus":"bees-with-color/bee-A2DM.svg","response":1,"trial_type":"image-button-response","trial_index":57,"time_elapsed":234712,"internal_node_id":"0.0-4.0-0.25","subject_id":"6161d2a6b6dcc778b5b930bb","study_id":"6197b3f67c2b5cd3b6d9596a","session_id":"6197b9eb975f25f15e4bb557","condition":"full-information","relevant_dimensions":["antennae","pattern"],"bee_group":{"antennae":"B","wings":"X","pattern":"S","legs":"X"},"action":"avoid","summary":"bad-avoid","bonus":0},{"rt":2027,"stimulus":"\n                    <p><b>Action: <em>avoid</em></b></p>\n                    <p>This is the bee that you just saw.</p>\n                    <img src=\"bees-with-color/bee-A2DM.svg\" width=\"200\">\n                    <p><span class=\"redText\">Bad choice,</span> the bee was friendly.<br>Your bonus pay is unchanged, and remains at $0.30.</p>\n            ","response":0,"trial_type":"html-button-response","trial_index":58,"time_elapsed":236740,"internal_node_id":"0.0-4.0-1.25","subject_id":"6161d2a6b6dcc778b5b930bb","study_id":"6197b3f67c2b5cd3b6d9596a","session_id":"6197b9eb975f25f15e4bb557","condition":"full-information","relevant_dimensions":["antennae","pattern"],"bee_group":{"antennae":"B","wings":"X","pattern":"S","legs":"X"},"bonus":0},{"rt":2266.699999988079,"stimulus":"bees-with-color/bee-B2SF.svg","response":1,"trial_type":"image-button-response","trial_index":59,"time_elapsed":239008,"internal_node_id":"0.0-4.0-0.26","subject_id":"6161d2a6b6dcc778b5b930bb","study_id":"6197b3f67c2b5cd3b6d9596a","session_id":"6197b9eb975f25f15e4bb557","condition":"full-information","relevant_dimensions":["antennae","pattern"],"bee_group":{"antennae":"B","wings":"X","pattern":"S","legs":"X"},"action":"avoid","summary":"good-avoid","bonus":0},{"rt":2166.5,"stimulus":"\n                    <p><b>Action: <em>avoid</em></b></p>\n                    <p>This is the bee that you just saw.</p>\n                    <img src=\"bees-with-color/bee-B2SF.svg\" width=\"200\">\n                    <p><span class=\"greenText\">Good choice!</span>  This bee would have stung you.<br>Your bonus pay is unchanged, and remains at $0.30.</p>\n            ","response":0,"trial_type":"html-button-response","trial_index":60,"time_elapsed":241176,"internal_node_id":"0.0-4.0-1.26","subject_id":"6161d2a6b6dcc778b5b930bb","study_id":"6197b3f67c2b5cd3b6d9596a","session_id":"6197b9eb975f25f15e4bb557","condition":"full-information","relevant_dimensions":["antennae","pattern"],"bee_group":{"antennae":"B","wings":"X","pattern":"S","legs":"X"},"bonus":0},{"rt":1562.699999988079,"stimulus":"bees-with-color/bee-B1SM.svg","response":0,"trial_type":"image-button-response","trial_index":61,"time_elapsed":242740,"internal_node_id":"0.0-4.0-0.27","subject_id":"6161d2a6b6dcc778b5b930bb","study_id":"6197b3f67c2b5cd3b6d9596a","session_id":"6197b9eb975f25f15e4bb557","condition":"full-information","relevant_dimensions":["antennae","pattern"],"bee_group":{"antennae":"B","wings":"X","pattern":"S","legs":"X"},"action":"harvest","summary":"bad-harvest","bonus":0},{"rt":1650.6000000238419,"stimulus":"\n                    <p><b>Action: <em>harvest</em></b></p>\n                    <p>This is the bee that you just saw.</p>\n                    <img src=\"bees-with-color/bee-B1SM.svg\" width=\"200\">\n                    <p><span class=\"redText\">Bad choice, the bee was angry.</span><br><b>You have been stung!</b><br>Your pay has been decreased by $0.10. Your bonus pay is now $0.20.</p>\n            ","response":0,"trial_type":"html-button-response","trial_index":62,"time_elapsed":244392,"internal_node_id":"0.0-4.0-1.27","subject_id":"6161d2a6b6dcc778b5b930bb","study_id":"6197b3f67c2b5cd3b6d9596a","session_id":"6197b9eb975f25f15e4bb557","condition":"full-information","relevant_dimensions":["antennae","pattern"],"bee_group":{"antennae":"B","wings":"X","pattern":"S","legs":"X"},"bonus":0},{"rt":2031.0999999940395,"stimulus":"bees-with-color/bee-B1DF.svg","response":0,"trial_type":"image-button-response","trial_index":63,"time_elapsed":246424,"internal_node_id":"0.0-4.0-0.28","subject_id":"6161d2a6b6dcc778b5b930bb","study_id":"6197b3f67c2b5cd3b6d9596a","session_id":"6197b9eb975f25f15e4bb557","condition":"full-information","relevant_dimensions":["antennae","pattern"],"bee_group":{"antennae":"B","wings":"X","pattern":"S","legs":"X"},"action":"harvest","summary":"good-harvest","bonus":0},{"rt":1834.2999999821186,"stimulus":"\n                    <p><b>Action: <em>harvest</em></b></p>\n                    <p>This is the bee that you just saw.</p>\n                    <img src=\"bees-with-color/bee-B1DF.svg\" width=\"200\">\n                    <p><span class=\"greenText\"><b>Successful harvest!</b></span><br>Your pay has increased by $0.02. Your bonus pay is now $0.22.</p>\n            ","response":0,"trial_type":"html-button-response","trial_index":64,"time_elapsed":248260,"internal_node_id":"0.0-4.0-1.28","subject_id":"6161d2a6b6dcc778b5b930bb","study_id":"6197b3f67c2b5cd3b6d9596a","session_id":"6197b9eb975f25f15e4bb557","condition":"full-information","relevant_dimensions":["antennae","pattern"],"bee_group":{"antennae":"B","wings":"X","pattern":"S","legs":"X"},"bonus":0},{"rt":2775.199999988079,"stimulus":"bees-with-color/bee-B2DF.svg","response":0,"trial_type":"image-button-response","trial_index":65,"time_elapsed":251036,"internal_node_id":"0.0-4.0-0.29","subject_id":"6161d2a6b6dcc778b5b930bb","study_id":"6197b3f67c2b5cd3b6d9596a","session_id":"6197b9eb975f25f15e4bb557","condition":"full-information","relevant_dimensions":["antennae","pattern"],"bee_group":{"antennae":"B","wings":"X","pattern":"S","legs":"X"},"action":"harvest","summary":"good-harvest","bonus":0},{"rt":2034.800000011921,"stimulus":"\n                    <p><b>Action: <em>harvest</em></b></p>\n                    <p>This is the bee that you just saw.</p>\n                    <img src=\"bees-with-color/bee-B2DF.svg\" width=\"200\">\n                    <p><span class=\"greenText\"><b>Successful harvest!</b></span><br>Your pay has increased by $0.02. Your bonus pay is now $0.24.</p>\n            ","response":0,"trial_type":"html-button-response","trial_index":66,"time_elapsed":253072,"internal_node_id":"0.0-4.0-1.29","subject_id":"6161d2a6b6dcc778b5b930bb","study_id":"6197b3f67c2b5cd3b6d9596a","session_id":"6197b9eb975f25f15e4bb557","condition":"full-information","relevant_dimensions":["antennae","pattern"],"bee_group":{"antennae":"B","wings":"X","pattern":"S","legs":"X"},"bonus":0},{"rt":4498.699999988079,"stimulus":"bees-with-color/bee-A2DF.svg","response":1,"trial_type":"image-button-response","trial_index":67,"time_elapsed":257572,"internal_node_id":"0.0-4.0-0.30","subject_id":"6161d2a6b6dcc778b5b930bb","study_id":"6197b3f67c2b5cd3b6d9596a","session_id":"6197b9eb975f25f15e4bb557","condition":"full-information","relevant_dimensions":["antennae","pattern"],"bee_group":{"antennae":"B","wings":"X","pattern":"S","legs":"X"},"action":"avoid","summary":"bad-avoid","bonus":0},{"rt":1582.800000011921,"stimulus":"\n                    <p><b>Action: <em>avoid</em></b></p>\n                    <p>This is the bee that you just saw.</p>\n                    <img src=\"bees-with-color/bee-A2DF.svg\" width=\"200\">\n                    <p><span class=\"redText\">Bad choice,</span> the bee was friendly.<br>Your bonus pay is unchanged, and remains at $0.24.</p>\n            ","response":0,"trial_type":"html-button-response","trial_index":68,"time_elapsed":259156,"internal_node_id":"0.0-4.0-1.30","subject_id":"6161d2a6b6dcc778b5b930bb","study_id":"6197b3f67c2b5cd3b6d9596a","session_id":"6197b9eb975f25f15e4bb557","condition":"full-information","relevant_dimensions":["antennae","pattern"],"bee_group":{"antennae":"B","wings":"X","pattern":"S","legs":"X"},"bonus":0},{"rt":2490.699999988079,"stimulus":"bees-with-color/bee-B2DM.svg","response":0,"trial_type":"image-button-response","trial_index":69,"time_elapsed":261648,"internal_node_id":"0.0-4.0-0.31","subject_id":"6161d2a6b6dcc778b5b930bb","study_id":"6197b3f67c2b5cd3b6d9596a","session_id":"6197b9eb975f25f15e4bb557","condition":"full-information","relevant_dimensions":["antennae","pattern"],"bee_group":{"antennae":"B","wings":"X","pattern":"S","legs":"X"},"action":"harvest","summary":"good-harvest","bonus":0},{"rt":1542.699999988079,"stimulus":"\n                    <p><b>Action: <em>harvest</em></b></p>\n                    <p>This is the bee that you just saw.</p>\n                    <img src=\"bees-with-color/bee-B2DM.svg\" width=\"200\">\n                    <p><span class=\"greenText\"><b>Successful harvest!</b></span><br>Your pay has increased by $0.02. Your bonus pay is now $0.26.</p>\n            ","response":0,"trial_type":"html-button-response","trial_index":70,"time_elapsed":263192,"internal_node_id":"0.0-4.0-1.31","subject_id":"6161d2a6b6dcc778b5b930bb","study_id":"6197b3f67c2b5cd3b6d9596a","session_id":"6197b9eb975f25f15e4bb557","condition":"full-information","relevant_dimensions":["antennae","pattern"],"bee_group":{"antennae":"B","wings":"X","pattern":"S","legs":"X"},"bonus":0},{"rt":1958.699999988079,"stimulus":"bees-with-color/bee-B1SF.svg","response":1,"trial_type":"image-button-response","trial_index":71,"time_elapsed":265152,"internal_node_id":"0.0-4.0-0.32","subject_id":"6161d2a6b6dcc778b5b930bb","study_id":"6197b3f67c2b5cd3b6d9596a","session_id":"6197b9eb975f25f15e4bb557","condition":"full-information","relevant_dimensions":["antennae","pattern"],"bee_group":{"antennae":"B","wings":"X","pattern":"S","legs":"X"},"action":"avoid","summary":"good-avoid","bonus":0},{"rt":2378.7999999821186,"stimulus":"\n                    <p><b>Action: <em>avoid</em></b></p>\n                    <p>This is the bee that you just saw.</p>\n                    <img src=\"bees-with-color/bee-B1SF.svg\" width=\"200\">\n                    <p><span class=\"greenText\">Good choice!</span>  This bee would have stung you.<br>Your bonus pay is unchanged, and remains at $0.26.</p>\n            ","response":0,"trial_type":"html-button-response","trial_index":72,"time_elapsed":267532,"internal_node_id":"0.0-4.0-1.32","subject_id":"6161d2a6b6dcc778b5b930bb","study_id":"6197b3f67c2b5cd3b6d9596a","session_id":"6197b9eb975f25f15e4bb557","condition":"full-information","relevant_dimensions":["antennae","pattern"],"bee_group":{"antennae":"B","wings":"X","pattern":"S","legs":"X"},"bonus":0},{"rt":2186.199999988079,"stimulus":"bees-with-color/bee-A2DM.svg","response":0,"trial_type":"image-button-response","trial_index":73,"time_elapsed":269720,"internal_node_id":"0.0-4.0-0.33","subject_id":"6161d2a6b6dcc778b5b930bb","study_id":"6197b3f67c2b5cd3b6d9596a","session_id":"6197b9eb975f25f15e4bb557","condition":"full-information","relevant_dimensions":["antennae","pattern"],"bee_group":{"antennae":"B","wings":"X","pattern":"S","legs":"X"},"action":"harvest","summary":"good-harvest","bonus":0},{"rt":1743.199999988079,"stimulus":"\n                    <p><b>Action: <em>harvest</em></b></p>\n                    <p>This is the bee that you just saw.</p>\n                    <img src=\"bees-with-color/bee-A2DM.svg\" width=\"200\">\n                    <p><span class=\"greenText\"><b>Successful harvest!</b></span><br>Your pay has increased by $0.02. Your bonus pay is now $0.28.</p>\n            ","response":0,"trial_type":"html-button-response","trial_index":74,"time_elapsed":271464,"internal_node_id":"0.0-4.0-1.33","subject_id":"6161d2a6b6dcc778b5b930bb","study_id":"6197b3f67c2b5cd3b6d9596a","session_id":"6197b9eb975f25f15e4bb557","condition":"full-information","relevant_dimensions":["antennae","pattern"],"bee_group":{"antennae":"B","wings":"X","pattern":"S","legs":"X"},"bonus":0},{"rt":3070.5999999940395,"stimulus":"bees-with-color/bee-A1DF.svg","response":1,"trial_type":"image-button-response","trial_index":75,"time_elapsed":274536,"internal_node_id":"0.0-4.0-0.34","subject_id":"6161d2a6b6dcc778b5b930bb","study_id":"6197b3f67c2b5cd3b6d9596a","session_id":"6197b9eb975f25f15e4bb557","condition":"full-information","relevant_dimensions":["antennae","pattern"],"bee_group":{"antennae":"B","wings":"X","pattern":"S","legs":"X"},"action":"avoid","summary":"bad-avoid","bonus":0},{"rt":1358.699999988079,"stimulus":"\n                    <p><b>Action: <em>avoid</em></b></p>\n                    <p>This is the bee that you just saw.</p>\n                    <img src=\"bees-with-color/bee-A1DF.svg\" width=\"200\">\n                    <p><span class=\"redText\">Bad choice,</span> the bee was friendly.<br>Your bonus pay is unchanged, and remains at $0.28.</p>\n            ","response":0,"trial_type":"html-button-response","trial_index":76,"time_elapsed":275896,"internal_node_id":"0.0-4.0-1.34","subject_id":"6161d2a6b6dcc778b5b930bb","study_id":"6197b3f67c2b5cd3b6d9596a","session_id":"6197b9eb975f25f15e4bb557","condition":"full-information","relevant_dimensions":["antennae","pattern"],"bee_group":{"antennae":"B","wings":"X","pattern":"S","legs":"X"},"bonus":0},{"rt":1410.5999999940395,"stimulus":"bees-with-color/bee-B2DM.svg","response":0,"trial_type":"image-button-response","trial_index":77,"time_elapsed":277308,"internal_node_id":"0.0-4.0-0.35","subject_id":"6161d2a6b6dcc778b5b930bb","study_id":"6197b3f67c2b5cd3b6d9596a","session_id":"6197b9eb975f25f15e4bb557","condition":"full-information","relevant_dimensions":["antennae","pattern"],"bee_group":{"antennae":"B","wings":"X","pattern":"S","legs":"X"},"action":"harvest","summary":"good-harvest","bonus":0},{"rt":1778.7999999821186,"stimulus":"\n                    <p><b>Action: <em>harvest</em></b></p>\n                    <p>This is the bee that you just saw.</p>\n                    <img src=\"bees-with-color/bee-B2DM.svg\" width=\"200\">\n                    <p><span class=\"greenText\"><b>Successful harvest!</b></span><br>Your pay has increased by $0.02. Your bonus pay is now $0.30.</p>\n            ","response":0,"trial_type":"html-button-response","trial_index":78,"time_elapsed":279088,"internal_node_id":"0.0-4.0-1.35","subject_id":"6161d2a6b6dcc778b5b930bb","study_id":"6197b3f67c2b5cd3b6d9596a","session_id":"6197b9eb975f25f15e4bb557","condition":"full-information","relevant_dimensions":["antennae","pattern"],"bee_group":{"antennae":"B","wings":"X","pattern":"S","legs":"X"},"bonus":0},{"rt":2118.699999988079,"stimulus":"bees-with-color/bee-A2SM.svg","response":0,"trial_type":"image-button-response","trial_index":79,"time_elapsed":281208,"internal_node_id":"0.0-4.0-0.36","subject_id":"6161d2a6b6dcc778b5b930bb","study_id":"6197b3f67c2b5cd3b6d9596a","session_id":"6197b9eb975f25f15e4bb557","condition":"full-information","relevant_dimensions":["antennae","pattern"],"bee_group":{"antennae":"B","wings":"X","pattern":"S","legs":"X"},"action":"harvest","summary":"good-harvest","bonus":0},{"rt":1630.699999988079,"stimulus":"\n                    <p><b>Action: <em>harvest</em></b></p>\n                    <p>This is the bee that you just saw.</p>\n                    <img src=\"bees-with-color/bee-A2SM.svg\" width=\"200\">\n                    <p><span class=\"greenText\"><b>Successful harvest!</b></span><br>Your pay has increased by $0.02. Your bonus pay is now $0.32.</p>\n            ","response":0,"trial_type":"html-button-response","trial_index":80,"time_elapsed":282840,"internal_node_id":"0.0-4.0-1.36","subject_id":"6161d2a6b6dcc778b5b930bb","study_id":"6197b3f67c2b5cd3b6d9596a","session_id":"6197b9eb975f25f15e4bb557","condition":"full-information","relevant_dimensions":["antennae","pattern"],"bee_group":{"antennae":"B","wings":"X","pattern":"S","legs":"X"},"bonus":0},{"rt":1845.5999999940395,"stimulus":"bees-with-color/bee-A1SF.svg","response":1,"trial_type":"image-button-response","trial_index":81,"time_elapsed":284688,"internal_node_id":"0.0-4.0-0.37","subject_id":"6161d2a6b6dcc778b5b930bb","study_id":"6197b3f67c2b5cd3b6d9596a","session_id":"6197b9eb975f25f15e4bb557","condition":"full-information","relevant_dimensions":["antennae","pattern"],"bee_group":{"antennae":"B","wings":"X","pattern":"S","legs":"X"},"action":"avoid","summary":"bad-avoid","bonus":0},{"rt":1546.5999999940395,"stimulus":"\n                    <p><b>Action: <em>avoid</em></b></p>\n                    <p>This is the bee that you just saw.</p>\n                    <img src=\"bees-with-color/bee-A1SF.svg\" width=\"200\">\n                    <p><span class=\"redText\">Bad choice,</span> the bee was friendly.<br>Your bonus pay is unchanged, and remains at $0.32.</p>\n            ","response":0,"trial_type":"html-button-response","trial_index":82,"time_elapsed":286236,"internal_node_id":"0.0-4.0-1.37","subject_id":"6161d2a6b6dcc778b5b930bb","study_id":"6197b3f67c2b5cd3b6d9596a","session_id":"6197b9eb975f25f15e4bb557","condition":"full-information","relevant_dimensions":["antennae","pattern"],"bee_group":{"antennae":"B","wings":"X","pattern":"S","legs":"X"},"bonus":0},{"rt":1442.800000011921,"stimulus":"bees-with-color/bee-B2SM.svg","response":0,"trial_type":"image-button-response","trial_index":83,"time_elapsed":287680,"internal_node_id":"0.0-4.0-0.38","subject_id":"6161d2a6b6dcc778b5b930bb","study_id":"6197b3f67c2b5cd3b6d9596a","session_id":"6197b9eb975f25f15e4bb557","condition":"full-information","relevant_dimensions":["antennae","pattern"],"bee_group":{"antennae":"B","wings":"X","pattern":"S","legs":"X"},"action":"harvest","summary":"bad-harvest","bonus":0},{"rt":1786.9000000059605,"stimulus":"\n                    <p><b>Action: <em>harvest</em></b></p>\n                    <p>This is the bee that you just saw.</p>\n                    <img src=\"bees-with-color/bee-B2SM.svg\" width=\"200\">\n                    <p><span class=\"redText\">Bad choice, the bee was angry.</span><br><b>You have been stung!</b><br>Your pay has been decreased by $0.10. Your bonus pay is now $0.22.</p>\n            ","response":0,"trial_type":"html-button-response","trial_index":84,"time_elapsed":289468,"internal_node_id":"0.0-4.0-1.38","subject_id":"6161d2a6b6dcc778b5b930bb","study_id":"6197b3f67c2b5cd3b6d9596a","session_id":"6197b9eb975f25f15e4bb557","condition":"full-information","relevant_dimensions":["antennae","pattern"],"bee_group":{"antennae":"B","wings":"X","pattern":"S","legs":"X"},"bonus":0},{"rt":1518.800000011921,"stimulus":"bees-with-color/bee-A1SM.svg","response":0,"trial_type":"image-button-response","trial_index":85,"time_elapsed":290988,"internal_node_id":"0.0-4.0-0.39","subject_id":"6161d2a6b6dcc778b5b930bb","study_id":"6197b3f67c2b5cd3b6d9596a","session_id":"6197b9eb975f25f15e4bb557","condition":"full-information","relevant_dimensions":["antennae","pattern"],"bee_group":{"antennae":"B","wings":"X","pattern":"S","legs":"X"},"action":"harvest","summary":"good-harvest","bonus":0},{"rt":1407.199999988079,"stimulus":"\n                    <p><b>Action: <em>harvest</em></b></p>\n                    <p>This is the bee that you just saw.</p>\n                    <img src=\"bees-with-color/bee-A1SM.svg\" width=\"200\">\n                    <p><span class=\"greenText\"><b>Successful harvest!</b></span><br>Your pay has increased by $0.02. Your bonus pay is now $0.24.</p>\n            ","response":0,"trial_type":"html-button-response","trial_index":86,"time_elapsed":292396,"internal_node_id":"0.0-4.0-1.39","subject_id":"6161d2a6b6dcc778b5b930bb","study_id":"6197b3f67c2b5cd3b6d9596a","session_id":"6197b9eb975f25f15e4bb557","condition":"full-information","relevant_dimensions":["antennae","pattern"],"bee_group":{"antennae":"B","wings":"X","pattern":"S","legs":"X"},"bonus":0},{"rt":2274.9000000059605,"stimulus":"bees-with-color/bee-B1DM.svg","response":1,"trial_type":"image-button-response","trial_index":87,"time_elapsed":294672,"internal_node_id":"0.0-4.0-0.40","subject_id":"6161d2a6b6dcc778b5b930bb","study_id":"6197b3f67c2b5cd3b6d9596a","session_id":"6197b9eb975f25f15e4bb557","condition":"full-information","relevant_dimensions":["antennae","pattern"],"bee_group":{"antennae":"B","wings":"X","pattern":"S","legs":"X"},"action":"avoid","summary":"bad-avoid","bonus":0},{"rt":1439,"stimulus":"\n                    <p><b>Action: <em>avoid</em></b></p>\n                    <p>This is the bee that you just saw.</p>\n                    <img src=\"bees-with-color/bee-B1DM.svg\" width=\"200\">\n                    <p><span class=\"redText\">Bad choice,</span> the bee was friendly.<br>Your bonus pay is unchanged, and remains at $0.24.</p>\n            ","response":0,"trial_type":"html-button-response","trial_index":88,"time_elapsed":296112,"internal_node_id":"0.0-4.0-1.40","subject_id":"6161d2a6b6dcc778b5b930bb","study_id":"6197b3f67c2b5cd3b6d9596a","session_id":"6197b9eb975f25f15e4bb557","condition":"full-information","relevant_dimensions":["antennae","pattern"],"bee_group":{"antennae":"B","wings":"X","pattern":"S","legs":"X"},"bonus":0},{"rt":2599.0999999940395,"stimulus":"bees-with-color/bee-B1DF.svg","response":0,"trial_type":"image-button-response","trial_index":89,"time_elapsed":298712,"internal_node_id":"0.0-4.0-0.41","subject_id":"6161d2a6b6dcc778b5b930bb","study_id":"6197b3f67c2b5cd3b6d9596a","session_id":"6197b9eb975f25f15e4bb557","condition":"full-information","relevant_dimensions":["antennae","pattern"],"bee_group":{"antennae":"B","wings":"X","pattern":"S","legs":"X"},"action":"harvest","summary":"good-harvest","bonus":0},{"rt":1459,"stimulus":"\n                    <p><b>Action: <em>harvest</em></b></p>\n                    <p>This is the bee that you just saw.</p>\n                    <img src=\"bees-with-color/bee-B1DF.svg\" width=\"200\">\n                    <p><span class=\"greenText\"><b>Successful harvest!</b></span><br>Your pay has increased by $0.02. Your bonus pay is now $0.26.</p>\n            ","response":0,"trial_type":"html-button-response","trial_index":90,"time_elapsed":300172,"internal_node_id":"0.0-4.0-1.41","subject_id":"6161d2a6b6dcc778b5b930bb","study_id":"6197b3f67c2b5cd3b6d9596a","session_id":"6197b9eb975f25f15e4bb557","condition":"full-information","relevant_dimensions":["antennae","pattern"],"bee_group":{"antennae":"B","wings":"X","pattern":"S","legs":"X"},"bonus":0},{"rt":2426.399999976158,"stimulus":"bees-with-color/bee-A2SF.svg","response":0,"trial_type":"image-button-response","trial_index":91,"time_elapsed":302600,"internal_node_id":"0.0-4.0-0.42","subject_id":"6161d2a6b6dcc778b5b930bb","study_id":"6197b3f67c2b5cd3b6d9596a","session_id":"6197b9eb975f25f15e4bb557","condition":"full-information","relevant_dimensions":["antennae","pattern"],"bee_group":{"antennae":"B","wings":"X","pattern":"S","legs":"X"},"action":"harvest","summary":"good-harvest","bonus":0},{"rt":1775.2999999821186,"stimulus":"\n                    <p><b>Action: <em>harvest</em></b></p>\n                    <p>This is the bee that you just saw.</p>\n                    <img src=\"bees-with-color/bee-A2SF.svg\" width=\"200\">\n                    <p><span class=\"greenText\"><b>Successful harvest!</b></span><br>Your pay has increased by $0.02. Your bonus pay is now $0.28.</p>\n            ","response":0,"trial_type":"html-button-response","trial_index":92,"time_elapsed":304376,"internal_node_id":"0.0-4.0-1.42","subject_id":"6161d2a6b6dcc778b5b930bb","study_id":"6197b3f67c2b5cd3b6d9596a","session_id":"6197b9eb975f25f15e4bb557","condition":"full-information","relevant_dimensions":["antennae","pattern"],"bee_group":{"antennae":"B","wings":"X","pattern":"S","legs":"X"},"bonus":0},{"rt":1606.5,"stimulus":"bees-with-color/bee-A2DF.svg","response":1,"trial_type":"image-button-response","trial_index":93,"time_elapsed":305984,"internal_node_id":"0.0-4.0-0.43","subject_id":"6161d2a6b6dcc778b5b930bb","study_id":"6197b3f67c2b5cd3b6d9596a","session_id":"6197b9eb975f25f15e4bb557","condition":"full-information","relevant_dimensions":["antennae","pattern"],"bee_group":{"antennae":"B","wings":"X","pattern":"S","legs":"X"},"action":"avoid","summary":"bad-avoid","bonus":0},{"rt":1479,"stimulus":"\n                    <p><b>Action: <em>avoid</em></b></p>\n                    <p>This is the bee that you just saw.</p>\n                    <img src=\"bees-with-color/bee-A2DF.svg\" width=\"200\">\n                    <p><span class=\"redText\">Bad choice,</span> the bee was friendly.<br>Your bonus pay is unchanged, and remains at $0.28.</p>\n            ","response":0,"trial_type":"html-button-response","trial_index":94,"time_elapsed":307464,"internal_node_id":"0.0-4.0-1.43","subject_id":"6161d2a6b6dcc778b5b930bb","study_id":"6197b3f67c2b5cd3b6d9596a","session_id":"6197b9eb975f25f15e4bb557","condition":"full-information","relevant_dimensions":["antennae","pattern"],"bee_group":{"antennae":"B","wings":"X","pattern":"S","legs":"X"},"bonus":0},{"rt":2262.800000011921,"stimulus":"bees-with-color/bee-B1SM.svg","response":1,"trial_type":"image-button-response","trial_index":95,"time_elapsed":309728,"internal_node_id":"0.0-4.0-0.44","subject_id":"6161d2a6b6dcc778b5b930bb","study_id":"6197b3f67c2b5cd3b6d9596a","session_id":"6197b9eb975f25f15e4bb557","condition":"full-information","relevant_dimensions":["antennae","pattern"],"bee_group":{"antennae":"B","wings":"X","pattern":"S","legs":"X"},"action":"avoid","summary":"good-avoid","bonus":0},{"rt":1474.7000000178814,"stimulus":"\n                    <p><b>Action: <em>avoid</em></b></p>\n                    <p>This is the bee that you just saw.</p>\n                    <img src=\"bees-with-color/bee-B1SM.svg\" width=\"200\">\n                    <p><span class=\"greenText\">Good choice!</span>  This bee would have stung you.<br>Your bonus pay is unchanged, and remains at $0.28.</p>\n            ","response":0,"trial_type":"html-button-response","trial_index":96,"time_elapsed":311203,"internal_node_id":"0.0-4.0-1.44","subject_id":"6161d2a6b6dcc778b5b930bb","study_id":"6197b3f67c2b5cd3b6d9596a","session_id":"6197b9eb975f25f15e4bb557","condition":"full-information","relevant_dimensions":["antennae","pattern"],"bee_group":{"antennae":"B","wings":"X","pattern":"S","legs":"X"},"bonus":0},{"rt":1938.699999988079,"stimulus":"bees-with-color/bee-B2DF.svg","response":0,"trial_type":"image-button-response","trial_index":97,"time_elapsed":313143,"internal_node_id":"0.0-4.0-0.45","subject_id":"6161d2a6b6dcc778b5b930bb","study_id":"6197b3f67c2b5cd3b6d9596a","session_id":"6197b9eb975f25f15e4bb557","condition":"full-information","relevant_dimensions":["antennae","pattern"],"bee_group":{"antennae":"B","wings":"X","pattern":"S","legs":"X"},"action":"harvest","summary":"good-harvest","bonus":0},{"rt":1459.0999999940395,"stimulus":"\n                    <p><b>Action: <em>harvest</em></b></p>\n                    <p>This is the bee that you just saw.</p>\n                    <img src=\"bees-with-color/bee-B2DF.svg\" width=\"200\">\n                    <p><span class=\"greenText\"><b>Successful harvest!</b></span><br>Your pay has increased by $0.02. Your bonus pay is now $0.30.</p>\n            ","response":0,"trial_type":"html-button-response","trial_index":98,"time_elapsed":314604,"internal_node_id":"0.0-4.0-1.45","subject_id":"6161d2a6b6dcc778b5b930bb","study_id":"6197b3f67c2b5cd3b6d9596a","session_id":"6197b9eb975f25f15e4bb557","condition":"full-information","relevant_dimensions":["antennae","pattern"],"bee_group":{"antennae":"B","wings":"X","pattern":"S","legs":"X"},"bonus":0},{"rt":2198.800000011921,"stimulus":"bees-with-color/bee-A1DM.svg","response":0,"trial_type":"image-button-response","trial_index":99,"time_elapsed":316804,"internal_node_id":"0.0-4.0-0.46","subject_id":"6161d2a6b6dcc778b5b930bb","study_id":"6197b3f67c2b5cd3b6d9596a","session_id":"6197b9eb975f25f15e4bb557","condition":"full-information","relevant_dimensions":["antennae","pattern"],"bee_group":{"antennae":"B","wings":"X","pattern":"S","legs":"X"},"action":"harvest","summary":"good-harvest","bonus":0},{"rt":1526.9000000059605,"stimulus":"\n                    <p><b>Action: <em>harvest</em></b></p>\n                    <p>This is the bee that you just saw.</p>\n                    <img src=\"bees-with-color/bee-A1DM.svg\" width=\"200\">\n                    <p><span class=\"greenText\"><b>Successful harvest!</b></span><br>Your pay has increased by $0.02. Your bonus pay is now $0.32.</p>\n            ","response":0,"trial_type":"html-button-response","trial_index":100,"time_elapsed":318332,"internal_node_id":"0.0-4.0-1.46","subject_id":"6161d2a6b6dcc778b5b930bb","study_id":"6197b3f67c2b5cd3b6d9596a","session_id":"6197b9eb975f25f15e4bb557","condition":"full-information","relevant_dimensions":["antennae","pattern"],"bee_group":{"antennae":"B","wings":"X","pattern":"S","legs":"X"},"bonus":0},{"rt":2135.0999999940395,"stimulus":"bees-with-color/bee-B2SF.svg","response":0,"trial_type":"image-button-response","trial_index":101,"time_elapsed":320468,"internal_node_id":"0.0-4.0-0.47","subject_id":"6161d2a6b6dcc778b5b930bb","study_id":"6197b3f67c2b5cd3b6d9596a","session_id":"6197b9eb975f25f15e4bb557","condition":"full-information","relevant_dimensions":["antennae","pattern"],"bee_group":{"antennae":"B","wings":"X","pattern":"S","legs":"X"},"action":"harvest","summary":"bad-harvest","bonus":0},{"rt":1506.9000000059605,"stimulus":"\n                    <p><b>Action: <em>harvest</em></b></p>\n                    <p>This is the bee that you just saw.</p>\n                    <img src=\"bees-with-color/bee-B2SF.svg\" width=\"200\">\n                    <p><span class=\"redText\">Bad choice, the bee was angry.</span><br><b>You have been stung!</b><br>Your pay has been decreased by $0.10. Your bonus pay is now $0.22.</p>\n            ","response":0,"trial_type":"html-button-response","trial_index":102,"time_elapsed":321976,"internal_node_id":"0.0-4.0-1.47","subject_id":"6161d2a6b6dcc778b5b930bb","study_id":"6197b3f67c2b5cd3b6d9596a","session_id":"6197b9eb975f25f15e4bb557","condition":"full-information","relevant_dimensions":["antennae","pattern"],"bee_group":{"antennae":"B","wings":"X","pattern":"S","legs":"X"},"bonus":0},{"rt":1694.7999999821186,"stimulus":"bees-with-color/bee-B2DM.svg","response":0,"trial_type":"image-button-response","trial_index":103,"time_elapsed":323672,"internal_node_id":"0.0-4.0-0.48","subject_id":"6161d2a6b6dcc778b5b930bb","study_id":"6197b3f67c2b5cd3b6d9596a","session_id":"6197b9eb975f25f15e4bb557","condition":"full-information","relevant_dimensions":["antennae","pattern"],"bee_group":{"antennae":"B","wings":"X","pattern":"S","legs":"X"},"action":"harvest","summary":"good-harvest","bonus":0},{"rt":1314.800000011921,"stimulus":"\n                    <p><b>Action: <em>harvest</em></b></p>\n                    <p>This is the bee that you just saw.</p>\n                    <img src=\"bees-with-color/bee-B2DM.svg\" width=\"200\">\n                    <p><span class=\"greenText\"><b>Successful harvest!</b></span><br>Your pay has increased by $0.02. Your bonus pay is now $0.24.</p>\n            ","response":0,"trial_type":"html-button-response","trial_index":104,"time_elapsed":324988,"internal_node_id":"0.0-4.0-1.48","subject_id":"6161d2a6b6dcc778b5b930bb","study_id":"6197b3f67c2b5cd3b6d9596a","session_id":"6197b9eb975f25f15e4bb557","condition":"full-information","relevant_dimensions":["antennae","pattern"],"bee_group":{"antennae":"B","wings":"X","pattern":"S","legs":"X"},"bonus":0},{"rt":3882.7999999821186,"stimulus":"bees-with-color/bee-A1SM.svg","response":1,"trial_type":"image-button-response","trial_index":105,"time_elapsed":328872,"internal_node_id":"0.0-4.0-0.49","subject_id":"6161d2a6b6dcc778b5b930bb","study_id":"6197b3f67c2b5cd3b6d9596a","session_id":"6197b9eb975f25f15e4bb557","condition":"full-information","relevant_dimensions":["antennae","pattern"],"bee_group":{"antennae":"B","wings":"X","pattern":"S","legs":"X"},"action":"avoid","summary":"bad-avoid","bonus":0},{"rt":1122.4000000059605,"stimulus":"\n                    <p><b>Action: <em>avoid</em></b></p>\n                    <p>This is the bee that you just saw.</p>\n                    <img src=\"bees-with-color/bee-A1SM.svg\" width=\"200\">\n                    <p><span class=\"redText\">Bad choice,</span> the bee was friendly.<br>Your bonus pay is unchanged, and remains at $0.24.</p>\n            ","response":0,"trial_type":"html-button-response","trial_index":106,"time_elapsed":329995,"internal_node_id":"0.0-4.0-1.49","subject_id":"6161d2a6b6dcc778b5b930bb","study_id":"6197b3f67c2b5cd3b6d9596a","session_id":"6197b9eb975f25f15e4bb557","condition":"full-information","relevant_dimensions":["antennae","pattern"],"bee_group":{"antennae":"B","wings":"X","pattern":"S","legs":"X"},"bonus":0},{"rt":1691,"stimulus":"bees-with-color/bee-B1DF.svg","response":0,"trial_type":"image-button-response","trial_index":107,"time_elapsed":331688,"internal_node_id":"0.0-4.0-0.50","subject_id":"6161d2a6b6dcc778b5b930bb","study_id":"6197b3f67c2b5cd3b6d9596a","session_id":"6197b9eb975f25f15e4bb557","condition":"full-information","relevant_dimensions":["antennae","pattern"],"bee_group":{"antennae":"B","wings":"X","pattern":"S","legs":"X"},"action":"harvest","summary":"good-harvest","bonus":0},{"rt":1054.5999999940395,"stimulus":"\n                    <p><b>Action: <em>harvest</em></b></p>\n                    <p>This is the bee that you just saw.</p>\n                    <img src=\"bees-with-color/bee-B1DF.svg\" width=\"200\">\n                    <p><span class=\"greenText\"><b>Successful harvest!</b></span><br>Your pay has increased by $0.02. Your bonus pay is now $0.26.</p>\n            ","response":0,"trial_type":"html-button-response","trial_index":108,"time_elapsed":332744,"internal_node_id":"0.0-4.0-1.50","subject_id":"6161d2a6b6dcc778b5b930bb","study_id":"6197b3f67c2b5cd3b6d9596a","session_id":"6197b9eb975f25f15e4bb557","condition":"full-information","relevant_dimensions":["antennae","pattern"],"bee_group":{"antennae":"B","wings":"X","pattern":"S","legs":"X"},"bonus":0},{"rt":1602.5999999940395,"stimulus":"bees-with-color/bee-B2DF.svg","response":0,"trial_type":"image-button-response","trial_index":109,"time_elapsed":334348,"internal_node_id":"0.0-4.0-0.51","subject_id":"6161d2a6b6dcc778b5b930bb","study_id":"6197b3f67c2b5cd3b6d9596a","session_id":"6197b9eb975f25f15e4bb557","condition":"full-information","relevant_dimensions":["antennae","pattern"],"bee_group":{"antennae":"B","wings":"X","pattern":"S","legs":"X"},"action":"harvest","summary":"good-harvest","bonus":0},{"rt":1230.800000011921,"stimulus":"\n                    <p><b>Action: <em>harvest</em></b></p>\n                    <p>This is the bee that you just saw.</p>\n                    <img src=\"bees-with-color/bee-B2DF.svg\" width=\"200\">\n                    <p><span class=\"greenText\"><b>Successful harvest!</b></span><br>Your pay has increased by $0.02. Your bonus pay is now $0.28.</p>\n            ","response":0,"trial_type":"html-button-response","trial_index":110,"time_elapsed":335580,"internal_node_id":"0.0-4.0-1.51","subject_id":"6161d2a6b6dcc778b5b930bb","study_id":"6197b3f67c2b5cd3b6d9596a","session_id":"6197b9eb975f25f15e4bb557","condition":"full-information","relevant_dimensions":["antennae","pattern"],"bee_group":{"antennae":"B","wings":"X","pattern":"S","legs":"X"},"bonus":0},{"rt":1422.5,"stimulus":"bees-with-color/bee-A1DM.svg","response":0,"trial_type":"image-button-response","trial_index":111,"time_elapsed":337003,"internal_node_id":"0.0-4.0-0.52","subject_id":"6161d2a6b6dcc778b5b930bb","study_id":"6197b3f67c2b5cd3b6d9596a","session_id":"6197b9eb975f25f15e4bb557","condition":"full-information","relevant_dimensions":["antennae","pattern"],"bee_group":{"antennae":"B","wings":"X","pattern":"S","legs":"X"},"action":"harvest","summary":"good-harvest","bonus":0},{"rt":1203.199999988079,"stimulus":"\n                    <p><b>Action: <em>harvest</em></b></p>\n                    <p>This is the bee that you just saw.</p>\n                    <img src=\"bees-with-color/bee-A1DM.svg\" width=\"200\">\n                    <p><span class=\"greenText\"><b>Successful harvest!</b></span><br>Your pay has increased by $0.02. Your bonus pay is now $0.30.</p>\n            ","response":0,"trial_type":"html-button-response","trial_index":112,"time_elapsed":338208,"internal_node_id":"0.0-4.0-1.52","subject_id":"6161d2a6b6dcc778b5b930bb","study_id":"6197b3f67c2b5cd3b6d9596a","session_id":"6197b9eb975f25f15e4bb557","condition":"full-information","relevant_dimensions":["antennae","pattern"],"bee_group":{"antennae":"B","wings":"X","pattern":"S","legs":"X"},"bonus":0},{"rt":2138.699999988079,"stimulus":"bees-with-color/bee-B1SF.svg","response":1,"trial_type":"image-button-response","trial_index":113,"time_elapsed":340347,"internal_node_id":"0.0-4.0-0.53","subject_id":"6161d2a6b6dcc778b5b930bb","study_id":"6197b3f67c2b5cd3b6d9596a","session_id":"6197b9eb975f25f15e4bb557","condition":"full-information","relevant_dimensions":["antennae","pattern"],"bee_group":{"antennae":"B","wings":"X","pattern":"S","legs":"X"},"action":"avoid","summary":"good-avoid","bonus":0},{"rt":1583,"stimulus":"\n                    <p><b>Action: <em>avoid</em></b></p>\n                    <p>This is the bee that you just saw.</p>\n                    <img src=\"bees-with-color/bee-B1SF.svg\" width=\"200\">\n                    <p><span class=\"greenText\">Good choice!</span>  This bee would have stung you.<br>Your bonus pay is unchanged, and remains at $0.30.</p>\n            ","response":0,"trial_type":"html-button-response","trial_index":114,"time_elapsed":341932,"internal_node_id":"0.0-4.0-1.53","subject_id":"6161d2a6b6dcc778b5b930bb","study_id":"6197b3f67c2b5cd3b6d9596a","session_id":"6197b9eb975f25f15e4bb557","condition":"full-information","relevant_dimensions":["antennae","pattern"],"bee_group":{"antennae":"B","wings":"X","pattern":"S","legs":"X"},"bonus":0},{"rt":1526.5,"stimulus":"bees-with-color/bee-B2SM.svg","response":0,"trial_type":"image-button-response","trial_index":115,"time_elapsed":343460,"internal_node_id":"0.0-4.0-0.54","subject_id":"6161d2a6b6dcc778b5b930bb","study_id":"6197b3f67c2b5cd3b6d9596a","session_id":"6197b9eb975f25f15e4bb557","condition":"full-information","relevant_dimensions":["antennae","pattern"],"bee_group":{"antennae":"B","wings":"X","pattern":"S","legs":"X"},"action":"harvest","summary":"bad-harvest","bonus":0},{"rt":2078.5999999940395,"stimulus":"\n                    <p><b>Action: <em>harvest</em></b></p>\n                    <p>This is the bee that you just saw.</p>\n                    <img src=\"bees-with-color/bee-B2SM.svg\" width=\"200\">\n                    <p><span class=\"redText\">Bad choice, the bee was angry.</span><br><b>You have been stung!</b><br>Your pay has been decreased by $0.10. Your bonus pay is now $0.20.</p>\n            ","response":0,"trial_type":"html-button-response","trial_index":116,"time_elapsed":345540,"internal_node_id":"0.0-4.0-1.54","subject_id":"6161d2a6b6dcc778b5b930bb","study_id":"6197b3f67c2b5cd3b6d9596a","session_id":"6197b9eb975f25f15e4bb557","condition":"full-information","relevant_dimensions":["antennae","pattern"],"bee_group":{"antennae":"B","wings":"X","pattern":"S","legs":"X"},"bonus":0},{"rt":2838.5999999940395,"stimulus":"bees-with-color/bee-A2DF.svg","response":0,"trial_type":"image-button-response","trial_index":117,"time_elapsed":348380,"internal_node_id":"0.0-4.0-0.55","subject_id":"6161d2a6b6dcc778b5b930bb","study_id":"6197b3f67c2b5cd3b6d9596a","session_id":"6197b9eb975f25f15e4bb557","condition":"full-information","relevant_dimensions":["antennae","pattern"],"bee_group":{"antennae":"B","wings":"X","pattern":"S","legs":"X"},"action":"harvest","summary":"good-harvest","bonus":0},{"rt":1042.699999988079,"stimulus":"\n                    <p><b>Action: <em>harvest</em></b></p>\n                    <p>This is the bee that you just saw.</p>\n                    <img src=\"bees-with-color/bee-A2DF.svg\" width=\"200\">\n                    <p><span class=\"greenText\"><b>Successful harvest!</b></span><br>Your pay has increased by $0.02. Your bonus pay is now $0.22.</p>\n            ","response":0,"trial_type":"html-button-response","trial_index":118,"time_elapsed":349424,"internal_node_id":"0.0-4.0-1.55","subject_id":"6161d2a6b6dcc778b5b930bb","study_id":"6197b3f67c2b5cd3b6d9596a","session_id":"6197b9eb975f25f15e4bb557","condition":"full-information","relevant_dimensions":["antennae","pattern"],"bee_group":{"antennae":"B","wings":"X","pattern":"S","legs":"X"},"bonus":0},{"rt":1474.199999988079,"stimulus":"bees-with-color/bee-A2SM.svg","response":0,"trial_type":"image-button-response","trial_index":119,"time_elapsed":350899,"internal_node_id":"0.0-4.0-0.56","subject_id":"6161d2a6b6dcc778b5b930bb","study_id":"6197b3f67c2b5cd3b6d9596a","session_id":"6197b9eb975f25f15e4bb557","condition":"full-information","relevant_dimensions":["antennae","pattern"],"bee_group":{"antennae":"B","wings":"X","pattern":"S","legs":"X"},"action":"harvest","summary":"good-harvest","bonus":0},{"rt":1375.4000000059605,"stimulus":"\n                    <p><b>Action: <em>harvest</em></b></p>\n                    <p>This is the bee that you just saw.</p>\n                    <img src=\"bees-with-color/bee-A2SM.svg\" width=\"200\">\n                    <p><span class=\"greenText\"><b>Successful harvest!</b></span><br>Your pay has increased by $0.02. Your bonus pay is now $0.24.</p>\n            ","response":0,"trial_type":"html-button-response","trial_index":120,"time_elapsed":352276,"internal_node_id":"0.0-4.0-1.56","subject_id":"6161d2a6b6dcc778b5b930bb","study_id":"6197b3f67c2b5cd3b6d9596a","session_id":"6197b9eb975f25f15e4bb557","condition":"full-information","relevant_dimensions":["antennae","pattern"],"bee_group":{"antennae":"B","wings":"X","pattern":"S","legs":"X"},"bonus":0},{"rt":1727.0999999940395,"stimulus":"bees-with-color/bee-A1SF.svg","response":1,"trial_type":"image-button-response","trial_index":121,"time_elapsed":354004,"internal_node_id":"0.0-4.0-0.57","subject_id":"6161d2a6b6dcc778b5b930bb","study_id":"6197b3f67c2b5cd3b6d9596a","session_id":"6197b9eb975f25f15e4bb557","condition":"full-information","relevant_dimensions":["antennae","pattern"],"bee_group":{"antennae":"B","wings":"X","pattern":"S","legs":"X"},"action":"avoid","summary":"bad-avoid","bonus":0},{"rt":1231,"stimulus":"\n                    <p><b>Action: <em>avoid</em></b></p>\n                    <p>This is the bee that you just saw.</p>\n                    <img src=\"bees-with-color/bee-A1SF.svg\" width=\"200\">\n                    <p><span class=\"redText\">Bad choice,</span> the bee was friendly.<br>Your bonus pay is unchanged, and remains at $0.24.</p>\n            ","response":0,"trial_type":"html-button-response","trial_index":122,"time_elapsed":355236,"internal_node_id":"0.0-4.0-1.57","subject_id":"6161d2a6b6dcc778b5b930bb","study_id":"6197b3f67c2b5cd3b6d9596a","session_id":"6197b9eb975f25f15e4bb557","condition":"full-information","relevant_dimensions":["antennae","pattern"],"bee_group":{"antennae":"B","wings":"X","pattern":"S","legs":"X"},"bonus":0},{"rt":1354.699999988079,"stimulus":"bees-with-color/bee-A1DF.svg","response":0,"trial_type":"image-button-response","trial_index":123,"time_elapsed":356592,"internal_node_id":"0.0-4.0-0.58","subject_id":"6161d2a6b6dcc778b5b930bb","study_id":"6197b3f67c2b5cd3b6d9596a","session_id":"6197b9eb975f25f15e4bb557","condition":"full-information","relevant_dimensions":["antennae","pattern"],"bee_group":{"antennae":"B","wings":"X","pattern":"S","legs":"X"},"action":"harvest","summary":"good-harvest","bonus":0},{"rt":1414.699999988079,"stimulus":"\n                    <p><b>Action: <em>harvest</em></b></p>\n                    <p>This is the bee that you just saw.</p>\n                    <img src=\"bees-with-color/bee-A1DF.svg\" width=\"200\">\n                    <p><span class=\"greenText\"><b>Successful harvest!</b></span><br>Your pay has increased by $0.02. Your bonus pay is now $0.26.</p>\n            ","response":0,"trial_type":"html-button-response","trial_index":124,"time_elapsed":358007,"internal_node_id":"0.0-4.0-1.58","subject_id":"6161d2a6b6dcc778b5b930bb","study_id":"6197b3f67c2b5cd3b6d9596a","session_id":"6197b9eb975f25f15e4bb557","condition":"full-information","relevant_dimensions":["antennae","pattern"],"bee_group":{"antennae":"B","wings":"X","pattern":"S","legs":"X"},"bonus":0},{"rt":1735.5,"stimulus":"bees-with-color/bee-B1SM.svg","response":0,"trial_type":"image-button-response","trial_index":125,"time_elapsed":359744,"internal_node_id":"0.0-4.0-0.59","subject_id":"6161d2a6b6dcc778b5b930bb","study_id":"6197b3f67c2b5cd3b6d9596a","session_id":"6197b9eb975f25f15e4bb557","condition":"full-information","relevant_dimensions":["antennae","pattern"],"bee_group":{"antennae":"B","wings":"X","pattern":"S","legs":"X"},"action":"harvest","summary":"bad-harvest","bonus":0},{"rt":1246.9000000059605,"stimulus":"\n                    <p><b>Action: <em>harvest</em></b></p>\n                    <p>This is the bee that you just saw.</p>\n                    <img src=\"bees-with-color/bee-B1SM.svg\" width=\"200\">\n                    <p><span class=\"redText\">Bad choice, the bee was angry.</span><br><b>You have been stung!</b><br>Your pay has been decreased by $0.10. Your bonus pay is now $0.16.</p>\n            ","response":0,"trial_type":"html-button-response","trial_index":126,"time_elapsed":360992,"internal_node_id":"0.0-4.0-1.59","subject_id":"6161d2a6b6dcc778b5b930bb","study_id":"6197b3f67c2b5cd3b6d9596a","session_id":"6197b9eb975f25f15e4bb557","condition":"full-information","relevant_dimensions":["antennae","pattern"],"bee_group":{"antennae":"B","wings":"X","pattern":"S","legs":"X"},"bonus":0},{"rt":1058.7000000178814,"stimulus":"bees-with-color/bee-A2DM.svg","response":0,"trial_type":"image-button-response","trial_index":127,"time_elapsed":362052,"internal_node_id":"0.0-4.0-0.60","subject_id":"6161d2a6b6dcc778b5b930bb","study_id":"6197b3f67c2b5cd3b6d9596a","session_id":"6197b9eb975f25f15e4bb557","condition":"full-information","relevant_dimensions":["antennae","pattern"],"bee_group":{"antennae":"B","wings":"X","pattern":"S","legs":"X"},"action":"harvest","summary":"good-harvest","bonus":0},{"rt":986.9000000059605,"stimulus":"\n                    <p><b>Action: <em>harvest</em></b></p>\n                    <p>This is the bee that you just saw.</p>\n                    <img src=\"bees-with-color/bee-A2DM.svg\" width=\"200\">\n                    <p><span class=\"greenText\"><b>Successful harvest!</b></span><br>Your pay has increased by $0.02. Your bonus pay is now $0.18.</p>\n            ","response":0,"trial_type":"html-button-response","trial_index":128,"time_elapsed":363040,"internal_node_id":"0.0-4.0-1.60","subject_id":"6161d2a6b6dcc778b5b930bb","study_id":"6197b3f67c2b5cd3b6d9596a","session_id":"6197b9eb975f25f15e4bb557","condition":"full-information","relevant_dimensions":["antennae","pattern"],"bee_group":{"antennae":"B","wings":"X","pattern":"S","legs":"X"},"bonus":0},{"rt":5387.0999999940395,"stimulus":"bees-with-color/bee-A2SF.svg","response":0,"trial_type":"image-button-response","trial_index":129,"time_elapsed":368428,"internal_node_id":"0.0-4.0-0.61","subject_id":"6161d2a6b6dcc778b5b930bb","study_id":"6197b3f67c2b5cd3b6d9596a","session_id":"6197b9eb975f25f15e4bb557","condition":"full-information","relevant_dimensions":["antennae","pattern"],"bee_group":{"antennae":"B","wings":"X","pattern":"S","legs":"X"},"action":"harvest","summary":"good-harvest","bonus":0},{"rt":1422.7000000178814,"stimulus":"\n                    <p><b>Action: <em>harvest</em></b></p>\n                    <p>This is the bee that you just saw.</p>\n                    <img src=\"bees-with-color/bee-A2SF.svg\" width=\"200\">\n                    <p><span class=\"greenText\"><b>Successful harvest!</b></span><br>Your pay has increased by $0.02. Your bonus pay is now $0.20.</p>\n            ","response":0,"trial_type":"html-button-response","trial_index":130,"time_elapsed":369851,"internal_node_id":"0.0-4.0-1.61","subject_id":"6161d2a6b6dcc778b5b930bb","study_id":"6197b3f67c2b5cd3b6d9596a","session_id":"6197b9eb975f25f15e4bb557","condition":"full-information","relevant_dimensions":["antennae","pattern"],"bee_group":{"antennae":"B","wings":"X","pattern":"S","legs":"X"},"bonus":0},{"rt":1555.199999988079,"stimulus":"bees-with-color/bee-B1DM.svg","response":1,"trial_type":"image-button-response","trial_index":131,"time_elapsed":371408,"internal_node_id":"0.0-4.0-0.62","subject_id":"6161d2a6b6dcc778b5b930bb","study_id":"6197b3f67c2b5cd3b6d9596a","session_id":"6197b9eb975f25f15e4bb557","condition":"full-information","relevant_dimensions":["antennae","pattern"],"bee_group":{"antennae":"B","wings":"X","pattern":"S","legs":"X"},"action":"avoid","summary":"bad-avoid","bonus":0},{"rt":1674.5999999940395,"stimulus":"\n                    <p><b>Action: <em>avoid</em></b></p>\n                    <p>This is the bee that you just saw.</p>\n                    <img src=\"bees-with-color/bee-B1DM.svg\" width=\"200\">\n                    <p><span class=\"redText\">Bad choice,</span> the bee was friendly.<br>Your bonus pay is unchanged, and remains at $0.20.</p>\n            ","response":0,"trial_type":"html-button-response","trial_index":132,"time_elapsed":373084,"internal_node_id":"0.0-4.0-1.62","subject_id":"6161d2a6b6dcc778b5b930bb","study_id":"6197b3f67c2b5cd3b6d9596a","session_id":"6197b9eb975f25f15e4bb557","condition":"full-information","relevant_dimensions":["antennae","pattern"],"bee_group":{"antennae":"B","wings":"X","pattern":"S","legs":"X"},"bonus":0},{"rt":2034.699999988079,"stimulus":"bees-with-color/bee-B2SF.svg","response":0,"trial_type":"image-button-response","trial_index":133,"time_elapsed":375120,"internal_node_id":"0.0-4.0-0.63","subject_id":"6161d2a6b6dcc778b5b930bb","study_id":"6197b3f67c2b5cd3b6d9596a","session_id":"6197b9eb975f25f15e4bb557","condition":"full-information","relevant_dimensions":["antennae","pattern"],"bee_group":{"antennae":"B","wings":"X","pattern":"S","legs":"X"},"action":"harvest","summary":"bad-harvest","bonus":0},{"rt":1411,"stimulus":"\n                    <p><b>Action: <em>harvest</em></b></p>\n                    <p>This is the bee that you just saw.</p>\n                    <img src=\"bees-with-color/bee-B2SF.svg\" width=\"200\">\n                    <p><span class=\"redText\">Bad choice, the bee was angry.</span><br><b>You have been stung!</b><br>Your pay has been decreased by $0.10. Your bonus pay is now $0.10.</p>\n            ","response":0,"trial_type":"html-button-response","trial_index":134,"time_elapsed":376532,"internal_node_id":"0.0-4.0-1.63","subject_id":"6161d2a6b6dcc778b5b930bb","study_id":"6197b3f67c2b5cd3b6d9596a","session_id":"6197b9eb975f25f15e4bb557","condition":"full-information","relevant_dimensions":["antennae","pattern"],"bee_group":{"antennae":"B","wings":"X","pattern":"S","legs":"X"},"bonus":0},{"rt":3609.399999976158,"stimulus":"You have completed the first part of this experiment.<br><br>You will now begin a shorter second part, in which you will receive no feedback.<br>The same rules regarding bonus pay apply.<br><br>Press any key to begin.","response":" ","trial_type":"html-keyboard-response","trial_index":135,"time_elapsed":380143,"internal_node_id":"0.0-5.0","subject_id":"6161d2a6b6dcc778b5b930bb","study_id":"6197b3f67c2b5cd3b6d9596a","session_id":"6197b9eb975f25f15e4bb557","condition":"full-information","relevant_dimensions":["antennae","pattern"],"bee_group":{"antennae":"B","wings":"X","pattern":"S","legs":"X"},"bonus":0},{"rt":1840.699999988079,"stimulus":"bees-with-color/bee-B1DF.svg","response":1,"trial_type":"image-button-response","trial_index":136,"time_elapsed":381996,"internal_node_id":"0.0-6.0-0.0","subject_id":"6161d2a6b6dcc778b5b930bb","study_id":"6197b3f67c2b5cd3b6d9596a","session_id":"6197b9eb975f25f15e4bb557","condition":"full-information","relevant_dimensions":["antennae","pattern"],"bee_group":{"antennae":"B","wings":"X","pattern":"S","legs":"X"},"bonus":0},{"rt":5114.399999976158,"stimulus":"bees-with-color/bee-A1SM.svg","response":1,"trial_type":"image-button-response","trial_index":137,"time_elapsed":387112,"internal_node_id":"0.0-6.0-0.1","subject_id":"6161d2a6b6dcc778b5b930bb","study_id":"6197b3f67c2b5cd3b6d9596a","session_id":"6197b9eb975f25f15e4bb557","condition":"full-information","relevant_dimensions":["antennae","pattern"],"bee_group":{"antennae":"B","wings":"X","pattern":"S","legs":"X"},"bonus":0},{"rt":1542,"stimulus":"bees-with-color/bee-B2DM.svg","response":0,"trial_type":"image-button-response","trial_index":138,"time_elapsed":388656,"internal_node_id":"0.0-6.0-0.2","subject_id":"6161d2a6b6dcc778b5b930bb","study_id":"6197b3f67c2b5cd3b6d9596a","session_id":"6197b9eb975f25f15e4bb557","condition":"full-information","relevant_dimensions":["antennae","pattern"],"bee_group":{"antennae":"B","wings":"X","pattern":"S","legs":"X"},"bonus":0},{"rt":1325.9000000059605,"stimulus":"bees-with-color/bee-B1DM.svg","response":1,"trial_type":"image-button-response","trial_index":139,"time_elapsed":389983,"internal_node_id":"0.0-6.0-0.3","subject_id":"6161d2a6b6dcc778b5b930bb","study_id":"6197b3f67c2b5cd3b6d9596a","session_id":"6197b9eb975f25f15e4bb557","condition":"full-information","relevant_dimensions":["antennae","pattern"],"bee_group":{"antennae":"B","wings":"X","pattern":"S","legs":"X"},"bonus":0},{"rt":1586.699999988079,"stimulus":"bees-with-color/bee-B1SF.svg","response":0,"trial_type":"image-button-response","trial_index":140,"time_elapsed":391572,"internal_node_id":"0.0-6.0-0.4","subject_id":"6161d2a6b6dcc778b5b930bb","study_id":"6197b3f67c2b5cd3b6d9596a","session_id":"6197b9eb975f25f15e4bb557","condition":"full-information","relevant_dimensions":["antennae","pattern"],"bee_group":{"antennae":"B","wings":"X","pattern":"S","legs":"X"},"bonus":0},{"rt":1066.5,"stimulus":"bees-with-color/bee-B2SF.svg","response":0,"trial_type":"image-button-response","trial_index":141,"time_elapsed":392640,"internal_node_id":"0.0-6.0-0.5","subject_id":"6161d2a6b6dcc778b5b930bb","study_id":"6197b3f67c2b5cd3b6d9596a","session_id":"6197b9eb975f25f15e4bb557","condition":"full-information","relevant_dimensions":["antennae","pattern"],"bee_group":{"antennae":"B","wings":"X","pattern":"S","legs":"X"},"bonus":0},{"rt":1313.9000000059605,"stimulus":"bees-with-color/bee-B2DF.svg","response":0,"trial_type":"image-button-response","trial_index":142,"time_elapsed":393955,"internal_node_id":"0.0-6.0-0.6","subject_id":"6161d2a6b6dcc778b5b930bb","study_id":"6197b3f67c2b5cd3b6d9596a","session_id":"6197b9eb975f25f15e4bb557","condition":"full-information","relevant_dimensions":["antennae","pattern"],"bee_group":{"antennae":"B","wings":"X","pattern":"S","legs":"X"},"bonus":0},{"rt":1682.699999988079,"stimulus":"bees-with-color/bee-A1DM.svg","response":1,"trial_type":"image-button-response","trial_index":143,"time_elapsed":395640,"internal_node_id":"0.0-6.0-0.7","subject_id":"6161d2a6b6dcc778b5b930bb","study_id":"6197b3f67c2b5cd3b6d9596a","session_id":"6197b9eb975f25f15e4bb557","condition":"full-information","relevant_dimensions":["antennae","pattern"],"bee_group":{"antennae":"B","wings":"X","pattern":"S","legs":"X"},"bonus":0},{"rt":1786.300000011921,"stimulus":"bees-with-color/bee-A1SF.svg","response":0,"trial_type":"image-button-response","trial_index":144,"time_elapsed":397428,"internal_node_id":"0.0-6.0-0.8","subject_id":"6161d2a6b6dcc778b5b930bb","study_id":"6197b3f67c2b5cd3b6d9596a","session_id":"6197b9eb975f25f15e4bb557","condition":"full-information","relevant_dimensions":["antennae","pattern"],"bee_group":{"antennae":"B","wings":"X","pattern":"S","legs":"X"},"bonus":0},{"rt":1614.4000000059605,"stimulus":"bees-with-color/bee-A1DF.svg","response":0,"trial_type":"image-button-response","trial_index":145,"time_elapsed":399044,"internal_node_id":"0.0-6.0-0.9","subject_id":"6161d2a6b6dcc778b5b930bb","study_id":"6197b3f67c2b5cd3b6d9596a","session_id":"6197b9eb975f25f15e4bb557","condition":"full-information","relevant_dimensions":["antennae","pattern"],"bee_group":{"antennae":"B","wings":"X","pattern":"S","legs":"X"},"bonus":0},{"rt":1485.7999999821186,"stimulus":"bees-with-color/bee-B2SM.svg","response":0,"trial_type":"image-button-response","trial_index":146,"time_elapsed":400531,"internal_node_id":"0.0-6.0-0.10","subject_id":"6161d2a6b6dcc778b5b930bb","study_id":"6197b3f67c2b5cd3b6d9596a","session_id":"6197b9eb975f25f15e4bb557","condition":"full-information","relevant_dimensions":["antennae","pattern"],"bee_group":{"antennae":"B","wings":"X","pattern":"S","legs":"X"},"bonus":0},{"rt":3886.399999976158,"stimulus":"bees-with-color/bee-A2DF.svg","response":1,"trial_type":"image-button-response","trial_index":147,"time_elapsed":404419,"internal_node_id":"0.0-6.0-0.11","subject_id":"6161d2a6b6dcc778b5b930bb","study_id":"6197b3f67c2b5cd3b6d9596a","session_id":"6197b9eb975f25f15e4bb557","condition":"full-information","relevant_dimensions":["antennae","pattern"],"bee_group":{"antennae":"B","wings":"X","pattern":"S","legs":"X"},"bonus":0},{"rt":1274.4000000059605,"stimulus":"bees-with-color/bee-B1SM.svg","response":0,"trial_type":"image-button-response","trial_index":148,"time_elapsed":405696,"internal_node_id":"0.0-6.0-0.12","subject_id":"6161d2a6b6dcc778b5b930bb","study_id":"6197b3f67c2b5cd3b6d9596a","session_id":"6197b9eb975f25f15e4bb557","condition":"full-information","relevant_dimensions":["antennae","pattern"],"bee_group":{"antennae":"B","wings":"X","pattern":"S","legs":"X"},"bonus":0},{"rt":2698.4000000059605,"stimulus":"bees-with-color/bee-A2DM.svg","response":0,"trial_type":"image-button-response","trial_index":149,"time_elapsed":408396,"internal_node_id":"0.0-6.0-0.13","subject_id":"6161d2a6b6dcc778b5b930bb","study_id":"6197b3f67c2b5cd3b6d9596a","session_id":"6197b9eb975f25f15e4bb557","condition":"full-information","relevant_dimensions":["antennae","pattern"],"bee_group":{"antennae":"B","wings":"X","pattern":"S","legs":"X"},"bonus":0},{"rt":2010.199999988079,"stimulus":"bees-with-color/bee-A2SM.svg","response":0,"trial_type":"image-button-response","trial_index":150,"time_elapsed":410408,"internal_node_id":"0.0-6.0-0.14","subject_id":"6161d2a6b6dcc778b5b930bb","study_id":"6197b3f67c2b5cd3b6d9596a","session_id":"6197b9eb975f25f15e4bb557","condition":"full-information","relevant_dimensions":["antennae","pattern"],"bee_group":{"antennae":"B","wings":"X","pattern":"S","legs":"X"},"bonus":0},{"rt":2293.699999988079,"stimulus":"bees-with-color/bee-A2SF.svg","response":1,"trial_type":"image-button-response","trial_index":151,"time_elapsed":412704,"internal_node_id":"0.0-6.0-0.15","subject_id":"6161d2a6b6dcc778b5b930bb","study_id":"6197b3f67c2b5cd3b6d9596a","session_id":"6197b9eb975f25f15e4bb557","condition":"full-information","relevant_dimensions":["antennae","pattern"],"bee_group":{"antennae":"B","wings":"X","pattern":"S","legs":"X"},"bonus":0},{"rt":3014.199999988079,"stimulus":"bees-with-color/bee-B2DM.svg","response":0,"trial_type":"image-button-response","trial_index":152,"time_elapsed":415720,"internal_node_id":"0.0-6.0-0.16","subject_id":"6161d2a6b6dcc778b5b930bb","study_id":"6197b3f67c2b5cd3b6d9596a","session_id":"6197b9eb975f25f15e4bb557","condition":"full-information","relevant_dimensions":["antennae","pattern"],"bee_group":{"antennae":"B","wings":"X","pattern":"S","legs":"X"},"bonus":0},{"rt":3094.0999999940395,"stimulus":"bees-with-color/bee-A1DF.svg","response":0,"trial_type":"image-button-response","trial_index":153,"time_elapsed":418816,"internal_node_id":"0.0-6.0-0.17","subject_id":"6161d2a6b6dcc778b5b930bb","study_id":"6197b3f67c2b5cd3b6d9596a","session_id":"6197b9eb975f25f15e4bb557","condition":"full-information","relevant_dimensions":["antennae","pattern"],"bee_group":{"antennae":"B","wings":"X","pattern":"S","legs":"X"},"bonus":0},{"rt":2474.5,"stimulus":"bees-with-color/bee-A1SF.svg","response":0,"trial_type":"image-button-response","trial_index":154,"time_elapsed":421292,"internal_node_id":"0.0-6.0-0.18","subject_id":"6161d2a6b6dcc778b5b930bb","study_id":"6197b3f67c2b5cd3b6d9596a","session_id":"6197b9eb975f25f15e4bb557","condition":"full-information","relevant_dimensions":["antennae","pattern"],"bee_group":{"antennae":"B","wings":"X","pattern":"S","legs":"X"},"bonus":0},{"rt":853.7999999821186,"stimulus":"bees-with-color/bee-A1SM.svg","response":0,"trial_type":"image-button-response","trial_index":155,"time_elapsed":422147,"internal_node_id":"0.0-6.0-0.19","subject_id":"6161d2a6b6dcc778b5b930bb","study_id":"6197b3f67c2b5cd3b6d9596a","session_id":"6197b9eb975f25f15e4bb557","condition":"full-information","relevant_dimensions":["antennae","pattern"],"bee_group":{"antennae":"B","wings":"X","pattern":"S","legs":"X"},"bonus":0},{"rt":1386.9000000059605,"stimulus":"bees-with-color/bee-A2SM.svg","response":0,"trial_type":"image-button-response","trial_index":156,"time_elapsed":423536,"internal_node_id":"0.0-6.0-0.20","subject_id":"6161d2a6b6dcc778b5b930bb","study_id":"6197b3f67c2b5cd3b6d9596a","session_id":"6197b9eb975f25f15e4bb557","condition":"full-information","relevant_dimensions":["antennae","pattern"],"bee_group":{"antennae":"B","wings":"X","pattern":"S","legs":"X"},"bonus":0},{"rt":1134.5999999940395,"stimulus":"bees-with-color/bee-B1SF.svg","response":1,"trial_type":"image-button-response","trial_index":157,"time_elapsed":424672,"internal_node_id":"0.0-6.0-0.21","subject_id":"6161d2a6b6dcc778b5b930bb","study_id":"6197b3f67c2b5cd3b6d9596a","session_id":"6197b9eb975f25f15e4bb557","condition":"full-information","relevant_dimensions":["antennae","pattern"],"bee_group":{"antennae":"B","wings":"X","pattern":"S","legs":"X"},"bonus":0},{"rt":1758.300000011921,"stimulus":"bees-with-color/bee-A2SF.svg","response":0,"trial_type":"image-button-response","trial_index":158,"time_elapsed":426432,"internal_node_id":"0.0-6.0-0.22","subject_id":"6161d2a6b6dcc778b5b930bb","study_id":"6197b3f67c2b5cd3b6d9596a","session_id":"6197b9eb975f25f15e4bb557","condition":"full-information","relevant_dimensions":["antennae","pattern"],"bee_group":{"antennae":"B","wings":"X","pattern":"S","legs":"X"},"bonus":0},{"rt":1942.300000011921,"stimulus":"bees-with-color/bee-B2SF.svg","response":0,"trial_type":"image-button-response","trial_index":159,"time_elapsed":428376,"internal_node_id":"0.0-6.0-0.23","subject_id":"6161d2a6b6dcc778b5b930bb","study_id":"6197b3f67c2b5cd3b6d9596a","session_id":"6197b9eb975f25f15e4bb557","condition":"full-information","relevant_dimensions":["antennae","pattern"],"bee_group":{"antennae":"B","wings":"X","pattern":"S","legs":"X"},"bonus":0},{"rt":1570.699999988079,"stimulus":"bees-with-color/bee-A2DM.svg","response":1,"trial_type":"image-button-response","trial_index":160,"time_elapsed":429948,"internal_node_id":"0.0-6.0-0.24","subject_id":"6161d2a6b6dcc778b5b930bb","study_id":"6197b3f67c2b5cd3b6d9596a","session_id":"6197b9eb975f25f15e4bb557","condition":"full-information","relevant_dimensions":["antennae","pattern"],"bee_group":{"antennae":"B","wings":"X","pattern":"S","legs":"X"},"bonus":0},{"rt":3734.2000000178814,"stimulus":"bees-with-color/bee-B1DM.svg","response":0,"trial_type":"image-button-response","trial_index":161,"time_elapsed":433684,"internal_node_id":"0.0-6.0-0.25","subject_id":"6161d2a6b6dcc778b5b930bb","study_id":"6197b3f67c2b5cd3b6d9596a","session_id":"6197b9eb975f25f15e4bb557","condit