[{"success":true,"trial_type":"fullscreen","trial_index":0,"time_elapsed":8323,"internal_node_id":"0.0-0.0","subject_id":"5fd663b8b06c1b570569dc2b","study_id":"6197b3f67c2b5cd3b6d9596a","session_id":"619be321a677be088cdb71ed","condition":"full-information","relevant_dimensions":["antennae","pattern"],"bee_group":{"antennae":"B","wings":"X","pattern":"S","legs":"X"},"bonus":0.40000000000000147},{"success":true,"timeout":false,"failed_images":[],"failed_audio":[],"failed_video":[],"trial_type":"preload","trial_index":1,"time_elapsed":10496,"internal_node_id":"0.0-1.0","subject_id":"5fd663b8b06c1b570569dc2b","study_id":"6197b3f67c2b5cd3b6d9596a","session_id":"619be321a677be088cdb71ed","condition":"full-information","relevant_dimensions":["antennae","pattern"],"bee_group":{"antennae":"B","wings":"X","pattern":"S","legs":"X"},"bonus":0.40000000000000147},{"rt":1889.2999999970198,"stimulus":"Welcome! Press any key to begin.","response":"enter","trial_type":"html-keyboard-response","trial_index":2,"time_elapsed":12386,"internal_node_id":"0.0-2.0","subject_id":"5fd663b8b06c1b570569dc2b","study_id":"6197b3f67c2b5cd3b6d9596a","session_id":"619be321a677be088cdb71ed","condition":"full-information","relevant_dimensions":["antennae","pattern"],"bee_group":{"antennae":"B","wings":"X","pattern":"S","legs":"X"},"bonus":0.40000000000000147},{"view_history":[{"page_index":0,"viewing_time":4803.29999999702},{"page_index":1,"viewing_time":6475.29999999702},{"page_index":2,"viewing_time":9020.5},{"page_index":3,"viewing_time":7987},{"page_index":4,"viewing_time":3106.9000000059605},{"page_index":5,"viewing_time":2836},{"page_index":6,"viewing_time":2005.0999999940395},{"page_index":7,"viewing_time":5905},{"page_index":8,"viewing_time":2448.9000000059605},{"page_index":9,"viewing_time":1843.2000000029802},{"page_index":10,"viewing_time":1314.0999999940395},{"page_index":11,"viewing_time":9372.90000000596},{"page_index":12,"viewing_time":16018.89999999106},{"page_index":13,"viewing_time":957.2000000029802},{"page_index":14,"viewing_time":1591.9000000059605}],"rt":75686.59999999404,"trial_type":"instructions","trial_index":3,"time_elapsed":88073,"internal_node_id":"0.0-3.0-0.0","subject_id":"5fd663b8b06c1b570569dc2b","study_id":"6197b3f67c2b5cd3b6d9596a","session_id":"619be321a677be088cdb71ed","condition":"full-information","relevant_dimensions":["antennae","pattern"],"bee_group":{"antennae":"B","wings":"X","pattern":"S","legs":"X"},"bonus":0.40000000000000147},{"rt":14929.59999999404,"response":{"Q0":["Two or six legs","Stripes or spots on body","Single or double wings","Antennae or no antennae"]},"question_order":[0],"trial_type":"survey-multi-select","trial_index":4,"time_elapsed":103005,"internal_node_id":"0.0-3.0-1.0","subject_id":"5fd663b8b06c1b570569dc2b","study_id":"6197b3f67c2b5cd3b6d9596a","session_id":"619be321a677be088cdb71ed","condition":"full-information","relevant_dimensions":["antennae","pattern"],"bee_group":{"antennae":"B","wings":"X","pattern":"S","legs":"X"},"correct":true,"bonus":0.40000000000000147},{"rt":19534.60000000894,"response":{"Q1":"No.","Q2":"Based on the four features of the bee.","Q3":"You learn if it was friendly or dangerous and alter your bonus."},"question_order":[0,1,2],"trial_type":"survey-multi-choice","trial_index":5,"time_elapsed":122542,"internal_node_id":"0.0-3.0-2.0","subject_id":"5fd663b8b06c1b570569dc2b","study_id":"6197b3f67c2b5cd3b6d9596a","session_id":"619be321a677be088cdb71ed","condition":"full-information","relevant_dimensions":["antennae","pattern"],"bee_group":{"antennae":"B","wings":"X","pattern":"S","legs":"X"},"correct":false,"bonus":0.40000000000000147},{"rt":3722.1000000089407,"stimulus":"<p>You did not answer all comprehension questions correctly.<br>Press <b>continue</b> to review the instructions again.</p>","response":0,"trial_type":"html-button-response","trial_index":6,"time_elapsed":126267,"internal_node_id":"0.0-3.0-3.0","subject_id":"5fd663b8b06c1b570569dc2b","study_id":"6197b3f67c2b5cd3b6d9596a","session_id":"619be321a677be088cdb71ed","condition":"full-information","relevant_dimensions":["antennae","pattern"],"bee_group":{"antennae":"B","wings":"X","pattern":"S","legs":"X"},"bonus":0.40000000000000147},{"view_history":[{"page_index":0,"viewing_time":980.1000000089407},{"page_index":1,"viewing_time":13516.89999999106},{"page_index":2,"viewing_time":10771.10000000894},{"page_index":3,"viewing_time":11965.20000000298},{"page_index":4,"viewing_time":5813.79999999702},{"page_index":5,"viewing_time":1666},{"page_index":6,"viewing_time":3308.0999999940395},{"page_index":7,"viewing_time":7388.9000000059605},{"page_index":8,"viewing_time":7393.899999991059},{"page_index":9,"viewing_time":4190.20000000298},{"page_index":10,"viewing_time":7086.9000000059605},{"page_index":11,"viewing_time":5877.5},{"page_index":12,"viewing_time":13960.5},{"page_index":13,"viewing_time":1144.8999999910593},{"page_index":14,"viewing_time":787}],"rt":95851.60000000894,"trial_type":"instructions","trial_index":7,"time_elapsed":222119,"internal_node_id":"0.0-3.0-4.0-0.0","subject_id":"5fd663b8b06c1b570569dc2b","study_id":"6197b3f67c2b5cd3b6d9596a","session_id":"619be321a677be088cdb71ed","condition":"full-information","relevant_dimensions":["antennae","pattern"],"bee_group":{"antennae":"B","wings":"X","pattern":"S","legs":"X"},"bonus":0.40000000000000147},{"rt":20086.39999999106,"response":{"Q0":["Two or six legs","Stripes or spots on body","Single or double wings","Antennae or no antennae"]},"question_order":[0],"trial_type":"survey-multi-select","trial_index":8,"time_elapsed":242209,"internal_node_id":"0.0-3.0-4.0-1.0","subject_id":"5fd663b8b06c1b570569dc2b","study_id":"6197b3f67c2b5cd3b6d9596a","session_id":"619be321a677be088cdb71ed","condition":"full-information","relevant_dimensions":["antennae","pattern"],"bee_group":{"antennae":"B","wings":"X","pattern":"S","legs":"X"},"correct":true,"bonus":0.40000000000000147},{"rt":20639.5,"response":{"Q1":"No.","Q2":"Based on the four features of the bee.","Q3":"You learn if it was friendly or dangerous, but do not alter your bonus."},"question_order":[0,1,2],"trial_type":"survey-multi-choice","trial_index":9,"time_elapsed":262851,"internal_node_id":"0.0-3.0-4.0-2.0","subject_id":"5fd663b8b06c1b570569dc2b","study_id":"6197b3f67c2b5cd3b6d9596a","session_id":"619be321a677be088cdb71ed","condition":"full-information","relevant_dimensions":["antennae","pattern"],"bee_group":{"antennae":"B","wings":"X","pattern":"S","legs":"X"},"correct":true,"bonus":0.40000000000000147},{"rt":1627.2999999970198,"stimulus":"<p>Congrats, you got everything right<br>When you're ready, click the button below to continue to the experiment.</p>","response":0,"trial_type":"html-button-response","trial_index":10,"time_elapsed":264481,"internal_node_id":"0.0-3.0-4.0-3.0","subject_id":"5fd663b8b06c1b570569dc2b","study_id":"6197b3f67c2b5cd3b6d9596a","session_id":"619be321a677be088cdb71ed","condition":"full-information","relevant_dimensions":["antennae","pattern"],"bee_group":{"antennae":"B","wings":"X","pattern":"S","legs":"X"},"bonus":0.40000000000000147},{"rt":4619.4000000059605,"stimulus":"bees-with-color/bee-B1SM.svg","response":1,"trial_type":"image-button-response","trial_index":11,"time_elapsed":269102,"internal_node_id":"0.0-4.0-0.0","subject_id":"5fd663b8b06c1b570569dc2b","study_id":"6197b3f67c2b5cd3b6d9596a","session_id":"619be321a677be088cdb71ed","condition":"full-information","relevant_dimensions":["antennae","pattern"],"bee_group":{"antennae":"B","wings":"X","pattern":"S","legs":"X"},"action":"avoid","summary":"good-avoid","bonus":0.40000000000000147},{"rt":10562.79999999702,"stimulus":"\n                    <p><b>Action: <em>avoid</em></b></p>\n                    <p>This is the bee that you just saw.</p>\n                    <img src=\"bees-with-color/bee-B1SM.svg\" width=\"200\">\n                    <p><span class=\"greenText\">Good choice!</span>  This bee would have stung you.<br>Your bonus pay is unchanged, and remains at $0.54.</p>\n            ","response":0,"trial_type":"html-button-response","trial_index":12,"time_elapsed":279667,"internal_node_id":"0.0-4.0-1.0","subject_id":"5fd663b8b06c1b570569dc2b","study_id":"6197b3f67c2b5cd3b6d9596a","session_id":"619be321a677be088cdb71ed","condition":"full-information","relevant_dimensions":["antennae","pattern"],"bee_group":{"antennae":"B","wings":"X","pattern":"S","legs":"X"},"bonus":0.40000000000000147},{"rt":1504.5999999940395,"stimulus":"bees-with-color/bee-A1DM.svg","response":1,"trial_type":"image-button-response","trial_index":13,"time_elapsed":281173,"internal_node_id":"0.0-4.0-0.1","subject_id":"5fd663b8b06c1b570569dc2b","study_id":"6197b3f67c2b5cd3b6d9596a","session_id":"619be321a677be088cdb71ed","condition":"full-information","relevant_dimensions":["antennae","pattern"],"bee_group":{"antennae":"B","wings":"X","pattern":"S","legs":"X"},"action":"avoid","summary":"bad-avoid","bonus":0.40000000000000147},{"rt":6694.4000000059605,"stimulus":"\n                    <p><b>Action: <em>avoid</em></b></p>\n                    <p>This is the bee that you just saw.</p>\n                    <img src=\"bees-with-color/bee-A1DM.svg\" width=\"200\">\n                    <p><span class=\"redText\">Bad choice,</span> the bee was friendly.<br>Your bonus pay is unchanged, and remains at $0.54.</p>\n            ","response":0,"trial_type":"html-button-response","trial_index":14,"time_elapsed":287869,"internal_node_id":"0.0-4.0-1.1","subject_id":"5fd663b8b06c1b570569dc2b","study_id":"6197b3f67c2b5cd3b6d9596a","session_id":"619be321a677be088cdb71ed","condition":"full-information","relevant_dimensions":["antennae","pattern"],"bee_group":{"antennae":"B","wings":"X","pattern":"S","legs":"X"},"bonus":0.40000000000000147},{"rt":3431.9000000059605,"stimulus":"bees-with-color/bee-A2DM.svg","response":0,"trial_type":"image-button-response","trial_index":15,"time_elapsed":291302,"internal_node_id":"0.0-4.0-0.2","subject_id":"5fd663b8b06c1b570569dc2b","study_id":"6197b3f67c2b5cd3b6d9596a","session_id":"619be321a677be088cdb71ed","condition":"full-information","relevant_dimensions":["antennae","pattern"],"bee_group":{"antennae":"B","wings":"X","pattern":"S","legs":"X"},"action":"harvest","summary":"good-harvest","bonus":0.40000000000000147},{"rt":1613.5,"stimulus":"\n                    <p><b>Action: <em>harvest</em></b></p>\n                    <p>This is the bee that you just saw.</p>\n                    <img src=\"bees-with-color/bee-A2DM.svg\" width=\"200\">\n                    <p><span class=\"greenText\"><b>Successful harvest!</b></span><br>Your pay has increased by $0.02. Your bonus pay is now $0.56.</p>\n            ","response":0,"trial_type":"html-button-response","trial_index":16,"time_elapsed":292917,"internal_node_id":"0.0-4.0-1.2","subject_id":"5fd663b8b06c1b570569dc2b","study_id":"6197b3f67c2b5cd3b6d9596a","session_id":"619be321a677be088cdb71ed","condition":"full-information","relevant_dimensions":["antennae","pattern"],"bee_group":{"antennae":"B","wings":"X","pattern":"S","legs":"X"},"bonus":0.40000000000000147},{"rt":1527.7000000029802,"stimulus":"bees-with-color/bee-B2DF.svg","response":0,"trial_type":"image-button-response","trial_index":17,"time_elapsed":294446,"internal_node_id":"0.0-4.0-0.3","subject_id":"5fd663b8b06c1b570569dc2b","study_id":"6197b3f67c2b5cd3b6d9596a","session_id":"619be321a677be088cdb71ed","condition":"full-information","relevant_dimensions":["antennae","pattern"],"bee_group":{"antennae":"B","wings":"X","pattern":"S","legs":"X"},"action":"harvest","summary":"good-harvest","bonus":0.40000000000000147},{"rt":703.6000000089407,"stimulus":"\n                    <p><b>Action: <em>harvest</em></b></p>\n                    <p>This is the bee that you just saw.</p>\n                    <img src=\"bees-with-color/bee-B2DF.svg\" width=\"200\">\n                    <p><span class=\"greenText\"><b>Successful harvest!</b></span><br>Your pay has increased by $0.02. Your bonus pay is now $0.58.</p>\n            ","response":0,"trial_type":"html-button-response","trial_index":18,"time_elapsed":295151,"internal_node_id":"0.0-4.0-1.3","subject_id":"5fd663b8b06c1b570569dc2b","study_id":"6197b3f67c2b5cd3b6d9596a","session_id":"619be321a677be088cdb71ed","condition":"full-information","relevant_dimensions":["antennae","pattern"],"bee_group":{"antennae":"B","wings":"X","pattern":"S","legs":"X"},"bonus":0.40000000000000147},{"rt":2791.800000011921,"stimulus":"bees-with-color/bee-A1SM.svg","response":0,"trial_type":"image-button-response","trial_index":19,"time_elapsed":297944,"internal_node_id":"0.0-4.0-0.4","subject_id":"5fd663b8b06c1b570569dc2b","study_id":"6197b3f67c2b5cd3b6d9596a","session_id":"619be321a677be088cdb71ed","condition":"full-information","relevant_dimensions":["antennae","pattern"],"bee_group":{"antennae":"B","wings":"X","pattern":"S","legs":"X"},"action":"harvest","summary":"good-harvest","bonus":0.40000000000000147},{"rt":949,"stimulus":"\n                    <p><b>Action: <em>harvest</em></b></p>\n                    <p>This is the bee that you just saw.</p>\n                    <img src=\"bees-with-color/bee-A1SM.svg\" width=\"200\">\n                    <p><span class=\"greenText\"><b>Successful harvest!</b></span><br>Your pay has increased by $0.02. Your bonus pay is now $0.60.</p>\n            ","response":0,"trial_type":"html-button-response","trial_index":20,"time_elapsed":298894,"internal_node_id":"0.0-4.0-1.4","subject_id":"5fd663b8b06c1b570569dc2b","study_id":"6197b3f67c2b5cd3b6d9596a","session_id":"619be321a677be088cdb71ed","condition":"full-information","relevant_dimensions":["antennae","pattern"],"bee_group":{"antennae":"B","wings":"X","pattern":"S","legs":"X"},"bonus":0.40000000000000147},{"rt":1092.0999999940395,"stimulus":"bees-with-color/bee-B2DM.svg","response":0,"trial_type":"image-button-response","trial_index":21,"time_elapsed":299987,"internal_node_id":"0.0-4.0-0.5","subject_id":"5fd663b8b06c1b570569dc2b","study_id":"6197b3f67c2b5cd3b6d9596a","session_id":"619be321a677be088cdb71ed","condition":"full-information","relevant_dimensions":["antennae","pattern"],"bee_group":{"antennae":"B","wings":"X","pattern":"S","legs":"X"},"action":"harvest","summary":"good-harvest","bonus":0.40000000000000147},{"rt":765.9000000059605,"stimulus":"\n                    <p><b>Action: <em>harvest</em></b></p>\n                    <p>This is the bee that you just saw.</p>\n                    <img src=\"bees-with-color/bee-B2DM.svg\" width=\"200\">\n                    <p><span class=\"greenText\"><b>Successful harvest!</b></span><br>Your pay has increased by $0.02. Your bonus pay is now $0.62.</p>\n            ","response":0,"trial_type":"html-button-response","trial_index":22,"time_elapsed":300754,"internal_node_id":"0.0-4.0-1.5","subject_id":"5fd663b8b06c1b570569dc2b","study_id":"6197b3f67c2b5cd3b6d9596a","session_id":"619be321a677be088cdb71ed","condition":"full-information","relevant_dimensions":["antennae","pattern"],"bee_group":{"antennae":"B","wings":"X","pattern":"S","legs":"X"},"bonus":0.40000000000000147},{"rt":1044.2000000029802,"stimulus":"bees-with-color/bee-B1DM.svg","response":0,"trial_type":"image-button-response","trial_index":23,"time_elapsed":301799,"internal_node_id":"0.0-4.0-0.6","subject_id":"5fd663b8b06c1b570569dc2b","study_id":"6197b3f67c2b5cd3b6d9596a","session_id":"619be321a677be088cdb71ed","condition":"full-information","relevant_dimensions":["antennae","pattern"],"bee_group":{"antennae":"B","wings":"X","pattern":"S","legs":"X"},"action":"harvest","summary":"good-harvest","bonus":0.40000000000000147},{"rt":602.5999999940395,"stimulus":"\n                    <p><b>Action: <em>harvest</em></b></p>\n                    <p>This is the bee that you just saw.</p>\n                    <img src=\"bees-with-color/bee-B1DM.svg\" width=\"200\">\n                    <p><span class=\"greenText\"><b>Successful harvest!</b></span><br>Your pay has increased by $0.02. Your bonus pay is now $0.64.</p>\n            ","response":0,"trial_type":"html-button-response","trial_index":24,"time_elapsed":302403,"internal_node_id":"0.0-4.0-1.6","subject_id":"5fd663b8b06c1b570569dc2b","study_id":"6197b3f67c2b5cd3b6d9596a","session_id":"619be321a677be088cdb71ed","condition":"full-information","relevant_dimensions":["antennae","pattern"],"bee_group":{"antennae":"B","wings":"X","pattern":"S","legs":"X"},"bonus":0.40000000000000147},{"rt":1645.0999999940395,"stimulus":"bees-with-color/bee-B2SF.svg","response":1,"trial_type":"image-button-response","trial_index":25,"time_elapsed":304049,"internal_node_id":"0.0-4.0-0.7","subject_id":"5fd663b8b06c1b570569dc2b","study_id":"6197b3f67c2b5cd3b6d9596a","session_id":"619be321a677be088cdb71ed","condition":"full-information","relevant_dimensions":["antennae","pattern"],"bee_group":{"antennae":"B","wings":"X","pattern":"S","legs":"X"},"action":"avoid","summary":"good-avoid","bonus":0.40000000000000147},{"rt":600.7000000029802,"stimulus":"\n                    <p><b>Action: <em>avoid</em></b></p>\n                    <p>This is the bee that you just saw.</p>\n                    <img src=\"bees-with-color/bee-B2SF.svg\" width=\"200\">\n                    <p><span class=\"greenText\">Good choice!</span>  This bee would have stung you.<br>Your bonus pay is unchanged, and remains at $0.64.</p>\n            ","response":0,"trial_type":"html-button-response","trial_index":26,"time_elapsed":304651,"internal_node_id":"0.0-4.0-1.7","subject_id":"5fd663b8b06c1b570569dc2b","study_id":"6197b3f67c2b5cd3b6d9596a","session_id":"619be321a677be088cdb71ed","condition":"full-information","relevant_dimensions":["antennae","pattern"],"bee_group":{"antennae":"B","wings":"X","pattern":"S","legs":"X"},"bonus":0.40000000000000147},{"rt":1023.8999999910593,"stimulus":"bees-with-color/bee-B1SF.svg","response":1,"trial_type":"image-button-response","trial_index":27,"time_elapsed":305676,"internal_node_id":"0.0-4.0-0.8","subject_id":"5fd663b8b06c1b570569dc2b","study_id":"6197b3f67c2b5cd3b6d9596a","session_id":"619be321a677be088cdb71ed","condition":"full-information","relevant_dimensions":["antennae","pattern"],"bee_group":{"antennae":"B","wings":"X","pattern":"S","legs":"X"},"action":"avoid","summary":"good-avoid","bonus":0.40000000000000147},{"rt":570.5,"stimulus":"\n                    <p><b>Action: <em>avoid</em></b></p>\n                    <p>This is the bee that you just saw.</p>\n                    <img src=\"bees-with-color/bee-B1SF.svg\" width=\"200\">\n                    <p><span class=\"greenText\">Good choice!</span>  This bee would have stung you.<br>Your bonus pay is unchanged, and remains at $0.64.</p>\n            ","response":0,"trial_type":"html-button-response","trial_index":28,"time_elapsed":306248,"internal_node_id":"0.0-4.0-1.8","subject_id":"5fd663b8b06c1b570569dc2b","study_id":"6197b3f67c2b5cd3b6d9596a","session_id":"619be321a677be088cdb71ed","condition":"full-information","relevant_dimensions":["antennae","pattern"],"bee_group":{"antennae":"B","wings":"X","pattern":"S","legs":"X"},"bonus":0.40000000000000147},{"rt":606.2999999970198,"stimulus":"bees-with-color/bee-A2SF.svg","response":1,"trial_type":"image-button-response","trial_index":29,"time_elapsed":306855,"internal_node_id":"0.0-4.0-0.9","subject_id":"5fd663b8b06c1b570569dc2b","study_id":"6197b3f67c2b5cd3b6d9596a","session_id":"619be321a677be088cdb71ed","condition":"full-information","relevant_dimensions":["antennae","pattern"],"bee_group":{"antennae":"B","wings":"X","pattern":"S","legs":"X"},"action":"avoid","summary":"bad-avoid","bonus":0.40000000000000147},{"rt":784.3999999910593,"stimulus":"\n                    <p><b>Action: <em>avoid</em></b></p>\n                    <p>This is the bee that you just saw.</p>\n                    <img src=\"bees-with-color/bee-A2SF.svg\" width=\"200\">\n                    <p><span class=\"redText\">Bad choice,</span> the bee was friendly.<br>Your bonus pay is unchanged, and remains at $0.64.</p>\n            ","response":0,"trial_type":"html-button-response","trial_index":30,"time_elapsed":307641,"internal_node_id":"0.0-4.0-1.9","subject_id":"5fd663b8b06c1b570569dc2b","study_id":"6197b3f67c2b5cd3b6d9596a","session_id":"619be321a677be088cdb71ed","condition":"full-information","relevant_dimensions":["antennae","pattern"],"bee_group":{"antennae":"B","wings":"X","pattern":"S","legs":"X"},"bonus":0.40000000000000147},{"rt":788.2999999970198,"stimulus":"bees-with-color/bee-B1DF.svg","response":0,"trial_type":"image-button-response","trial_index":31,"time_elapsed":308430,"internal_node_id":"0.0-4.0-0.10","subject_id":"5fd663b8b06c1b570569dc2b","study_id":"6197b3f67c2b5cd3b6d9596a","session_id":"619be321a677be088cdb71ed","condition":"full-information","relevant_dimensions":["antennae","pattern"],"bee_group":{"antennae":"B","wings":"X","pattern":"S","legs":"X"},"action":"harvest","summary":"good-harvest","bonus":0.40000000000000147},{"rt":654.7000000029802,"stimulus":"\n                    <p><b>Action: <em>harvest</em></b></p>\n                    <p>This is the bee that you just saw.</p>\n                    <img src=\"bees-with-color/bee-B1DF.svg\" width=\"200\">\n                    <p><span class=\"greenText\"><b>Successful harvest!</b></span><br>Your pay has increased by $0.02. Your bonus pay is now $0.66.</p>\n            ","response":0,"trial_type":"html-button-response","trial_index":32,"time_elapsed":309086,"internal_node_id":"0.0-4.0-1.10","subject_id":"5fd663b8b06c1b570569dc2b","study_id":"6197b3f67c2b5cd3b6d9596a","session_id":"619be321a677be088cdb71ed","condition":"full-information","relevant_dimensions":["antennae","pattern"],"bee_group":{"antennae":"B","wings":"X","pattern":"S","legs":"X"},"bonus":0.40000000000000147},{"rt":1344.5,"stimulus":"bees-with-color/bee-B2SM.svg","response":0,"trial_type":"image-button-response","trial_index":33,"time_elapsed":310431,"internal_node_id":"0.0-4.0-0.11","subject_id":"5fd663b8b06c1b570569dc2b","study_id":"6197b3f67c2b5cd3b6d9596a","session_id":"619be321a677be088cdb71ed","condition":"full-information","relevant_dimensions":["antennae","pattern"],"bee_group":{"antennae":"B","wings":"X","pattern":"S","legs":"X"},"action":"harvest","summary":"bad-harvest","bonus":0.40000000000000147},{"rt":709.5999999940395,"stimulus":"\n                    <p><b>Action: <em>harvest</em></b></p>\n                    <p>This is the bee that you just saw.</p>\n                    <img src=\"bees-with-color/bee-B2SM.svg\" width=\"200\">\n                    <p><span class=\"redText\">Bad choice, the bee was angry.</span><br><b>You have been stung!</b><br>Your pay has been decreased by $0.10. Your bonus pay is now $0.56.</p>\n            ","response":0,"trial_type":"html-button-response","trial_index":34,"time_elapsed":311142,"internal_node_id":"0.0-4.0-1.11","subject_id":"5fd663b8b06c1b570569dc2b","study_id":"6197b3f67c2b5cd3b6d9596a","session_id":"619be321a677be088cdb71ed","condition":"full-information","relevant_dimensions":["antennae","pattern"],"bee_group":{"antennae":"B","wings":"X","pattern":"S","legs":"X"},"bonus":0.40000000000000147},{"rt":2267.2000000029802,"stimulus":"bees-with-color/bee-A2DF.svg","response":0,"trial_type":"image-button-response","trial_index":35,"time_elapsed":313410,"internal_node_id":"0.0-4.0-0.12","subject_id":"5fd663b8b06c1b570569dc2b","study_id":"6197b3f67c2b5cd3b6d9596a","session_id":"619be321a677be088cdb71ed","condition":"full-information","relevant_dimensions":["antennae","pattern"],"bee_group":{"antennae":"B","wings":"X","pattern":"S","legs":"X"},"action":"harvest","summary":"good-harvest","bonus":0.40000000000000147},{"rt":696.9000000059605,"stimulus":"\n                    <p><b>Action: <em>harvest</em></b></p>\n                    <p>This is the bee that you just saw.</p>\n                    <img src=\"bees-with-color/bee-A2DF.svg\" width=\"200\">\n                    <p><span class=\"greenText\"><b>Successful harvest!</b></span><br>Your pay has increased by $0.02. Your bonus pay is now $0.58.</p>\n            ","response":0,"trial_type":"html-button-response","trial_index":36,"time_elapsed":314108,"internal_node_id":"0.0-4.0-1.12","subject_id":"5fd663b8b06c1b570569dc2b","study_id":"6197b3f67c2b5cd3b6d9596a","session_id":"619be321a677be088cdb71ed","condition":"full-information","relevant_dimensions":["antennae","pattern"],"bee_group":{"antennae":"B","wings":"X","pattern":"S","legs":"X"},"bonus":0.40000000000000147},{"rt":718.9000000059605,"stimulus":"bees-with-color/bee-A1DF.svg","response":0,"trial_type":"image-button-response","trial_index":37,"time_elapsed":314828,"internal_node_id":"0.0-4.0-0.13","subject_id":"5fd663b8b06c1b570569dc2b","study_id":"6197b3f67c2b5cd3b6d9596a","session_id":"619be321a677be088cdb71ed","condition":"full-information","relevant_dimensions":["antennae","pattern"],"bee_group":{"antennae":"B","wings":"X","pattern":"S","legs":"X"},"action":"harvest","summary":"good-harvest","bonus":0.40000000000000147},{"rt":941.7000000029802,"stimulus":"\n                    <p><b>Action: <em>harvest</em></b></p>\n                    <p>This is the bee that you just saw.</p>\n                    <img src=\"bees-with-color/bee-A1DF.svg\" width=\"200\">\n                    <p><span class=\"greenText\"><b>Successful harvest!</b></span><br>Your pay has increased by $0.02. Your bonus pay is now $0.60.</p>\n            ","response":0,"trial_type":"html-button-response","trial_index":38,"time_elapsed":315771,"internal_node_id":"0.0-4.0-1.13","subject_id":"5fd663b8b06c1b570569dc2b","study_id":"6197b3f67c2b5cd3b6d9596a","session_id":"619be321a677be088cdb71ed","condition":"full-information","relevant_dimensions":["antennae","pattern"],"bee_group":{"antennae":"B","wings":"X","pattern":"S","legs":"X"},"bonus":0.40000000000000147},{"rt":931.0999999940395,"stimulus":"bees-with-color/bee-A2SM.svg","response":0,"trial_type":"image-button-response","trial_index":39,"time_elapsed":316703,"internal_node_id":"0.0-4.0-0.14","subject_id":"5fd663b8b06c1b570569dc2b","study_id":"6197b3f67c2b5cd3b6d9596a","session_id":"619be321a677be088cdb71ed","condition":"full-information","relevant_dimensions":["antennae","pattern"],"bee_group":{"antennae":"B","wings":"X","pattern":"S","legs":"X"},"action":"harvest","summary":"good-harvest","bonus":0.40000000000000147},{"rt":612.7000000029802,"stimulus":"\n                    <p><b>Action: <em>harvest</em></b></p>\n                    <p>This is the bee that you just saw.</p>\n                    <img src=\"bees-with-color/bee-A2SM.svg\" width=\"200\">\n                    <p><span class=\"greenText\"><b>Successful harvest!</b></span><br>Your pay has increased by $0.02. Your bonus pay is now $0.62.</p>\n            ","response":0,"trial_type":"html-button-response","trial_index":40,"time_elapsed":317317,"internal_node_id":"0.0-4.0-1.14","subject_id":"5fd663b8b06c1b570569dc2b","study_id":"6197b3f67c2b5cd3b6d9596a","session_id":"619be321a677be088cdb71ed","condition":"full-information","relevant_dimensions":["antennae","pattern"],"bee_group":{"antennae":"B","wings":"X","pattern":"S","legs":"X"},"bonus":0.40000000000000147},{"rt":983,"stimulus":"bees-with-color/bee-A1SF.svg","response":1,"trial_type":"image-button-response","trial_index":41,"time_elapsed":318301,"internal_node_id":"0.0-4.0-0.15","subject_id":"5fd663b8b06c1b570569dc2b","study_id":"6197b3f67c2b5cd3b6d9596a","session_id":"619be321a677be088cdb71ed","condition":"full-information","relevant_dimensions":["antennae","pattern"],"bee_group":{"antennae":"B","wings":"X","pattern":"S","legs":"X"},"action":"avoid","summary":"bad-avoid","bonus":0.40000000000000147},{"rt":1876.7999999970198,"stimulus":"\n                    <p><b>Action: <em>avoid</em></b></p>\n                    <p>This is the bee that you just saw.</p>\n                    <img src=\"bees-with-color/bee-A1SF.svg\" width=\"200\">\n                    <p><span class=\"redText\">Bad choice,</span> the bee was friendly.<br>Your bonus pay is unchanged, and remains at $0.62.</p>\n            ","response":0,"trial_type":"html-button-response","trial_index":42,"time_elapsed":320179,"internal_node_id":"0.0-4.0-1.15","subject_id":"5fd663b8b06c1b570569dc2b","study_id":"6197b3f67c2b5cd3b6d9596a","session_id":"619be321a677be088cdb71ed","condition":"full-information","relevant_dimensions":["antennae","pattern"],"bee_group":{"antennae":"B","wings":"X","pattern":"S","legs":"X"},"bonus":0.40000000000000147},{"rt":953.7000000029802,"stimulus":"bees-with-color/bee-A2DF.svg","response":0,"trial_type":"image-button-response","trial_index":43,"time_elapsed":321134,"internal_node_id":"0.0-4.0-0.16","subject_id":"5fd663b8b06c1b570569dc2b","study_id":"6197b3f67c2b5cd3b6d9596a","session_id":"619be321a677be088cdb71ed","condition":"full-information","relevant_dimensions":["antennae","pattern"],"bee_group":{"antennae":"B","wings":"X","pattern":"S","legs":"X"},"action":"harvest","summary":"good-harvest","bonus":0.40000000000000147},{"rt":598.0999999940395,"stimulus":"\n                    <p><b>Action: <em>harvest</em></b></p>\n                    <p>This is the bee that you just saw.</p>\n                    <img src=\"bees-with-color/bee-A2DF.svg\" width=\"200\">\n                    <p><span class=\"greenText\"><b>Successful harvest!</b></span><br>Your pay has increased by $0.02. Your bonus pay is now $0.64.</p>\n            ","response":0,"trial_type":"html-button-response","trial_index":44,"time_elapsed":321733,"internal_node_id":"0.0-4.0-1.16","subject_id":"5fd663b8b06c1b570569dc2b","study_id":"6197b3f67c2b5cd3b6d9596a","session_id":"619be321a677be088cdb71ed","condition":"full-information","relevant_dimensions":["antennae","pattern"],"bee_group":{"antennae":"B","wings":"X","pattern":"S","legs":"X"},"bonus":0.40000000000000147},{"rt":1460.2000000029802,"stimulus":"bees-with-color/bee-B1SM.svg","response":0,"trial_type":"image-button-response","trial_index":45,"time_elapsed":323194,"internal_node_id":"0.0-4.0-0.17","subject_id":"5fd663b8b06c1b570569dc2b","study_id":"6197b3f67c2b5cd3b6d9596a","session_id":"619be321a677be088cdb71ed","condition":"full-information","relevant_dimensions":["antennae","pattern"],"bee_group":{"antennae":"B","wings":"X","pattern":"S","legs":"X"},"action":"harvest","summary":"bad-harvest","bonus":0.40000000000000147},{"rt":857.7000000029802,"stimulus":"\n                    <p><b>Action: <em>harvest</em></b></p>\n                    <p>This is the bee that you just saw.</p>\n                    <img src=\"bees-with-color/bee-B1SM.svg\" width=\"200\">\n                    <p><span class=\"redText\">Bad choice, the bee was angry.</span><br><b>You have been stung!</b><br>Your pay has been decreased by $0.10. Your bonus pay is now $0.54.</p>\n            ","response":0,"trial_type":"html-button-response","trial_index":46,"time_elapsed":324053,"internal_node_id":"0.0-4.0-1.17","subject_id":"5fd663b8b06c1b570569dc2b","study_id":"6197b3f67c2b5cd3b6d9596a","session_id":"619be321a677be088cdb71ed","condition":"full-information","relevant_dimensions":["antennae","pattern"],"bee_group":{"antennae":"B","wings":"X","pattern":"S","legs":"X"},"bonus":0.40000000000000147},{"rt":942.2999999970198,"stimulus":"bees-with-color/bee-B1SF.svg","response":1,"trial_type":"image-button-response","trial_index":47,"time_elapsed":324996,"internal_node_id":"0.0-4.0-0.18","subject_id":"5fd663b8b06c1b570569dc2b","study_id":"6197b3f67c2b5cd3b6d9596a","session_id":"619be321a677be088cdb71ed","condition":"full-information","relevant_dimensions":["antennae","pattern"],"bee_group":{"antennae":"B","wings":"X","pattern":"S","legs":"X"},"action":"avoid","summary":"good-avoid","bonus":0.40000000000000147},{"rt":821.7000000029802,"stimulus":"\n                    <p><b>Action: <em>avoid</em></b></p>\n                    <p>This is the bee that you just saw.</p>\n                    <img src=\"bees-with-color/bee-B1SF.svg\" width=\"200\">\n                    <p><span class=\"greenText\">Good choice!</span>  This bee would have stung you.<br>Your bonus pay is unchanged, and remains at $0.54.</p>\n            ","response":0,"trial_type":"html-button-response","trial_index":48,"time_elapsed":325819,"internal_node_id":"0.0-4.0-1.18","subject_id":"5fd663b8b06c1b570569dc2b","study_id":"6197b3f67c2b5cd3b6d9596a","session_id":"619be321a677be088cdb71ed","condition":"full-information","relevant_dimensions":["antennae","pattern"],"bee_group":{"antennae":"B","wings":"X","pattern":"S","legs":"X"},"bonus":0.40000000000000147},{"rt":1107.2999999970198,"stimulus":"bees-with-color/bee-A1SF.svg","response":0,"trial_type":"image-button-response","trial_index":49,"time_elapsed":326927,"internal_node_id":"0.0-4.0-0.19","subject_id":"5fd663b8b06c1b570569dc2b","study_id":"6197b3f67c2b5cd3b6d9596a","session_id":"619be321a677be088cdb71ed","condition":"full-information","relevant_dimensions":["antennae","pattern"],"bee_group":{"antennae":"B","wings":"X","pattern":"S","legs":"X"},"action":"harvest","summary":"good-harvest","bonus":0.40000000000000147},{"rt":475.70000000298023,"stimulus":"\n                    <p><b>Action: <em>harvest</em></b></p>\n                    <p>This is the bee that you just saw.</p>\n                    <img src=\"bees-with-color/bee-A1SF.svg\" width=\"200\">\n                    <p><span class=\"greenText\"><b>Successful harvest!</b></span><br>Your pay has increased by $0.02. Your bonus pay is now $0.56.</p>\n            ","response":0,"trial_type":"html-button-response","trial_index":50,"time_elapsed":327404,"internal_node_id":"0.0-4.0-1.19","subject_id":"5fd663b8b06c1b570569dc2b","study_id":"6197b3f67c2b5cd3b6d9596a","session_id":"619be321a677be088cdb71ed","condition":"full-information","relevant_dimensions":["antennae","pattern"],"bee_group":{"antennae":"B","wings":"X","pattern":"S","legs":"X"},"bonus":0.40000000000000147},{"rt":482.29999999701977,"stimulus":"bees-with-color/bee-A2SF.svg","response":0,"trial_type":"image-button-response","trial_index":51,"time_elapsed":327887,"internal_node_id":"0.0-4.0-0.20","subject_id":"5fd663b8b06c1b570569dc2b","study_id":"6197b3f67c2b5cd3b6d9596a","session_id":"619be321a677be088cdb71ed","condition":"full-information","relevant_dimensions":["antennae","pattern"],"bee_group":{"antennae":"B","wings":"X","pattern":"S","legs":"X"},"action":"harvest","summary":"good-harvest","bonus":0.40000000000000147},{"rt":399.5,"stimulus":"\n                    <p><b>Action: <em>harvest</em></b></p>\n                    <p>This is the bee that you just saw.</p>\n                    <img src=\"bees-with-color/bee-A2SF.svg\" width=\"200\">\n                    <p><span class=\"greenText\"><b>Successful harvest!</b></span><br>Your pay has increased by $0.02. Your bonus pay is now $0.58.</p>\n            ","response":0,"trial_type":"html-button-response","trial_index":52,"time_elapsed":328288,"internal_node_id":"0.0-4.0-1.20","subject_id":"5fd663b8b06c1b570569dc2b","study_id":"6197b3f67c2b5cd3b6d9596a","session_id":"619be321a677be088cdb71ed","condition":"full-information","relevant_dimensions":["antennae","pattern"],"bee_group":{"antennae":"B","wings":"X","pattern":"S","legs":"X"},"bonus":0.40000000000000147},{"rt":1167,"stimulus":"bees-with-color/bee-A1DM.svg","response":0,"trial_type":"image-button-response","trial_index":53,"time_elapsed":329456,"internal_node_id":"0.0-4.0-0.21","subject_id":"5fd663b8b06c1b570569dc2b","study_id":"6197b3f67c2b5cd3b6d9596a","session_id":"619be321a677be088cdb71ed","condition":"full-information","relevant_dimensions":["antennae","pattern"],"bee_group":{"antennae":"B","wings":"X","pattern":"S","legs":"X"},"action":"harvest","summary":"good-harvest","bonus":0.40000000000000147},{"rt":832,"stimulus":"\n                    <p><b>Action: <em>harvest</em></b></p>\n                    <p>This is the bee that you just saw.</p>\n                    <img src=\"bees-with-color/bee-A1DM.svg\" width=\"200\">\n                    <p><span class=\"greenText\"><b>Successful harvest!</b></span><br>Your pay has increased by $0.02. Your bonus pay is now $0.60.</p>\n            ","response":0,"trial_type":"html-button-response","trial_index":54,"time_elapsed":330289,"internal_node_id":"0.0-4.0-1.21","subject_id":"5fd663b8b06c1b570569dc2b","study_id":"6197b3f67c2b5cd3b6d9596a","session_id":"619be321a677be088cdb71ed","condition":"full-information","relevant_dimensions":["antennae","pattern"],"bee_group":{"antennae":"B","wings":"X","pattern":"S","legs":"X"},"bonus":0.40000000000000147},{"rt":872.0999999940395,"stimulus":"bees-with-color/bee-B2DM.svg","response":0,"trial_type":"image-button-response","trial_index":55,"time_elapsed":331162,"internal_node_id":"0.0-4.0-0.22","subject_id":"5fd663b8b06c1b570569dc2b","study_id":"6197b3f67c2b5cd3b6d9596a","session_id":"619be321a677be088cdb71ed","condition":"full-information","relevant_dimensions":["antennae","pattern"],"bee_group":{"antennae":"B","wings":"X","pattern":"S","legs":"X"},"action":"harvest","summary":"good-harvest","bonus":0.40000000000000147},{"rt":659.9000000059605,"stimulus":"\n                    <p><b>Action: <em>harvest</em></b></p>\n                    <p>This is the bee that you just saw.</p>\n                    <img src=\"bees-with-color/bee-B2DM.svg\" width=\"200\">\n                    <p><span class=\"greenText\"><b>Successful harvest!</b></span><br>Your pay has increased by $0.02. Your bonus pay is now $0.62.</p>\n            ","response":0,"trial_type":"html-button-response","trial_index":56,"time_elapsed":331823,"internal_node_id":"0.0-4.0-1.22","subject_id":"5fd663b8b06c1b570569dc2b","study_id":"6197b3f67c2b5cd3b6d9596a","session_id":"619be321a677be088cdb71ed","condition":"full-information","relevant_dimensions":["antennae","pattern"],"bee_group":{"antennae":"B","wings":"X","pattern":"S","legs":"X"},"bonus":0.40000000000000147},{"rt":710,"stimulus":"bees-with-color/bee-A1SM.svg","response":0,"trial_type":"image-button-response","trial_index":57,"time_elapsed":332534,"internal_node_id":"0.0-4.0-0.23","subject_id":"5fd663b8b06c1b570569dc2b","study_id":"6197b3f67c2b5cd3b6d9596a","session_id":"619be321a677be088cdb71ed","condition":"full-information","relevant_dimensions":["antennae","pattern"],"bee_group":{"antennae":"B","wings":"X","pattern":"S","legs":"X"},"action":"harvest","summary":"good-harvest","bonus":0.40000000000000147},{"rt":531.2000000029802,"stimulus":"\n                    <p><b>Action: <em>harvest</em></b></p>\n                    <p>This is the bee that you just saw.</p>\n                    <img src=\"bees-with-color/bee-A1SM.svg\" width=\"200\">\n                    <p><span class=\"greenText\"><b>Successful harvest!</b></span><br>Your pay has increased by $0.02. Your bonus pay is now $0.64.</p>\n            ","response":0,"trial_type":"html-button-response","trial_index":58,"time_elapsed":333066,"internal_node_id":"0.0-4.0-1.23","subject_id":"5fd663b8b06c1b570569dc2b","study_id":"6197b3f67c2b5cd3b6d9596a","session_id":"619be321a677be088cdb71ed","condition":"full-information","relevant_dimensions":["antennae","pattern"],"bee_group":{"antennae":"B","wings":"X","pattern":"S","legs":"X"},"bonus":0.40000000000000147},{"rt":1606.7000000029802,"stimulus":"bees-with-color/bee-B2DF.svg","response":0,"trial_type":"image-button-response","trial_index":59,"time_elapsed":334674,"internal_node_id":"0.0-4.0-0.24","subject_id":"5fd663b8b06c1b570569dc2b","study_id":"6197b3f67c2b5cd3b6d9596a","session_id":"619be321a677be088cdb71ed","condition":"full-information","relevant_dimensions":["antennae","pattern"],"bee_group":{"antennae":"B","wings":"X","pattern":"S","legs":"X"},"action":"harvest","summary":"good-harvest","bonus":0.40000000000000147},{"rt":681.8999999910593,"stimulus":"\n                    <p><b>Action: <em>harvest</em></b></p>\n                    <p>This is the bee that you just saw.</p>\n                    <img src=\"bees-with-color/bee-B2DF.svg\" width=\"200\">\n                    <p><span class=\"greenText\"><b>Successful harvest!</b></span><br>Your pay has increased by $0.02. Your bonus pay is now $0.66.</p>\n            ","response":0,"trial_type":"html-button-response","trial_index":60,"time_elapsed":335357,"internal_node_id":"0.0-4.0-1.24","subject_id":"5fd663b8b06c1b570569dc2b","study_id":"6197b3f67c2b5cd3b6d9596a","session_id":"619be321a677be088cdb71ed","condition":"full-information","relevant_dimensions":["antennae","pattern"],"bee_group":{"antennae":"B","wings":"X","pattern":"S","legs":"X"},"bonus":0.40000000000000147},{"rt":1570.8999999910593,"stimulus":"bees-with-color/bee-B2SF.svg","response":1,"trial_type":"image-button-response","trial_index":61,"time_elapsed":336929,"internal_node_id":"0.0-4.0-0.25","subject_id":"5fd663b8b06c1b570569dc2b","study_id":"6197b3f67c2b5cd3b6d9596a","session_id":"619be321a677be088cdb71ed","condition":"full-information","relevant_dimensions":["antennae","pattern"],"bee_group":{"antennae":"B","wings":"X","pattern":"S","legs":"X"},"action":"avoid","summary":"good-avoid","bonus":0.40000000000000147},{"rt":702.9000000059605,"stimulus":"\n                    <p><b>Action: <em>avoid</em></b></p>\n                    <p>This is the bee that you just saw.</p>\n                    <img src=\"bees-with-color/bee-B2SF.svg\" width=\"200\">\n                    <p><span class=\"greenText\">Good choice!</span>  This bee would have stung you.<br>Your bonus pay is unchanged, and remains at $0.66.</p>\n            ","response":0,"trial_type":"html-button-response","trial_index":62,"time_elapsed":337634,"internal_node_id":"0.0-4.0-1.25","subject_id":"5fd663b8b06c1b570569dc2b","study_id":"6197b3f67c2b5cd3b6d9596a","session_id":"619be321a677be088cdb71ed","condition":"full-information","relevant_dimensions":["antennae","pattern"],"bee_group":{"antennae":"B","wings":"X","pattern":"S","legs":"X"},"bonus":0.40000000000000147},{"rt":1766.4000000059605,"stimulus":"bees-with-color/bee-B1DF.svg","response":0,"trial_type":"image-button-response","trial_index":63,"time_elapsed":339401,"internal_node_id":"0.0-4.0-0.26","subject_id":"5fd663b8b06c1b570569dc2b","study_id":"6197b3f67c2b5cd3b6d9596a","session_id":"619be321a677be088cdb71ed","condition":"full-information","relevant_dimensions":["antennae","pattern"],"bee_group":{"antennae":"B","wings":"X","pattern":"S","legs":"X"},"action":"harvest","summary":"good-harvest","bonus":0.40000000000000147},{"rt":888.0999999940395,"stimulus":"\n                    <p><b>Action: <em>harvest</em></b></p>\n                    <p>This is the bee that you just saw.</p>\n                    <img src=\"bees-with-color/bee-B1DF.svg\" width=\"200\">\n                    <p><span class=\"greenText\"><b>Successful harvest!</b></span><br>Your pay has increased by $0.02. Your bonus pay is now $0.68.</p>\n            ","response":0,"trial_type":"html-button-response","trial_index":64,"time_elapsed":340291,"internal_node_id":"0.0-4.0-1.26","subject_id":"5fd663b8b06c1b570569dc2b","study_id":"6197b3f67c2b5cd3b6d9596a","session_id":"619be321a677be088cdb71ed","condition":"full-information","relevant_dimensions":["antennae","pattern"],"bee_group":{"antennae":"B","wings":"X","pattern":"S","legs":"X"},"bonus":0.40000000000000147},{"rt":1291,"stimulus":"bees-with-color/bee-A1DF.svg","response":0,"trial_type":"image-button-response","trial_index":65,"time_elapsed":341583,"internal_node_id":"0.0-4.0-0.27","subject_id":"5fd663b8b06c1b570569dc2b","study_id":"6197b3f67c2b5cd3b6d9596a","session_id":"619be321a677be088cdb71ed","condition":"full-information","relevant_dimensions":["antennae","pattern"],"bee_group":{"antennae":"B","wings":"X","pattern":"S","legs":"X"},"action":"harvest","summary":"good-harvest","bonus":0.40000000000000147},{"rt":654.7000000029802,"stimulus":"\n                    <p><b>Action: <em>harvest</em></b></p>\n                    <p>This is the bee that you just saw.</p>\n                    <img src=\"bees-with-color/bee-A1DF.svg\" width=\"200\">\n                    <p><span class=\"greenText\"><b>Successful harvest!</b></span><br>Your pay has increased by $0.02. Your bonus pay is now $0.70.</p>\n            ","response":0,"trial_type":"html-button-response","trial_index":66,"time_elapsed":342239,"internal_node_id":"0.0-4.0-1.27","subject_id":"5fd663b8b06c1b570569dc2b","study_id":"6197b3f67c2b5cd3b6d9596a","session_id":"619be321a677be088cdb71ed","condition":"full-information","relevant_dimensions":["antennae","pattern"],"bee_group":{"antennae":"B","wings":"X","pattern":"S","legs":"X"},"bonus":0.40000000000000147},{"rt":1327.2000000029802,"stimulus":"bees-with-color/bee-A2DM.svg","response":0,"trial_type":"image-button-response","trial_index":67,"time_elapsed":343567,"internal_node_id":"0.0-4.0-0.28","subject_id":"5fd663b8b06c1b570569dc2b","study_id":"6197b3f67c2b5cd3b6d9596a","session_id":"619be321a677be088cdb71ed","condition":"full-information","relevant_dimensions":["antennae","pattern"],"bee_group":{"antennae":"B","wings":"X","pattern":"S","legs":"X"},"action":"harvest","summary":"good-harvest","bonus":0.40000000000000147},{"rt":726.7000000029802,"stimulus":"\n                    <p><b>Action: <em>harvest</em></b></p>\n                    <p>This is the bee that you just saw.</p>\n                    <img src=\"bees-with-color/bee-A2DM.svg\" width=\"200\">\n                    <p><span class=\"greenText\"><b>Successful harvest!</b></span><br>Your pay has increased by $0.02. Your bonus pay is now $0.72.</p>\n            ","response":0,"trial_type":"html-button-response","trial_index":68,"time_elapsed":344295,"internal_node_id":"0.0-4.0-1.28","subject_id":"5fd663b8b06c1b570569dc2b","study_id":"6197b3f67c2b5cd3b6d9596a","session_id":"619be321a677be088cdb71ed","condition":"full-information","relevant_dimensions":["antennae","pattern"],"bee_group":{"antennae":"B","wings":"X","pattern":"S","legs":"X"},"bonus":0.40000000000000147},{"rt":1924.0999999940395,"stimulus":"bees-with-color/bee-B2SM.svg","response":0,"trial_type":"image-button-response","trial_index":69,"time_elapsed":346220,"internal_node_id":"0.0-4.0-0.29","subject_id":"5fd663b8b06c1b570569dc2b","study_id":"6197b3f67c2b5cd3b6d9596a","session_id":"619be321a677be088cdb71ed","condition":"full-information","relevant_dimensions":["antennae","pattern"],"bee_group":{"antennae":"B","wings":"X","pattern":"S","legs":"X"},"action":"harvest","summary":"bad-harvest","bonus":0.40000000000000147},{"rt":1243.7000000029802,"stimulus":"\n                    <p><b>Action: <em>harvest</em></b></p>\n                    <p>This is the bee that you just saw.</p>\n                    <img src=\"bees-with-color/bee-B2SM.svg\" width=\"200\">\n                    <p><span class=\"redText\">Bad choice, the bee was angry.</span><br><b>You have been stung!</b><br>Your pay has been decreased by $0.10. Your bonus pay is now $0.62.</p>\n            ","response":0,"trial_type":"html-button-response","trial_index":70,"time_elapsed":347465,"internal_node_id":"0.0-4.0-1.29","subject_id":"5fd663b8b06c1b570569dc2b","study_id":"6197b3f67c2b5cd3b6d9596a","session_id":"619be321a677be088cdb71ed","condition":"full-information","relevant_dimensions":["antennae","pattern"],"bee_group":{"antennae":"B","wings":"X","pattern":"S","legs":"X"},"bonus":0.40000000000000147},{"rt":1140.2000000029802,"stimulus":"bees-with-color/bee-B1DM.svg","response":0,"trial_type":"image-button-response","trial_index":71,"time_elapsed":348606,"internal_node_id":"0.0-4.0-0.30","subject_id":"5fd663b8b06c1b570569dc2b","study_id":"6197b3f67c2b5cd3b6d9596a","session_id":"619be321a677be088cdb71ed","condition":"full-information","relevant_dimensions":["antennae","pattern"],"bee_group":{"antennae":"B","wings":"X","pattern":"S","legs":"X"},"action":"harvest","summary":"good-harvest","bonus":0.40000000000000147},{"rt":605.5999999940395,"stimulus":"\n                    <p><b>Action: <em>harvest</em></b></p>\n                    <p>This is the bee that you just saw.</p>\n                    <img src=\"bees-with-color/bee-B1DM.svg\" width=\"200\">\n                    <p><span class=\"greenText\"><b>Successful harvest!</b></span><br>Your pay has increased by $0.02. Your bonus pay is now $0.64.</p>\n            ","response":0,"trial_type":"html-button-response","trial_index":72,"time_elapsed":349213,"internal_node_id":"0.0-4.0-1.30","subject_id":"5fd663b8b06c1b570569dc2b","study_id":"6197b3f67c2b5cd3b6d9596a","session_id":"619be321a677be088cdb71ed","condition":"full-information","relevant_dimensions":["antennae","pattern"],"bee_group":{"antennae":"B","wings":"X","pattern":"S","legs":"X"},"bonus":0.40000000000000147},{"rt":3320.7000000029802,"stimulus":"bees-with-color/bee-A2SM.svg","response":0,"trial_type":"image-button-response","trial_index":73,"time_elapsed":352535,"internal_node_id":"0.0-4.0-0.31","subject_id":"5fd663b8b06c1b570569dc2b","study_id":"6197b3f67c2b5cd3b6d9596a","session_id":"619be321a677be088cdb71ed","condition":"full-information","relevant_dimensions":["antennae","pattern"],"bee_group":{"antennae":"B","wings":"X","pattern":"S","legs":"X"},"action":"harvest","summary":"good-harvest","bonus":0.40000000000000147},{"rt":579.5999999940395,"stimulus":"\n                    <p><b>Action: <em>harvest</em></b></p>\n                    <p>This is the bee that you just saw.</p>\n                    <img src=\"bees-with-color/bee-A2SM.svg\" width=\"200\">\n                    <p><span class=\"greenText\"><b>Successful harvest!</b></span><br>Your pay has increased by $0.02. Your bonus pay is now $0.66.</p>\n            ","response":0,"trial_type":"html-button-response","trial_index":74,"time_elapsed":353116,"internal_node_id":"0.0-4.0-1.31","subject_id":"5fd663b8b06c1b570569dc2b","study_id":"6197b3f67c2b5cd3b6d9596a","session_id":"619be321a677be088cdb71ed","condition":"full-information","relevant_dimensions":["antennae","pattern"],"bee_group":{"antennae":"B","wings":"X","pattern":"S","legs":"X"},"bonus":0.40000000000000147},{"rt":1064,"stimulus":"bees-with-color/bee-B1SF.svg","response":1,"trial_type":"image-button-response","trial_index":75,"time_elapsed":354181,"internal_node_id":"0.0-4.0-0.32","subject_id":"5fd663b8b06c1b570569dc2b","study_id":"6197b3f67c2b5cd3b6d9596a","session_id":"619be321a677be088cdb71ed","condition":"full-information","relevant_dimensions":["antennae","pattern"],"bee_group":{"antennae":"B","wings":"X","pattern":"S","legs":"X"},"action":"avoid","summary":"good-avoid","bonus":0.40000000000000147},{"rt":933,"stimulus":"\n                    <p><b>Action: <em>avoid</em></b></p>\n                    <p>This is the bee that you just saw.</p>\n                    <img src=\"bees-with-color/bee-B1SF.svg\" width=\"200\">\n                    <p><span class=\"greenText\">Good choice!</span>  This bee would have stung you.<br>Your bonus pay is unchanged, and remains at $0.66.</p>\n            ","response":0,"trial_type":"html-button-response","trial_index":76,"time_elapsed":355115,"internal_node_id":"0.0-4.0-1.32","subject_id":"5fd663b8b06c1b570569dc2b","study_id":"6197b3f67c2b5cd3b6d9596a","session_id":"619be321a677be088cdb71ed","condition":"full-information","relevant_dimensions":["antennae","pattern"],"bee_group":{"antennae":"B","wings":"X","pattern":"S","legs":"X"},"bonus":0.40000000000000147},{"rt":768,"stimulus":"bees-with-color/bee-B2SF.svg","response":1,"trial_type":"image-button-response","trial_index":77,"time_elapsed":355884,"internal_node_id":"0.0-4.0-0.33","subject_id":"5fd663b8b06c1b570569dc2b","study_id":"6197b3f67c2b5cd3b6d9596a","session_id":"619be321a677be088cdb71ed","condition":"full-information","relevant_dimensions":["antennae","pattern"],"bee_group":{"antennae":"B","wings":"X","pattern":"S","legs":"X"},"action":"avoid","summary":"good-avoid","bonus":0.40000000000000147},{"rt":477.90000000596046,"stimulus":"\n                    <p><b>Action: <em>avoid</em></b></p>\n                    <p>This is the bee that you just saw.</p>\n                    <img src=\"bees-with-color/bee-B2SF.svg\" width=\"200\">\n                    <p><span class=\"greenText\">Good choice!</span>  This bee would have stung you.<br>Your bonus pay is unchanged, and remains at $0.66.</p>\n            ","response":0,"trial_type":"html-button-response","trial_index":78,"time_elapsed":356363,"internal_node_id":"0.0-4.0-1.33","subject_id":"5fd663b8b06c1b570569dc2b","study_id":"6197b3f67c2b5cd3b6d9596a","session_id":"619be321a677be088cdb71ed","condition":"full-information","relevant_dimensions":["antennae","pattern"],"bee_group":{"antennae":"B","wings":"X","pattern":"S","legs":"X"},"bonus":0.40000000000000147},{"rt":734.2999999970198,"stimulus":"bees-with-color/bee-A1DM.svg","response":0,"trial_type":"image-button-response","trial_index":79,"time_elapsed":357098,"internal_node_id":"0.0-4.0-0.34","subject_id":"5fd663b8b06c1b570569dc2b","study_id":"6197b3f67c2b5cd3b6d9596a","session_id":"619be321a677be088cdb71ed","condition":"full-information","relevant_dimensions":["antennae","pattern"],"bee_group":{"antennae":"B","wings":"X","pattern":"S","legs":"X"},"action":"harvest","summary":"good-harvest","bonus":0.40000000000000147},{"rt":536.7999999970198,"stimulus":"\n                    <p><b>Action: <em>harvest</em></b></p>\n                    <p>This is the bee that you just saw.</p>\n                    <img src=\"bees-with-color/bee-A1DM.svg\" width=\"200\">\n                    <p><span class=\"greenText\"><b>Successful harvest!</b></span><br>Your pay has increased by $0.02. Your bonus pay is now $0.68.</p>\n            ","response":0,"trial_type":"html-button-response","trial_index":80,"time_elapsed":357636,"internal_node_id":"0.0-4.0-1.34","subject_id":"5fd663b8b06c1b570569dc2b","study_id":"6197b3f67c2b5cd3b6d9596a","session_id":"619be321a677be088cdb71ed","condition":"full-information","relevant_dimensions":["antennae","pattern"],"bee_group":{"antennae":"B","wings":"X","pattern":"S","legs":"X"},"bonus":0.40000000000000147},{"rt":2062.2999999970198,"stimulus":"bees-with-color/bee-A1DF.svg","response":0,"trial_type":"image-button-response","trial_index":81,"time_elapsed":359699,"internal_node_id":"0.0-4.0-0.35","subject_id":"5fd663b8b06c1b570569dc2b","study_id":"6197b3f67c2b5cd3b6d9596a","session_id":"619be321a677be088cdb71ed","condition":"full-information","relevant_dimensions":["antennae","pattern"],"bee_group":{"antennae":"B","wings":"X","pattern":"S","legs":"X"},"action":"harvest","summary":"good-harvest","bonus":0.40000000000000147},{"rt":1870.5999999940395,"stimulus":"\n                    <p><b>Action: <em>harvest</em></b></p>\n                    <p>This is the bee that you just saw.</p>\n                    <img src=\"bees-with-color/bee-A1DF.svg\" width=\"200\">\n                    <p><span class=\"greenText\"><b>Successful harvest!</b></span><br>Your pay has increased by $0.02. Your bonus pay is now $0.70.</p>\n            ","response":0,"trial_type":"html-button-response","trial_index":82,"time_elapsed":361571,"internal_node_id":"0.0-4.0-1.35","subject_id":"5fd663b8b06c1b570569dc2b","study_id":"6197b3f67c2b5cd3b6d9596a","session_id":"619be321a677be088cdb71ed","condition":"full-information","relevant_dimensions":["antennae","pattern"],"bee_group":{"antennae":"B","wings":"X","pattern":"S","legs":"X"},"bonus":0.40000000000000147},{"rt":957.8000000119209,"stimulus":"bees-with-color/bee-A1SF.svg","response":1,"trial_type":"image-button-response","trial_index":83,"time_elapsed":362530,"internal_node_id":"0.0-4.0-0.36","subject_id":"5fd663b8b06c1b570569dc2b","study_id":"6197b3f67c2b5cd3b6d9596a","session_id":"619be321a677be088cdb71ed","condition":"full-information","relevant_dimensions":["antennae","pattern"],"bee_group":{"antennae":"B","wings":"X","pattern":"S","legs":"X"},"action":"avoid","summary":"bad-avoid","bonus":0.40000000000000147},{"rt":3631.7999999970198,"stimulus":"\n                    <p><b>Action: <em>avoid</em></b></p>\n                    <p>This is the bee that you just saw.</p>\n                    <img src=\"bees-with-color/bee-A1SF.svg\" width=\"200\">\n                    <p><span class=\"redText\">Bad choice,</span> the bee was friendly.<br>Your bonus pay is unchanged, and remains at $0.70.</p>\n            ","response":0,"trial_type":"html-button-response","trial_index":84,"time_elapsed":366163,"internal_node_id":"0.0-4.0-1.36","subject_id":"5fd663b8b06c1b570569dc2b","study_id":"6197b3f67c2b5cd3b6d9596a","session_id":"619be321a677be088cdb71ed","condition":"full-information","relevant_dimensions":["antennae","pattern"],"bee_group":{"antennae":"B","wings":"X","pattern":"S","legs":"X"},"bonus":0.40000000000000147},{"rt":1004.3999999910593,"stimulus":"bees-with-color/bee-B1DF.svg","response":0,"trial_type":"image-button-response","trial_index":85,"time_elapsed":367168,"internal_node_id":"0.0-4.0-0.37","subject_id":"5fd663b8b06c1b570569dc2b","study_id":"6197b3f67c2b5cd3b6d9596a","session_id":"619be321a677be088cdb71ed","condition":"full-information","relevant_dimensions":["antennae","pattern"],"bee_group":{"antennae":"B","wings":"X","pattern":"S","legs":"X"},"action":"harvest","summary":"good-harvest","bonus":0.40000000000000147},{"rt":640.7000000029802,"stimulus":"\n                    <p><b>Action: <em>harvest</em></b></p>\n                    <p>This is the bee that you just saw.</p>\n                    <img src=\"bees-with-color/bee-B1DF.svg\" width=\"200\">\n                    <p><span class=\"greenText\"><b>Successful harvest!</b></span><br>Your pay has increased by $0.02. Your bonus pay is now $0.72.</p>\n            ","response":0,"trial_type":"html-button-response","trial_index":86,"time_elapsed":367810,"internal_node_id":"0.0-4.0-1.37","subject_id":"5fd663b8b06c1b570569dc2b","study_id":"6197b3f67c2b5cd3b6d9596a","session_id":"619be321a677be088cdb71ed","condition":"full-information","relevant_dimensions":["antennae","pattern"],"bee_group":{"antennae":"B","wings":"X","pattern":"S","legs":"X"},"bonus":0.40000000000000147},{"rt":699.2999999970198,"stimulus":"bees-with-color/bee-A1SM.svg","response":0,"trial_type":"image-button-response","trial_index":87,"time_elapsed":368510,"internal_node_id":"0.0-4.0-0.38","subject_id":"5fd663b8b06c1b570569dc2b","study_id":"6197b3f67c2b5cd3b6d9596a","session_id":"619be321a677be088cdb71ed","condition":"full-information","relevant_dimensions":["antennae","pattern"],"bee_group":{"antennae":"B","wings":"X","pattern":"S","legs":"X"},"action":"harvest","summary":"good-harvest","bonus":0.40000000000000147},{"rt":625.9000000059605,"stimulus":"\n                    <p><b>Action: <em>harvest</em></b></p>\n                    <p>This is the bee that you just saw.</p>\n                    <img src=\"bees-with-color/bee-A1SM.svg\" width=\"200\">\n                    <p><span class=\"greenText\"><b>Successful harvest!</b></span><br>Your pay has increased by $0.02. Your bonus pay is now $0.74.</p>\n            ","response":0,"trial_type":"html-button-response","trial_index":88,"time_elapsed":369137,"internal_node_id":"0.0-4.0-1.38","subject_id":"5fd663b8b06c1b570569dc2b","study_id":"6197b3f67c2b5cd3b6d9596a","session_id":"619be321a677be088cdb71ed","condition":"full-information","relevant_dimensions":["antennae","pattern"],"bee_group":{"antennae":"B","wings":"X","pattern":"S","legs":"X"},"bonus":0.40000000000000147},{"rt":2628.2999999970198,"stimulus":"bees-with-color/bee-A2DF.svg","response":1,"trial_type":"image-button-response","trial_index":89,"time_elapsed":371766,"internal_node_id":"0.0-4.0-0.39","subject_id":"5fd663b8b06c1b570569dc2b","study_id":"6197b3f67c2b5cd3b6d9596a","session_id":"619be321a677be088cdb71ed","condition":"full-information","relevant_dimensions":["antennae","pattern"],"bee_group":{"antennae":"B","wings":"X","pattern":"S","legs":"X"},"action":"avoid","summary":"bad-avoid","bonus":0.40000000000000147},{"rt":893.6999999880791,"stimulus":"\n                    <p><b>Action: <em>avoid</em></b></p>\n                    <p>This is the bee that you just saw.</p>\n                    <img src=\"bees-with-color/bee-A2DF.svg\" width=\"200\">\n                    <p><span class=\"redText\">Bad choice,</span> the bee was friendly.<br>Your bonus pay is unchanged, and remains at $0.74.</p>\n            ","response":0,"trial_type":"html-button-response","trial_index":90,"time_elapsed":372661,"internal_node_id":"0.0-4.0-1.39","subject_id":"5fd663b8b06c1b570569dc2b","study_id":"6197b3f67c2b5cd3b6d9596a","session_id":"619be321a677be088cdb71ed","condition":"full-information","relevant_dimensions":["antennae","pattern"],"bee_group":{"antennae":"B","wings":"X","pattern":"S","legs":"X"},"bonus":0.40000000000000147},{"rt":1091.9000000059605,"stimulus":"bees-with-color/bee-B1SM.svg","response":0,"trial_type":"image-button-response","trial_index":91,"time_elapsed":373754,"internal_node_id":"0.0-4.0-0.40","subject_id":"5fd663b8b06c1b570569dc2b","study_id":"6197b3f67c2b5cd3b6d9596a","session_id":"619be321a677be088cdb71ed","condition":"full-information","relevant_dimensions":["antennae","pattern"],"bee_group":{"antennae":"B","wings":"X","pattern":"S","legs":"X"},"action":"harvest","summary":"bad-harvest","bonus":0.40000000000000147},{"rt":915.8999999910593,"stimulus":"\n                    <p><b>Action: <em>harvest</em></b></p>\n                    <p>This is the bee that you just saw.</p>\n                    <img src=\"bees-with-color/bee-B1SM.svg\" width=\"200\">\n                    <p><span class=\"redText\">Bad choice, the bee was angry.</span><br><b>You have been stung!</b><br>Your pay has been decreased by $0.10. Your bonus pay is now $0.64.</p>\n            ","response":0,"trial_type":"html-button-response","trial_index":92,"time_elapsed":374671,"internal_node_id":"0.0-4.0-1.40","subject_id":"5fd663b8b06c1b570569dc2b","study_id":"6197b3f67c2b5cd3b6d9596a","session_id":"619be321a677be088cdb71ed","condition":"full-information","relevant_dimensions":["antennae","pattern"],"bee_group":{"antennae":"B","wings":"X","pattern":"S","legs":"X"},"bonus":0.40000000000000147},{"rt":640,"stimulus":"bees-with-color/bee-B2DM.svg","response":0,"trial_type":"image-button-response","trial_index":93,"time_elapsed":375312,"internal_node_id":"0.0-4.0-0.41","subject_id":"5fd663b8b06c1b570569dc2b","study_id":"6197b3f67c2b5cd3b6d9596a","session_id":"619be321a677be088cdb71ed","condition":"full-information","relevant_dimensions":["antennae","pattern"],"bee_group":{"antennae":"B","wings":"X","pattern":"S","legs":"X"},"action":"harvest","summary":"good-harvest","bonus":0.40000000000000147},{"rt":453.90000000596046,"stimulus":"\n                    <p><b>Action: <em>harvest</em></b></p>\n                    <p>This is the bee that you just saw.</p>\n                    <img src=\"bees-with-color/bee-B2DM.svg\" width=\"200\">\n                    <p><span class=\"greenText\"><b>Successful harvest!</b></span><br>Your pay has increased by $0.02. Your bonus pay is now $0.66.</p>\n            ","response":0,"trial_type":"html-button-response","trial_index":94,"time_elapsed":375767,"internal_node_id":"0.0-4.0-1.41","subject_id":"5fd663b8b06c1b570569dc2b","study_id":"6197b3f67c2b5cd3b6d9596a","session_id":"619be321a677be088cdb71ed","condition":"full-information","relevant_dimensions":["antennae","pattern"],"bee_group":{"antennae":"B","wings":"X","pattern":"S","legs":"X"},"bonus":0.40000000000000147},{"rt":1649.9000000059605,"stimulus":"bees-with-color/bee-A2SM.svg","response":0,"trial_type":"image-button-response","trial_index":95,"time_elapsed":377418,"internal_node_id":"0.0-4.0-0.42","subject_id":"5fd663b8b06c1b570569dc2b","study_id":"6197b3f67c2b5cd3b6d9596a","session_id":"619be321a677be088cdb71ed","condition":"full-information","relevant_dimensions":["antennae","pattern"],"bee_group":{"antennae":"B","wings":"X","pattern":"S","legs":"X"},"action":"harvest","summary":"good-harvest","bonus":0.40000000000000147},{"rt":1039.7999999970198,"stimulus":"\n                    <p><b>Action: <em>harvest</em></b></p>\n                    <p>This is the bee that you just saw.</p>\n                    <img src=\"bees-with-color/bee-A2SM.svg\" width=\"200\">\n                    <p><span class=\"greenText\"><b>Successful harvest!</b></span><br>Your pay has increased by $0.02. Your bonus pay is now $0.68.</p>\n            ","response":0,"trial_type":"html-button-response","trial_index":96,"time_elapsed":378459,"internal_node_id":"0.0-4.0-1.42","subject_id":"5fd663b8b06c1b570569dc2b","study_id":"6197b3f67c2b5cd3b6d9596a","session_id":"619be321a677be088cdb71ed","condition":"full-information","relevant_dimensions":["antennae","pattern"],"bee_group":{"antennae":"B","wings":"X","pattern":"S","legs":"X"},"bonus":0.40000000000000147},{"rt":851.2999999970198,"stimulus":"bees-with-color/bee-B1DM.svg","response":0,"trial_type":"image-button-response","trial_index":97,"time_elapsed":379311,"internal_node_id":"0.0-4.0-0.43","subject_id":"5fd663b8b06c1b570569dc2b","study_id":"6197b3f67c2b5cd3b6d9596a","session_id":"619be321a677be088cdb71ed","condition":"full-information","relevant_dimensions":["antennae","pattern"],"bee_group":{"antennae":"B","wings":"X","pattern":"S","legs":"X"},"action":"harvest","summary":"good-harvest","bonus":0.40000000000000147},{"rt":519.8999999910593,"stimulus":"\n                    <p><b>Action: <em>harvest</em></b></p>\n                    <p>This is the bee that you just saw.</p>\n                    <img src=\"bees-with-color/bee-B1DM.svg\" width=\"200\">\n                    <p><span class=\"greenText\"><b>Successful harvest!</b></span><br>Your pay has increased by $0.02. Your bonus pay is now $0.70.</p>\n            ","response":0,"trial_type":"html-button-response","trial_index":98,"time_elapsed":379832,"internal_node_id":"0.0-4.0-1.43","subject_id":"5fd663b8b06c1b570569dc2b","study_id":"6197b3f67c2b5cd3b6d9596a","session_id":"619be321a677be088cdb71ed","condition":"full-information","relevant_dimensions":["antennae","pattern"],"bee_group":{"antennae":"B","wings":"X","pattern":"S","legs":"X"},"bonus":0.40000000000000147},{"rt":874,"stimulus":"bees-with-color/bee-A2DM.svg","response":0,"trial_type":"image-button-response","trial_index":99,"time_elapsed":380707,"internal_node_id":"0.0-4.0-0.44","subject_id":"5fd663b8b06c1b570569dc2b","study_id":"6197b3f67c2b5cd3b6d9596a","session_id":"619be321a677be088cdb71ed","condition":"full-information","relevant_dimensions":["antennae","pattern"],"bee_group":{"antennae":"B","wings":"X","pattern":"S","legs":"X"},"action":"harvest","summary":"good-harvest","bonus":0.40000000000000147},{"rt":834.6000000089407,"stimulus":"\n                    <p><b>Action: <em>harvest</em></b></p>\n                    <p>This is the bee that you just saw.</p>\n                    <img src=\"bees-with-color/bee-A2DM.svg\" width=\"200\">\n                    <p><span class=\"greenText\"><b>Successful harvest!</b></span><br>Your pay has increased by $0.02. Your bonus pay is now $0.72.</p>\n            ","response":0,"trial_type":"html-button-response","trial_index":100,"time_elapsed":381543,"internal_node_id":"0.0-4.0-1.44","subject_id":"5fd663b8b06c1b570569dc2b","study_id":"6197b3f67c2b5cd3b6d9596a","session_id":"619be321a677be088cdb71ed","condition":"full-information","relevant_dimensions":["antennae","pattern"],"bee_group":{"antennae":"B","wings":"X","pattern":"S","legs":"X"},"bonus":0.40000000000000147},{"rt":651.0999999940395,"stimulus":"bees-with-color/bee-B2DF.svg","response":0,"trial_type":"image-button-response","trial_index":101,"time_elapsed":382195,"internal_node_id":"0.0-4.0-0.45","subject_id":"5fd663b8b06c1b570569dc2b","study_id":"6197b3f67c2b5cd3b6d9596a","session_id":"619be321a677be088cdb71ed","condition":"full-information","relevant_dimensions":["antennae","pattern"],"bee_group":{"antennae":"B","wings":"X","pattern":"S","legs":"X"},"action":"harvest","summary":"good-harvest","bonus":0.40000000000000147},{"rt":645.9000000059605,"stimulus":"\n                    <p><b>Action: <em>harvest</em></b></p>\n                    <p>This is the bee that you just saw.</p>\n                    <img src=\"bees-with-color/bee-B2DF.svg\" width=\"200\">\n                    <p><span class=\"greenText\"><b>Successful harvest!</b></span><br>Your pay has increased by $0.02. Your bonus pay is now $0.74.</p>\n            ","response":0,"trial_type":"html-button-response","trial_index":102,"time_elapsed":382842,"internal_node_id":"0.0-4.0-1.45","subject_id":"5fd663b8b06c1b570569dc2b","study_id":"6197b3f67c2b5cd3b6d9596a","session_id":"619be321a677be088cdb71ed","condition":"full-information","relevant_dimensions":["antennae","pattern"],"bee_group":{"antennae":"B","wings":"X","pattern":"S","legs":"X"},"bonus":0.40000000000000147},{"rt":659.7999999970198,"stimulus":"bees-with-color/bee-B2SM.svg","response":0,"trial_type":"image-button-response","trial_index":103,"time_elapsed":383503,"internal_node_id":"0.0-4.0-0.46","subject_id":"5fd663b8b06c1b570569dc2b","study_id":"6197b3f67c2b5cd3b6d9596a","session_id":"619be321a677be088cdb71ed","condition":"full-information","relevant_dimensions":["antennae","pattern"],"bee_group":{"antennae":"B","wings":"X","pattern":"S","legs":"X"},"action":"harvest","summary":"bad-harvest","bonus":0.40000000000000147},{"rt":557.7000000029802,"stimulus":"\n                    <p><b>Action: <em>harvest</em></b></p>\n                    <p>This is the bee that you just saw.</p>\n                    <img src=\"bees-with-color/bee-B2SM.svg\" width=\"200\">\n                    <p><span class=\"redText\">Bad choice, the bee was angry.</span><br><b>You have been stung!</b><br>Your pay has been decreased by $0.10. Your bonus pay is now $0.64.</p>\n            ","response":0,"trial_type":"html-button-response","trial_index":104,"time_elapsed":384062,"internal_node_id":"0.0-4.0-1.46","subject_id":"5fd663b8b06c1b570569dc2b","study_id":"6197b3f67c2b5cd3b6d9596a","session_id":"619be321a677be088cdb71ed","condition":"full-information","relevant_dimensions":["antennae","pattern"],"bee_group":{"antennae":"B","wings":"X","pattern":"S","legs":"X"},"bonus":0.40000000000000147},{"rt":2086.0999999940395,"stimulus":"bees-with-color/bee-A2SF.svg","response":0,"trial_type":"image-button-response","trial_index":105,"time_elapsed":386149,"internal_node_id":"0.0-4.0-0.47","subject_id":"5fd663b8b06c1b570569dc2b","study_id":"6197b3f67c2b5cd3b6d9596a","session_id":"619be321a677be088cdb71ed","condition":"full-information","relevant_dimensions":["antennae","pattern"],"bee_group":{"antennae":"B","wings":"X","pattern":"S","legs":"X"},"action":"harvest","summary":"good-harvest","bonus":0.40000000000000147},{"rt":488,"stimulus":"\n                    <p><b>Action: <em>harvest</em></b></p>\n                    <p>This is the bee that you just saw.</p>\n                    <img src=\"bees-with-color/bee-A2SF.svg\" width=\"200\">\n                    <p><span class=\"greenText\"><b>Successful harvest!</b></span><br>Your pay has increased by $0.02. Your bonus pay is now $0.66.</p>\n            ","response":0,"trial_type":"html-button-response","trial_index":106,"time_elapsed":386638,"internal_node_id":"0.0-4.0-1.47","subject_id":"5fd663b8b06c1b570569dc2b","study_id":"6197b3f67c2b5cd3b6d9596a","session_id":"619be321a677be088cdb71ed","condition":"full-information","relevant_dimensions":["antennae","pattern"],"bee_group":{"antennae":"B","wings":"X","pattern":"S","legs":"X"},"bonus":0.40000000000000147},{"rt":2800.2999999970198,"stimulus":"bees-with-color/bee-A2DM.svg","response":0,"trial_type":"image-button-response","trial_index":107,"time_elapsed":389439,"internal_node_id":"0.0-4.0-0.48","subject_id":"5fd663b8b06c1b570569dc2b","study_id":"6197b3f67c2b5cd3b6d9596a","session_id":"619be321a677be088cdb71ed","condition":"full-information","relevant_dimensions":["antennae","pattern"],"bee_group":{"antennae":"B","wings":"X","pattern":"S","legs":"X"},"action":"harvest","summary":"good-harvest","bonus":0.40000000000000147},{"rt":1010.6000000089407,"stimulus":"\n                    <p><b>Action: <em>harvest</em></b></p>\n                    <p>This is the bee that you just saw.</p>\n                    <img src=\"bees-with-color/bee-A2DM.svg\" width=\"200\">\n                    <p><span class=\"greenText\"><b>Successful harvest!</b></span><br>Your pay has increased by $0.02. Your bonus pay is now $0.68.</p>\n            ","response":0,"trial_type":"html-button-response","trial_index":108,"time_elapsed":390451,"internal_node_id":"0.0-4.0-1.48","subject_id":"5fd663b8b06c1b570569dc2b","study_id":"6197b3f67c2b5cd3b6d9596a","session_id":"619be321a677be088cdb71ed","condition":"full-information","relevant_dimensions":["antennae","pattern"],"bee_group":{"antennae":"B","wings":"X","pattern":"S","legs":"X"},"bonus":0.40000000000000147},{"rt":1235.199999988079,"stimulus":"bees-with-color/bee-A1SF.svg","response":0,"trial_type":"image-button-response","trial_index":109,"time_elapsed":391687,"internal_node_id":"0.0-4.0-0.49","subject_id":"5fd663b8b06c1b570569dc2b","study_id":"6197b3f67c2b5cd3b6d9596a","session_id":"619be321a677be088cdb71ed","condition":"full-information","relevant_dimensions":["antennae","pattern"],"bee_group":{"antennae":"B","wings":"X","pattern":"S","legs":"X"},"action":"harvest","summary":"good-harvest","bonus":0.40000000000000147},{"rt":425.6000000089407,"stimulus":"\n                    <p><b>Action: <em>harvest</em></b></p>\n                    <p>This is the bee that you just saw.</p>\n                    <img src=\"bees-with-color/bee-A1SF.svg\" width=\"200\">\n                    <p><span class=\"greenText\"><b>Successful harvest!</b></span><br>Your pay has increased by $0.02. Your bonus pay is now $0.70.</p>\n            ","response":0,"trial_type":"html-button-response","trial_index":110,"time_elapsed":392114,"internal_node_id":"0.0-4.0-1.49","subject_id":"5fd663b8b06c1b570569dc2b","study_id":"6197b3f67c2b5cd3b6d9596a","session_id":"619be321a677be088cdb71ed","condition":"full-information","relevant_dimensions":["antennae","pattern"],"bee_group":{"antennae":"B","wings":"X","pattern":"S","legs":"X"},"bonus":0.40000000000000147},{"rt":1589.2000000029802,"stimulus":"bees-with-color/bee-A2SM.svg","response":0,"trial_type":"image-button-response","trial_index":111,"time_elapsed":393704,"internal_node_id":"0.0-4.0-0.50","subject_id":"5fd663b8b06c1b570569dc2b","study_id":"6197b3f67c2b5cd3b6d9596a","session_id":"619be321a677be088cdb71ed","condition":"full-information","relevant_dimensions":["antennae","pattern"],"bee_group":{"antennae":"B","wings":"X","pattern":"S","legs":"X"},"action":"harvest","summary":"good-harvest","bonus":0.40000000000000147},{"rt":547.7000000029802,"stimulus":"\n                    <p><b>Action: <em>harvest</em></b></p>\n                    <p>This is the bee that you just saw.</p>\n                    <img src=\"bees-with-color/bee-A2SM.svg\" width=\"200\">\n                    <p><span class=\"greenText\"><b>Successful harvest!</b></span><br>Your pay has increased by $0.02. Your bonus pay is now $0.72.</p>\n            ","response":0,"trial_type":"html-button-response","trial_index":112,"time_elapsed":394253,"internal_node_id":"0.0-4.0-1.50","subject_id":"5fd663b8b06c1b570569dc2b","study_id":"6197b3f67c2b5cd3b6d9596a","session_id":"619be321a677be088cdb71ed","condition":"full-information","relevant_dimensions":["antennae","pattern"],"bee_group":{"antennae":"B","wings":"X","pattern":"S","legs":"X"},"bonus":0.40000000000000147},{"rt":1607.2999999970198,"stimulus":"bees-with-color/bee-A1SM.svg","response":0,"trial_type":"image-button-response","trial_index":113,"time_elapsed":395861,"internal_node_id":"0.0-4.0-0.51","subject_id":"5fd663b8b06c1b570569dc2b","study_id":"6197b3f67c2b5cd3b6d9596a","session_id":"619be321a677be088cdb71ed","condition":"full-information","relevant_dimensions":["antennae","pattern"],"bee_group":{"antennae":"B","wings":"X","pattern":"S","legs":"X"},"action":"harvest","summary":"good-harvest","bonus":0.40000000000000147},{"rt":554.7999999970198,"stimulus":"\n                    <p><b>Action: <em>harvest</em></b></p>\n                    <p>This is the bee that you just saw.</p>\n                    <img src=\"bees-with-color/bee-A1SM.svg\" width=\"200\">\n                    <p><span class=\"greenText\"><b>Successful harvest!</b></span><br>Your pay has increased by $0.02. Your bonus pay is now $0.74.</p>\n            ","response":0,"trial_type":"html-button-response","trial_index":114,"time_elapsed":396418,"internal_node_id":"0.0-4.0-1.51","subject_id":"5fd663b8b06c1b570569dc2b","study_id":"6197b3f67c2b5cd3b6d9596a","session_id":"619be321a677be088cdb71ed","condition":"full-information","relevant_dimensions":["antennae","pattern"],"bee_group":{"antennae":"B","wings":"X","pattern":"S","legs":"X"},"bonus":0.40000000000000147},{"rt":891.9000000059605,"stimulus":"bees-with-color/bee-A1DM.svg","response":0,"trial_type":"image-button-response","trial_index":115,"time_elapsed":397311,"internal_node_id":"0.0-4.0-0.52","subject_id":"5fd663b8b06c1b570569dc2b","study_id":"6197b3f67c2b5cd3b6d9596a","session_id":"619be321a677be088cdb71ed","condition":"full-information","relevant_dimensions":["antennae","pattern"],"bee_group":{"antennae":"B","wings":"X","pattern":"S","legs":"X"},"action":"harvest","summary":"good-harvest","bonus":0.40000000000000147},{"rt":462.90000000596046,"stimulus":"\n                    <p><b>Action: <em>harvest</em></b></p>\n                    <p>This is the bee that you just saw.</p>\n                    <img src=\"bees-with-color/bee-A1DM.svg\" width=\"200\">\n                    <p><span class=\"greenText\"><b>Successful harvest!</b></span><br>Your pay has increased by $0.02. Your bonus pay is now $0.76.</p>\n            ","response":0,"trial_type":"html-button-response","trial_index":116,"time_elapsed":397775,"internal_node_id":"0.0-4.0-1.52","subject_id":"5fd663b8b06c1b570569dc2b","study_id":"6197b3f67c2b5cd3b6d9596a","session_id":"619be321a677be088cdb71ed","condition":"full-information","relevant_dimensions":["antennae","pattern"],"bee_group":{"antennae":"B","wings":"X","pattern":"S","legs":"X"},"bonus":0.40000000000000147},{"rt":2002.2999999970198,"stimulus":"bees-with-color/bee-B2DF.svg","response":1,"trial_type":"image-button-response","trial_index":117,"time_elapsed":399778,"internal_node_id":"0.0-4.0-0.53","subject_id":"5fd663b8b06c1b570569dc2b","study_id":"6197b3f67c2b5cd3b6d9596a","session_id":"619be321a677be088cdb71ed","condition":"full-information","relevant_dimensions":["antennae","pattern"],"bee_group":{"antennae":"B","wings":"X","pattern":"S","legs":"X"},"action":"avoid","summary":"bad-avoid","bonus":0.40000000000000147},{"rt":999.7000000029802,"stimulus":"\n                    <p><b>Action: <em>avoid</em></b></p>\n                    <p>This is the bee that you just saw.</p>\n                    <img src=\"bees-with-color/bee-B2DF.svg\" width=\"200\">\n                    <p><span class=\"redText\">Bad choice,</span> the bee was friendly.<br>Your bonus pay is unchanged, and remains at $0.76.</p>\n            ","response":0,"trial_type":"html-button-response","trial_index":118,"time_elapsed":400779,"internal_node_id":"0.0-4.0-1.53","subject_id":"5fd663b8b06c1b570569dc2b","study_id":"6197b3f67c2b5cd3b6d9596a","session_id":"619be321a677be088cdb71ed","condition":"full-information","relevant_dimensions":["antennae","pattern"],"bee_group":{"antennae":"B","wings":"X","pattern":"S","legs":"X"},"bonus":0.40000000000000147},{"rt":1311.4000000059605,"stimulus":"bees-with-color/bee-B2SM.svg","response":0,"trial_type":"image-button-response","trial_index":119,"time_elapsed":402091,"internal_node_id":"0.0-4.0-0.54","subject_id":"5fd663b8b06c1b570569dc2b","study_id":"6197b3f67c2b5cd3b6d9596a","session_id":"619be321a677be088cdb71ed","condition":"full-information","relevant_dimensions":["antennae","pattern"],"bee_group":{"antennae":"B","wings":"X","pattern":"S","legs":"X"},"action":"harvest","summary":"bad-harvest","bonus":0.40000000000000147},{"rt":969.6999999880791,"stimulus":"\n                    <p><b>Action: <em>harvest</em></b></p>\n                    <p>This is the bee that you just saw.</p>\n                    <img src=\"bees-with-color/bee-B2SM.svg\" width=\"200\">\n                    <p><span class=\"redText\">Bad choice, the bee was angry.</span><br><b>You have been stung!</b><br>Your pay has been decreased by $0.10. Your bonus pay is now $0.66.</p>\n            ","response":0,"trial_type":"html-button-response","trial_index":120,"time_elapsed":403062,"internal_node_id":"0.0-4.0-1.54","subject_id":"5fd663b8b06c1b570569dc2b","study_id":"6197b3f67c2b5cd3b6d9596a","session_id":"619be321a677be088cdb71ed","condition":"full-information","relevant_dimensions":["antennae","pattern"],"bee_group":{"antennae":"B","wings":"X","pattern":"S","legs":"X"},"bonus":0.40000000000000147},{"rt":1489.9000000059605,"stimulus":"bees-with-color/bee-B1SF.svg","response":0,"trial_type":"image-button-response","trial_index":121,"time_elapsed":404553,"internal_node_id":"0.0-4.0-0.55","subject_id":"5fd663b8b06c1b570569dc2b","study_id":"6197b3f67c2b5cd3b6d9596a","session_id":"619be321a677be088cdb71ed","condition":"full-information","relevant_dimensions":["antennae","pattern"],"bee_group":{"antennae":"B","wings":"X","pattern":"S","legs":"X"},"action":"harvest","summary":"bad-harvest","bonus":0.40000000000000147},{"rt":619.7000000029802,"stimulus":"\n                    <p><b>Action: <em>harvest</em></b></p>\n                    <p>This is the bee that you just saw.</p>\n                    <img src=\"bees-with-color/bee-B1SF.svg\" width=\"200\">\n                    <p><span class=\"redText\">Bad choice, the bee was angry.</span><br><b>You have been stung!</b><br>Your pay has been decreased by $0.10. Your bonus pay is now $0.56.</p>\n            ","response":0,"trial_type":"html-button-response","trial_index":122,"time_elapsed":405174,"internal_node_id":"0.0-4.0-1.55","subject_id":"5fd663b8b06c1b570569dc2b","study_id":"6197b3f67c2b5cd3b6d9596a","session_id":"619be321a677be088cdb71ed","condition":"full-information","relevant_dimensions":["antennae","pattern"],"bee_group":{"antennae":"B","wings":"X","pattern":"S","legs":"X"},"bonus":0.40000000000000147},{"rt":649,"stimulus":"bees-with-color/bee-A2SF.svg","response":0,"trial_type":"image-button-response","trial_index":123,"time_elapsed":405824,"internal_node_id":"0.0-4.0-0.56","subject_id":"5fd663b8b06c1b570569dc2b","study_id":"6197b3f67c2b5cd3b6d9596a","session_id":"619be321a677be088cdb71ed","condition":"full-information","relevant_dimensions":["antennae","pattern"],"bee_group":{"antennae":"B","wings":"X","pattern":"S","legs":"X"},"action":"harvest","summary":"good-harvest","bonus":0.40000000000000147},{"rt":553.7000000029802,"stimulus":"\n                    <p><b>Action: <em>harvest</em></b></p>\n                    <p>This is the bee that you just saw.</p>\n                    <img src=\"bees-with-color/bee-A2SF.svg\" width=\"200\">\n                    <p><span class=\"greenText\"><b>Successful harvest!</b></span><br>Your pay has increased by $0.02. Your bonus pay is now $0.58.</p>\n            ","response":0,"trial_type":"html-button-response","trial_index":124,"time_elapsed":406379,"internal_node_id":"0.0-4.0-1.56","subject_id":"5fd663b8b06c1b570569dc2b","study_id":"6197b3f67c2b5cd3b6d9596a","session_id":"619be321a677be088cdb71ed","condition":"full-information","relevant_dimensions":["antennae","pattern"],"bee_group":{"antennae":"B","wings":"X","pattern":"S","legs":"X"},"bonus":0.40000000000000147},{"rt":706.9000000059605,"stimulus":"bees-with-color/bee-A2DF.svg","response":0,"trial_type":"image-button-response","trial_index":125,"time_elapsed":407087,"internal_node_id":"0.0-4.0-0.57","subject_id":"5fd663b8b06c1b570569dc2b","study_id":"6197b3f67c2b5cd3b6d9596a","session_id":"619be321a677be088cdb71ed","condition":"full-information","relevant_dimensions":["antennae","pattern"],"bee_group":{"antennae":"B","wings":"X","pattern":"S","legs":"X"},"action":"harvest","summary":"good-harvest","bonus":0.40000000000000147},{"rt":427,"stimulus":"\n                    <p><b>Action: <em>harvest</em></b></p>\n                    <p>This is the bee that you just saw.</p>\n                    <img src=\"bees-with-color/bee-A2DF.svg\" width=\"200\">\n                    <p><span class=\"greenText\"><b>Successful harvest!</b></span><br>Your pay has increased by $0.02. Your bonus pay is now $0.60.</p>\n            ","response":0,"trial_type":"html-button-response","trial_index":126,"time_elapsed":407515,"internal_node_id":"0.0-4.0-1.57","subject_id":"5fd663b8b06c1b570569dc2b","study_id":"6197b3f67c2b5cd3b6d9596a","session_id":"619be321a677be088cdb71ed","condition":"full-information","relevant_dimensions":["antennae","pattern"],"bee_group":{"antennae":"B","wings":"X","pattern":"S","legs":"X"},"bonus":0.40000000000000147},{"rt":663.1000000089407,"stimulus":"bees-with-color/bee-B2DM.svg","response":0,"trial_type":"image-button-response","trial_index":127,"time_elapsed":408179,"internal_node_id":"0.0-4.0-0.58","subject_id":"5fd663b8b06c1b570569dc2b","study_id":"6197b3f67c2b5cd3b6d9596a","session_id":"619be321a677be088cdb71ed","condition":"full-information","relevant_dimensions":["antennae","pattern"],"bee_group":{"antennae":"B","wings":"X","pattern":"S","legs":"X"},"action":"harvest","summary":"good-harvest","bonus":0.40000000000000147},{"rt":433.09999999403954,"stimulus":"\n                    <p><b>Action: <em>harvest</em></b></p>\n                    <p>This is the bee that you just saw.</p>\n                    <img src=\"bees-with-color/bee-B2DM.svg\" width=\"200\">\n                    <p><span class=\"greenText\"><b>Successful harvest!</b></span><br>Your pay has increased by $0.02. Your bonus pay is now $0.62.</p>\n            ","response":0,"trial_type":"html-button-response","trial_index":128,"time_elapsed":408613,"internal_node_id":"0.0-4.0-1.58","subject_id":"5fd663b8b06c1b570569dc2b","study_id":"6197b3f67c2b5cd3b6d9596a","session_id":"619be321a677be088cdb71ed","condition":"full-information","relevant_dimensions":["antennae","pattern"],"bee_group":{"antennae":"B","wings":"X","pattern":"S","legs":"X"},"bonus":0.40000000000000147},{"rt":537,"stimulus":"bees-with-color/bee-A1DF.svg","response":0,"trial_type":"image-button-response","trial_index":129,"time_elapsed":409151,"internal_node_id":"0.0-4.0-0.59","subject_id":"5fd663b8b06c1b570569dc2b","study_id":"6197b3f67c2b5cd3b6d9596a","session_id":"619be321a677be088cdb71ed","condition":"full-information","relevant_dimensions":["antennae","pattern"],"bee_group":{"antennae":"B","wings":"X","pattern":"S","legs":"X"},"action":"harvest","summary":"good-harvest","bonus":0.40000000000000147},{"rt":418.90000000596046,"stimulus":"\n                    <p><b>Action: <em>harvest</em></b></p>\n                    <p>This is the bee that you just saw.</p>\n                    <img src=\"bees-with-color/bee-A1DF.svg\" width=\"200\">\n                    <p><span class=\"greenText\"><b>Successful harvest!</b></span><br>Your pay has increased by $0.02. Your bonus pay is now $0.64.</p>\n            ","response":0,"trial_type":"html-button-response","trial_index":130,"time_elapsed":409571,"internal_node_id":"0.0-4.0-1.59","subject_id":"5fd663b8b06c1b570569dc2b","study_id":"6197b3f67c2b5cd3b6d9596a","session_id":"619be321a677be088cdb71ed","condition":"full-information","relevant_dimensions":["antennae","pattern"],"bee_group":{"antennae":"B","wings":"X","pattern":"S","legs":"X"},"bonus":0.40000000000000147},{"rt":1235.2999999970198,"stimulus":"bees-with-color/bee-B1SM.svg","response":0,"trial_type":"image-button-response","trial_index":131,"time_elapsed":410807,"internal_node_id":"0.0-4.0-0.60","subject_id":"5fd663b8b06c1b570569dc2b","study_id":"6197b3f67c2b5cd3b6d9596a","session_id":"619be321a677be088cdb71ed","condition":"full-information","relevant_dimensions":["antennae","pattern"],"bee_group":{"antennae":"B","wings":"X","pattern":"S","legs":"X"},"action":"harvest","summary":"bad-harvest","bonus":0.40000000000000147},{"rt":594.6000000089407,"stimulus":"\n                    <p><b>Action: <em>harvest</em></b></p>\n                    <p>This is the bee that you just saw.</p>\n                    <img src=\"bees-with-color/bee-B1SM.svg\" width=\"200\">\n                    <p><span class=\"redText\">Bad choice, the bee was angry.</span><br><b>You have been stung!</b><br>Your pay has been decreased by $0.10. Your bonus pay is now $0.54.</p>\n            ","response":0,"trial_type":"html-button-response","trial_index":132,"time_elapsed":411403,"internal_node_id":"0.0-4.0-1.60","subject_id":"5fd663b8b06c1b570569dc2b","study_id":"6197b3f67c2b5cd3b6d9596a","session_id":"619be321a677be088cdb71ed","condition":"full-information","relevant_dimensions":["antennae","pattern"],"bee_group":{"antennae":"B","wings":"X","pattern":"S","legs":"X"},"bonus":0.40000000000000147},{"rt":353.20000000298023,"stimulus":"bees-with-color/bee-B1DF.svg","response":0,"trial_type":"image-button-response","trial_index":133,"time_elapsed":411757,"internal_node_id":"0.0-4.0-0.61","subject_id":"5fd663b8b06c1b570569dc2b","study_id":"6197b3f67c2b5cd3b6d9596a","session_id":"619be321a677be088cdb71ed","condition":"full-information","relevant_dimensions":["antennae","pattern"],"bee_group":{"antennae":"B","wings":"X","pattern":"S","legs":"X"},"action":"harvest","summary":"good-harvest","bonus":0.40000000000000147},{"rt":381.1000000089407,"stimulus":"\n                    <p><b>Action: <em>harvest</em></b></p>\n                    <p>This is the bee that you just saw.</p>\n                    <img src=\"bees-with-color/bee-B1DF.svg\" width=\"200\">\n                    <p><span class=\"greenText\"><b>Successful harvest!</b></span><br>Your pay has increased by $0.02. Your bonus pay is now $0.56.</p>\n            ","response":0,"trial_type":"html-button-response","trial_index":134,"time_elapsed":412140,"internal_node_id":"0.0-4.0-1.61","subject_id":"5fd663b8b06c1b570569dc2b","study_id":"6197b3f67c2b5cd3b6d9596a","session_id":"619be321a677be088cdb71ed","condition":"full-information","relevant_dimensions":["antennae","pattern"],"bee_group":{"antennae":"B","wings":"X","pattern":"S","legs":"X"},"bonus":0.40000000000000147},{"rt":1015.2000000029802,"stimulus":"bees-with-color/bee-B1DM.svg","response":0,"trial_type":"image-button-response","trial_index":135,"time_elapsed":413156,"internal_node_id":"0.0-4.0-0.62","subject_id":"5fd663b8b06c1b570569dc2b","study_id":"6197b3f67c2b5cd3b6d9596a","session_id":"619be321a677be088cdb71ed","condition":"full-information","relevant_dimensions":["antennae","pattern"],"bee_group":{"antennae":"B","wings":"X","pattern":"S","legs":"X"},"action":"harvest","summary":"good-harvest","bonus":0.40000000000000147},{"rt":390.90000000596046,"stimulus":"\n                    <p><b>Action: <em>harvest</em></b></p>\n                    <p>This is the bee that you just saw.</p>\n                    <img src=\"bees-with-color/bee-B1DM.svg\" width=\"200\">\n                    <p><span class=\"greenText\"><b>Successful harvest!</b></span><br>Your pay has increased by $0.02. Your bonus pay is now $0.58.</p>\n            ","response":0,"trial_type":"html-button-response","trial_index":136,"time_elapsed":413548,"internal_node_id":"0.0-4.0-1.62","subject_id":"5fd663b8b06c1b570569dc2b","study_id":"6197b3f67c2b5cd3b6d9596a","session_id":"619be321a677be088cdb71ed","condition":"full-information","relevant_dimensions":["antennae","pattern"],"bee_group":{"antennae":"B","wings":"X","pattern":"S","legs":"X"},"bonus":0.40000000000000147},{"rt":1172,"stimulus":"bees-with-color/bee-B2SF.svg","response":0,"trial_type":"image-button-response","trial_index":137,"time_elapsed":414721,"internal_node_id":"0.0-4.0-0.63","subject_id":"5fd663b8b06c1b570569dc2b","study_id":"6197b3f67c2b5cd3b6d9596a","session_id":"619be321a677be088cdb71ed","condition":"full-information","relevant_dimensions":["antennae","pattern"],"bee_group":{"antennae":"B","wings":"X","pattern":"S","legs":"X"},"action":"harvest","summary":"bad-harvest","bonus":0.40000000000000147},{"rt":1390.5999999940395,"stimulus":"\n                    <p><b>Action: <em>harvest</em></b></p>\n                    <p>This is the bee that you just saw.</p>\n                    <img src=\"bees-with-color/bee-B2SF.svg\" width=\"200\">\n                    <p><span class=\"redText\">Bad choice, the bee was angry.</span><br><b>You have been stung!</b><br>Your pay has been decreased by $0.10. Your bonus pay is now $0.48.</p>\n            ","response":0,"trial_type":"html-button-response","trial_index":138,"time_elapsed":416113,"internal_node_id":"0.0-4.0-1.63","subject_id":"5fd663b8b06c1b570569dc2b","study_id":"6197b3f67c2b5cd3b6d9596a","session_id":"619be321a677be088cdb71ed","condition":"full-information","relevant_dimensions":["antennae","pattern"],"bee_group":{"antennae":"B","wings":"X","pattern":"S","legs":"X"},"bonus":0.40000000000000147},{"rt":2366.5,"stimulus":"You have completed the first part of this experiment.<br><br>You will now begin a shorter second part, in which you will receive no feedback.<br>The same rules regarding bonus pay apply.<br><br>Press any key to begin.","response":"enter","trial_type":"html-keyboard-response","trial_index":139,"time_elapsed":418480,"internal_node_id":"0.0-5.0","subject_id":"5fd663b8b06c1b570569dc2b","study_id":"6197b3f67c2b5cd3b6d9596a","session_id":"619be321a677be088cdb71ed","condition":"full-information","relevant_dimensions":["antennae","pattern"],"bee_group":{"antennae":"B","wings":"X","pattern":"S","legs":"X"},"bonus":0.40000000000000147},{"rt":1593.7000000029802,"stimulus":"bees-with-color/bee-A2DF.svg","response":0,"trial_type":"image-button-response","trial_index":140,"time_elapsed":420077,"internal_node_id":"0.0-6.0-0.0","subject_id":"5fd663b8b06c1b570569dc2b","study_id":"6197b3f67c2b5cd3b6d9596a","session_id":"619be321a677be088cdb71ed","condition":"full-information","relevant_dimensions":["antennae","pattern"],"bee_group":{"antennae":"B","wings":"X","pattern":"S","legs":"X"},"bonus":0.40000000000000147},{"rt":1841.5,"stimulus":"bees-with-color/bee-A2DM.svg","response":0,"trial_type":"image-button-response","trial_index":141,"time_elapsed":421920,"internal_node_id":"0.0-6.0-0.1","subject_id":"5fd663b8b06c1b570569dc2b","study_id":"6197b3f67c2b5cd3b6d9596a","session_id":"619be321a677be088cdb71ed","condition":"full-information","relevant_dimensions":["antennae","pattern"],"bee_group":{"antennae":"B","wings":"X","pattern":"S","legs":"X"},"bonus":0.40000000000000147},{"rt":3972,"stimulus":"bees-with-color/bee-B1SM.svg","response":0,"trial_type":"image-button-response","trial_index":142,"time_elapsed":425893,"internal_node_id":"0.0-6.0-0.2","subject_id":"5fd663b8b06c1b570569dc2b","study_id":"6197b3f67c2b5cd3b6d9596a","session_id":"619be321a677be088cdb71ed","condition":"full-information","relevant_dimensions":["antennae","pattern"],"bee_group":{"antennae":"B","wings":"X","pattern":"S","legs":"X"},"bonus":0.40000000000000147},{"rt":3644,"stimulus":"bees-with-color/bee-A1SM.svg","response":1,"trial_type":"image-button-response","trial_index":143,"time_elapsed":429539,"internal_node_id":"0.0-6.0-0.3","subject_id":"5fd663b8b06c1b570569dc2b","study_id":"6197b3f67c2b5cd3b6d9596a","session_id":"619be321a677be088cdb71ed","condition":"full-information","relevant_dimensions":["antennae","pattern"],"bee_group":{"antennae":"B","wings":"X","pattern":"S","legs":"X"},"bonus":0.40000000000000147},{"rt":656.2000000029802,"stimulus":"bees-with-color/bee-B1DM.svg","response":0,"trial_type":"image-button-response","trial_index":144,"time_elapsed":430197,"internal_node_id":"0.0-6.0-0.4","subject_id":"5fd663b8b06c1b570569dc2b","study_id":"6197b3f67c2b5cd3b6d9596a","session_id":"619be321a677be088cdb71ed","condition":"full-information","relevant_dimensions":["antennae","pattern"],"bee_group":{"antennae":"B","wings":"X","pattern":"S","legs":"X"},"bonus":0.40000000000000147},{"rt":773.5,"stimulus":"bees-with-color/bee-A1SF.svg","response":0,"trial_type":"image-button-response","trial_index":145,"time_elapsed":430972,"internal_node_id":"0.0-6.0-0.5","subject_id":"5fd663b8b06c1b570569dc2b","study_id":"6197b3f67c2b5cd3b6d9596a","session_id":"619be321a677be088cdb71ed","condition":"full-information","relevant_dimensions":["antennae","pattern"],"bee_group":{"antennae":"B","wings":"X","pattern":"S","legs":"X"},"bonus":0.40000000000000147},{"rt":1973.2000000029802,"stimulus":"bees-with-color/bee-A2SF.svg","response":0,"trial_type":"image-button-response","trial_index":146,"time_elapsed":432947,"internal_node_id":"0.0-6.0-0.6","subject_id":"5fd663b8b06c1b570569dc2b","study_id":"6197b3f67c2b5cd3b6d9596a","session_id":"619be321a677be088cdb71ed","condition":"full-information","relevant_dimensions":["antennae","pattern"],"bee_group":{"antennae":"B","wings":"X","pattern":"S","legs":"X"},"bonus":0.40000000000000147},{"rt":949.9000000059605,"stimulus":"bees-with-color/bee-B2SF.svg","response":1,"trial_type":"image-button-response","trial_index":147,"time_elapsed":433898,"internal_node_id":"0.0-6.0-0.7","subject_id":"5fd663b8b06c1b570569dc2b","study_id":"6197b3f67c2b5cd3b6d9596a","session_id":"619be321a677be088cdb71ed","condition":"full-information","relevant_dimensions":["antennae","pattern"],"bee_group":{"antennae":"B","wings":"X","pattern":"S","legs":"X"},"bonus":0.40000000000000147},{"rt":753.7999999970198,"stimulus":"bees-with-color/bee-B1DF.svg","response":0,"trial_type":"image-button-response","trial_index":148,"time_elapsed":434653,"internal_node_id":"0.0-6.0-0.8","subject_id":"5fd663b8b06c1b570569dc2b","study_id":"6197b3f67c2b5cd3b6d9596a","session_id":"619be321a677be088cdb71ed","condition":"full-information","relevant_dimensions":["antennae","pattern"],"bee_group":{"antennae":"B","wings":"X","pattern":"S","legs":"X"},"bonus":0.40000000000000147},{"rt":2034.7999999970198,"stimulus":"bees-with-color/bee-A2SM.svg","response":0,"trial_type":"image-button-response","trial_index":149,"time_elapsed":436689,"internal_node_id":"0.0-6.0-0.9","subject_id":"5fd663b8b06c1b570569dc2b","study_id":"6197b3f67c2b5cd3b6d9596a","session_id":"619be321a677be088cdb71ed","condition":"full-information","relevant_dimensions":["antennae","pattern"],"bee_group":{"antennae":"B","wings":"X","pattern":"S","legs":"X"},"bonus":0.40000000000000147},{"rt":783.6000000089407,"stimulus":"bees-with-color/bee-A1DM.svg","response":0,"trial_type":"image-button-response","trial_index":150,"time_elapsed":437474,"internal_node_id":"0.0-6.0-0.10","subject_id":"5fd663b8b06c1b570569dc2b","study_id":"6197b3f67c2b5cd3b6d9596a","session_id":"619be321a677be088cdb71ed","condition":"full-information","relevant_dimensions":["antennae","pattern"],"bee_group":{"antennae":"B","wings":"X","pattern":"S","legs":"X"},"bonus":0.40000000000000147},{"rt":632.7000000029802,"stimulus":"bees-with-color/bee-B2DM.svg","response":0,"trial_type":"image-button-response","trial_index":151,"time_elapsed":438108,"internal_node_id":"0.0-6.0-0.11","subject_id":"5fd663b8b06c1b570569dc2b","study_id":"6197b3f67c2b5cd3b6d9596a","session_id":"619be321a677be088cdb71ed","condition":"full-information","relevant_dimensions":["antennae","pattern"],"bee_group":{"antennae":"B","wings":"X","pattern":"S","legs":"X"},"bonus":0.40000000000000147},{"rt":1659.6000000089407,"stimulus":"bees-with-color/bee-A1DF.svg","response":1,"trial_type":"image-button-response","trial_index":152,"time_elapsed":439769,"internal_node_id":"0.0-6.0-0.12","subject_id":"5fd663b8b06c1b570569dc2b","study_id":"6197b3f67c2b5cd3b6d9596a","session_id":"619be321a677be088cdb71ed","condition":"full-information","relevant_dimensions":["antennae","pattern"],"bee_group":{"antennae":"B","wings":"X","pattern":"S","legs":"X"},"bonus":0.40000000000000147},{"rt":2082.2000000029802,"stimulus":"bees-with-color/bee-B2SM.svg","response":1,"trial_type":"image-button-response","trial_index":153,"time_elapsed":441852,"internal_node_id":"0.0-6.0-0.13","subject_id":"5fd663b8b06c1b570569dc2b","study_id":"6197b3f67c2b5cd3b6d9596a","session_id":"619be321a677b