[{"success":true,"trial_type":"fullscreen","trial_index":0,"time_elapsed":2855,"internal_node_id":"0.0-0.0","subject_id":"5ebd495e39fb6f017b95054a","study_id":"6197b3f67c2b5cd3b6d9596a","session_id":"619be3260778af80abd78ec1","condition":"full-information","relevant_dimensions":["antennae","wings"],"bee_group":{"antennae":"A","wings":"2","pattern":"X","legs":"X"},"bonus":1.8200000000000012},{"success":true,"timeout":false,"failed_images":[],"failed_audio":[],"failed_video":[],"trial_type":"preload","trial_index":1,"time_elapsed":4255,"internal_node_id":"0.0-1.0","subject_id":"5ebd495e39fb6f017b95054a","study_id":"6197b3f67c2b5cd3b6d9596a","session_id":"619be3260778af80abd78ec1","condition":"full-information","relevant_dimensions":["antennae","wings"],"bee_group":{"antennae":"A","wings":"2","pattern":"X","legs":"X"},"bonus":1.8200000000000012},{"rt":2498.5,"stimulus":"Welcome! Press any key to begin.","response":"b","trial_type":"html-keyboard-response","trial_index":2,"time_elapsed":6754,"internal_node_id":"0.0-2.0","subject_id":"5ebd495e39fb6f017b95054a","study_id":"6197b3f67c2b5cd3b6d9596a","session_id":"619be3260778af80abd78ec1","condition":"full-information","relevant_dimensions":["antennae","wings"],"bee_group":{"antennae":"A","wings":"2","pattern":"X","legs":"X"},"bonus":1.8200000000000012},{"view_history":[{"page_index":0,"viewing_time":2065.899999976158},{"page_index":1,"viewing_time":7747.399999976158},{"page_index":2,"viewing_time":6277.200000047684},{"page_index":3,"viewing_time":6361},{"page_index":4,"viewing_time":5294.199999928474},{"page_index":5,"viewing_time":2873.5},{"page_index":6,"viewing_time":5969.300000071526},{"page_index":7,"viewing_time":43042.09999990463},{"page_index":8,"viewing_time":11168.200000047684},{"page_index":9,"viewing_time":8121.799999952316},{"page_index":10,"viewing_time":7635.300000071526},{"page_index":11,"viewing_time":7829.600000023842},{"page_index":12,"viewing_time":9682.899999976158},{"page_index":13,"viewing_time":1154.8999999761581},{"page_index":14,"viewing_time":2062.7999999523163}],"rt":127286.5,"trial_type":"instructions","trial_index":3,"time_elapsed":134041,"internal_node_id":"0.0-3.0-0.0","subject_id":"5ebd495e39fb6f017b95054a","study_id":"6197b3f67c2b5cd3b6d9596a","session_id":"619be3260778af80abd78ec1","condition":"full-information","relevant_dimensions":["antennae","wings"],"bee_group":{"antennae":"A","wings":"2","pattern":"X","legs":"X"},"bonus":1.8200000000000012},{"rt":10037.900000095367,"response":{"Q0":["Two or six legs","Stripes or spots on body","Single or double wings","Antennae or no antennae"]},"question_order":[0],"trial_type":"survey-multi-select","trial_index":4,"time_elapsed":144083,"internal_node_id":"0.0-3.0-1.0","subject_id":"5ebd495e39fb6f017b95054a","study_id":"6197b3f67c2b5cd3b6d9596a","session_id":"619be3260778af80abd78ec1","condition":"full-information","relevant_dimensions":["antennae","wings"],"bee_group":{"antennae":"A","wings":"2","pattern":"X","legs":"X"},"correct":true,"bonus":1.8200000000000012},{"rt":17083.199999928474,"response":{"Q1":"No.","Q2":"Based on the four features of the bee.","Q3":"You learn if it was friendly or dangerous, but do not alter your bonus."},"question_order":[0,1,2],"trial_type":"survey-multi-choice","trial_index":5,"time_elapsed":161168,"internal_node_id":"0.0-3.0-2.0","subject_id":"5ebd495e39fb6f017b95054a","study_id":"6197b3f67c2b5cd3b6d9596a","session_id":"619be3260778af80abd78ec1","condition":"full-information","relevant_dimensions":["antennae","wings"],"bee_group":{"antennae":"A","wings":"2","pattern":"X","legs":"X"},"correct":true,"bonus":1.8200000000000012},{"rt":2488.2999999523163,"stimulus":"<p>Congrats, you got everything right<br>When you're ready, click the button below to continue to the experiment.</p>","response":0,"trial_type":"html-button-response","trial_index":6,"time_elapsed":163658,"internal_node_id":"0.0-3.0-3.0","subject_id":"5ebd495e39fb6f017b95054a","study_id":"6197b3f67c2b5cd3b6d9596a","session_id":"619be3260778af80abd78ec1","condition":"full-information","relevant_dimensions":["antennae","wings"],"bee_group":{"antennae":"A","wings":"2","pattern":"X","legs":"X"},"bonus":1.8200000000000012},{"rt":8172.799999952316,"stimulus":"bees-with-color/bee-B2SM.svg","response":0,"trial_type":"image-button-response","trial_index":7,"time_elapsed":171833,"internal_node_id":"0.0-4.0-0.0","subject_id":"5ebd495e39fb6f017b95054a","study_id":"6197b3f67c2b5cd3b6d9596a","session_id":"619be3260778af80abd78ec1","condition":"full-information","relevant_dimensions":["antennae","wings"],"bee_group":{"antennae":"A","wings":"2","pattern":"X","legs":"X"},"action":"harvest","summary":"good-harvest","bonus":1.8200000000000012},{"rt":35165.699999928474,"stimulus":"\n                    <p><b>Action: <em>harvest</em></b></p>\n                    <p>This is the bee that you just saw.</p>\n                    <img src=\"bees-with-color/bee-B2SM.svg\" width=\"200\">\n                    <p><span class=\"greenText\"><b>Successful harvest!</b></span><br>Your pay has increased by $0.02. Your bonus pay is now $0.56.</p>\n            ","response":0,"trial_type":"html-button-response","trial_index":8,"time_elapsed":207000,"internal_node_id":"0.0-4.0-1.0","subject_id":"5ebd495e39fb6f017b95054a","study_id":"6197b3f67c2b5cd3b6d9596a","session_id":"619be3260778af80abd78ec1","condition":"full-information","relevant_dimensions":["antennae","wings"],"bee_group":{"antennae":"A","wings":"2","pattern":"X","legs":"X"},"bonus":1.8200000000000012},{"rt":3500.6999999284744,"stimulus":"bees-with-color/bee-B2DM.svg","response":1,"trial_type":"image-button-response","trial_index":9,"time_elapsed":210503,"internal_node_id":"0.0-4.0-0.1","subject_id":"5ebd495e39fb6f017b95054a","study_id":"6197b3f67c2b5cd3b6d9596a","session_id":"619be3260778af80abd78ec1","condition":"full-information","relevant_dimensions":["antennae","wings"],"bee_group":{"antennae":"A","wings":"2","pattern":"X","legs":"X"},"action":"avoid","summary":"bad-avoid","bonus":1.8200000000000012},{"rt":21935.900000095367,"stimulus":"\n                    <p><b>Action: <em>avoid</em></b></p>\n                    <p>This is the bee that you just saw.</p>\n                    <img src=\"bees-with-color/bee-B2DM.svg\" width=\"200\">\n                    <p><span class=\"redText\">Bad choice,</span> the bee was friendly.<br>Your bonus pay is unchanged, and remains at $0.56.</p>\n            ","response":0,"trial_type":"html-button-response","trial_index":10,"time_elapsed":232440,"internal_node_id":"0.0-4.0-1.1","subject_id":"5ebd495e39fb6f017b95054a","study_id":"6197b3f67c2b5cd3b6d9596a","session_id":"619be3260778af80abd78ec1","condition":"full-information","relevant_dimensions":["antennae","wings"],"bee_group":{"antennae":"A","wings":"2","pattern":"X","legs":"X"},"bonus":1.8200000000000012},{"rt":8600.900000095367,"stimulus":"bees-with-color/bee-A2DF.svg","response":1,"trial_type":"image-button-response","trial_index":11,"time_elapsed":241043,"internal_node_id":"0.0-4.0-0.2","subject_id":"5ebd495e39fb6f017b95054a","study_id":"6197b3f67c2b5cd3b6d9596a","session_id":"619be3260778af80abd78ec1","condition":"full-information","relevant_dimensions":["antennae","wings"],"bee_group":{"antennae":"A","wings":"2","pattern":"X","legs":"X"},"action":"avoid","summary":"good-avoid","bonus":1.8200000000000012},{"rt":34761.699999928474,"stimulus":"\n                    <p><b>Action: <em>avoid</em></b></p>\n                    <p>This is the bee that you just saw.</p>\n                    <img src=\"bees-with-color/bee-A2DF.svg\" width=\"200\">\n                    <p><span class=\"greenText\">Good choice!</span>  This bee would have stung you.<br>Your bonus pay is unchanged, and remains at $0.56.</p>\n            ","response":0,"trial_type":"html-button-response","trial_index":12,"time_elapsed":275806,"internal_node_id":"0.0-4.0-1.2","subject_id":"5ebd495e39fb6f017b95054a","study_id":"6197b3f67c2b5cd3b6d9596a","session_id":"619be3260778af80abd78ec1","condition":"full-information","relevant_dimensions":["antennae","wings"],"bee_group":{"antennae":"A","wings":"2","pattern":"X","legs":"X"},"bonus":1.8200000000000012},{"rt":3920.7999999523163,"stimulus":"bees-with-color/bee-A1SF.svg","response":0,"trial_type":"image-button-response","trial_index":13,"time_elapsed":279728,"internal_node_id":"0.0-4.0-0.3","subject_id":"5ebd495e39fb6f017b95054a","study_id":"6197b3f67c2b5cd3b6d9596a","session_id":"619be3260778af80abd78ec1","condition":"full-information","relevant_dimensions":["antennae","wings"],"bee_group":{"antennae":"A","wings":"2","pattern":"X","legs":"X"},"action":"harvest","summary":"good-harvest","bonus":1.8200000000000012},{"rt":28588.599999904633,"stimulus":"\n                    <p><b>Action: <em>harvest</em></b></p>\n                    <p>This is the bee that you just saw.</p>\n                    <img src=\"bees-with-color/bee-A1SF.svg\" width=\"200\">\n                    <p><span class=\"greenText\"><b>Successful harvest!</b></span><br>Your pay has increased by $0.02. Your bonus pay is now $0.58.</p>\n            ","response":0,"trial_type":"html-button-response","trial_index":14,"time_elapsed":308318,"internal_node_id":"0.0-4.0-1.3","subject_id":"5ebd495e39fb6f017b95054a","study_id":"6197b3f67c2b5cd3b6d9596a","session_id":"619be3260778af80abd78ec1","condition":"full-information","relevant_dimensions":["antennae","wings"],"bee_group":{"antennae":"A","wings":"2","pattern":"X","legs":"X"},"bonus":1.8200000000000012},{"rt":11496.200000047684,"stimulus":"bees-with-color/bee-B1SM.svg","response":0,"trial_type":"image-button-response","trial_index":15,"time_elapsed":319816,"internal_node_id":"0.0-4.0-0.4","subject_id":"5ebd495e39fb6f017b95054a","study_id":"6197b3f67c2b5cd3b6d9596a","session_id":"619be3260778af80abd78ec1","condition":"full-information","relevant_dimensions":["antennae","wings"],"bee_group":{"antennae":"A","wings":"2","pattern":"X","legs":"X"},"action":"harvest","summary":"good-harvest","bonus":1.8200000000000012},{"rt":96095.60000002384,"stimulus":"\n                    <p><b>Action: <em>harvest</em></b></p>\n                    <p>This is the bee that you just saw.</p>\n                    <img src=\"bees-with-color/bee-B1SM.svg\" width=\"200\">\n                    <p><span class=\"greenText\"><b>Successful harvest!</b></span><br>Your pay has increased by $0.02. Your bonus pay is now $0.60.</p>\n            ","response":0,"trial_type":"html-button-response","trial_index":16,"time_elapsed":415913,"internal_node_id":"0.0-4.0-1.4","subject_id":"5ebd495e39fb6f017b95054a","study_id":"6197b3f67c2b5cd3b6d9596a","session_id":"619be3260778af80abd78ec1","condition":"full-information","relevant_dimensions":["antennae","wings"],"bee_group":{"antennae":"A","wings":"2","pattern":"X","legs":"X"},"bonus":1.8200000000000012},{"rt":30059,"stimulus":"bees-with-color/bee-A2SF.svg","response":0,"trial_type":"image-button-response","trial_index":17,"time_elapsed":445974,"internal_node_id":"0.0-4.0-0.5","subject_id":"5ebd495e39fb6f017b95054a","study_id":"6197b3f67c2b5cd3b6d9596a","session_id":"619be3260778af80abd78ec1","condition":"full-information","relevant_dimensions":["antennae","wings"],"bee_group":{"antennae":"A","wings":"2","pattern":"X","legs":"X"},"action":"harvest","summary":"bad-harvest","bonus":1.8200000000000012},{"rt":17180.799999952316,"stimulus":"\n                    <p><b>Action: <em>harvest</em></b></p>\n                    <p>This is the bee that you just saw.</p>\n                    <img src=\"bees-with-color/bee-A2SF.svg\" width=\"200\">\n                    <p><span class=\"redText\">Bad choice, the bee was angry.</span><br><b>You have been stung!</b><br>Your pay has been decreased by $0.10. Your bonus pay is now $0.50.</p>\n            ","response":0,"trial_type":"html-button-response","trial_index":18,"time_elapsed":463156,"internal_node_id":"0.0-4.0-1.5","subject_id":"5ebd495e39fb6f017b95054a","study_id":"6197b3f67c2b5cd3b6d9596a","session_id":"619be3260778af80abd78ec1","condition":"full-information","relevant_dimensions":["antennae","wings"],"bee_group":{"antennae":"A","wings":"2","pattern":"X","legs":"X"},"bonus":1.8200000000000012},{"rt":22363.5,"stimulus":"bees-with-color/bee-B1DM.svg","response":0,"trial_type":"image-button-response","trial_index":19,"time_elapsed":485521,"internal_node_id":"0.0-4.0-0.6","subject_id":"5ebd495e39fb6f017b95054a","study_id":"6197b3f67c2b5cd3b6d9596a","session_id":"619be3260778af80abd78ec1","condition":"full-information","relevant_dimensions":["antennae","wings"],"bee_group":{"antennae":"A","wings":"2","pattern":"X","legs":"X"},"action":"harvest","summary":"good-harvest","bonus":1.8200000000000012},{"rt":4205.700000047684,"stimulus":"\n                    <p><b>Action: <em>harvest</em></b></p>\n                    <p>This is the bee that you just saw.</p>\n                    <img src=\"bees-with-color/bee-B1DM.svg\" width=\"200\">\n                    <p><span class=\"greenText\"><b>Successful harvest!</b></span><br>Your pay has increased by $0.02. Your bonus pay is now $0.52.</p>\n            ","response":0,"trial_type":"html-button-response","trial_index":20,"time_elapsed":489728,"internal_node_id":"0.0-4.0-1.6","subject_id":"5ebd495e39fb6f017b95054a","study_id":"6197b3f67c2b5cd3b6d9596a","session_id":"619be3260778af80abd78ec1","condition":"full-information","relevant_dimensions":["antennae","wings"],"bee_group":{"antennae":"A","wings":"2","pattern":"X","legs":"X"},"bonus":1.8200000000000012},{"rt":16619.5,"stimulus":"bees-with-color/bee-A1DM.svg","response":1,"trial_type":"image-button-response","trial_index":21,"time_elapsed":506349,"internal_node_id":"0.0-4.0-0.7","subject_id":"5ebd495e39fb6f017b95054a","study_id":"6197b3f67c2b5cd3b6d9596a","session_id":"619be3260778af80abd78ec1","condition":"full-information","relevant_dimensions":["antennae","wings"],"bee_group":{"antennae":"A","wings":"2","pattern":"X","legs":"X"},"action":"avoid","summary":"bad-avoid","bonus":1.8200000000000012},{"rt":6080,"stimulus":"\n                    <p><b>Action: <em>avoid</em></b></p>\n                    <p>This is the bee that you just saw.</p>\n                    <img src=\"bees-with-color/bee-A1DM.svg\" width=\"200\">\n                    <p><span class=\"redText\">Bad choice,</span> the bee was friendly.<br>Your bonus pay is unchanged, and remains at $0.52.</p>\n            ","response":0,"trial_type":"html-button-response","trial_index":22,"time_elapsed":512431,"internal_node_id":"0.0-4.0-1.7","subject_id":"5ebd495e39fb6f017b95054a","study_id":"6197b3f67c2b5cd3b6d9596a","session_id":"619be3260778af80abd78ec1","condition":"full-information","relevant_dimensions":["antennae","wings"],"bee_group":{"antennae":"A","wings":"2","pattern":"X","legs":"X"},"bonus":1.8200000000000012},{"rt":18905.100000023842,"stimulus":"bees-with-color/bee-B1SF.svg","response":1,"trial_type":"image-button-response","trial_index":23,"time_elapsed":531338,"internal_node_id":"0.0-4.0-0.8","subject_id":"5ebd495e39fb6f017b95054a","study_id":"6197b3f67c2b5cd3b6d9596a","session_id":"619be3260778af80abd78ec1","condition":"full-information","relevant_dimensions":["antennae","wings"],"bee_group":{"antennae":"A","wings":"2","pattern":"X","legs":"X"},"action":"avoid","summary":"bad-avoid","bonus":1.8200000000000012},{"rt":6605.900000095367,"stimulus":"\n                    <p><b>Action: <em>avoid</em></b></p>\n                    <p>This is the bee that you just saw.</p>\n                    <img src=\"bees-with-color/bee-B1SF.svg\" width=\"200\">\n                    <p><span class=\"redText\">Bad choice,</span> the bee was friendly.<br>Your bonus pay is unchanged, and remains at $0.52.</p>\n            ","response":0,"trial_type":"html-button-response","trial_index":24,"time_elapsed":537945,"internal_node_id":"0.0-4.0-1.8","subject_id":"5ebd495e39fb6f017b95054a","study_id":"6197b3f67c2b5cd3b6d9596a","session_id":"619be3260778af80abd78ec1","condition":"full-information","relevant_dimensions":["antennae","wings"],"bee_group":{"antennae":"A","wings":"2","pattern":"X","legs":"X"},"bonus":1.8200000000000012},{"rt":23405.800000071526,"stimulus":"bees-with-color/bee-A2DM.svg","response":1,"trial_type":"image-button-response","trial_index":25,"time_elapsed":561353,"internal_node_id":"0.0-4.0-0.9","subject_id":"5ebd495e39fb6f017b95054a","study_id":"6197b3f67c2b5cd3b6d9596a","session_id":"619be3260778af80abd78ec1","condition":"full-information","relevant_dimensions":["antennae","wings"],"bee_group":{"antennae":"A","wings":"2","pattern":"X","legs":"X"},"action":"avoid","summary":"good-avoid","bonus":1.8200000000000012},{"rt":15208.899999976158,"stimulus":"\n                    <p><b>Action: <em>avoid</em></b></p>\n                    <p>This is the bee that you just saw.</p>\n                    <img src=\"bees-with-color/bee-A2DM.svg\" width=\"200\">\n                    <p><span class=\"greenText\">Good choice!</span>  This bee would have stung you.<br>Your bonus pay is unchanged, and remains at $0.52.</p>\n            ","response":0,"trial_type":"html-button-response","trial_index":26,"time_elapsed":576563,"internal_node_id":"0.0-4.0-1.9","subject_id":"5ebd495e39fb6f017b95054a","study_id":"6197b3f67c2b5cd3b6d9596a","session_id":"619be3260778af80abd78ec1","condition":"full-information","relevant_dimensions":["antennae","wings"],"bee_group":{"antennae":"A","wings":"2","pattern":"X","legs":"X"},"bonus":1.8200000000000012},{"rt":11952.600000023842,"stimulus":"bees-with-color/bee-B2SF.svg","response":0,"trial_type":"image-button-response","trial_index":27,"time_elapsed":588518,"internal_node_id":"0.0-4.0-0.10","subject_id":"5ebd495e39fb6f017b95054a","study_id":"6197b3f67c2b5cd3b6d9596a","session_id":"619be3260778af80abd78ec1","condition":"full-information","relevant_dimensions":["antennae","wings"],"bee_group":{"antennae":"A","wings":"2","pattern":"X","legs":"X"},"action":"harvest","summary":"good-harvest","bonus":1.8200000000000012},{"rt":3748.7999999523163,"stimulus":"\n                    <p><b>Action: <em>harvest</em></b></p>\n                    <p>This is the bee that you just saw.</p>\n                    <img src=\"bees-with-color/bee-B2SF.svg\" width=\"200\">\n                    <p><span class=\"greenText\"><b>Successful harvest!</b></span><br>Your pay has increased by $0.02. Your bonus pay is now $0.54.</p>\n            ","response":0,"trial_type":"html-button-response","trial_index":28,"time_elapsed":592268,"internal_node_id":"0.0-4.0-1.10","subject_id":"5ebd495e39fb6f017b95054a","study_id":"6197b3f67c2b5cd3b6d9596a","session_id":"619be3260778af80abd78ec1","condition":"full-information","relevant_dimensions":["antennae","wings"],"bee_group":{"antennae":"A","wings":"2","pattern":"X","legs":"X"},"bonus":1.8200000000000012},{"rt":12507.600000023842,"stimulus":"bees-with-color/bee-A2SM.svg","response":1,"trial_type":"image-button-response","trial_index":29,"time_elapsed":604777,"internal_node_id":"0.0-4.0-0.11","subject_id":"5ebd495e39fb6f017b95054a","study_id":"6197b3f67c2b5cd3b6d9596a","session_id":"619be3260778af80abd78ec1","condition":"full-information","relevant_dimensions":["antennae","wings"],"bee_group":{"antennae":"A","wings":"2","pattern":"X","legs":"X"},"action":"avoid","summary":"good-avoid","bonus":1.8200000000000012},{"rt":9561.300000071526,"stimulus":"\n                    <p><b>Action: <em>avoid</em></b></p>\n                    <p>This is the bee that you just saw.</p>\n                    <img src=\"bees-with-color/bee-A2SM.svg\" width=\"200\">\n                    <p><span class=\"greenText\">Good choice!</span>  This bee would have stung you.<br>Your bonus pay is unchanged, and remains at $0.54.</p>\n            ","response":0,"trial_type":"html-button-response","trial_index":30,"time_elapsed":614340,"internal_node_id":"0.0-4.0-1.11","subject_id":"5ebd495e39fb6f017b95054a","study_id":"6197b3f67c2b5cd3b6d9596a","session_id":"619be3260778af80abd78ec1","condition":"full-information","relevant_dimensions":["antennae","wings"],"bee_group":{"antennae":"A","wings":"2","pattern":"X","legs":"X"},"bonus":1.8200000000000012},{"rt":8946.300000071526,"stimulus":"bees-with-color/bee-A1SM.svg","response":0,"trial_type":"image-button-response","trial_index":31,"time_elapsed":623287,"internal_node_id":"0.0-4.0-0.12","subject_id":"5ebd495e39fb6f017b95054a","study_id":"6197b3f67c2b5cd3b6d9596a","session_id":"619be3260778af80abd78ec1","condition":"full-information","relevant_dimensions":["antennae","wings"],"bee_group":{"antennae":"A","wings":"2","pattern":"X","legs":"X"},"action":"harvest","summary":"good-harvest","bonus":1.8200000000000012},{"rt":3719.899999976158,"stimulus":"\n                    <p><b>Action: <em>harvest</em></b></p>\n                    <p>This is the bee that you just saw.</p>\n                    <img src=\"bees-with-color/bee-A1SM.svg\" width=\"200\">\n                    <p><span class=\"greenText\"><b>Successful harvest!</b></span><br>Your pay has increased by $0.02. Your bonus pay is now $0.56.</p>\n            ","response":0,"trial_type":"html-button-response","trial_index":32,"time_elapsed":627008,"internal_node_id":"0.0-4.0-1.12","subject_id":"5ebd495e39fb6f017b95054a","study_id":"6197b3f67c2b5cd3b6d9596a","session_id":"619be3260778af80abd78ec1","condition":"full-information","relevant_dimensions":["antennae","wings"],"bee_group":{"antennae":"A","wings":"2","pattern":"X","legs":"X"},"bonus":1.8200000000000012},{"rt":10129.200000047684,"stimulus":"bees-with-color/bee-A1DF.svg","response":0,"trial_type":"image-button-response","trial_index":33,"time_elapsed":637139,"internal_node_id":"0.0-4.0-0.13","subject_id":"5ebd495e39fb6f017b95054a","study_id":"6197b3f67c2b5cd3b6d9596a","session_id":"619be3260778af80abd78ec1","condition":"full-information","relevant_dimensions":["antennae","wings"],"bee_group":{"antennae":"A","wings":"2","pattern":"X","legs":"X"},"action":"harvest","summary":"good-harvest","bonus":1.8200000000000012},{"rt":4192.5,"stimulus":"\n                    <p><b>Action: <em>harvest</em></b></p>\n                    <p>This is the bee that you just saw.</p>\n                    <img src=\"bees-with-color/bee-A1DF.svg\" width=\"200\">\n                    <p><span class=\"greenText\"><b>Successful harvest!</b></span><br>Your pay has increased by $0.02. Your bonus pay is now $0.58.</p>\n            ","response":0,"trial_type":"html-button-response","trial_index":34,"time_elapsed":641332,"internal_node_id":"0.0-4.0-1.13","subject_id":"5ebd495e39fb6f017b95054a","study_id":"6197b3f67c2b5cd3b6d9596a","session_id":"619be3260778af80abd78ec1","condition":"full-information","relevant_dimensions":["antennae","wings"],"bee_group":{"antennae":"A","wings":"2","pattern":"X","legs":"X"},"bonus":1.8200000000000012},{"rt":8525.800000071526,"stimulus":"bees-with-color/bee-B1DF.svg","response":0,"trial_type":"image-button-response","trial_index":35,"time_elapsed":649860,"internal_node_id":"0.0-4.0-0.14","subject_id":"5ebd495e39fb6f017b95054a","study_id":"6197b3f67c2b5cd3b6d9596a","session_id":"619be3260778af80abd78ec1","condition":"full-information","relevant_dimensions":["antennae","wings"],"bee_group":{"antennae":"A","wings":"2","pattern":"X","legs":"X"},"action":"harvest","summary":"good-harvest","bonus":1.8200000000000012},{"rt":5083.199999928474,"stimulus":"\n                    <p><b>Action: <em>harvest</em></b></p>\n                    <p>This is the bee that you just saw.</p>\n                    <img src=\"bees-with-color/bee-B1DF.svg\" width=\"200\">\n                    <p><span class=\"greenText\"><b>Successful harvest!</b></span><br>Your pay has increased by $0.02. Your bonus pay is now $0.60.</p>\n            ","response":0,"trial_type":"html-button-response","trial_index":36,"time_elapsed":654945,"internal_node_id":"0.0-4.0-1.14","subject_id":"5ebd495e39fb6f017b95054a","study_id":"6197b3f67c2b5cd3b6d9596a","session_id":"619be3260778af80abd78ec1","condition":"full-information","relevant_dimensions":["antennae","wings"],"bee_group":{"antennae":"A","wings":"2","pattern":"X","legs":"X"},"bonus":1.8200000000000012},{"rt":12448.899999976158,"stimulus":"bees-with-color/bee-B2DF.svg","response":0,"trial_type":"image-button-response","trial_index":37,"time_elapsed":667396,"internal_node_id":"0.0-4.0-0.15","subject_id":"5ebd495e39fb6f017b95054a","study_id":"6197b3f67c2b5cd3b6d9596a","session_id":"619be3260778af80abd78ec1","condition":"full-information","relevant_dimensions":["antennae","wings"],"bee_group":{"antennae":"A","wings":"2","pattern":"X","legs":"X"},"action":"harvest","summary":"good-harvest","bonus":1.8200000000000012},{"rt":3494.5,"stimulus":"\n                    <p><b>Action: <em>harvest</em></b></p>\n                    <p>This is the bee that you just saw.</p>\n                    <img src=\"bees-with-color/bee-B2DF.svg\" width=\"200\">\n                    <p><span class=\"greenText\"><b>Successful harvest!</b></span><br>Your pay has increased by $0.02. Your bonus pay is now $0.62.</p>\n            ","response":0,"trial_type":"html-button-response","trial_index":38,"time_elapsed":670891,"internal_node_id":"0.0-4.0-1.15","subject_id":"5ebd495e39fb6f017b95054a","study_id":"6197b3f67c2b5cd3b6d9596a","session_id":"619be3260778af80abd78ec1","condition":"full-information","relevant_dimensions":["antennae","wings"],"bee_group":{"antennae":"A","wings":"2","pattern":"X","legs":"X"},"bonus":1.8200000000000012},{"rt":7925.5,"stimulus":"bees-with-color/bee-B1SF.svg","response":0,"trial_type":"image-button-response","trial_index":39,"time_elapsed":678818,"internal_node_id":"0.0-4.0-0.16","subject_id":"5ebd495e39fb6f017b95054a","study_id":"6197b3f67c2b5cd3b6d9596a","session_id":"619be3260778af80abd78ec1","condition":"full-information","relevant_dimensions":["antennae","wings"],"bee_group":{"antennae":"A","wings":"2","pattern":"X","legs":"X"},"action":"harvest","summary":"good-harvest","bonus":1.8200000000000012},{"rt":3465.100000023842,"stimulus":"\n                    <p><b>Action: <em>harvest</em></b></p>\n                    <p>This is the bee that you just saw.</p>\n                    <img src=\"bees-with-color/bee-B1SF.svg\" width=\"200\">\n                    <p><span class=\"greenText\"><b>Successful harvest!</b></span><br>Your pay has increased by $0.02. Your bonus pay is now $0.64.</p>\n            ","response":0,"trial_type":"html-button-response","trial_index":40,"time_elapsed":682284,"internal_node_id":"0.0-4.0-1.16","subject_id":"5ebd495e39fb6f017b95054a","study_id":"6197b3f67c2b5cd3b6d9596a","session_id":"619be3260778af80abd78ec1","condition":"full-information","relevant_dimensions":["antennae","wings"],"bee_group":{"antennae":"A","wings":"2","pattern":"X","legs":"X"},"bonus":1.8200000000000012},{"rt":5548.199999928474,"stimulus":"bees-with-color/bee-B2DF.svg","response":0,"trial_type":"image-button-response","trial_index":41,"time_elapsed":687833,"internal_node_id":"0.0-4.0-0.17","subject_id":"5ebd495e39fb6f017b95054a","study_id":"6197b3f67c2b5cd3b6d9596a","session_id":"619be3260778af80abd78ec1","condition":"full-information","relevant_dimensions":["antennae","wings"],"bee_group":{"antennae":"A","wings":"2","pattern":"X","legs":"X"},"action":"harvest","summary":"good-harvest","bonus":1.8200000000000012},{"rt":2654.100000023842,"stimulus":"\n                    <p><b>Action: <em>harvest</em></b></p>\n                    <p>This is the bee that you just saw.</p>\n                    <img src=\"bees-with-color/bee-B2DF.svg\" width=\"200\">\n                    <p><span class=\"greenText\"><b>Successful harvest!</b></span><br>Your pay has increased by $0.02. Your bonus pay is now $0.66.</p>\n            ","response":0,"trial_type":"html-button-response","trial_index":42,"time_elapsed":690488,"internal_node_id":"0.0-4.0-1.17","subject_id":"5ebd495e39fb6f017b95054a","study_id":"6197b3f67c2b5cd3b6d9596a","session_id":"619be3260778af80abd78ec1","condition":"full-information","relevant_dimensions":["antennae","wings"],"bee_group":{"antennae":"A","wings":"2","pattern":"X","legs":"X"},"bonus":1.8200000000000012},{"rt":5638.899999976158,"stimulus":"bees-with-color/bee-A2SM.svg","response":1,"trial_type":"image-button-response","trial_index":43,"time_elapsed":696129,"internal_node_id":"0.0-4.0-0.18","subject_id":"5ebd495e39fb6f017b95054a","study_id":"6197b3f67c2b5cd3b6d9596a","session_id":"619be3260778af80abd78ec1","condition":"full-information","relevant_dimensions":["antennae","wings"],"bee_group":{"antennae":"A","wings":"2","pattern":"X","legs":"X"},"action":"avoid","summary":"good-avoid","bonus":1.8200000000000012},{"rt":1408.1000000238419,"stimulus":"\n                    <p><b>Action: <em>avoid</em></b></p>\n                    <p>This is the bee that you just saw.</p>\n                    <img src=\"bees-with-color/bee-A2SM.svg\" width=\"200\">\n                    <p><span class=\"greenText\">Good choice!</span>  This bee would have stung you.<br>Your bonus pay is unchanged, and remains at $0.66.</p>\n            ","response":0,"trial_type":"html-button-response","trial_index":44,"time_elapsed":697538,"internal_node_id":"0.0-4.0-1.18","subject_id":"5ebd495e39fb6f017b95054a","study_id":"6197b3f67c2b5cd3b6d9596a","session_id":"619be3260778af80abd78ec1","condition":"full-information","relevant_dimensions":["antennae","wings"],"bee_group":{"antennae":"A","wings":"2","pattern":"X","legs":"X"},"bonus":1.8200000000000012},{"rt":1603.6000000238419,"stimulus":"bees-with-color/bee-A1DM.svg","response":0,"trial_type":"image-button-response","trial_index":45,"time_elapsed":699143,"internal_node_id":"0.0-4.0-0.19","subject_id":"5ebd495e39fb6f017b95054a","study_id":"6197b3f67c2b5cd3b6d9596a","session_id":"619be3260778af80abd78ec1","condition":"full-information","relevant_dimensions":["antennae","wings"],"bee_group":{"antennae":"A","wings":"2","pattern":"X","legs":"X"},"action":"harvest","summary":"good-harvest","bonus":1.8200000000000012},{"rt":1371.1999999284744,"stimulus":"\n                    <p><b>Action: <em>harvest</em></b></p>\n                    <p>This is the bee that you just saw.</p>\n                    <img src=\"bees-with-color/bee-A1DM.svg\" width=\"200\">\n                    <p><span class=\"greenText\"><b>Successful harvest!</b></span><br>Your pay has increased by $0.02. Your bonus pay is now $0.68.</p>\n            ","response":0,"trial_type":"html-button-response","trial_index":46,"time_elapsed":700516,"internal_node_id":"0.0-4.0-1.19","subject_id":"5ebd495e39fb6f017b95054a","study_id":"6197b3f67c2b5cd3b6d9596a","session_id":"619be3260778af80abd78ec1","condition":"full-information","relevant_dimensions":["antennae","wings"],"bee_group":{"antennae":"A","wings":"2","pattern":"X","legs":"X"},"bonus":1.8200000000000012},{"rt":1326.2999999523163,"stimulus":"bees-with-color/bee-B1SM.svg","response":0,"trial_type":"image-button-response","trial_index":47,"time_elapsed":701844,"internal_node_id":"0.0-4.0-0.20","subject_id":"5ebd495e39fb6f017b95054a","study_id":"6197b3f67c2b5cd3b6d9596a","session_id":"619be3260778af80abd78ec1","condition":"full-information","relevant_dimensions":["antennae","wings"],"bee_group":{"antennae":"A","wings":"2","pattern":"X","legs":"X"},"action":"harvest","summary":"good-harvest","bonus":1.8200000000000012},{"rt":1558.3000000715256,"stimulus":"\n                    <p><b>Action: <em>harvest</em></b></p>\n                    <p>This is the bee that you just saw.</p>\n                    <img src=\"bees-with-color/bee-B1SM.svg\" width=\"200\">\n                    <p><span class=\"greenText\"><b>Successful harvest!</b></span><br>Your pay has increased by $0.02. Your bonus pay is now $0.70.</p>\n            ","response":0,"trial_type":"html-button-response","trial_index":48,"time_elapsed":703403,"internal_node_id":"0.0-4.0-1.20","subject_id":"5ebd495e39fb6f017b95054a","study_id":"6197b3f67c2b5cd3b6d9596a","session_id":"619be3260778af80abd78ec1","condition":"full-information","relevant_dimensions":["antennae","wings"],"bee_group":{"antennae":"A","wings":"2","pattern":"X","legs":"X"},"bonus":1.8200000000000012},{"rt":1364.7000000476837,"stimulus":"bees-with-color/bee-A1DF.svg","response":0,"trial_type":"image-button-response","trial_index":49,"time_elapsed":704769,"internal_node_id":"0.0-4.0-0.21","subject_id":"5ebd495e39fb6f017b95054a","study_id":"6197b3f67c2b5cd3b6d9596a","session_id":"619be3260778af80abd78ec1","condition":"full-information","relevant_dimensions":["antennae","wings"],"bee_group":{"antennae":"A","wings":"2","pattern":"X","legs":"X"},"action":"harvest","summary":"good-harvest","bonus":1.8200000000000012},{"rt":1311.2999999523163,"stimulus":"\n                    <p><b>Action: <em>harvest</em></b></p>\n                    <p>This is the bee that you just saw.</p>\n                    <img src=\"bees-with-color/bee-A1DF.svg\" width=\"200\">\n                    <p><span class=\"greenText\"><b>Successful harvest!</b></span><br>Your pay has increased by $0.02. Your bonus pay is now $0.72.</p>\n            ","response":0,"trial_type":"html-button-response","trial_index":50,"time_elapsed":706081,"internal_node_id":"0.0-4.0-1.21","subject_id":"5ebd495e39fb6f017b95054a","study_id":"6197b3f67c2b5cd3b6d9596a","session_id":"619be3260778af80abd78ec1","condition":"full-information","relevant_dimensions":["antennae","wings"],"bee_group":{"antennae":"A","wings":"2","pattern":"X","legs":"X"},"bonus":1.8200000000000012},{"rt":1018.5,"stimulus":"bees-with-color/bee-A1SF.svg","response":0,"trial_type":"image-button-response","trial_index":51,"time_elapsed":707101,"internal_node_id":"0.0-4.0-0.22","subject_id":"5ebd495e39fb6f017b95054a","study_id":"6197b3f67c2b5cd3b6d9596a","session_id":"619be3260778af80abd78ec1","condition":"full-information","relevant_dimensions":["antennae","wings"],"bee_group":{"antennae":"A","wings":"2","pattern":"X","legs":"X"},"action":"harvest","summary":"good-harvest","bonus":1.8200000000000012},{"rt":742.2999999523163,"stimulus":"\n                    <p><b>Action: <em>harvest</em></b></p>\n                    <p>This is the bee that you just saw.</p>\n                    <img src=\"bees-with-color/bee-A1SF.svg\" width=\"200\">\n                    <p><span class=\"greenText\"><b>Successful harvest!</b></span><br>Your pay has increased by $0.02. Your bonus pay is now $0.74.</p>\n            ","response":0,"trial_type":"html-button-response","trial_index":52,"time_elapsed":707844,"internal_node_id":"0.0-4.0-1.22","subject_id":"5ebd495e39fb6f017b95054a","study_id":"6197b3f67c2b5cd3b6d9596a","session_id":"619be3260778af80abd78ec1","condition":"full-information","relevant_dimensions":["antennae","wings"],"bee_group":{"antennae":"A","wings":"2","pattern":"X","legs":"X"},"bonus":1.8200000000000012},{"rt":3320.5,"stimulus":"bees-with-color/bee-A2SF.svg","response":1,"trial_type":"image-button-response","trial_index":53,"time_elapsed":711166,"internal_node_id":"0.0-4.0-0.23","subject_id":"5ebd495e39fb6f017b95054a","study_id":"6197b3f67c2b5cd3b6d9596a","session_id":"619be3260778af80abd78ec1","condition":"full-information","relevant_dimensions":["antennae","wings"],"bee_group":{"antennae":"A","wings":"2","pattern":"X","legs":"X"},"action":"avoid","summary":"good-avoid","bonus":1.8200000000000012},{"rt":2669.100000023842,"stimulus":"\n                    <p><b>Action: <em>avoid</em></b></p>\n                    <p>This is the bee that you just saw.</p>\n                    <img src=\"bees-with-color/bee-A2SF.svg\" width=\"200\">\n                    <p><span class=\"greenText\">Good choice!</span>  This bee would have stung you.<br>Your bonus pay is unchanged, and remains at $0.74.</p>\n            ","response":0,"trial_type":"html-button-response","trial_index":54,"time_elapsed":713836,"internal_node_id":"0.0-4.0-1.23","subject_id":"5ebd495e39fb6f017b95054a","study_id":"6197b3f67c2b5cd3b6d9596a","session_id":"619be3260778af80abd78ec1","condition":"full-information","relevant_dimensions":["antennae","wings"],"bee_group":{"antennae":"A","wings":"2","pattern":"X","legs":"X"},"bonus":1.8200000000000012},{"rt":1656.3999999761581,"stimulus":"bees-with-color/bee-B2DM.svg","response":0,"trial_type":"image-button-response","trial_index":55,"time_elapsed":715494,"internal_node_id":"0.0-4.0-0.24","subject_id":"5ebd495e39fb6f017b95054a","study_id":"6197b3f67c2b5cd3b6d9596a","session_id":"619be3260778af80abd78ec1","condition":"full-information","relevant_dimensions":["antennae","wings"],"bee_group":{"antennae":"A","wings":"2","pattern":"X","legs":"X"},"action":"harvest","summary":"good-harvest","bonus":1.8200000000000012},{"rt":1311.1000000238419,"stimulus":"\n                    <p><b>Action: <em>harvest</em></b></p>\n                    <p>This is the bee that you just saw.</p>\n                    <img src=\"bees-with-color/bee-B2DM.svg\" width=\"200\">\n                    <p><span class=\"greenText\"><b>Successful harvest!</b></span><br>Your pay has increased by $0.02. Your bonus pay is now $0.76.</p>\n            ","response":0,"trial_type":"html-button-response","trial_index":56,"time_elapsed":716806,"internal_node_id":"0.0-4.0-1.24","subject_id":"5ebd495e39fb6f017b95054a","study_id":"6197b3f67c2b5cd3b6d9596a","session_id":"619be3260778af80abd78ec1","condition":"full-information","relevant_dimensions":["antennae","wings"],"bee_group":{"antennae":"A","wings":"2","pattern":"X","legs":"X"},"bonus":1.8200000000000012},{"rt":2616.4000000953674,"stimulus":"bees-with-color/bee-B2SF.svg","response":0,"trial_type":"image-button-response","trial_index":57,"time_elapsed":719424,"internal_node_id":"0.0-4.0-0.25","subject_id":"5ebd495e39fb6f017b95054a","study_id":"6197b3f67c2b5cd3b6d9596a","session_id":"619be3260778af80abd78ec1","condition":"full-information","relevant_dimensions":["antennae","wings"],"bee_group":{"antennae":"A","wings":"2","pattern":"X","legs":"X"},"action":"harvest","summary":"good-harvest","bonus":1.8200000000000012},{"rt":1078.5,"stimulus":"\n                    <p><b>Action: <em>harvest</em></b></p>\n                    <p>This is the bee that you just saw.</p>\n                    <img src=\"bees-with-color/bee-B2SF.svg\" width=\"200\">\n                    <p><span class=\"greenText\"><b>Successful harvest!</b></span><br>Your pay has increased by $0.02. Your bonus pay is now $0.78.</p>\n            ","response":0,"trial_type":"html-button-response","trial_index":58,"time_elapsed":720503,"internal_node_id":"0.0-4.0-1.25","subject_id":"5ebd495e39fb6f017b95054a","study_id":"6197b3f67c2b5cd3b6d9596a","session_id":"619be3260778af80abd78ec1","condition":"full-information","relevant_dimensions":["antennae","wings"],"bee_group":{"antennae":"A","wings":"2","pattern":"X","legs":"X"},"bonus":1.8200000000000012},{"rt":1311.4000000953674,"stimulus":"bees-with-color/bee-B2SM.svg","response":0,"trial_type":"image-button-response","trial_index":59,"time_elapsed":721816,"internal_node_id":"0.0-4.0-0.26","subject_id":"5ebd495e39fb6f017b95054a","study_id":"6197b3f67c2b5cd3b6d9596a","session_id":"619be3260778af80abd78ec1","condition":"full-information","relevant_dimensions":["antennae","wings"],"bee_group":{"antennae":"A","wings":"2","pattern":"X","legs":"X"},"action":"harvest","summary":"good-harvest","bonus":1.8200000000000012},{"rt":928.5,"stimulus":"\n                    <p><b>Action: <em>harvest</em></b></p>\n                    <p>This is the bee that you just saw.</p>\n                    <img src=\"bees-with-color/bee-B2SM.svg\" width=\"200\">\n                    <p><span class=\"greenText\"><b>Successful harvest!</b></span><br>Your pay has increased by $0.02. Your bonus pay is now $0.80.</p>\n            ","response":0,"trial_type":"html-button-response","trial_index":60,"time_elapsed":722746,"internal_node_id":"0.0-4.0-1.26","subject_id":"5ebd495e39fb6f017b95054a","study_id":"6197b3f67c2b5cd3b6d9596a","session_id":"619be3260778af80abd78ec1","condition":"full-information","relevant_dimensions":["antennae","wings"],"bee_group":{"antennae":"A","wings":"2","pattern":"X","legs":"X"},"bonus":1.8200000000000012},{"rt":1626.1999999284744,"stimulus":"bees-with-color/bee-A1SM.svg","response":0,"trial_type":"image-button-response","trial_index":61,"time_elapsed":724373,"internal_node_id":"0.0-4.0-0.27","subject_id":"5ebd495e39fb6f017b95054a","study_id":"6197b3f67c2b5cd3b6d9596a","session_id":"619be3260778af80abd78ec1","condition":"full-information","relevant_dimensions":["antennae","wings"],"bee_group":{"antennae":"A","wings":"2","pattern":"X","legs":"X"},"action":"harvest","summary":"good-harvest","bonus":1.8200000000000012},{"rt":718.5,"stimulus":"\n                    <p><b>Action: <em>harvest</em></b></p>\n                    <p>This is the bee that you just saw.</p>\n                    <img src=\"bees-with-color/bee-A1SM.svg\" width=\"200\">\n                    <p><span class=\"greenText\"><b>Successful harvest!</b></span><br>Your pay has increased by $0.02. Your bonus pay is now $0.82.</p>\n            ","response":0,"trial_type":"html-button-response","trial_index":62,"time_elapsed":725093,"internal_node_id":"0.0-4.0-1.27","subject_id":"5ebd495e39fb6f017b95054a","study_id":"6197b3f67c2b5cd3b6d9596a","session_id":"619be3260778af80abd78ec1","condition":"full-information","relevant_dimensions":["antennae","wings"],"bee_group":{"antennae":"A","wings":"2","pattern":"X","legs":"X"},"bonus":1.8200000000000012},{"rt":2300.600000023842,"stimulus":"bees-with-color/bee-A2DF.svg","response":1,"trial_type":"image-button-response","trial_index":63,"time_elapsed":727395,"internal_node_id":"0.0-4.0-0.28","subject_id":"5ebd495e39fb6f017b95054a","study_id":"6197b3f67c2b5cd3b6d9596a","session_id":"619be3260778af80abd78ec1","condition":"full-information","relevant_dimensions":["antennae","wings"],"bee_group":{"antennae":"A","wings":"2","pattern":"X","legs":"X"},"action":"avoid","summary":"good-avoid","bonus":1.8200000000000012},{"rt":2069.3000000715256,"stimulus":"\n                    <p><b>Action: <em>avoid</em></b></p>\n                    <p>This is the bee that you just saw.</p>\n                    <img src=\"bees-with-color/bee-A2DF.svg\" width=\"200\">\n                    <p><span class=\"greenText\">Good choice!</span>  This bee would have stung you.<br>Your bonus pay is unchanged, and remains at $0.82.</p>\n            ","response":0,"trial_type":"html-button-response","trial_index":64,"time_elapsed":729465,"internal_node_id":"0.0-4.0-1.28","subject_id":"5ebd495e39fb6f017b95054a","study_id":"6197b3f67c2b5cd3b6d9596a","session_id":"619be3260778af80abd78ec1","condition":"full-information","relevant_dimensions":["antennae","wings"],"bee_group":{"antennae":"A","wings":"2","pattern":"X","legs":"X"},"bonus":1.8200000000000012},{"rt":1281.6000000238419,"stimulus":"bees-with-color/bee-B1DM.svg","response":0,"trial_type":"image-button-response","trial_index":65,"time_elapsed":730748,"internal_node_id":"0.0-4.0-0.29","subject_id":"5ebd495e39fb6f017b95054a","study_id":"6197b3f67c2b5cd3b6d9596a","session_id":"619be3260778af80abd78ec1","condition":"full-information","relevant_dimensions":["antennae","wings"],"bee_group":{"antennae":"A","wings":"2","pattern":"X","legs":"X"},"action":"harvest","summary":"good-harvest","bonus":1.8200000000000012},{"rt":1116.7999999523163,"stimulus":"\n                    <p><b>Action: <em>harvest</em></b></p>\n                    <p>This is the bee that you just saw.</p>\n                    <img src=\"bees-with-color/bee-B1DM.svg\" width=\"200\">\n                    <p><span class=\"greenText\"><b>Successful harvest!</b></span><br>Your pay has increased by $0.02. Your bonus pay is now $0.84.</p>\n            ","response":0,"trial_type":"html-button-response","trial_index":66,"time_elapsed":731866,"internal_node_id":"0.0-4.0-1.29","subject_id":"5ebd495e39fb6f017b95054a","study_id":"6197b3f67c2b5cd3b6d9596a","session_id":"619be3260778af80abd78ec1","condition":"full-information","relevant_dimensions":["antennae","wings"],"bee_group":{"antennae":"A","wings":"2","pattern":"X","legs":"X"},"bonus":1.8200000000000012},{"rt":1649,"stimulus":"bees-with-color/bee-B1DF.svg","response":0,"trial_type":"image-button-response","trial_index":67,"time_elapsed":733516,"internal_node_id":"0.0-4.0-0.30","subject_id":"5ebd495e39fb6f017b95054a","study_id":"6197b3f67c2b5cd3b6d9596a","session_id":"619be3260778af80abd78ec1","condition":"full-information","relevant_dimensions":["antennae","wings"],"bee_group":{"antennae":"A","wings":"2","pattern":"X","legs":"X"},"action":"harvest","summary":"good-harvest","bonus":1.8200000000000012},{"rt":741.5,"stimulus":"\n                    <p><b>Action: <em>harvest</em></b></p>\n                    <p>This is the bee that you just saw.</p>\n                    <img src=\"bees-with-color/bee-B1DF.svg\" width=\"200\">\n                    <p><span class=\"greenText\"><b>Successful harvest!</b></span><br>Your pay has increased by $0.02. Your bonus pay is now $0.86.</p>\n            ","response":0,"trial_type":"html-button-response","trial_index":68,"time_elapsed":734258,"internal_node_id":"0.0-4.0-1.30","subject_id":"5ebd495e39fb6f017b95054a","study_id":"6197b3f67c2b5cd3b6d9596a","session_id":"619be3260778af80abd78ec1","condition":"full-information","relevant_dimensions":["antennae","wings"],"bee_group":{"antennae":"A","wings":"2","pattern":"X","legs":"X"},"bonus":1.8200000000000012},{"rt":2046.7000000476837,"stimulus":"bees-with-color/bee-A2DM.svg","response":1,"trial_type":"image-button-response","trial_index":69,"time_elapsed":736306,"internal_node_id":"0.0-4.0-0.31","subject_id":"5ebd495e39fb6f017b95054a","study_id":"6197b3f67c2b5cd3b6d9596a","session_id":"619be3260778af80abd78ec1","condition":"full-information","relevant_dimensions":["antennae","wings"],"bee_group":{"antennae":"A","wings":"2","pattern":"X","legs":"X"},"action":"avoid","summary":"good-avoid","bonus":1.8200000000000012},{"rt":1161.1000000238419,"stimulus":"\n                    <p><b>Action: <em>avoid</em></b></p>\n                    <p>This is the bee that you just saw.</p>\n                    <img src=\"bees-with-color/bee-A2DM.svg\" width=\"200\">\n                    <p><span class=\"greenText\">Good choice!</span>  This bee would have stung you.<br>Your bonus pay is unchanged, and remains at $0.86.</p>\n            ","response":0,"trial_type":"html-button-response","trial_index":70,"time_elapsed":737468,"internal_node_id":"0.0-4.0-1.31","subject_id":"5ebd495e39fb6f017b95054a","study_id":"6197b3f67c2b5cd3b6d9596a","session_id":"619be3260778af80abd78ec1","condition":"full-information","relevant_dimensions":["antennae","wings"],"bee_group":{"antennae":"A","wings":"2","pattern":"X","legs":"X"},"bonus":1.8200000000000012},{"rt":2001.5,"stimulus":"bees-with-color/bee-A1SM.svg","response":0,"trial_type":"image-button-response","trial_index":71,"time_elapsed":739471,"internal_node_id":"0.0-4.0-0.32","subject_id":"5ebd495e39fb6f017b95054a","study_id":"6197b3f67c2b5cd3b6d9596a","session_id":"619be3260778af80abd78ec1","condition":"full-information","relevant_dimensions":["antennae","wings"],"bee_group":{"antennae":"A","wings":"2","pattern":"X","legs":"X"},"action":"harvest","summary":"good-harvest","bonus":1.8200000000000012},{"rt":1161.7000000476837,"stimulus":"\n                    <p><b>Action: <em>harvest</em></b></p>\n                    <p>This is the bee that you just saw.</p>\n                    <img src=\"bees-with-color/bee-A1SM.svg\" width=\"200\">\n                    <p><span class=\"greenText\"><b>Successful harvest!</b></span><br>Your pay has increased by $0.02. Your bonus pay is now $0.88.</p>\n            ","response":0,"trial_type":"html-button-response","trial_index":72,"time_elapsed":740633,"internal_node_id":"0.0-4.0-1.32","subject_id":"5ebd495e39fb6f017b95054a","study_id":"6197b3f67c2b5cd3b6d9596a","session_id":"619be3260778af80abd78ec1","condition":"full-information","relevant_dimensions":["antennae","wings"],"bee_group":{"antennae":"A","wings":"2","pattern":"X","legs":"X"},"bonus":1.8200000000000012},{"rt":3388.600000023842,"stimulus":"bees-with-color/bee-B1SF.svg","response":0,"trial_type":"image-button-response","trial_index":73,"time_elapsed":744023,"internal_node_id":"0.0-4.0-0.33","subject_id":"5ebd495e39fb6f017b95054a","study_id":"6197b3f67c2b5cd3b6d9596a","session_id":"619be3260778af80abd78ec1","condition":"full-information","relevant_dimensions":["antennae","wings"],"bee_group":{"antennae":"A","wings":"2","pattern":"X","legs":"X"},"action":"harvest","summary":"good-harvest","bonus":1.8200000000000012},{"rt":951.5999999046326,"stimulus":"\n                    <p><b>Action: <em>harvest</em></b></p>\n                    <p>This is the bee that you just saw.</p>\n                    <img src=\"bees-with-color/bee-B1SF.svg\" width=\"200\">\n                    <p><span class=\"greenText\"><b>Successful harvest!</b></span><br>Your pay has increased by $0.02. Your bonus pay is now $0.90.</p>\n            ","response":0,"trial_type":"html-button-response","trial_index":74,"time_elapsed":744976,"internal_node_id":"0.0-4.0-1.33","subject_id":"5ebd495e39fb6f017b95054a","study_id":"6197b3f67c2b5cd3b6d9596a","session_id":"619be3260778af80abd78ec1","condition":"full-information","relevant_dimensions":["antennae","wings"],"bee_group":{"antennae":"A","wings":"2","pattern":"X","legs":"X"},"bonus":1.8200000000000012},{"rt":1483.7000000476837,"stimulus":"bees-with-color/bee-A1DF.svg","response":0,"trial_type":"image-button-response","trial_index":75,"time_elapsed":746460,"internal_node_id":"0.0-4.0-0.34","subject_id":"5ebd495e39fb6f017b95054a","study_id":"6197b3f67c2b5cd3b6d9596a","session_id":"619be3260778af80abd78ec1","condition":"full-information","relevant_dimensions":["antennae","wings"],"bee_group":{"antennae":"A","wings":"2","pattern":"X","legs":"X"},"action":"harvest","summary":"good-harvest","bonus":1.8200000000000012},{"rt":944,"stimulus":"\n                    <p><b>Action: <em>harvest</em></b></p>\n                    <p>This is the bee that you just saw.</p>\n                    <img src=\"bees-with-color/bee-A1DF.svg\" width=\"200\">\n                    <p><span class=\"greenText\"><b>Successful harvest!</b></span><br>Your pay has increased by $0.02. Your bonus pay is now $0.92.</p>\n            ","response":0,"trial_type":"html-button-response","trial_index":76,"time_elapsed":747405,"internal_node_id":"0.0-4.0-1.34","subject_id":"5ebd495e39fb6f017b95054a","study_id":"6197b3f67c2b5cd3b6d9596a","session_id":"619be3260778af80abd78ec1","condition":"full-information","relevant_dimensions":["antennae","wings"],"bee_group":{"antennae":"A","wings":"2","pattern":"X","legs":"X"},"bonus":1.8200000000000012},{"rt":1626.5,"stimulus":"bees-with-color/bee-A2SM.svg","response":1,"trial_type":"image-button-response","trial_index":77,"time_elapsed":749033,"internal_node_id":"0.0-4.0-0.35","subject_id":"5ebd495e39fb6f017b95054a","study_id":"6197b3f67c2b5cd3b6d9596a","session_id":"619be3260778af80abd78ec1","condition":"full-information","relevant_dimensions":["antennae","wings"],"bee_group":{"antennae":"A","wings":"2","pattern":"X","legs":"X"},"action":"avoid","summary":"good-avoid","bonus":1.8200000000000012},{"rt":793.8000000715256,"stimulus":"\n                    <p><b>Action: <em>avoid</em></b></p>\n                    <p>This is the bee that you just saw.</p>\n                    <img src=\"bees-with-color/bee-A2SM.svg\" width=\"200\">\n                    <p><span class=\"greenText\">Good choice!</span>  This bee would have stung you.<br>Your bonus pay is unchanged, and remains at $0.92.</p>\n            ","response":0,"trial_type":"html-button-response","trial_index":78,"time_elapsed":749828,"internal_node_id":"0.0-4.0-1.35","subject_id":"5ebd495e39fb6f017b95054a","study_id":"6197b3f67c2b5cd3b6d9596a","session_id":"619be3260778af80abd78ec1","condition":"full-information","relevant_dimensions":["antennae","wings"],"bee_group":{"antennae":"A","wings":"2","pattern":"X","legs":"X"},"bonus":1.8200000000000012},{"rt":1776.2999999523163,"stimulus":"bees-with-color/bee-B2SM.svg","response":0,"trial_type":"image-button-response","trial_index":79,"time_elapsed":751605,"internal_node_id":"0.0-4.0-0.36","subject_id":"5ebd495e39fb6f017b95054a","study_id":"6197b3f67c2b5cd3b6d9596a","session_id":"619be3260778af80abd78ec1","condition":"full-information","relevant_dimensions":["antennae","wings"],"bee_group":{"antennae":"A","wings":"2","pattern":"X","legs":"X"},"action":"harvest","summary":"good-harvest","bonus":1.8200000000000012},{"rt":1236.9000000953674,"stimulus":"\n                    <p><b>Action: <em>harvest</em></b></p>\n                    <p>This is the bee that you just saw.</p>\n                    <img src=\"bees-with-color/bee-B2SM.svg\" width=\"200\">\n                    <p><span class=\"greenText\"><b>Successful harvest!</b></span><br>Your pay has increased by $0.02. Your bonus pay is now $0.94.</p>\n            ","response":0,"trial_type":"html-button-response","trial_index":80,"time_elapsed":752843,"internal_node_id":"0.0-4.0-1.36","subject_id":"5ebd495e39fb6f017b95054a","study_id":"6197b3f67c2b5cd3b6d9596a","session_id":"619be3260778af80abd78ec1","condition":"full-information","relevant_dimensions":["antennae","wings"],"bee_group":{"antennae":"A","wings":"2","pattern":"X","legs":"X"},"bonus":1.8200000000000012},{"rt":1582,"stimulus":"bees-with-color/bee-A1DM.svg","response":0,"trial_type":"image-button-response","trial_index":81,"time_elapsed":754426,"internal_node_id":"0.0-4.0-0.37","subject_id":"5ebd495e39fb6f017b95054a","study_id":"6197b3f67c2b5cd3b6d9596a","session_id":"619be3260778af80abd78ec1","condition":"full-information","relevant_dimensions":["antennae","wings"],"bee_group":{"antennae":"A","wings":"2","pattern":"X","legs":"X"},"action":"harvest","summary":"good-harvest","bonus":1.8200000000000012},{"rt":763.7999999523163,"stimulus":"\n                    <p><b>Action: <em>harvest</em></b></p>\n                    <p>This is the bee that you just saw.</p>\n                    <img src=\"bees-with-color/bee-A1DM.svg\" width=\"200\">\n                    <p><span class=\"greenText\"><b>Successful harvest!</b></span><br>Your pay has increased by $0.02. Your bonus pay is now $0.96.</p>\n            ","response":0,"trial_type":"html-button-response","trial_index":82,"time_elapsed":755191,"internal_node_id":"0.0-4.0-1.37","subject_id":"5ebd495e39fb6f017b95054a","study_id":"6197b3f67c2b5cd3b6d9596a","session_id":"619be3260778af80abd78ec1","condition":"full-information","relevant_dimensions":["antennae","wings"],"bee_group":{"antennae":"A","wings":"2","pattern":"X","legs":"X"},"bonus":1.8200000000000012},{"rt":1820.8000000715256,"stimulus":"bees-with-color/bee-A2SF.svg","response":1,"trial_type":"image-button-response","trial_index":83,"time_elapsed":757013,"internal_node_id":"0.0-4.0-0.38","subject_id":"5ebd495e39fb6f017b95054a","study_id":"6197b3f67c2b5cd3b6d9596a","session_id":"619be3260778af80abd78ec1","condition":"full-information","relevant_dimensions":["antennae","wings"],"bee_group":{"antennae":"A","wings":"2","pattern":"X","legs":"X"},"action":"avoid","summary":"good-avoid","bonus":1.8200000000000012},{"rt":1116.2999999523163,"stimulus":"\n                    <p><b>Action: <em>avoid</em></b></p>\n                    <p>This is the bee that you just saw.</p>\n                    <img src=\"bees-with-color/bee-A2SF.svg\" width=\"200\">\n                    <p><span class=\"greenText\">Good choice!</span>  This bee would have stung you.<br>Your bonus pay is unchanged, and remains at $0.96.</p>\n            ","response":0,"trial_type":"html-button-response","trial_index":84,"time_elapsed":758131,"internal_node_id":"0.0-4.0-1.38","subject_id":"5ebd495e39fb6f017b95054a","study_id":"6197b3f67c2b5cd3b6d9596a","session_id":"619be3260778af80abd78ec1","condition":"full-information","relevant_dimensions":["antennae","wings"],"bee_group":{"antennae":"A","wings":"2","pattern":"X","legs":"X"},"bonus":1.8200000000000012},{"rt":1010.7999999523163,"stimulus":"bees-with-color/bee-B1DF.svg","response":0,"trial_type":"image-button-response","trial_index":85,"time_elapsed":759143,"internal_node_id":"0.0-4.0-0.39","subject_id":"5ebd495e39fb6f017b95054a","study_id":"6197b3f67c2b5cd3b6d9596a","session_id":"619be3260778af80abd78ec1","condition":"full-information","relevant_dimensions":["antennae","wings"],"bee_group":{"antennae":"A","wings":"2","pattern":"X","legs":"X"},"action":"harvest","summary":"good-harvest","bonus":1.8200000000000012},{"rt":884.3999999761581,"stimulus":"\n                    <p><b>Action: <em>harvest</em></b></p>\n                    <p>This is the bee that you just saw.</p>\n                    <img src=\"bees-with-color/bee-B1DF.svg\" width=\"200\">\n                    <p><span class=\"greenText\"><b>Successful harvest!</b></span><br>Your pay has increased by $0.02. Your bonus pay is now $0.98.</p>\n            ","response":0,"trial_type":"html-button-response","trial_index":86,"time_elapsed":760028,"internal_node_id":"0.0-4.0-1.39","subject_id":"5ebd495e39fb6f017b95054a","study_id":"6197b3f67c2b5cd3b6d9596a","session_id":"619be3260778af80abd78ec1","condition":"full-information","relevant_dimensions":["antennae","wings"],"bee_group":{"antennae":"A","wings":"2","pattern":"X","legs":"X"},"bonus":1.8200000000000012},{"rt":1551.6000000238419,"stimulus":"bees-with-color/bee-B2SF.svg","response":0,"trial_type":"image-button-response","trial_index":87,"time_elapsed":761581,"internal_node_id":"0.0-4.0-0.40","subject_id":"5ebd495e39fb6f017b95054a","study_id":"6197b3f67c2b5cd3b6d9596a","session_id":"619be3260778af80abd78ec1","condition":"full-information","relevant_dimensions":["antennae","wings"],"bee_group":{"antennae":"A","wings":"2","pattern":"X","legs":"X"},"action":"harvest","summary":"good-harvest","bonus":1.8200000000000012},{"rt":726.8999999761581,"stimulus":"\n                    <p><b>Action: <em>harvest</em></b></p>\n                    <p>This is the bee that you just saw.</p>\n                    <img src=\"bees-with-color/bee-B2SF.svg\" width=\"200\">\n                    <p><span class=\"greenText\"><b>Successful harvest!</b></span><br>Your pay has increased by $0.02. Your bonus pay is now $1.00.</p>\n            ","response":0,"trial_type":"html-button-response","trial_index":88,"time_elapsed":762309,"internal_node_id":"0.0-4.0-1.40","subject_id":"5ebd495e39fb6f017b95054a","study_id":"6197b3f67c2b5cd3b6d9596a","session_id":"619be3260778af80abd78ec1","condition":"full-information","relevant_dimensions":["antennae","wings"],"bee_group":{"antennae":"A","wings":"2","pattern":"X","legs":"X"},"bonus":1.8200000000000012},{"rt":1505.7999999523163,"stimulus":"bees-with-color/bee-B1DM.svg","response":0,"trial_type":"image-button-response","trial_index":89,"time_elapsed":763816,"internal_node_id":"0.0-4.0-0.41","subject_id":"5ebd495e39fb6f017b95054a","study_id":"6197b3f67c2b5cd3b6d9596a","session_id":"619be3260778af80abd78ec1","condition":"full-information","relevant_dimensions":["antennae","wings"],"bee_group":{"antennae":"A","wings":"2","pattern":"X","legs":"X"},"action":"harvest","summary":"good-harvest","bonus":1.8200000000000012},{"rt":771.3999999761581,"stimulus":"\n                    <p><b>Action: <em>harvest</em></b></p>\n                    <p>This is the bee that you just saw.</p>\n                    <img src=\"bees-with-color/bee-B1DM.svg\" width=\"200\">\n                    <p><span class=\"greenText\"><b>Successful harvest!</b></span><br>Your pay has increased by $0.02. Your bonus pay is now $1.02.</p>\n            ","response":0,"trial_type":"html-button-response","trial_index":90,"time_elapsed":764588,"internal_node_id":"0.0-4.0-1.41","subject_id":"5ebd495e39fb6f017b95054a","study_id":"6197b3f67c2b5cd3b6d9596a","session_id":"619be3260778af80abd78ec1","condition":"full-information","relevant_dimensions":["antennae","wings"],"bee_group":{"antennae":"A","wings":"2","pattern":"X","legs":"X"},"bonus":1.8200000000000012},{"rt":2406.2999999523163,"stimulus":"bees-with-color/bee-A2DM.svg","response":1,"trial_type":"image-button-response","trial_index":91,"time_elapsed":766996,"internal_node_id":"0.0-4.0-0.42","subject_id":"5ebd495e39fb6f017b95054a","study_id":"6197b3f67c2b5cd3b6d9596a","session_id":"619be3260778af80abd78ec1","condition":"full-information","relevant_dimensions":["antennae","wings"],"bee_group":{"antennae":"A","wings":"2","pattern":"X","legs":"X"},"action":"avoid","summary":"good-avoid","bonus":1.8200000000000012},{"rt":1153.1999999284744,"stimulus":"\n                    <p><b>Action: <em>avoid</em></b></p>\n                    <p>This is the bee that you just saw.</p>\n                    <img src=\"bees-with-color/bee-A2DM.svg\" width=\"200\">\n                    <p><span class=\"greenText\">Good choice!</span>  This bee would have stung you.<br>Your bonus pay is unchanged, and remains at $1.02.</p>\n            ","response":0,"trial_type":"html-button-response","trial_index":92,"time_elapsed":768150,"internal_node_id":"0.0-4.0-1.42","subject_id":"5ebd495e39fb6f017b95054a","study_id":"6197b3f67c2b5cd3b6d9596a","session_id":"619be3260778af80abd78ec1","condition":"full-information","relevant_dimensions":["antennae","wings"],"bee_group":{"antennae":"A","wings":"2","pattern":"X","legs":"X"},"bonus":1.8200000000000012},{"rt":4297,"stimulus":"bees-with-color/bee-A2DF.svg","response":1,"trial_type":"image-button-response","trial_index":93,"time_elapsed":772448,"internal_node_id":"0.0-4.0-0.43","subject_id":"5ebd495e39fb6f017b95054a","study_id":"6197b3f67c2b5cd3b6d9596a","session_id":"619be3260778af80abd78ec1","condition":"full-information","relevant_dimensions":["antennae","wings"],"bee_group":{"antennae":"A","wings":"2","pattern":"X","legs":"X"},"action":"avoid","summary":"good-avoid","bonus":1.8200000000000012},{"rt":1034.2999999523163,"stimulus":"\n                    <p><b>Action: <em>avoid</em></b></p>\n                    <p>This is the bee that you just saw.</p>\n                    <img src=\"bees-with-color/bee-A2DF.svg\" width=\"200\">\n                    <p><span class=\"greenText\">Good choice!</span>  This bee would have stung you.<br>Your bonus pay is unchanged, and remains at $1.02.</p>\n            ","response":0,"trial_type":"html-button-response","trial_index":94,"time_elapsed":773484,"internal_node_id":"0.0-4.0-1.43","subject_id":"5ebd495e39fb6f017b95054a","study_id":"6197b3f67c2b5cd3b6d9596a","session_id":"619be3260778af80abd78ec1","condition":"full-information","relevant_dimensions":["antennae","wings"],"bee_group":{"antennae":"A","wings":"2","pattern":"X","legs":"X"},"bonus":1.8200000000000012},{"rt":1385.3999999761581,"stimulus":"bees-with-color/bee-B2DM.svg","response":0,"trial_type":"image-button-response","trial_index":95,"time_elapsed":774871,"internal_node_id":"0.0-4.0-0.44","subject_id":"5ebd495e39fb6f017b95054a","study_id":"6197b3f67c2b5cd3b6d9596a","session_id":"619be3260778af80abd78ec1","condition":"full-information","relevant_dimensions":["antennae","wings"],"bee_group":{"antennae":"A","wings":"2","pattern":"X","legs":"X"},"action":"harvest","summary":"good-harvest","bonus":1.8200000000000012},{"rt":1341.1999999284744,"stimulus":"\n                    <p><b>Action: <em>harvest</em></b></p>\n                    <p>This is the bee that you just saw.</p>\n                    <img src=\"bees-with-color/bee-B2DM.svg\" width=\"200\">\n                    <p><span class=\"greenText\"><b>Successful harvest!</b></span><br>Your pay has increased by $0.02. Your bonus pay is now $1.04.</p>\n            ","response":0,"trial_type":"html-button-response","trial_index":96,"time_elapsed":776213,"internal_node_id":"0.0-4.0-1.44","subject_id":"5ebd495e39fb6f017b95054a","study_id":"6197b3f67c2b5cd3b6d9596a","session_id":"619be3260778af80abd78ec1","condition":"full-information","relevant_dimensions":["antennae","wings"],"bee_group":{"antennae":"A","wings":"2","pattern":"X","legs":"X"},"bonus":1.8200000000000012},{"rt":1221.3999999761581,"stimulus":"bees-with-color/bee-B2DF.svg","response":0,"trial_type":"image-button-response","trial_index":97,"time_elapsed":777436,"internal_node_id":"0.0-4.0-0.45","subject_id":"5ebd495e39fb6f017b95054a","study_id":"6197b3f67c2b5cd3b6d9596a","session_id":"619be3260778af80abd78ec1","condition":"full-information","relevant_dimensions":["antennae","wings"],"bee_group":{"antennae":"A","wings":"2","pattern":"X","legs":"X"},"action":"harvest","summary":"good-harvest","bonus":1.8200000000000012},{"rt":1491,"stimulus":"\n                    <p><b>Action: <em>harvest</em></b></p>\n                    <p>This is the bee that you just saw.</p>\n                    <img src=\"bees-with-color/bee-B2DF.svg\" width=\"200\">\n                    <p><span class=\"greenText\"><b>Successful harvest!</b></span><br>Your pay has increased by $0.02. Your bonus pay is now $1.06.</p>\n            ","response":0,"trial_type":"html-button-response","trial_index":98,"time_elapsed":778928,"internal_node_id":"0.0-4.0-1.45","subject_id":"5ebd495e39fb6f017b95054a","study_id":"6197b3f67c2b5cd3b6d9596a","session_id":"619be3260778af80abd78ec1","condition":"full-information","relevant_dimensions":["antennae","wings"],"bee_group":{"antennae":"A","wings":"2","pattern":"X","legs":"X"},"bonus":1.8200000000000012},{"rt":988.7999999523163,"stimulus":"bees-with-color/bee-B1SM.svg","response":0,"trial_type":"image-button-response","trial_index":99,"time_elapsed":779918,"internal_node_id":"0.0-4.0-0.46","subject_id":"5ebd495e39fb6f017b95054a","study_id":"6197b3f67c2b5cd3b6d9596a","session_id":"619be3260778af80abd78ec1","condition":"full-information","relevant_dimensions":["antennae","wings"],"bee_group":{"antennae":"A","wings":"2","pattern":"X","legs":"X"},"action":"harvest","summary":"good-harvest","bonus":1.8200000000000012},{"rt":727.2000000476837,"stimulus":"\n                    <p><b>Action: <em>harvest</em></b></p>\n                    <p>This is the bee that you just saw.</p>\n                    <img src=\"bees-with-color/bee-B1SM.svg\" width=\"200\">\n                    <p><span class=\"greenText\"><b>Successful harvest!</b></span><br>Your pay has increased by $0.02. Your bonus pay is now $1.08.</p>\n            ","response":0,"trial_type":"html-button-response","trial_index":100,"time_elapsed":780646,"internal_node_id":"0.0-4.0-1.46","subject_id":"5ebd495e39fb6f017b95054a","study_id":"6197b3f67c2b5cd3b6d9596a","session_id":"619be3260778af80abd78ec1","condition":"full-information","relevant_dimensions":["antennae","wings"],"bee_group":{"antennae":"A","wings":"2","pattern":"X","legs":"X"},"bonus":1.8200000000000012},{"rt":1462,"stimulus":"bees-with-color/bee-A1SF.svg","response":0,"trial_type":"image-button-response","trial_index":101,"time_elapsed":782109,"internal_node_id":"0.0-4.0-0.47","subject_id":"5ebd495e39fb6f017b95054a","study_id":"6197b3f67c2b5cd3b6d9596a","session_id":"619be3260778af80abd78ec1","condition":"full-information","relevant_dimensions":["antennae","wings"],"bee_group":{"antennae":"A","wings":"2","pattern":"X","legs":"X"},"action":"harvest","summary":"good-harvest","bonus":1.8200000000000012},{"rt":546,"stimulus":"\n                    <p><b>Action: <em>harvest</em></b></p>\n                    <p>This is the bee that you just saw.</p>\n                    <img src=\"bees-with-color/bee-A1SF.svg\" width=\"200\">\n                    <p><span class=\"greenText\"><b>Successful harvest!</b></span><br>Your pay has increased by $0.02. Your bonus pay is now $1.10.</p>\n            ","response":0,"trial_type":"html-button-response","trial_index":102,"time_elapsed":782656,"internal_node_id":"0.0-4.0-1.47","subject_id":"5ebd495e39fb6f017b95054a","study_id":"6197b3f67c2b5cd3b6d9596a","session_id":"619be3260778af80abd78ec1","condition":"full-information","relevant_dimensions":["antennae","wings"],"bee_group":{"antennae":"A","wings":"2","pattern":"X","legs":"X"},"bonus":1.8200000000000012},{"rt":1723.7999999523163,"stimulus":"bees-with-color/bee-A2SM.svg","response":1,"trial_type":"image-button-response","trial_index":103,"time_elapsed":784381,"internal_node_id":"0.0-4.0-0.48","subject_id":"5ebd495e39fb6f017b95054a","study_id":"6197b3f67c2b5cd3b6d9596a","session_id":"619be3260778af80abd78ec1","condition":"full-information","relevant_dimensions":["antennae","wings"],"bee_group":{"antennae":"A","wings":"2","pattern":"X","legs":"X"},"action":"avoid","summary":"good-avoid","bonus":1.8200000000000012},{"rt":1529.1000000238419,"stimulus":"\n                    <p><b>Action: <em>avoid</em></b></p>\n                    <p>This is the bee that you just saw.</p>\n                    <img src=\"bees-with-color/bee-A2SM.svg\" width=\"200\">\n                    <p><span class=\"greenText\">Good choice!</span>  This bee would have stung you.<br>Your bonus pay is unchanged, and remains at $1.10.</p>\n            ","response":0,"trial_type":"html-button-response","trial_index":104,"time_elapsed":785910,"internal_node_id":"0.0-4.0-1.48","subject_id":"5ebd495e39fb6f017b95054a","study_id":"6197b3f67c2b5cd3b6d9596a","session_id":"619be3260778af80abd78ec1","condition":"full-information","relevant_dimensions":["antennae","wings"],"bee_group":{"antennae":"A","wings":"2","pattern":"X","legs":"X"},"bonus":1.8200000000000012},{"rt":1701.7999999523163,"stimulus":"bees-with-color/bee-A2DM.svg","response":1,"trial_type":"image-button-response","trial_index":105,"time_elapsed":787613,"internal_node_id":"0.0-4.0-0.49","subject_id":"5ebd495e39fb6f017b95054a","study_id":"6197b3f67c2b5cd3b6d9596a","session_id":"619be3260778af80abd78ec1","condition":"full-information","relevant_dimensions":["antennae","wings"],"bee_group":{"antennae":"A","wings":"2","pattern":"X","legs":"X"},"action":"avoid","summary":"good-avoid","bonus":1.8200000000000012},{"rt":1101.2999999523163,"stimulus":"\n                    <p><b>Action: <em>avoid</em></b></p>\n                    <p>This is the bee that you just saw.</p>\n                    <img src=\"bees-with-color/bee-A2DM.svg\" width=\"200\">\n                    <p><span class=\"greenText\">Good choice!</span>  This bee would have stung you.<br>Your bonus pay is unchanged, and remains at $1.10.</p>\n            ","response":0,"trial_type":"html-button-response","trial_index":106,"time_elapsed":788715,"internal_node_id":"0.0-4.0-1.49","subject_id":"5ebd495e39fb6f017b95054a","study_id":"6197b3f67c2b5cd3b6d9596a","session_id":"619be3260778af80abd78ec1","condition":"full-information","relevant_dimensions":["antennae","wings"],"bee_group":{"antennae":"A","wings":"2","pattern":"X","legs":"X"},"bonus":1.8200000000000012},{"rt":1003.7000000476837,"stimulus":"bees-with-color/bee-B1SF.svg","response":0,"trial_type":"image-button-response","trial_index":107,"time_elapsed":789720,"internal_node_id":"0.0-4.0-0.50","subject_id":"5ebd495e39fb6f017b95054a","study_id":"6197b3f67c2b5cd3b6d9596a","session_id":"619be3260778af80abd78ec1","condition":"full-information","relevant_dimensions":["antennae","wings"],"bee_group":{"antennae":"A","wings":"2","pattern":"X","legs":"X"},"action":"harvest","summary":"good-harvest","bonus":1.8200000000000012},{"rt":771.6999999284744,"stimulus":"\n                    <p><b>Action: <em>harvest</em></b></p>\n                    <p>This is the bee that you just saw.</p>\n                    <img src=\"bees-with-color/bee-B1SF.svg\" width=\"200\">\n                    <p><span class=\"greenText\"><b>Successful harvest!</b></span><br>Your pay has increased by $0.02. Your bonus pay is now $1.12.</p>\n            ","response":0,"trial_type":"html-button-response","trial_index":108,"time_elapsed":790493,"internal_node_id":"0.0-4.0-1.50","subject_id":"5ebd495e39fb6f017b95054a","study_id":"6197b3f67c2b5cd3b6d9596a","session_id":"619be3260778af80abd78ec1","condition":"full-information","relevant_dimensions":["antennae","wings"],"bee_group":{"antennae":"A","wings":"2","pattern":"X","legs":"X"},"bonus":1.8200000000000012},{"rt":1573.8999999761581,"stimulus":"bees-with-color/bee-A1DF.svg","response":0,"trial_type":"image-button-response","trial_index":109,"time_elapsed":792068,"internal_node_id":"0.0-4.0-0.51","subject_id":"5ebd495e39fb6f017b95054a","study_id":"6197b3f67c2b5cd3b6d9596a","session_id":"619be3260778af80abd78ec1","condition":"full-information","relevant_dimensions":["antennae","wings"],"bee_group":{"antennae":"A","wings":"2","pattern":"X","legs":"X"},"action":"harvest","summary":"good-harvest","bonus":1.8200000000000012},{"rt":1334.1000000238419,"stimulus":"\n                    <p><b>Action: <em>harvest</em></b></p>\n                    <p>This is the bee that you just saw.</p>\n                    <img src=\"bees-with-color/bee-A1DF.svg\" width=\"200\">\n                    <p><span class=\"greenText\"><b>Successful harvest!</b></span><br>Your pay has increased by $0.02. Your bonus pay is now $1.14.</p>\n            ","response":0,"trial_type":"html-button-response","trial_index":110,"time_elapsed":793403,"internal_node_id":"0.0-4.0-1.51","subject_id":"5ebd495e39fb6f017b95054a","study_id":"6197b3f67c2b5cd3b6d9596a","session_id":"619be3260778af80abd78ec1","condition":"full-information","relevant_dimensions":["antennae","wings"],"bee_group":{"antennae":"A","wings":"2","pattern":"X","legs":"X"},"bonus":1.8200000000000012},{"rt":1416.7000000476837,"stimulus":"bees-with-color/bee-B2SM.svg","response":0,"trial_type":"image-button-response","trial_index":111,"time_elapsed":794821,"internal_node_id":"0.0-4.0-0.52","subject_id":"5ebd495e39fb6f017b95054a","study_id":"6197b3f67c2b5cd3b6d9596a","session_id":"619be3260778af80abd78ec1","condition":"full-information","relevant_dimensions":["antennae","wings"],"bee_group":{"antennae":"A","wings":"2","pattern":"X","legs":"X"},"action":"harvest","summary":"good-harvest","bonus":1.8200000000000012},{"rt":1236.7000000476837,"stimulus":"\n                    <p><b>Action: <em>harvest</em></b></p>\n                    <p>This is the bee that you just saw.</p>\n                    <img src=\"bees-with-color/bee-B2SM.svg\" width=\"200\">\n                    <p><span class=\"greenText\"><b>Successful harvest!</b></span><br>Your pay has increased by $0.02. Your bonus pay is now $1.16.</p>\n            ","response":0,"trial_type":"html-button-response","trial_index":112,"time_elapsed":796058,"internal_node_id":"0.0-4.0-1.52","subject_id":"5ebd495e39fb6f017b95054a","study_id":"6197b3f67c2b5cd3b6d9596a","session_id":"619be3260778af80abd78ec1","condition":"full-information","relevant_dimensions":["antennae","wings"],"bee_group":{"antennae":"A","wings":"2","pattern":"X","legs":"X"},"bonus":1.8200000000000012},{"rt":1514.1000000238419,"stimulus":"bees-with-color/bee-A1SM.svg","response":0,"trial_type":"image-button-response","trial_index":113,"time_elapsed":797574,"internal_node_id":"0.0-4.0-0.53","subject_id":"5ebd495e39fb6f017b95054a","study_id":"6197b3f67c2b5cd3b6d9596a","session_id":"619be3260778af80abd78ec1","condition":"full-information","relevant_dimensions":["antennae","wings"],"bee_group":{"antennae":"A","wings":"2","pattern":"X","legs":"X"},"action":"harvest","summary":"good-harvest","bonus":1.8200000000000012},{"rt":868.8999999761581,"stimulus":"\n                    <p><b>Action: <em>harvest</em></b></p>\n                    <p>This is the bee that you just saw.</p>\n                    <img src=\"bees-with-color/bee-A1SM.svg\" width=\"200\">\n                    <p><span class=\"greenText\"><b>Successful harvest!</b></span><br>Your pay has increased by $0.02. Your bonus pay is now $1.18.</p>\n            ","response":0,"trial_type":"html-button-response","trial_index":114,"time_elapsed":798443,"internal_node_id":"0.0-4.0-1.53","subject_id":"5ebd495e39fb6f017b95054a","study_id":"6197b3f67c2b5cd3b6d9596a","session_id":"619be3260778af80abd78ec1","condition":"full-information","relevant_dimensions":["antennae","wings"],"bee_group":{"antennae":"A","wings":"2","pattern":"X","legs":"X"},"bonus":1.8200000000000012},{"rt":1378.5,"stimulus":"bees-with-color/bee-A1DM.svg","response":0,"trial_type":"image-button-response","trial_index":115,"time_elapsed":799823,"internal_node_id":"0.0-4.0-0.54","subject_id":"5ebd495e39fb6f017b95054a","study_id":"6197b3f67c2b5cd3b6d9596a","session_id":"619be3260778af80abd78ec1","condition":"full-information","relevant_dimensions":["antennae","wings"],"bee_group":{"antennae":"A","wings":"2","pattern":"X","legs":"X"},"action":"harvest","summary":"good-harvest","bonus":1.8200000000000012},{"rt":793.7000000476837,"stimulus":"\n                    <p><b>Action: <em>harvest</em></b></p>\n                    <p>This is the bee that you just saw.</p>\n                    <img src=\"bees-with-color/bee-A1DM.svg\" width=\"200\">\n                    <p><span class=\"greenText\"><b>Successful harvest!</b></span><br>Your pay has increased by $0.02. Your bonus pay is now $1.20.</p>\n            ","response":0,"trial_type":"html-button-response","trial_index":116,"time_elapsed":800618,"internal_node_id":"0.0-4.0-1.54","subject_id":"5ebd495e39fb6f017b95054a","study_id":"6197b3f67c2b5cd3b6d9596a","session_id":"619be3260778af80abd78ec1","condition":"full-information","relevant_dimensions":["antennae","wings"],"bee_group":{"antennae":"A","wings":"2","pattern":"X","legs":"X"},"bonus":1.8200000000000012},{"rt":988.7000000476837,"stimulus":"bees-with-color/bee-B1DF.svg","response":0,"trial_type":"image-button-response","trial_index":117,"time_elapsed":801608,"internal_node_id":"0.0-4.0-0.55","subject_id":"5ebd495e39fb6f017b95054a","study_id":"6197b3f67c2b5cd3b6d9596a","session_id":"619be3260778af80abd78ec1","condition":"full-information","relevant_dimensions":["antennae","wings"],"bee_group":{"antennae":"A","wings":"2","pattern":"X","legs":"X"},"action":"harvest","summary":"good-harvest","bonus":1.8200000000000012},{"rt":688.8999999761581,"stimulus":"\n                    <p><b>Action: <em>harvest</em></b></p>\n                    <p>This is the bee that you just saw.</p>\n                    <img src=\"bees-with-color/bee-B1DF.svg\" width=\"200\">\n                    <p><span class=\"greenText\"><b>Successful harvest!</b></span><br>Your pay has increased by $0.02. Your bonus pay is now $1.22.</p>\n            ","response":0,"trial_type":"html-button-response","trial_index":118,"time_elapsed":802298,"internal_node_id":"0.0-4.0-1.55","subject_id":"5ebd495e39fb6f017b95054a","study_id":"6197b3f67c2b5cd3b6d9596a","session_id":"619be3260778af80abd78ec1","condition":"full-information","relevant_dimensions":["antennae","wings"],"bee_group":{"antennae":"A","wings":"2","pattern":"X","legs":"X"},"bonus":1.8200000000000012},{"rt":884.4000000953674,"stimulus":"bees-with-color/bee-B2DM.svg","response":0,"trial_type":"image-button-response","trial_index":119,"time_elapsed":803183,"internal_node_id":"0.0-4.0-0.56","subject_id":"5ebd495e39fb6f017b95054a","study_id":"6197b3f67c2b5cd3b6d9596a","session_id":"619be3260778af80abd78ec1","condition":"full-information","relevant_dimensions":["antennae","wings"],"bee_group":{"antennae":"A","wings":"2","pattern":"X","legs":"X"},"action":"harvest","summary":"good-harvest","bonus":1.8200000000000012},{"rt":748.5,"stimulus":"\n                    <p><b>Action: <em>harvest</em></b></p>\n                    <p>This is the bee that you just saw.</p>\n                    <img src=\"bees-with-color/bee-B2DM.svg\" width=\"200\">\n                    <p><span class=\"greenText\"><b>Successful harvest!</b></span><br>Your pay has increased by $0.02. Your bonus pay is now $1.24.</p>\n            ","response":0,"trial_type":"html-button-response","trial_index":120,"time_elapsed":803933,"internal_node_id":"0.0-4.0-1.56","subject_id":"5ebd495e39fb6f017b95054a","study_id":"6197b3f67c2b5cd3b6d9596a","session_id":"619be3260778af80abd78ec1","condition":"full-information","relevant_dimensions":["antennae","wings"],"bee_group":{"antennae":"A","wings":"2","pattern":"X","legs":"X"},"bonus":1.8200000000000012},{"rt":1460.9000000953674,"stimulus":"bees-with-color/bee-A2SF.svg","response":1,"trial_type":"image-button-response","trial_index":121,"time_elapsed":805395,"internal_node_id":"0.0-4.0-0.57","subject_id":"5ebd495e39fb6f017b95054a","study_id":"6197b3f67c2b5cd3b6d9596a","session_id":"619be3260778af80abd78ec1","condition":"full-information","relevant_dimensions":["antennae","wings"],"bee_group":{"antennae":"A","wings":"2","pattern":"X","legs":"X"},"action":"avoid","summary":"good-avoid","bonus":1.8200000000000012},{"rt":1333.7999999523163,"stimulus":"\n                    <p><b>Action: <em>avoid</em></b></p>\n                    <p>This is the bee that you just saw.</p>\n                    <img src=\"bees-with-color/bee-A2SF.svg\" width=\"200\">\n                    <p><span class=\"greenText\">Good choice!</span>  This bee would have stung you.<br>Your bonus pay is unchanged, and remains at $1.24.</p>\n            ","response":0,"trial_type":"html-button-response","trial_index":122,"time_elapsed":806730,"internal_node_id":"0.0-4.0-1.57","subject_id":"5ebd495e39fb6f017b95054a","study_id":"6197b3f67c2b5cd3b6d9596a","session_id":"619be3260778af80abd78ec1","condition":"full-information","relevant_dimensions":["antennae","wings"],"bee_group":{"antennae":"A","wings":"2","pattern":"X","legs":"X"},"bonus":1.8200000000000012},{"rt":1979,"stimulus":"bees-with-color/bee-A1SF.svg","response":0,"trial_type":"image-button-response","trial_index":123,"time_elapsed":808711,"internal_node_id":"0.0-4.0-0.58","subject_id":"5ebd495e39fb6f017b95054a","study_id":"6197b3f67c2b5cd3b6d9596a","session_id":"619be3260778af80abd78ec1","condition":"full-information","relevant_dimensions":["antennae","wings"],"bee_group":{"antennae":"A","wings":"2","pattern":"X","legs":"X"},"action":"harvest","summary":"good-harvest","bonus":1.8200000000000012},{"rt":928.7000000476837,"stimulus":"\n                    <p><b>Action: <em>harvest</em></b></p>\n                    <p>This is the bee that you just saw.</p>\n                    <img src=\"bees-with-color/bee-A1SF.svg\" width=\"200\">\n                    <p><span class=\"greenText\"><b>Successful harvest!</b></span><br>Your pay has increased by $0.02. Your bonus pay is now $1.26.</p>\n            ","response":0,"trial_type":"html-button-response","trial_index":124,"time_elapsed":809641,"internal_node_id":"0.0-4.0-1.58","subject_id":"5ebd495e39fb6f017b95054a","study_id":"6197b3f67c2b5cd3b6d9596a","session_id":"619be3260778af80abd78ec1","condition":"full-information","relevant_dimensions":["antennae","wings"],"bee_group":{"antennae":"A","wings":"2","pattern":"X","legs":"X"},"bonus":1.8200000000000012},{"rt":1259,"stimulus":"bees-with-color/bee-B2SF.svg","response":0,"trial_type":"image-button-response","trial_index":125,"time_elapsed":810901,"internal_node_id":"0.0-4.0-0.59","subject_id":"5ebd495e39fb6f017b95054a","study_id":"6197b3f67c2b5cd3b6d9596a","session_id":"619be3260778af80abd78ec1","condition":"full-information","relevant_dimensions":["antennae","wings"],"bee_group":{"antennae":"A","wings":"2","pattern":"X","legs":"X"},"action":"harvest","summary":"good-harvest","bonus":1.8200000000000012},{"rt":605.7999999523163,"stimulus":"\n                    <p><b>Action: <em>harvest</em></b></p>\n                    <p>This is the bee that you just saw.</p>\n                    <img src=\"bees-with-color/bee-B2SF.svg\" width=\"200\">\n                    <p><span class=\"greenText\"><b>Successful harvest!</b></span><br>Your pay has increased by $0.02. Your bonus pay is now $1.28.</p>\n            ","response":0,"trial_type":"html-button-response","trial_index":126,"time_elapsed":811508,"internal_node_id":"0.0-4.0-1.59","subject_id":"5ebd495e39fb6f017b95054a","study_id":"6197b3f67c2b5cd3b6d9596a","session_id":"619be3260778af80abd78ec1","condition":"full-information","relevant_dimensions":["antennae","wings"],"bee_group":{"antennae":"A","wings":"2","pattern":"X","legs":"X"},"bonus":1.8200000000000012},{"rt":809.6000000238419,"stimulus":"bees-with-color/bee-B2DF.svg","response":0,"trial_type":"image-button-response","trial_index":127,"time_elapsed":812318,"internal_node_id":"0.0-4.0-0.60","subject_id":"5ebd495e39fb6f017b95054a","study_id":"6197b3f67c2b5cd3b6d9596a","session_id":"619be3260778af80abd78ec1","condition":"full-information","relevant_dimensions":["antennae","wings"],"bee_group":{"antennae":"A","wings":"2","pattern":"X","legs":"X"},"action":"harvest","summary":"good-harvest","bonus":1.8200000000000012},{"rt":763.3000000715256,"stimulus":"\n                    <p><b>Action: <em>harvest</em></b></p>\n                    <p>This is the bee that you just saw.</p>\n                    <img src=\"bees-with-color/bee-B2DF.svg\" width=\"200\">\n                    <p><span class=\"greenText\"><b>Successful harvest!</b></span><br>Your pay has increased by $0.02. Your bonus pay is now $1.30.</p>\n            ","response":0,"trial_type":"html-button-response","trial_index":128,"time_elapsed":813083,"internal_node_id":"0.0-4.0-1.60","subject_id":"5ebd495e39fb6f017b95054a","study_id":"6197b3f67c2b5cd3b6d9596a","session_id":"619be3260778af80abd78ec1","condition":"full-information","relevant_dimensions":["antennae","wings"],"bee_group":{"antennae":"A","wings":"2","pattern":"X","legs":"X"},"bonus":1.8200000000000012},{"rt":1101,"stimulus":"bees-with-color/bee-A2DF.svg","response":1,"trial_type":"image-button-response","trial_index":129,"time_elapsed":814185,"internal_node_id":"0.0-4.0-0.61","subject_id":"5ebd495e39fb6f017b95054a","study_id":"6197b3f67c2b5cd3b6d9596a","session_id":"619be3260778af80abd78ec1","condition":"full-information","relevant_dimensions":["antennae","wings"],"bee_group":{"antennae":"A","wings":"2","pattern":"X","legs":"X"},"action":"avoid","summary":"good-avoid","bonus":1.8200000000000012},{"rt":764.1999999284744,"stimulus":"\n                    <p><b>Action: <em>avoid</em></b></p>\n                    <p>This is the bee that you just saw.</p>\n                    <img src=\"bees-with-color/bee-A2DF.svg\" width=\"200\">\n                    <p><span class=\"greenText\">Good choice!</span>  This bee would have stung you.<br>Your bonus pay is unchanged, and remains at $1.30.</p>\n            ","response":0,"trial_type":"html-button-response","trial_index":130,"time_elapsed":814951,"internal_node_id":"0.0-4.0-1.61","subject_id":"5ebd495e39fb6f017b95054a","study_id":"6197b3f67c2b5cd3b6d9596a","session_id":"619be3260778af80abd78ec1","condition":"full-information","relevant_dimensions":["antennae","wings"],"bee_group":{"antennae":"A","wings":"2","pattern":"X","legs":"X"},"bonus":1.8200000000000012},{"rt":898.8000000715256,"stimulus":"bees-with-color/bee-B1SM.svg","response":0,"trial_type":"image-button-response","trial_index":131,"time_elapsed":815850,"internal_node_id":"0.0-4.0-0.62","subject_id":"5ebd495e39fb6f017b95054a","study_id":"6197b3f67c2b5cd3b6d9596a","session_id":"619be3260778af80abd78ec1","condition":"full-information","relevant_dimensions":["antennae","wings"],"bee_group":{"antennae":"A","wings":"2","pattern":"X","legs":"X"},"action":"harvest","summary":"good-harvest","bonus":1.8200000000000012},{"rt":921,"stimulus":"\n                    <p><b>Action: <em>harvest</em></b></p>\n                    <p>This is the bee that you just saw.</p>\n                    <img src=\"bees-with-color/bee-B1SM.svg\" width=\"200\">\n                    <p><span class=\"greenText\"><b>Successful harvest!</b></span><br>Your pay has increased by $0.02. Your bonus pay is now $1.32.</p>\n            ","response":0,"trial_type":"html-button-response","trial_index":132,"time_elapsed":816773,"internal_node_id":"0.0-4.0-1.62","subject_id":"5ebd495e39fb6f017b95054a","study_id":"6197b3f67c2b5cd3b6d9596a","session_id":"619be3260778af80abd78ec1","condition":"full-information","relevant_dimensions":["antennae","wings"],"bee_group":{"antennae":"A","wings":"2","pattern":"X","legs":"X"},"bonus":1.8200000000000012},{"rt":1161.2999999523163,"stimulus":"bees-with-color/bee-B1DM.svg","response":0,"trial_type":"image-button-response","trial_index":133,"time_elapsed":817935,"internal_node_id":"0.0-4.0-0.63","subject_id":"5ebd495e39fb6f017b95054a","study_id":"6197b3f67c2b5cd3b6d9596a","session_id":"619be3260778af80abd78ec1","condition":"full-information","relevant_dimensions":["antennae","wings"],"bee_group":{"antennae":"A","wings":"2","pattern":"X","legs":"X"},"action":"harvest","summary":"good-harvest","bonus":1.8200000000000012},{"rt":719.3999999761581,"stimulus":"\n                    <p><b>Action: <em>harvest</em></b></p>\n                    <p>This is the bee that you just saw.</p>\n                    <img src=\"bees-with-color/bee-B1DM.svg\" width=\"200\">\n                    <p><span class=\"greenText\"><b>Successful harvest!</b></span><br>Your pay has increased by $0.02. Your bonus pay is now $1.34.</p>\n            ","response":0,"trial_type":"html-button-response","trial_index":134,"time_elapsed":818656,"internal_node_id":"0.0-4.0-1.63","subject_id":"5ebd495e39fb6f017b95054a","study_id":"6197b3f67c2b5cd3b6d9596a","session_id":"619be3260778af80abd78ec1","condition":"full-information","relevant_dimensions":["antennae","wings"],"bee_group":{"antennae":"A","wings":"2","pattern":"X","legs":"X"},"bonus":1.8200000000000012},{"rt":4334.199999928474,"stimulus":"You have completed the first part of this experiment.<br><br>You will now begin a shorter second part, in which you will receive no feedback.<br>The same rules regarding bonus pay apply.<br><br>Press any key to begin.","response":"j","trial_type":"html-keyboard-response","trial_index":135,"time_elapsed":822992,"internal_node_id":"0.0-5.0","subject_id":"5ebd495e39fb6f017b95054a","study_id":"6197b3f67c2b5cd3b6d9596a","session_id":"619be3260778af80abd78ec1","condition":"full-information","relevant_dimensions":["antennae","wings"],"bee_group":{"antennae":"A","wings":"2","pattern":"X","legs":"X"},"bonus":1.8200000000000012},{"rt":4649,"stimulus":"bees-with-color/bee-B1SM.svg","response":0,"trial_type":"image-button-response","trial_index":136,"time_elapsed":827648,"internal_node_id":"0.0-6.0-0.0","subject_id":"5ebd495e39fb6f017b95054a","study_id":"6197b3f67c2b5cd3b6d9596a","session_id":"619be3260778af80abd78ec1","condition":"full-information","relevant_dimensions":["antennae","wings"],"bee_group":{"antennae":"A","wings":"2","pattern":"X","legs":"X"},"bonus":1.8200000000000012},{"rt":1183.3999999761581,"stimulus":"bees-with-color/bee-A1DM.svg","response":0,"trial_type":"image-button-response","trial_index":137,"time_elapsed":828833,"internal_node_id":"0.0-6.0-0.1","subject_id":"5ebd495e39fb6f017b95054a","study_id":"6197b3f67c2b5cd3b6d9596a","session_id":"619be3260778af80abd78ec1","condition":"full-information","relevant_dimensions":["antennae","wings"],"bee_group":{"antennae":"A","wings":"2","pattern":"X","legs":"X"},"bonus":1.8200000000000012},{"rt":1161.6000000238419,"stimulus":"bees-with-color/bee-B2SF.svg","response":0,"trial_type":"image-button-response","trial_index":138,"time_elapsed":829996,"internal_node_id":"0.0-6.0-0.2","subject_id":"5ebd495e39fb6f017b95054a","study_id":"6197b3f67c2b5cd3b6d9596a","session_id":"619be3260778af80abd78ec1","condition":"full-information","relevant_dimensions":["antennae","wings"],"bee_group":{"antennae":"A","wings":"2","pattern":"X","legs":"X"},"bonus":1.8200000000000012},{"rt":801.2000000476837,"stimulus":"bees-with-color/bee-B2SM.svg","response":0,"trial_type":"image-button-response","trial_index":139,"time_elapsed":830798,"internal_node_id":"0.0-6.0-0.3","subject_id":"5ebd495e39fb6f017b95054a","study_id":"6197b3f67c2b5cd3b6d9596a","session_id":"619be3260778af80abd78ec1","condition":"full-information","relevant_dimensions":["antennae","wings"],"bee_group":{"antennae":"A","wings":"2","pattern":"X","legs":"X"},"bonus":1.8200000000000012},{"rt":1184.1000000238419,"stimulus":"bees-with-color/bee-A2DM.svg","response":1,"trial_type":"image-button-response","trial_index":140,"time_elapsed":831983,"internal_node_id":"0.0-6.0-0.4","subject_id":"5ebd495e39fb6f017b95054a","study_id":"6197b3f67c2b5cd3b6d9596a","session_id":"619be3260778af80abd78ec1","condition":"full-information","relevant_dimensions":["antennae","wings"],"bee_group":{"antennae":"A","wings":"2","pattern":"X","legs":"X"},"bonus":1.8200000000000012},{"rt":3298.0999999046326,"stimulus":"bees-with-color/bee-B2DF.svg","response":0,"trial_type":"image-button-response","trial_index":141,"time_elapsed":835283,"internal_node_id":"0.0-6.0-0.5","subject_id":"5ebd495e39fb6f017b95054a","study_id":"6197b3f67c2b5cd3b6d9596a","session_id":"619be3260778af80abd78ec1","condition":"full-information","relevant_dimensions":["antennae","wings"],"bee_group":{"antennae":"A","wings":"2","pattern":"X","legs":"X"},"bonus":1.8200000000000012},{"rt":1520.6000000238419,"stimulus":"bees-with-color/bee-B1DM.svg","response":0,"trial_type":"image-button-response","trial_index":142,"time_elapsed":836806,"internal_node_id":"0.0-6.0-0.6","subject_id":"5ebd495e39fb6f017b95054a","study_id":"6197b3f67c2b5cd3b6d9596a","session_id":"619be3260778af80abd78ec1","condition":"full-information","relevant_dimensions":["antennae","wings"],"bee_group":{"antennae":"A","wings":"2","pattern":"X","legs":"X"},"bonus":1.8200000000000012},{"rt":1033.8000000715256,"stimulus":"bees-with-color/bee-A2SF.svg","response":1,"trial_type":"image-button-response","trial_index":143,"time_elapsed":837841,"internal_node_id":"0.0-6.0-0.7","subject_id":"5ebd495e39fb6f017b95054a","study_id":"6197b3f67c2b5cd3b6d9596a","session_id":"619be3260778af80abd78ec1","condition":"full-information","relevant_dimensions":["antennae","wings"],"bee_group":{"antennae":"A","wings":"2","pattern":"X","legs":"X"},"bonus":1.8200000000000012},{"rt":1326,"stimulus":"bees-with-color/bee-A1SM.svg","response":0,"trial_type":"image-button-response","trial_index":144,"time_elapsed":839168,"internal_node_id":"0.0-6.0-0.8","subject_id":"5ebd495e39fb6f017b95054a","study_id":"6197b3f67c2b5cd3b6d9596a","session_id":"619be3260778af80abd78ec1","condition":"full-information","relevant_dimensions":["antennae","wings"],"bee_group":{"antennae":"A","wings":"2","pattern":"X","legs":"X"},"bonus":1.8200000000000012},{"rt":1370.8000000715256,"stimulus":"bees-with-color/bee-A2DF.svg","response":1,"trial_type":"image-button-response","trial_index":145,"time_elapsed":840540,"internal_node_id":"0.0-6.0-0.9","subject_id":"5ebd495e39fb6f017b95054a","study_id":"6197b3f67c2b5cd3b6d9596a","session_id":"619be3260778af80abd78ec1","condition":"full-information","relevant_dimensions":["antennae","wings"],"bee_group":{"antennae":"A","wings":"2","pattern":"X","legs":"X"},"bonus":1.8200000000000012},{"rt":1071.6000000238419,"stimulus":"bees-with-color/bee-B2DM.svg","response":0,"trial_type":"image-button-response","trial_index":146,"time_elapsed":841613,"internal_node_id":"0.0-6.0-0.10","subject_id":"5ebd495e39fb6f017b95054a","study_id":"6197b3f67c2b5cd3b6d9596a","session_id":"619be3260778af80abd78ec1","condition":"full-information","relevant_dimensions":["antennae","wings"],"bee_group":{"antennae":"A","wings":"2","pattern":"X","legs":"X"},"bonus":1.8200000000000012},{"rt":1205.6000000238419,"stimulus":"bees-with-color/bee-A1DF.svg","response":0,"trial_type":"image-button-response","trial_index":147,"time_elapsed":842820,"internal_node_id":"0.0-6.0-0.11","subject_id":"5ebd495e39fb6f017b95054a","study_id":"6197b3f67c2b5cd3b6d9596a","session_id":"619be3260778af80abd78ec1","condition":"full-information","relevant_dimensions":["antennae","wings"],"bee_group":{"antennae":"A","wings":"2","pattern":"X","legs":"X"},"bonus":1.8200000000000012},{"rt":1138.1999999284744,"stimulus":"bees-with-color/bee-A2SM.svg","response":1,"trial_type":"image-button-response","trial_index":148,"time_elapsed":843960,"internal_node_id":"0.0-6.0-0.12","subject_id":"5ebd495e39fb6f017b95054a","study_id":"6197b3f67c2b5cd3b6d9596a","session_id":"619be3260778af80abd78ec1","condition":"full-information","relevant_dimensions":["antennae","wings"],"bee_group":{"antennae":"A","wings":"2","pattern":"X","legs":"X"},"bonus":1.8200000000000012},{"rt":1896.6000000238419,"stimulus":"bees-with-color/bee-B1DF.svg","response":0,"trial_type":"image-button-response","trial_index":149,"time_elapsed":845858,"internal_node_id":"0.0-6.0-0.13","subject_id":"5ebd495e39fb6f017b95054a","study_id":"6197b3f67c2b5cd3b6d9596a","session_id":"619be3260778af80abd78ec1","condition":"full-information","relevant_dimensions":["antennae","wings"],"bee_group":{"antennae":"A","wings":"2","pattern":"X","legs":"X"},"bonus":1.8200000000000012},{"rt":523.3000000715256,"stimulus":"bees-with-color/bee-B1SF.svg","response":0,"trial_type":"image-button-response","trial_index":150,"time_elapsed":846383,"internal_node_id":"0.0-6.0-0.14","subject_id":"5ebd495e39fb6f017b95054a","study_id":"6197b3f67c2b5cd3b6d9596a","session_id":"619be3260778af80abd78ec1","condition":"full-information","relevant_dimensions":["antennae","wings"],"bee_group":{"antennae":"A","wings":"2","pattern":"X","legs":"X"},"bonus":1.8200000000000012},{"rt":1093.6000000238419,"stimulus":"bees-with-color/bee-A1SF.svg","response":0,"trial_type":"image-button-response","trial_index":151,"time_elapsed":847477,"internal_node_id":"0.0-6.0-0.15","subject_id":"5ebd495e39fb6f017b95054a","study_id":"6197b3f67c2b5cd3b6d9596a","session_id":"619be3260778af80abd78ec1","condition":"full-information","relevant_dimensions":["antennae","wings"],"bee_group":{"antennae":"A","wings":"2","pattern":"X","legs":"X"},"bonus":1.8200000000000012},{"rt":2175.0999999046326,"stimulus":"bees-with-color/bee-A1SF.svg","response":0,"trial_type":"image-button-response","trial_index":152,"time_elapsed":849654,"internal_node_id":"0.0-6.0-0.16","subject_id":"5ebd495e39fb6f017b95054a","study_id":"6197b3f67c2b5cd3b6d9596a","session_id":"619be3260778af80abd78ec1","condition":"full-information","relevant_dimensions":["antennae","wings"],"bee_group":{"antennae":"A","wings":"2","pattern":"X","legs":"X"},"bonus":1.8200000000000012},{"rt":1160.3000000715256,"stimulus":"bees-with-color/bee-A1DF.svg","response":0,"trial_type":"image-button-response","trial_index":153,"time_elapsed":850815,"internal_node_id":"0.0-6.0-0.17","subject_id":"5ebd495e39fb6f017b95054a","study_id":"6197b3f67c2b5cd3b6d9596a","session_id":"619be3260778af80abd78ec1","condition":"full-information","relevant_dimensions":["antennae","wings"],"bee_group":{"antennae":"A","wings":"2","pattern":"X","legs":"X"},"bonus":1.8200000000000012},{"rt":816,"stimulus":"bees-with-color/bee-B1SF.svg","response":0,"trial_type":"image-button-response","trial_index":154,"time_elapsed":851633,"internal_node_id":"0.0-6.0-0.18","subject_id":"5ebd495e39fb6f017b95054a","study_id":"6197b3f67c2b5cd3b6d9596a","session_id":"619be3260778af80abd78ec1","condition":"full-information","relevant_dimensions":["antennae","wings"],"bee_group":{"antennae":"A","wings":"2","pattern":"X","legs":"X"},"bonus":1.8200000000000012},{"rt":824,"stimulus":"bees-with-color/bee-B2DF.svg","response":0,"trial_type":"image-button-response","trial_index":155,"time_elapsed":852458,"internal_node_id":"0.0-6.0-0.19","subject_id":"5ebd495e39fb6f017b95054a","study_id":"6197b3f67c2b5cd3b6d9596a","session_id":"619be3260778af80abd78ec1","condition":"full-information","relevant_dimensions":["antennae","wings"],"bee_group":{"antennae":"A","wings":"2","pattern":"X","legs":"X"},"bonus":1.8200000000000012},{"rt":733,"stimulus":"bees-with-color/bee-B2SF.svg","response":0,"trial_type":"image-button-response","trial_index":156,"time_elapsed":853193,"internal_node_id":"0.0-6.0-0.20","subject_id":"5ebd495e39fb6f017b95054a","study_id":"6197b3f67c2b5cd3b6d9596a","session_id":"619be3260778af80abd78ec1","condition":"full-information","relevant_dimensions":["antennae","wings"],"bee_group":{"antennae":"A","wings":"2","pattern":"X","legs":"X"},"bonus":1.8200000000000012},{"rt":1176,"stimulus":"bees-with-color/bee-A2DF.svg","response":1,"trial_type":"image-button-response","trial_index":157,"time_elapsed":854